time_ms,ax,ay,az,gx,gy,gz
2589031.0,-4.4939,2.399,9.1482,-0.5342,0.3124,0.049
2589041.0,-3.9241,2.1261,9.4308,-0.6018,0.274,0.0814
2589051.0,-4.3766,2.1715,9.3326,-0.5933,0.2586,0.1176
2589061.0,-4.853,2.1739,9.335,-0.6114,0.1932,0.157
2589071.0,-4.5274,2.1308,8.9807,-0.5811,0.1282,0.1963
2589081.0,-4.3311,1.9345,8.8274,-0.5263,0.1155,0.2501
2589091.0,-4.2401,1.6735,8.6766,-0.4454,0.1352,0.3076
2589101.0,-4.0294,1.2713,8.7005,-0.356,0.1575,0.3491
2589111.0,-3.869,1.0654,8.6335,-0.2458,0.1894,0.3586
2589121.0,-3.9792,1.1708,8.5042,-0.1719,0.2187,0.3427
2589131.0,-4.1228,1.3024,8.442,-0.2027,0.2033,0.3235
2589141.0,-4.063,1.3408,8.3079,-0.2911,0.1783,0.3129
2589151.0,-3.9433,1.2139,8.3725,-0.3826,0.1777,0.3086
2589161.0,-3.8642,0.9864,8.4324,-0.4369,0.1958,0.3017
2589171.0,-3.814,0.7494,8.6311,-0.4587,0.1995,0.282
2589181.0,-3.6176,0.4693,8.4898,-0.4603,0.1692,0.2464
2589191.0,-3.3758,0.8906,8.3773,-0.4166,0.158,0.1974
2589201.0,-3.3232,0.8835,8.2672,-0.2964,0.223,0.1628
2589211.0,-3.7445,0.996,8.1714,-0.1756,0.3145,0.1352
2589221.0,-3.6488,1.0223,8.169,-0.1671,0.3379,0.1064
2589231.0,-3.4453,1.0104,8.0756,-0.2341,0.3283,0.0686
2589241.0,-3.4572,1.0175,8.0086,-0.3161,0.3235,0.0234
2589251.0,-3.474,1.0463,7.9559,-0.3555,0.3347,-0.0074
2589261.0,-3.3279,0.8906,8.0278,-0.3108,0.3964,-0.0202
2589271.0,-3.3327,0.8092,8.1068,-0.1889,0.4736,-0.0394
2589281.0,-3.4093,0.9697,7.9918,-0.049,0.5438,-0.075
2589291.0,-3.5123,1.3336,7.9033,0.05,0.622,-0.1139
2589301.0,-3.7158,1.7717,7.9057,0.0639,0.7077,-0.141
2589311.0,-3.9073,2.0949,8.0876,-0.0239,0.7609,-0.1485
2589321.0,-4.1994,2.2098,8.3773,-0.1772,0.7742,-0.1389
2589331.0,-4.3335,2.1763,8.6335,-0.3352,0.7402,-0.1144
2589341.0,-4.4101,2.0877,8.7604,-0.431,0.6854,-0.0782
2589351.0,-4.209,1.8172,8.7269,-0.4241,0.6502,-0.0346
2589361.0,-3.9121,1.6735,8.7724,-0.29,0.6822,-0.0112
2589371.0,-4.1228,2.0518,8.825,0.0096,0.8583,0.0011
2589381.0,-4.9225,2.6815,9.3087,0.2677,1.0488,0.0266
2589391.0,-5.5522,3.1795,9.6582,0.3134,1.0797,0.0729
2589401.0,-5.9137,3.4333,9.8402,0.1341,0.9786,0.1389
2589411.0,-5.9687,3.3615,9.9216,-0.1554,0.8477,0.2208
2589421.0,-5.9855,2.9664,10.2831,-0.4145,0.7742,0.3113
2589431.0,-6.0286,2.399,10.9415,-0.5752,0.7237,0.4028
2589441.0,-6.1507,2.1045,11.4467,-0.6311,0.6093,0.4757
2589451.0,-6.2776,2.0111,11.7364,-0.6162,0.4198,0.5502
2589461.0,-6.3518,1.9656,11.6047,-0.4475,0.2677,0.655
2589471.0,-6.4572,2.0039,11.6598,-0.1133,0.2251,0.7833
2589481.0,-6.6152,2.5187,11.4419,0.3533,0.249,0.9392
2589491.0,-7.0102,2.5355,11.3868,0.779,0.2772,1.11
2589501.0,-7.1658,2.4062,10.7356,1.0456,0.2293,1.2537
2589511.0,-7.3981,0.7949,10.0604,1.0658,0.166,1.3526
2589521.0,-5.8634,0.3448,5.624,0.6348,0.0564,1.3649
2589531.0,-5.7988,-2.1428,12.3182,-0.6619,0.1602,1.0866
2589541.0,-6.4117,0.5602,9.6391,-0.3757,0.223,0.8477
2589551.0,-7.7405,-0.8715,13.9821,-0.6705,0.1426,0.7274
2589561.0,-7.4388,-0.2322,9.9431,-0.3022,-0.0745,0.7013
2589571.0,-6.9264,-2.2482,13.7355,-0.5715,-0.0899,0.5561
2589581.0,-6.3327,-1.1157,10.5153,-0.2331,-0.1564,0.3842
2589591.0,-6.9001,-1.9082,12.7779,-0.6311,-0.2091,0.1229
2589601.0,-7.2616,-0.7997,12.0261,-0.7907,-0.4448,-0.1415
2589611.0,-7.501,-0.4501,12.785,-1.0397,-0.6449,-0.3464
2589621.0,-7.58,0.2059,12.0668,-1.061,-0.8397,-0.4683
2589631.0,-7.7476,0.4932,12.232,-1.0935,-0.9812,-0.5438
2589641.0,-7.6686,0.9026,11.8705,-0.9988,-1.1297,-0.5731
2589651.0,-7.7045,1.2378,11.5377,-0.8322,-1.2318,-0.5614
2589661.0,-7.5274,1.5347,11.0325,-0.6258,-1.3026,-0.5071
2589671.0,-7.3454,1.5227,10.8984,-0.423,-1.3042,-0.4326
2589681.0,-7.2065,1.5395,10.6398,-0.2916,-1.3191,-0.3688
2589691.0,-7.1611,1.482,10.6997,-0.3384,-1.3729,-0.3453
2589701.0,-7.082,1.4006,10.7955,-0.5444,-1.5245,-0.3634
2589711.0,-6.9983,1.1779,10.9511,-0.7668,-1.723,-0.3948
2589721.0,-6.8019,0.9457,10.6494,-0.8354,-1.8954,-0.4135
2589731.0,-6.4332,0.4525,10.6662,-0.7934,-2.0034,-0.4198
2589741.0,-6.2153,0.328,10.4244,-0.6071,-2.0896,-0.4273
2589751.0,-5.9664,0.328,9.9862,-0.3581,-2.1886,-0.4236
2589761.0,-5.5091,0.3112,9.1842,-0.0463,-2.2434,-0.4012
2589772.0,-4.7812,0.9768,7.2233,0.3555,-2.1487,-0.3895
2589781.0,-4.7812,0.9768,7.2233,0.3555,-2.1487,-0.3895
2589791.0,-4.6807,1.2546,7.0485,0.3134,-2.0353,-0.3821
2589801.0,-4.5011,1.2546,7.2401,0.2033,-1.9486,-0.3613
2589811.0,-4.1731,1.0439,7.3478,0.1139,-1.9098,-0.3374
2589821.0,-3.7733,0.7278,7.1874,0.0506,-1.9044,-0.3214
2589831.0,-3.2633,0.4573,6.8714,0.0234,-1.8778,-0.3198
2589841.0,-2.727,0.2203,6.4428,0.0064,-1.7959,-0.34
2589851.0,-2.4565,0.2682,6.2465,-0.0266,-1.6575,-0.3858
2589861.0,-2.5019,0.6488,6.2417,-0.1059,-1.4984,-0.4395
2589871.0,-2.4924,0.9457,6.6894,-0.2155,-1.3755,-0.4725
2589881.0,-2.5163,1.1492,6.9264,-0.2767,-1.2904,-0.4635
2589891.0,-2.2098,0.9098,7.3598,-0.3113,-1.2361,-0.4124
2589901.0,-1.7741,0.5507,7.4244,-0.2187,-1.1744,-0.3459
2589911.0,-1.3815,0.2011,7.3598,-0.0676,-1.0962,-0.2937
2589921.0,-1.0175,0.0287,7.2472,0.1181,-0.9876,-0.2607
2589931.0,-0.8763,-0.0527,6.9983,0.2645,-0.8663,-0.2442
2589941.0,-0.6369,-0.2203,7.0892,0.3044,-0.7748,-0.249
2589951.0,-0.2658,-0.3232,6.8738,0.3209,-0.6933,-0.273
2589961.0,-0.1221,-0.2442,6.7349,0.2889,-0.5811,-0.3209
2589971.0,-0.0886,0.0814,6.8522,0.2059,-0.4608,-0.3677
2589981.0,-0.1245,0.2993,7.2305,0.1437,-0.3315,-0.3831
2589991.0,0.0599,0.3448,7.6543,0.083,-0.2304,-0.3735
2590001.0,0.2921,0.4118,8.1738,0.0463,-0.1548,-0.3656
2590011.0,-0.0192,0.3735,8.6933,0.0708,-0.1293,-0.3645
2590021.0,0.2227,0.486,8.3246,0.083,-0.166,-0.3501
2590031.0,0.2274,0.5794,8.3534,0.0777,-0.1213,-0.3416
2590041.0,0.0168,0.5938,8.4659,0.0692,-0.0708,-0.3283
2590051.0,0.0455,0.2203,8.9519,0.0708,-0.0335,-0.3124
2590061.0,0.0646,-0.0455,9.3134,0.174,0.0388,-0.3054
2590071.0,-0.1413,-0.091,9.9168,0.2719,0.0681,-0.3251
2590081.0,-0.3615,0.0622,10.2472,0.3459,0.0096,-0.3544
2590091.0,-0.3352,0.2801,10.2759,0.4172,-0.0835,-0.3762
2590101.0,-0.328,0.5435,9.9814,0.4997,-0.1564,-0.3847
2590111.0,-0.2538,0.8523,9.4403,0.5401,-0.215,-0.3863
2590121.0,-0.2083,1.2115,8.9902,0.5193,-0.2357,-0.3906
2590131.0,-0.3304,1.6759,8.4013,0.4592,-0.241,-0.381
2590141.0,-0.3903,1.561,8.0948,0.3427,-0.2267,-0.3437
2590151.0,0.0551,1.2857,7.7668,0.24,-0.1958,-0.3086
2590161.0,0.3328,1.2282,7.5657,0.1479,-0.1256,-0.306
2590171.0,0.3926,1.4916,7.3981,0.0452,-0.0585,-0.3171
2590181.0,0.3304,1.9082,7.3334,-0.0681,0.0202,-0.3113
2590191.0,0.3041,2.3727,7.4412,-0.1399,0.1224,-0.2692
2590201.0,0.2131,2.5019,7.6662,-0.1751,0.2192,-0.1862
2590211.0,0.1101,2.5594,7.7644,-0.1506,0.2826,-0.0846
2590221.0,0.0886,2.4517,7.5681,-0.0894,0.3108,0.0197
2590231.0,0.0646,2.2984,7.0485,-0.0245,0.3161,0.1091
2590241.0,0.1341,2.1787,6.1699,0.0325,0.3288,0.1767
2590251.0,0.2083,2.2936,4.7214,0.067,0.3757,0.2272
2590261.0,0.3017,2.1907,3.5961,0.0144,0.4959,0.2703
2590271.0,1.1564,2.0566,2.5379,-0.0261,0.6891,0.3113
2590281.0,0.2945,2.1141,2.0686,-0.1011,0.9307,0.3406
2590291.0,-1.585,2.3535,1.1851,-0.1421,1.0876,0.3868
2590301.0,-2.1644,2.4517,0.3879,-0.0255,1.2356,0.4576
2590311.0,-1.8483,2.7509,-0.7039,0.589,1.6432,0.5624
2590321.0,-2.4229,3.2657,-2.0925,1.7038,2.4653,0.7077
2590331.0,-3.5554,3.984,-3.7326,2.8457,3.455,0.8493
2590341.0,-5.6144,4.5993,-4.3024,3.5274,4.4016,0.9168
2590351.0,-5.4013,5.5617,0.3376,4.0967,5.7553,0.9371
2590361.0,-10.9607,5.8586,1.8603,3.969,6.4896,0.9535
2590371.0,-10.8194,3.2178,9.7157,2.5494,6.5748,0.82
2590381.0,-12.5767,3.1627,14.2551,1.5155,6.4636,0.5518
2590391.0,-9.1339,-0.1772,21.4066,0.3762,5.7516,0.2618
2590401.0,-10.2256,-0.7087,24.452,-0.133,5.1253,-0.0239
2590411.0,-11.394,-0.316,28.3162,-0.8429,4.0398,-0.3757
2590421.0,-9.8928,-0.2538,27.3705,-1.5256,2.3189,-0.6417
2590431.0,-10.2735,0.486,25.4264,-1.7762,1.0946,-0.8269
2590441.0,-9.5433,1.063,21.2294,-1.5415,0.2059,-0.8721
2590451.0,-8.8992,1.1588,17.4394,-1.1749,-0.3267,-0.8631
2590461.0,-8.1283,1.8962,13.3357,-0.6449,-0.4651,-0.8322
2590471.0,-7.5465,2.2386,11.4515,-0.2166,-0.3602,-0.7891
2590481.0,-7.1994,3.1077,9.1842,0.3065,-0.1548,-0.7263
2590491.0,-7.0126,3.7278,8.5928,0.6604,0.1235,-0.6364
2590501.0,-6.7756,4.604,7.8266,0.97,0.4204,-0.5066
2590511.0,-6.5553,4.5131,8.5186,1.0238,0.7072,-0.3618
2590521.0,-6.5218,4.2808,9.5505,0.9259,0.9088,-0.2586
2590531.0,-6.7038,3.6799,11.5065,0.5933,0.8971,-0.2208
2590541.0,-6.687,3.1292,12.8162,0.2597,0.6572,-0.2288
2590551.0,-6.5481,2.5043,13.5847,0.0016,0.2911,-0.2671
2590561.0,-6.2896,2.2601,13.0915,-0.0942,-0.1064,-0.3283
2590571.0,-6.0549,2.2314,12.0931,-0.0979,-0.4342,-0.3954
2590581.0,-5.8347,2.6695,10.4387,-0.0255,-0.6465,-0.4523
2590591.0,-5.6743,3.0526,9.1171,0.0314,-0.7125,-0.4784
2590601.0,-5.5809,3.4668,7.9655,0.1022,-0.654,-0.4715
2590611.0,-5.5881,3.6871,7.4196,0.1,-0.5507,-0.4395
2590621.0,-5.5306,3.7206,7.1539,0.0458,-0.4693,-0.3932
2590631.0,-5.3678,3.6057,6.8211,-0.0144,-0.4023,-0.3448
2590641.0,-5.2265,3.3208,6.7181,-0.0724,-0.2932,-0.3044
2590651.0,-5.2074,3.0598,6.8666,-0.1235,-0.1697,-0.2884
2590661.0,-5.2912,2.8683,7.2472,-0.2118,-0.1006,-0.2953
2590671.0,-5.3534,2.8826,7.3478,-0.2895,-0.0803,-0.3102
2590681.0,-5.4109,2.7869,7.671,-0.3406,-0.0516,-0.3139
2590691.0,-5.4636,2.6863,7.8769,-0.3092,0.0064,-0.2985
2590701.0,-5.5067,2.5139,8.3869,-0.2746,0.0484,-0.2841
2590711.0,-5.4779,2.49,8.5162,-0.223,0.0293,-0.273
2590721.0,-5.4851,2.3631,8.6981,-0.1969,-0.0186,-0.2677
2590731.0,-5.3989,2.3367,8.5114,-0.1735,-0.0915,-0.2655
2590741.0,-5.3798,2.3487,8.2648,-0.1383,-0.1346,-0.2607
2590751.0,-5.363,2.3032,7.9104,-0.1203,-0.1362,-0.2565
2590761.0,-5.3056,2.2553,7.7955,-0.165,-0.1256,-0.2639
2590771.0,-5.3127,2.3655,7.6255,-0.2682,-0.1394,-0.2836
2590781.0,-5.3606,2.399,7.5896,-0.4023,-0.1676,-0.2985
2590791.0,-5.2672,2.5474,7.3933,-0.4619,-0.1777,-0.2969
2590801.0,-5.2241,2.6264,7.2832,-0.489,-0.1485,-0.2772
2590811.0,-5.2744,2.6552,7.2856,-0.4837,-0.0958,-0.2405
2590821.0,-5.3343,2.6097,7.3861,-0.4432,-0.0362,-0.191
2590831.0,-5.2768,2.4205,7.5513,-0.3874,0.0043,-0.1378
2590841.0,-5.1763,2.2051,7.5393,-0.3161,0.0383,-0.091
2590851.0,-5.1595,2.0135,7.6495,-0.2543,0.0793,-0.0623
2590861.0,-5.1547,1.8938,7.774,-0.1751,0.1261,-0.0458
2590871.0,-5.1308,1.7789,7.9847,-0.0883,0.1623,-0.0351
2590881.0,-5.1356,1.7119,8.1307,-0.0085,0.1788,-0.0394
2590891.0,-5.1475,1.8938,8.1666,0.0596,0.1841,-0.0532
2590901.0,-5.2337,2.1189,8.1954,0.0984,0.1729,-0.0591
2590911.0,-5.3463,2.2913,8.1403,0.1261,0.1719,-0.0458
2590921.0,-5.3846,2.3224,8.1068,0.1474,0.1841,-0.0208
2590931.0,-5.442,2.3942,8.0469,0.1591,0.2123,-0.0032
2590941.0,-5.5569,2.4995,8.1044,0.0686,0.2166,-0.0027
2590951.0,-5.5952,2.4373,8.3127,-0.0713,0.1889,-0.0043
2590961.0,-5.6862,2.3774,8.4563,-0.1522,0.166,-0.0021
2590971.0,-5.7461,2.2003,8.6191,-0.1538,0.165,0.0069
2590981.0,-5.7892,2.1284,8.5808,-0.0926,0.1666,0.016
2590991.0,-5.8155,2.2362,8.6598,-0.0521,0.158,0.0117
2591001.0,-5.861,2.387,8.5521,-0.0186,0.1373,0.0154
2591011.0,-5.8873,2.387,8.4252,0.0005,0.1192,0.033
2591021.0,-5.8035,2.3367,8.3653,0.0319,0.1245,0.0521
2591031.0,-5.7365,2.375,8.2432,0.0654,0.1564,0.0692
2591041.0,-5.7964,2.4565,8.3558,0.0362,0.1767,0.075
2591051.0,-5.9041,2.5235,8.5593,-0.0543,0.1437,0.0803
2591061.0,-5.9113,2.4852,8.6287,-0.1123,0.0841,0.1022
2591071.0,-5.77,2.2577,8.4874,-0.1235,0.0426,0.133
2591081.0,-5.6767,2.0279,8.4252,-0.0952,0.0383,0.158
2591091.0,-5.6024,1.8723,8.3797,-0.0857,0.0213,0.1655
2591101.0,-5.5186,1.7693,8.3007,-0.0873,-0.0128,0.158
2591111.0,-5.4372,1.743,8.181,-0.0596,-0.0255,0.1501
2591121.0,-5.4396,1.7047,8.0565,-0.0261,-0.0176,0.1421
2591131.0,-5.442,1.7358,7.8841,-0.0059,-0.009,0.1304
2591141.0,-5.3917,1.6927,7.8578,0.0106,0.0016,0.1235
2591151.0,-5.4205,1.6807,7.8434,0.0458,0.0181,0.1181
2591161.0,-5.4181,1.6352,7.7979,0.0926,0.0415,0.1139
2591171.0,-5.3798,1.5969,7.6878,0.1288,0.0607,0.1048
2591181.0,-5.3534,1.5514,7.6758,0.1378,0.083,0.083
2591191.0,-5.3678,1.5874,7.6974,0.1128,0.0995,0.0506
2591201.0,-5.3175,1.5083,7.7716,0.0644,0.116,0.0101
2591211.0,-5.3343,1.6089,7.8123,0.0287,0.132,-0.0319
2591221.0,-5.4229,1.6616,7.9607,-0.0112,0.1469,-0.0724
2591231.0,-5.4492,1.8507,7.9727,-0.0309,0.1469,-0.1016
2591241.0,-5.4492,1.9872,8.0349,-0.0484,0.1421,-0.1208
2591251.0,-5.4947,2.1787,8.0086,-0.0484,0.1543,-0.1261
2591261.0,-5.5952,2.1979,8.248,-0.0521,0.1815,-0.1155
2591271.0,-5.6168,2.2194,8.4204,-0.0357,0.1905,-0.1
2591281.0,-5.6719,2.2194,8.5736,-0.0314,0.1777,-0.0905
2591291.0,-5.6838,2.3104,8.5449,-0.025,0.1474,-0.0819
2591301.0,-5.7365,2.387,8.6,-0.0266,0.1208,-0.067
2591311.0,-5.7437,2.3439,8.4803,-0.009,0.1155,-0.049
2591321.0,-5.7126,2.3008,8.497,-0.0122,0.1341,-0.0404
2591331.0,-5.782,2.4397,8.6143,-0.0527,0.1591,-0.0468
2591341.0,-5.9256,2.557,8.9711,-0.1383,0.1586,-0.0543
2591351.0,-6.0621,2.6624,9.2536,-0.2293,0.1187,-0.0506
2591361.0,-6.189,2.715,9.4188,-0.2778,0.0734,-0.0357
2591371.0,-6.2369,2.5929,9.6055,-0.2953,0.0309,-0.0122
2591381.0,-6.2584,2.5546,9.7013,-0.282,-0.0074,0.0085
2591391.0,-6.3255,2.5163,9.912,-0.2682,-0.0367,0.0186
2591401.0,-6.4212,2.7342,10.1825,-0.2395,-0.0506,0.0234
2591411.0,-6.5122,3.1149,10.3621,-0.2357,-0.0756,0.0293
2591421.0,-6.6152,3.4261,10.5943,-0.3166,-0.1415,0.0452
2591431.0,-6.62,3.6703,10.7931,-0.4331,-0.2453,0.0766
2591441.0,-6.5194,3.6966,10.7715,-0.5449,-0.3581,0.1282
2591451.0,-6.3758,3.6009,10.5824,-0.6753,-0.4768,0.1825
2591461.0,-6.2321,3.45,10.3118,-0.862,-0.6087,0.2224
2591471.0,-6.0238,3.1963,10.1442,-1.069,-0.7418,0.2559
2591481.0,-5.8371,2.9329,9.845,-1.226,-0.8652,0.2857
2591491.0,-5.794,2.5331,9.6774,-1.3154,-0.9535,0.3246
2591501.0,-5.4971,2.1141,9.3541,-1.2467,-0.9748,0.3709
2591511.0,-5.3223,1.7502,8.9878,-1.0866,-0.9477,0.4124
2591521.0,-5.284,1.3719,8.9376,-0.8987,-0.8806,0.4395
2591531.0,-4.9608,0.9888,8.7891,-0.6806,-0.8189,0.4592
2591541.0,-4.6998,0.5171,8.8873,-0.4667,-0.7535,0.4566
2591551.0,-4.4891,0.4094,8.7484,-0.2341,-0.6683,0.4241
2591561.0,-4.4724,0.3879,8.9711,-0.0585,-0.5699,0.3778
2591571.0,-4.5298,0.5004,9.1435,0.042,-0.5257,0.3177
2591581.0,-4.5945,0.7781,9.2153,0.0367,-0.5608,0.2464
2591591.0,-4.5897,1.0463,9.0166,-0.0346,-0.6242,0.1862
2591601.0,-4.4604,1.1923,8.6814,-0.1362,-0.6625,0.1399
2591611.0,-4.4388,1.2474,8.576,-0.2543,-0.6502,0.0995
2591621.0,-4.4508,1.312,8.4396,-0.3677,-0.6141,0.0633
2591631.0,-4.5035,1.2043,8.6503,-0.497,-0.5704,0.0293
2591641.0,-4.4149,0.8499,9.1004,-0.5954,-0.5124,-0.0016
2591651.0,-4.3766,0.5842,9.742,-0.6784,-0.4965,-0.0516
2591661.0,-4.3838,0.5674,10.2783,-0.7109,-0.5433,-0.1144
2591671.0,-4.5586,0.7973,10.4531,-0.6779,-0.6215,-0.158
2591681.0,-4.5801,0.9505,10.4507,-0.5965,-0.6949,-0.1687
2591691.0,-4.47,1.0127,10.2448,-0.4816,-0.7615,-0.1564
2591701.0,-4.2521,0.9218,10.0628,-0.3874,-0.796,-0.1415
2591711.0,-4.118,0.9481,10.0221,-0.3022,-0.7982,-0.1378
2591721.0,-4.0893,1.1372,9.9096,-0.2639,-0.8322,-0.1469
2591731.0,-4.0893,1.257,9.5241,-0.3006,-0.9073,-0.1548
2591741.0,-3.8786,1.2713,9.2273,-0.3645,-0.9615,-0.1591
2591751.0,-3.711,1.3264,8.746,-0.4065,-0.9514,-0.1618
2591761.0,-3.5626,1.1372,8.9567,-0.4693,-0.8929,-0.1655
2591771.0,-3.3878,1.075,9.1075,-0.5156,-0.8657,-0.1783
2591781.0,-3.3112,1.1253,9.268,-0.5566,-0.8918,-0.2006
2591791.0,-3.1723,1.2498,9.0453,-0.5837,-0.9567,-0.2112
2591801.0,-3.067,1.2977,9.0501,-0.6173,-0.9982,-0.2059
2591811.0,-3.0789,1.4557,9.0597,-0.5619,-1.0036,-0.1729
2591821.0,-2.8754,1.2426,9.1866,-0.4273,-0.9945,-0.107
2591831.0,-2.6552,0.984,9.6582,-0.2618,-0.9802,-0.0463
2591841.0,-2.715,1.166,9.4188,-0.1075,-1.0562,-0.008
2591851.0,-2.6839,1.2881,8.8969,-0.0782,-1.2265,0.0218
2591861.0,-2.3272,1.4844,7.4771,-0.0553,-1.3505,0.066
2591871.0,-1.573,1.3192,6.5673,-0.0883,-1.3462,0.1112
2591881.0,-0.5914,0.3711,6.3255,-0.0958,-1.2063,0.1149
2591891.0,-2.1763,1.312,4.9464,-0.2304,-1.1648,0.1006
2591901.0,-1.0247,0.0024,6.0454,-0.4608,-1.1563,0.1006
2591911.0,-0.0335,0.7709,4.3383,-0.2618,-1.0158,0.1075
2591921.0,-1.5538,1.0487,5.1499,-0.1751,-0.771,0.1288
2591931.0,-1.6735,1.391,4.2114,0.1128,-0.6784,0.1985
2591941.0,-0.1724,1.2498,2.6528,0.3363,-0.6311,0.2751
2591951.0,-0.9529,1.3862,1.7765,0.5875,-0.3124,0.3352
2591961.0,-0.3903,1.731,0.0599,0.7849,-0.0218,0.4081
2591971.0,-0.3041,1.1205,0.1676,0.8264,0.4001,0.4667
2591981.0,-0.4741,0.9553,0.328,1.036,0.9466,0.5013
2591991.0,-0.8882,0.1604,1.8459,1.1637,1.4138,0.4991
2592001.0,-1.1301,-0.2849,2.3846,1.2702,1.6804,0.4347
2592011.0,-1.1612,-0.5483,2.8419,1.2489,1.8353,0.3038
2592021.0,-1.6951,-0.0527,2.727,1.1866,1.9874,0.1415
2592031.0,-2.739,0.6057,2.9592,1.0786,2.1726,0.0053
2592041.0,-3.5171,1.087,3.4381,1.0222,2.3759,-0.0654
2592051.0,-4.197,1.2378,3.9241,1.0557,2.5717,-0.0841
2592061.0,-4.6424,1.4844,4.3407,1.1515,2.7808,-0.0942
2592071.0,-5.0901,1.798,5.2744,1.2856,3.0533,-0.0947
2592081.0,-6.1268,2.1596,6.608,1.4303,3.3438,-0.0766
2592091.0,-7.2496,2.4134,8.8705,1.5421,3.5816,-0.0309
2592101.0,-7.7045,2.3607,10.4938,1.6384,3.6306,0.0293
2592111.0,-10.8481,2.4062,11.6095,1.5756,3.5173,0.0415
2592121.0,-6.596,1.4844,11.631,1.5814,3.2411,-0.0032
2592131.0,-9.9886,1.8938,12.1338,1.6272,3.5029,-0.0346
2592141.0,-11.0636,1.6951,15.8113,1.4362,3.6248,-0.1016
2592151.0,-10.1969,1.1157,17.6955,1.2334,3.2124,-0.1985
2592161.0,-11.8369,0.7494,19.9605,0.9216,2.7968,-0.3491
2592171.0,-10.5465,1.142,20.3268,0.6992,2.1918,-0.5406
2592181.0,-10.3358,1.2833,20.5303,0.397,1.6331,-0.7173
2592191.0,-11.1833,2.2266,20.8607,0.1437,1.1792,-0.887
2592201.0,-11.3749,2.8419,20.5877,-0.1346,0.5757,-1.0014
2592211.0,-11.3198,3.4548,19.5439,-0.3315,0.0176,-1.0632
2592221.0,-11.212,4.0558,18.6293,-0.4161,-0.3459,-1.0791
2592231.0,-10.8816,4.2401,17.9326,-0.4284,-0.6651,-1.0424
2592241.0,-10.4962,4.4029,16.8911,-0.3645,-0.9679,-0.9839
2592251.0,-9.9479,4.5442,15.9885,-0.2724,-1.2074,-0.9152
2592261.0,-9.4858,4.774,14.9398,-0.1442,-1.3904,-0.8205
2592271.0,-9.1171,4.8866,13.9079,-0.0729,-1.5495,-0.7136
2592281.0,-8.7101,4.7956,12.9502,-0.1086,-1.6953,-0.613
2592291.0,-8.3582,4.3718,12.1793,-0.2543,-1.8321,-0.539
2592301.0,-7.8961,3.802,11.3916,-0.4874,-1.9784,-0.5204
2592311.0,-7.6878,3.3639,10.7524,-0.7646,-2.0779,-0.5651
2592321.0,-7.4939,3.0191,10.7452,-1.0328,-2.1396,-0.638
2592331.0,-7.1563,2.5666,10.8098,-1.2164,-2.2365,-0.7168
2592341.0,-6.7469,2.332,10.5177,-1.2968,-2.3732,-0.8067
2592351.0,-6.4356,2.2194,10.1897,-1.3133,-2.4956,-0.8934
2592361.0,-6.2321,2.4541,9.6462,-1.2659,-2.6164,-0.9637
2592371.0,-6.0071,2.8946,8.7269,-1.1616,-2.7324,-0.994
2592381.0,-5.6431,3.1939,7.5489,-1.0259,-2.8058,-0.9732
2592391.0,-5.2385,3.3974,6.3422,-0.8822,-2.8021,-0.9115
2592401.0,-4.197,3.0765,5.8993,-0.6763,-2.6563,-0.812
2592411.0,-3.0957,2.3798,6.3782,-0.4092,-2.3966,-0.7152
2592421.0,-4.9488,2.6025,7.8147,-0.2666,-2.2844,-0.6747
2592431.0,-5.7772,3.1196,5.7628,-0.1506,-2.5861,-0.6178
2592441.0,-2.9066,2.4924,4.13,-0.1368,-2.7212,-0.5678
2592451.0,-2.2075,3.2154,1.4126,0.0346,-2.3833,-0.547
2592461.0,-2.32,3.1125,2.5642,-0.1133,-1.8693,-0.5273
2592471.0,-2.1284,3.3782,2.9425,-0.1921,-1.5378,-0.4826
2592481.0,-2.0159,2.624,4.9967,-0.4065,-1.3564,-0.4422
2592491.0,-1.8052,2.6408,5.3582,-0.4363,-1.3271,-0.4103
2592501.0,-1.5969,2.308,6.0908,-0.4204,-1.318,-0.3677
2592511.0,-1.3503,2.3296,5.7652,-0.2134,-1.2749,-0.3049
2592521.0,-1.166,2.0351,5.8371,0.0133,-1.1696,-0.2331
2592531.0,-0.8452,1.9632,5.5905,0.2453,-1.0584,-0.1713
2592541.0,-0.5507,1.9058,5.0182,0.3411,-0.9881,-0.1325
2592551.0,-0.7278,1.8531,5.2074,0.2682,-0.9158,-0.1245
2592561.0,-0.6033,1.9561,4.8866,0.2416,-0.87,-0.1043
2592571.0,-0.3663,1.8866,4.2904,0.2623,-0.8024,-0.0697
2592581.0,0.0479,1.98,3.1388,0.3235,-0.6396,-0.0303
2592591.0,0.2035,1.8986,2.8587,0.2857,-0.3666,-0.0011
2592601.0,0.1987,2.0734,3.1556,0.2661,-0.0452,0.0239
2592611.0,-0.0168,2.1189,3.62,0.282,0.2421,0.0649
2592621.0,-0.2394,2.1715,4.1827,0.2985,0.464,0.1117
2592631.0,-0.4453,2.2769,4.7956,0.3421,0.6481,0.1639
2592641.0,-0.6656,2.2218,5.3941,0.4156,0.7939,0.2267
2592651.0,-0.8116,2.1045,5.7724,0.5438,0.9014,0.2953
2592661.0,-0.8763,2.0734,5.5761,0.7045,0.9759,0.3602
2592671.0,-0.9529,2.3152,4.6471,0.8413,1.0217,0.4214
2592681.0,-0.893,2.5522,3.1508,0.9147,1.0892,0.4842
2592691.0,-0.8428,2.7677,1.0343,0.9179,1.2537,0.5475
2592701.0,0.4094,2.557,-1.1588,0.8184,1.5649,0.6098
2592711.0,-2.5953,3.0191,-2.7677,0.5459,2.0784,0.6369
2592721.0,-2.7366,3.4429,-4.4125,0.0543,2.4945,0.6572
2592731.0,-3.8116,3.3303,-4.5083,-0.5534,3.0283,0.7194
2592741.0,-5.5306,3.6799,-2.897,-0.8077,3.8317,0.8578
2592751.0,-7.9416,3.5434,1.1037,-0.829,4.5049,1.0531
2592761.0,-9.8928,1.8866,5.4827,-0.4773,4.9353,1.3058
2592771.0,-11.4802,0.7278,10.2615,0.1932,5.1987,1.5053
2592781.0,-10.8888,-0.0694,13.3668,0.9301,5.0764,1.566
2592791.0,-10.0437,-6.5649,11.6358,1.2824,4.6581,1.4686
2592801.0,-6.6343,-7.3502,12.0907,0.3139,4.1936,0.9259
2592811.0,-7.8889,-4.1611,16.5894,-0.5539,4.1718,0.199
2592821.0,-11.485,-2.7533,21.0211,-0.3682,4.0739,-0.232
2592831.0,-12.9957,-1.1181,21.962,0.2783,3.4853,-0.3799
2592841.0,-12.4618,-0.4645,19.8551,0.6199,2.8122,-0.4496
2592851.0,-12.8593,-0.1556,20.0443,0.4087,2.4647,-0.6188
2592861.0,-13.2184,0.723,20.6213,0.2458,2.2349,-0.828
2592871.0,-14.6908,1.6089,22.4696,0.1447,2.0731,-0.9871
2592881.0,-14.7746,2.6935,24.1,0.1298,1.7379,-1.1148
2592891.0,-14.3628,4.1851,25.266,0.0841,1.276,-1.1893
2592901.0,-14.7339,5.8203,27.7129,-0.0043,0.7875,-1.1813
2592911.0,-15.3804,7.3765,28.9794,-0.0521,-0.0133,-1.0275
2592921.0,-15.4713,8.0972,28.242,-0.1022,-1.0908,-0.7508
2592931.0,-14.8081,8.0661,25.175,-0.1453,-2.1726,-0.4246
2592941.0,-13.8313,7.4771,20.796,-0.2182,-3.0293,-0.1187
2592951.0,-12.7419,6.4428,17.0419,-0.3379,-3.5119,0.1229
2592961.0,-10.2807,5.3558,13.4387,-0.414,-3.711,0.2921
2592971.0,-11.0684,4.4796,12.4044,-0.5816,-3.6104,0.3698
2592981.0,-10.7811,4.0031,11.8537,-0.6784,-3.5902,0.4012
2592991.0,-9.2632,3.0646,9.6295,-0.7939,-3.8137,0.4076
2593001.0,-7.9176,2.083,8.6431,-0.9413,-3.8035,0.3453
2593011.0,-6.5003,1.8962,7.7644,-0.9317,-3.637,0.2586
2593021.0,-7.2856,1.8914,8.4156,-0.9349,-3.4465,0.1692
2593031.0,-6.9887,2.2027,7.082,-0.9046,-3.5354,0.0958
2593041.0,-5.2529,1.7621,5.3582,-1.0477,-3.687,0.0208
2593051.0,-4.549,1.7023,4.1683,-1.1712,-3.5151,-0.0756
2593061.0,-4.4508,1.8292,4.7285,-1.2643,-3.1874,-0.1628
2593071.0,-4.3646,2.0494,4.6783,-1.2797,-3.0511,-0.2123
2593081.0,-3.565,1.8004,4.3958,-1.3505,-3.065,-0.2501
2593091.0,-3.0502,1.9968,3.553,-1.3532,-2.9947,-0.2719
2593101.0,-2.0949,1.5921,4.0821,-1.2568,-2.7702,-0.2501
2593111.0,-3.3567,2.0255,3.9768,-1.0509,-2.5653,-0.2049
2593121.0,-2.0279,1.6113,3.9337,-0.945,-2.5738,-0.1532
2593131.0,-1.6257,1.4269,3.0047,-0.6822,-2.4264,-0.0905
2593141.0,-1.0463,0.8978,2.8084,-0.4385,-2.1668,-0.0399
2593151.0,-0.5722,0.5698,1.9872,-0.2421,-1.905,-0.0223
2593161.0,-0.2442,0.0359,3.0454,-0.3113,-1.5921,-0.0633
2593171.0,0.0,0.1867,3.9792,-0.3304,-1.3207,-0.1368
2593181.0,0.0383,0.1891,5.3558,-0.3767,-1.1935,-0.2027
2593191.0,0.0766,0.6919,5.5713,-0.3427,-1.1706,-0.2458
2593201.0,0.0287,1.1732,5.8658,-0.3507,-1.1675,-0.2522
2593211.0,0.0503,1.4772,5.7006,-0.299,-1.1334,-0.2059
2593221.0,0.2155,1.1349,5.8179,-0.2352,-1.0488,-0.1352
2593231.0,0.3711,0.8092,5.7126,-0.1783,-0.9913,-0.0873
2593241.0,0.6033,0.5722,5.7054,-0.1644,-0.9461,-0.0803
2593251.0,0.759,0.6321,5.5378,-0.0825,-0.8519,-0.0814
2593261.0,0.7925,0.6464,5.7341,0.0633,-0.6816,-0.0644
2593271.0,0.8715,0.735,5.9735,0.2395,-0.5364,-0.0372
2593281.0,1.0678,0.9505,6.0071,0.3672,-0.4651,-0.0144
2593291.0,1.1899,1.3815,5.5593,0.4305,-0.4326,0.0112
2593301.0,1.2306,1.6496,5.1954,0.4236,-0.3746,0.0548
2593311.0,1.2617,1.7238,4.7597,0.3932,-0.2767,0.1272
2593321.0,1.3096,1.3647,4.5729,0.3182,-0.1543,0.207
2593331.0,1.47,0.9433,4.4556,0.2261,-0.0325,0.2692
2593341.0,1.4796,0.6895,4.3862,0.1314,0.074,0.3092
2593351.0,1.2474,0.5507,4.2641,0.1181,0.2283,0.3512
2593361.0,1.0774,-0.0335,4.7046,0.2043,0.4464,0.406
2593371.0,1.0798,-0.838,5.1954,0.4092,0.6391,0.4411
2593381.0,1.1708,-1.5562,5.3463,0.6678,0.7662,0.4156
2593391.0,1.3862,-1.9225,5.0589,0.9301,0.8748,0.3177
2593401.0,1.4413,-1.3408,4.2952,1.1089,0.9844,0.1532
2593411.0,0.9385,-0.0958,3.7086,1.1355,1.143,-0.0186
2593421.0,0.431,1.2019,3.0765,1.0642,1.3356,-0.1197
2593431.0,0.0168,1.8866,2.7174,0.8546,1.5383,-0.1485
2593441.0,-0.3831,2.1644,2.7174,0.5348,1.7129,-0.1426
2593451.0,-0.8404,2.0303,3.0861,0.2261,1.8587,-0.1187
2593461.0,-1.1037,1.6735,3.1244,0.1086,1.9976,-0.0819
2593471.0,-1.1301,1.5036,2.5474,0.1394,2.1279,-0.0564
2593481.0,-1.391,1.9249,1.6448,0.2277,2.2955,-0.0511
2593491.0,-1.7717,2.6647,0.2131,0.3416,2.5376,-0.0239
2593501.0,-2.7198,3.1268,-0.7661,0.4326,2.9713,0.0527
2593511.0,-4.6495,3.9385,-0.5459,0.4757,3.5779,0.1963
2593521.0,-5.8347,2.3391,2.6288,0.4087,4.1239,0.364
2593531.0,-6.9001,1.6975,4.7621,0.6242,4.4783,0.4741
2593541.0,-9.2081,-0.5171,6.3375,0.8173,4.5884,0.5066
2593551.0,-8.5186,-0.5387,6.9815,0.8423,4.681,0.4454
2593561.0,-8.9735,0.1341,10.0006,1.1632,5.095,0.2985
2593571.0,-11.1929,1.2378,13.283,1.6836,5.4909,0.2203
2593581.0,-12.8377,2.4134,15.955,1.9773,5.5909,0.1921
2593591.0,-13.3932,2.6001,18.7753,1.7373,5.3121,0.1415
2593601.0,-13.7331,1.8555,21.5191,1.0813,4.7997,0.0591
2593611.0,-14.2886,0.51,25.6898,0.157,4.1861,-0.0867
2593621.0,-14.3892,-0.5986,28.3665,-0.5247,3.1671,-0.2969
2593631.0,-14.4179,-0.9984,28.5772,-0.6689,2.08,-0.5231
2593641.0,-14.0851,-0.486,27.3442,-0.4023,1.21,-0.7285
2593651.0,-13.7738,1.0415,24.9308,0.1043,0.6199,-0.8908
2593661.0,-13.5248,2.976,22.7904,0.4832,0.2746,-1.0094
2593671.0,-13.4578,5.1092,21.5358,0.5944,0.0708,-1.0658
2593681.0,-13.5703,6.8929,21.5095,0.4049,-0.1687,-1.0312
2593691.0,-13.2375,7.5729,21.8782,0.091,-0.5241,-0.8764
2593701.0,-12.6581,7.0605,22.393,-0.2347,-1.0163,-0.6556
2593711.0,-12.0955,6.1531,21.9907,-0.431,-1.6219,-0.4369
2593721.0,-11.5257,5.0877,20.8846,-0.4858,-2.2625,-0.248
2593731.0,-10.7691,4.1396,18.4449,-0.3704,-2.8441,-0.0984
2593741.0,-9.8378,3.3279,15.6341,-0.2379,-3.2767,-0.016
2593751.0,-8.7963,3.0454,12.7443,-0.1634,-3.5109,-0.0011
2593761.0,-8.0541,3.146,10.5345,-0.1793,-3.5646,-0.0287
2593771.0,-7.1658,3.316,8.983,-0.3033,-3.5274,-0.0681
2593781.0,-6.5122,3.5075,8.1427,-0.5199,-3.4364,-0.0942
2593791.0,-8.0206,3.2322,9.7109,-0.7923,-3.3161,-0.1032
2593801.0,-7.9823,3.735,8.2313,-0.7567,-3.5481,-0.0788
2593811.0,-5.4205,2.648,6.4548,-0.7348,-3.8014,-0.017
2593821.0,-4.7956,2.624,3.3303,-0.481,-3.587,0.0479
2593831.0,-3.8666,2.0016,3.2801,-0.5119,-3.1884,0.0809
2593841.0,-3.462,2.0111,2.7461,-0.5013,-2.8936,0.0623
2593851.0,-3.0526,1.6257,2.7677,-0.6103,-2.71,0.0176
2593861.0,-2.2122,1.7238,1.5443,-0.6316,-2.5025,-0.0293
2593871.0,-1.6257,1.6281,1.7406,-0.7152,-2.1556,-0.0825
2593881.0,-1.2641,1.9465,1.7071,-0.7482,-1.7996,-0.1096
2593891.0,-1.4078,1.9441,2.7342,-0.8093,-1.4734,-0.1181
2593901.0,-1.1708,1.6879,3.3423,-0.7753,-1.2483,-0.0947
2593911.0,-0.8188,0.9936,4.312,-0.7003,-1.0472,-0.0782
2593921.0,-0.5339,0.4932,4.9823,-0.5513,-0.8636,-0.0867
2593931.0,-0.4501,0.2059,6.0645,-0.4097,-0.7066,-0.1293
2593941.0,-0.3735,0.5722,6.5673,-0.3581,-0.6657,-0.1884
2593951.0,-0.6536,1.0463,7.4986,-0.3986,-0.7088,-0.2469
2593961.0,-0.9529,1.6089,7.7309,-0.356,-0.8131,-0.2474
2593971.0,-0.7638,1.8627,7.0701,-0.2804,-0.9445,-0.191
2593981.0,-0.5267,1.7717,6.3398,-0.1783,-0.9743,-0.1213
2593991.0,-0.2083,1.6017,5.3846,-0.0516,-0.9014,-0.0543
2594001.0,-0.0024,1.1756,4.9704,0.042,-0.7279,-0.009
2594011.0,0.2729,0.9505,4.7238,0.0654,-0.5497,-0.0027
2594021.0,0.2705,0.8882,5.1164,0.0149,-0.4017,-0.0325
2594031.0,0.158,0.8667,5.2433,0.0261,-0.2953,-0.0548
2594041.0,0.2155,0.8595,5.023,0.0718,-0.1926,-0.0676
2594051.0,0.2705,0.9242,4.5873,0.108,-0.0516,-0.0766
2594061.0,0.2705,0.8595,4.5346,0.0873,0.1378,-0.091
2594071.0,0.3735,1.0008,4.4987,0.0213,0.3134,-0.116
2594081.0,0.3639,1.2522,4.5155,-0.1038,0.4981,-0.1495
2594091.0,0.0192,1.5538,5.1811,-0.2597,0.7285,-0.1634
2594101.0,-0.3472,1.4629,6.5434,-0.3709,0.9386,-0.141
2594111.0,-0.6297,1.3001,7.9655,-0.3852,1.0312,-0.1011
2594121.0,-0.8859,1.233,9.0668,-0.2964,1.0153,-0.0511
2594131.0,-1.2905,1.2857,9.6007,-0.1006,0.9408,0.0255
2594141.0,-1.3527,1.008,9.6271,0.1586,0.8524,0.1213
2594151.0,-1.166,0.5339,9.1387,0.4411,0.7992,0.2017
2594161.0,-1.0175,0.2179,8.4276,0.6396,0.7976,0.2277
2594171.0,-1.0271,0.2083,7.8961,0.7253,0.8647,0.1979
2594181.0,-1.0175,0.2179,7.7907,0.6992,0.9684,0.1298
2594191.0,-1.1085,0.6177,7.58,0.5651,1.0392,0.0319
2594201.0,-1.2594,1.2091,7.5178,0.3054,1.0573,-0.0702
2594211.0,-1.4868,1.9297,7.2616,0.0436,1.0568,-0.1229
2594221.0,-1.5538,2.4995,7.0868,-0.1107,1.1212,-0.0937
2594231.0,-1.731,2.7725,6.9743,-0.1479,1.2717,0.0106
2594241.0,-1.9273,2.7581,7.2018,-0.1634,1.4011,0.1506
2594251.0,-2.1859,2.7773,7.2784,-0.1623,1.4457,0.3001
2594261.0,-2.3415,2.4636,7.1012,-0.0734,1.4548,0.4534
2594271.0,-2.4756,2.3511,6.0597,0.1463,1.4771,0.5922
2594281.0,-2.4541,2.2936,4.2425,0.4326,1.5655,0.7125
2594291.0,-2.8419,2.3272,2.1931,0.7386,1.8613,0.8072
2594301.0,-3.371,2.0183,1.3455,1.0142,2.4594,0.8902
2594311.0,-4.0247,1.4772,2.4948,1.1488,3.1687,0.9168
2594321.0,-5.3127,1.403,5.0901,1.1393,3.7328,0.8764
2594331.0,-6.869,1.8483,8.3845,1.0876,4.0201,0.8253
2594341.0,-7.9871,2.1428,11.5065,1.1722,4.0728,0.8237
2594351.0,-10.5153,3.1603,12.5289,1.4335,3.9408,0.8551
2594361.0,-6.8115,1.4437,12.2703,1.6751,3.7269,0.8876
2594371.0,-9.493,2.1715,13.8672,1.5192,3.9238,0.8024
2594381.0,-10.2328,2.8132,15.6557,1.1462,3.7764,0.679
2594391.0,-8.2193,1.5443,17.6548,0.5321,3.2267,0.5736
2594401.0,-9.2751,0.8499,18.5646,0.0367,2.7649,0.4401
2594411.0,-10.0604,-0.1245,20.8679,-0.3592,2.2083,0.2629
2594421.0,-9.8426,0.1652,19.1704,-0.3437,1.4601,0.108
2594431.0,-10.0724,0.3328,19.1728,-0.2943,1.0105,-0.0654
2594441.0,-10.082,1.8794,16.3572,0.1304,0.7199,-0.1767
2594451.0,-10.1059,2.4612,15.0045,0.2916,0.6337,-0.2432
2594461.0,-9.979,3.4812,13.6948,0.1788,0.6284,-0.323
2594471.0,-10.0772,3.79,14.6884,-0.2746,0.621,-0.3975
2594481.0,-10.2113,3.7445,15.8065,-0.6747,0.5295,-0.431
2594491.0,-10.0628,2.8443,17.6908,-1.0099,0.3129,-0.4496
2594501.0,-9.7971,2.2841,18.6173,-1.1419,-0.0851,-0.4869
2594511.0,-9.6055,1.8866,18.8591,-1.1605,-0.5976,-0.5417
2594521.0,-9.2105,1.9561,17.6548,-1.0307,-1.118,-0.589
2594531.0,-8.8514,2.2314,15.7945,-0.8913,-1.5564,-0.6306
2594541.0,-8.3845,2.6887,13.611,-0.7827,-1.8544,-0.6545
2594551.0,-7.8673,2.9664,11.7747,-0.7636,-2.0119,-0.6662
2594561.0,-7.5465,3.3016,10.252,-0.8237,-2.0731,-0.6742
2594571.0,-7.2018,3.4261,9.0668,-0.9583,-2.1024,-0.6715
2594581.0,-5.2289,3.0143,8.3462,-1.1116,-2.1088,-0.655
2594591.0,-5.8993,3.3232,7.6112,-1.2382,-1.9858,-0.6337
2594601.0,-6.5074,2.8683,8.9304,-1.376,-1.8933,-0.629
2594611.0,-5.9352,2.8898,7.9583,-1.2984,-1.9571,-0.5954
2594621.0,-5.3965,2.2649,8.2049,-1.243,-1.9247,-0.5688
2594631.0,-4.9943,2.2386,7.7069,-1.0403,-1.8475,-0.5497
2594641.0,-4.7908,2.2649,7.7237,-0.9057,-1.7874,-0.5438
2594651.0,-4.7573,2.4876,7.5968,-0.7641,-1.7624,-0.53
2594661.0,-4.5179,2.5283,7.5776,-0.6417,-1.7469,-0.4901
2594671.0,-4.2904,2.569,7.2616,-0.5321,-1.7411,-0.4448
2594681.0,-4.0989,2.4517,7.0509,-0.4715,-1.7326,-0.3991
2594691.0,-3.8379,2.2362,6.7349,-0.4273,-1.7139,-0.3549
2594701.0,-3.4931,1.968,6.4524,-0.3852,-1.6772,-0.3235
2594711.0,-3.1364,1.8794,6.11,-0.3677,-1.6288,-0.3113
2594721.0,-2.964,1.9537,5.8442,-0.3618,-1.5421,-0.306
2594731.0,-2.8371,1.9369,5.9209,-0.3421,-1.4011,-0.2884
2594741.0,-2.6815,1.8364,6.2968,-0.3097,-1.2686,-0.265
2594751.0,-2.5929,1.6472,6.7205,-0.2969,-1.1893,-0.249
2594761.0,-2.4828,1.6831,6.8857,-0.3022,-1.1786,-0.2458
2594771.0,-2.2841,1.64,6.7349,-0.3171,-1.176,-0.2363
2594781.0,-1.9728,1.5467,6.5362,-0.3304,-1.1504,-0.2246
2594791.0,-1.7382,1.5083,6.4428,-0.3448,-1.0818,-0.2171
2594801.0,-1.719,1.6879,6.5146,-0.3411,-0.9881,-0.2027
2594811.0,-1.8459,1.7573,6.8642,-0.3182,-0.8865,-0.165
2594821.0,-1.9704,1.7023,7.2496,-0.2671,-0.8173,-0.1075
2594831.0,-1.9393,1.3575,7.7979,-0.1756,-0.7764,-0.0367
2594841.0,-1.7741,0.9026,8.1068,-0.0096,-0.7508,0.033
2594851.0,-1.5826,0.3065,8.4659,0.1474,-0.7359,0.0734
2594861.0,-1.2139,-0.1556,8.5904,0.2565,-0.7503,0.0612
2594871.0,-0.9936,-0.1796,8.5329,0.2629,-0.8221,-0.008
2594881.0,-1.0558,0.2179,7.8913,0.1607,-0.9269,-0.0963
2594891.0,-1.0032,0.4405,7.3263,-0.0271,-1.0158,-0.166
2594901.0,-0.7901,0.4597,6.4212,-0.1894,-1.0461,-0.2017
2594911.0,-0.6129,0.3065,5.7174,-0.331,-0.9775,-0.2224
2594921.0,-0.5794,0.0024,5.6288,-0.4145,-0.8147,-0.224
2594931.0,-0.4812,-0.5746,6.3039,-0.3895,-0.6385,-0.2081
2594941.0,-0.3136,-1.0942,6.6248,-0.19,-0.5172,-0.1852
2594951.0,-0.1245,-1.5203,6.9073,0.1107,-0.4129,-0.1644
2594961.0,0.1125,-1.6831,7.039,0.4821,-0.2841,-0.1548
2594971.0,0.1556,-1.5993,7.1443,0.8381,-0.1564,-0.1639
2594981.0,-0.0072,-1.3455,7.0102,1.0648,-0.0931,-0.1953
2594991.0,0.0168,-1.087,6.62,1.0802,-0.1208,-0.2597
2595001.0,-0.012,-0.5387,5.6719,0.9158,-0.2086,-0.3634
2595011.0,-0.0455,0.2753,4.6256,0.6433,-0.2724,-0.4762
2595021.0,-0.0886,1.2498,3.5913,0.4869,-0.2166,-0.5337
2595031.0,1.9632,1.8794,2.7318,0.5114,-0.0213,-0.5066
2595041.0,-1.3934,2.6935,2.6528,0.5747,0.3948,-0.4119
2595051.0,-0.8045,3.3399,1.6807,0.5135,0.4661,-0.3092
2595061.0,0.2274,3.4931,-0.2801,0.2623,0.4864,-0.1974
2595071.0,-0.2394,3.881,-1.8124,0.1016,0.9413,-0.0702
2595081.0,-1.6927,3.3495,-1.4054,-0.1713,1.4399,0.0718
2595091.0,-2.4373,2.8443,0.0455,-0.2602,1.798,0.1618
2595101.0,-2.7031,2.32,-0.3639,0.1772,2.1822,0.2847
2595111.0,-3.4189,1.5227,-0.4693,0.7396,2.7148,0.4092
2595121.0,-4.3455,1.0726,-0.1915,1.1584,3.2837,0.4331
2595131.0,-5.0589,1.2402,0.6297,1.3441,3.8179,0.3757
2595141.0,-6.1842,1.1588,3.2034,1.325,4.316,0.2692
2595151.0,-8.6143,1.9992,4.9488,1.3611,4.6618,0.1506
2595161.0,-8.4348,2.4325,7.6351,1.4239,4.8465,0.0639
2595171.0,-9.4523,1.6137,8.5928,1.8134,5.1828,0.0575
2595181.0,-11.406,2.5714,12.5049,1.6102,5.4797,-0.0027
2595191.0,-10.4028,3.2681,15.2582,1.3558,5.3392,-0.125
2595201.0,-11.3844,2.8443,18.8232,0.7556,4.9348,-0.24
2595211.0,-14.212,3.6392,22.1488,0.1761,4.4,-0.3294
2595221.0,-11.5305,2.49,22.9245,-0.3198,3.3927,-0.3485
2595231.0,-12.1985,2.3415,24.2748,-0.6343,2.6414,-0.3735
2595241.0,-11.2025,2.5211,23.0155,-0.5912,1.8512,-0.3597
2595251.0,-11.9471,2.4541,23.4057,-0.464,1.1643,-0.3257
2595261.0,-11.461,3.2322,19.7761,0.0521,0.5523,-0.216
2595271.0,-10.8529,2.6264,18.069,0.2389,0.1772,-0.1107
2595281.0,-10.3501,2.8276,15.6102,0.4566,-0.0223,-0.0458
2595291.0,-10.0006,2.5115,14.6022,0.473,-0.1219,-0.0197
2595301.0,-9.505,2.5857,13.0987,0.5146,-0.1144,-0.0186
2595311.0,-9.3063,2.217,13.3429,0.3576,-0.0628,-0.0506
2595321.0,-9.1004,2.0782,13.702,0.2496,-0.0495,-0.1038
2595331.0,-8.8059,1.8124,14.5567,0.1224,-0.1219,-0.1729
2595341.0,-8.7508,2.0039,14.8345,0.008,-0.2975,-0.2581
2595351.0,-8.6957,2.2649,14.9997,-0.1639,-0.5608,-0.3363
2595361.0,-8.4443,2.624,14.3317,-0.3427,-0.8897,-0.3874
2595371.0,-8.2121,2.7869,13.5057,-0.5454,-1.1877,-0.4092
2595381.0,-7.9871,2.818,12.4953,-0.6667,-1.4005,-0.4012
2595391.0,-7.7381,2.6983,11.5233,-0.7205,-1.5516,-0.3709
2595401.0,-7.4867,2.4995,10.4435,-0.7423,-1.6543,-0.3395
2595411.0,-7.0773,2.0806,9.7109,-0.7258,-1.6836,-0.3139
2595421.0,-5.1308,1.5419,9.3541,-0.6306,-1.6368,-0.3028
2595431.0,-7.0174,1.9752,8.9064,-0.5566,-1.4995,-0.3145
2595441.0,-6.5194,1.8196,9.165,-0.5917,-1.5463,-0.3485
2595451.0,-5.8778,1.7741,8.4276,-0.5827,-1.5969,-0.3746
2595461.0,-5.8012,1.9968,8.2193,-0.5938,-1.5181,-0.406
2595471.0,-5.8849,2.4325,8.3701,-0.5848,-1.4197,-0.4246
2595481.0,-5.861,2.6719,8.4827,-0.6412,-1.3947,-0.4188
2595491.0,-5.8514,2.5929,8.9256,-0.7865,-1.4442,-0.4044
2595501.0,-5.6192,2.4325,8.8945,-0.879,-1.5729,-0.3842
2595511.0,-5.4396,2.2625,8.5569,-0.845,-1.6501,-0.3485
2595521.0,-5.1475,2.0135,8.1858,-0.6843,-1.6299,-0.2969
2595531.0,-4.7405,1.8675,7.7476,-0.4885,-1.5841,-0.2543
2595541.0,-4.4796,1.8818,7.525,-0.3448,-1.4936,-0.2277
2595551.0,-4.3718,2.0087,7.6327,-0.2852,-1.3968,-0.2123
2595561.0,-4.2353,1.9776,7.9487,-0.3081,-1.3595,-0.1974
2595571.0,-4.0247,1.7789,8.3486,-0.39,-1.3734,-0.1932
2595581.0,-3.8523,1.5993,8.6957,-0.4826,-1.4293,-0.2059
2595591.0,-3.8475,1.5826,8.9352,-0.5491,-1.5202,-0.2272
2595601.0,-3.7996,1.7813,8.497,-0.5502,-1.649,-0.2315
2595611.0,-3.6057,1.7741,7.9966,-0.4981,-1.7267,-0.2022
2595621.0,-3.0861,1.7502,7.3334,-0.3821,-1.7198,-0.1538
2595631.0,-2.6647,1.8076,6.7684,-0.2687,-1.6501,-0.1064
2595641.0,-2.3032,1.9992,6.2896,-0.1942,-1.5415,-0.0623
2595651.0,-2.2098,2.0638,6.3782,-0.2011,-1.4,-0.0154
2595661.0,-2.8036,2.1691,7.4962,-0.2836,-1.2819,0.0383
2595671.0,-2.6456,1.9082,7.0749,-0.3028,-1.3824,0.1054
2595681.0,-1.6664,1.1803,6.6702,-0.381,-1.5171,0.1325
2595691.0,-1.1995,1.3551,5.2768,-0.2767,-1.4463,0.1362
2595701.0,-1.2737,1.3384,5.5761,-0.1671,-1.1994,0.1554
2595711.0,-1.063,1.5802,5.102,0.0027,-1.0227,0.2017
2595721.0,-0.8547,1.5251,4.9799,0.083,-0.8849,0.2421
2595731.0,-0.6393,1.5826,4.4556,0.1298,-0.7237,0.2847
2595741.0,-0.1963,1.5634,4.1755,0.0527,-0.5545,0.3118
2595751.0,-0.4453,1.7621,4.2353,-0.1117,-0.3837,0.3203
2595761.0,-0.7805,1.8675,4.1755,-0.2655,-0.2379,0.3491
2595771.0,-0.7925,1.6185,4.118,-0.332,-0.0766,0.4087
2595781.0,-0.6345,1.0127,4.2569,-0.2533,0.1681,0.4784
2595791.0,-0.4932,0.3974,4.6807,-0.0814,0.4523,0.5247
2595801.0,-0.4788,0.0886,5.1882,0.1293,0.7146,0.5332
2595811.0,-0.8045,0.3112,5.7245,0.2953,0.9418,0.5098
2595821.0,-1.3599,0.5986,6.3662,0.3762,1.1084,0.4864
2595831.0,-1.7023,0.4381,7.0749,0.3858,1.21,0.473
2595841.0,-1.6783,0.0551,7.5178,0.3198,1.235,0.4326
2595851.0,-1.6999,-0.0383,7.7045,0.2118,1.2292,0.3459
2595861.0,-1.901,0.3184,7.8673,0.1128,1.2563,0.2469
2595871.0,-2.1955,0.893,8.0349,0.0569,1.3266,0.1804
2595881.0,-2.4373,1.3791,8.0876,0.0011,1.3893,0.1538
2595891.0,-2.5977,1.8435,8.169,-0.1128,1.4245,0.1511
2595901.0,-2.7031,2.3128,8.2839,-0.2597,1.4293,0.1713
2595911.0,-2.8515,2.7821,8.2145,-0.348,1.4218,0.2336
2595921.0,-3.0287,3.3447,7.7644,-0.3384,1.4277,0.3549
2595931.0,-3.1412,3.5219,7.5585,-0.2432,1.508,0.5502
2595941.0,-3.3926,3.6512,7.3334,-0.0426,1.6485,0.7934
2595951.0,-3.9002,3.3782,7.2353,0.1697,1.7858,1.0584
2595961.0,-4.1779,2.9521,6.7612,0.3517,1.8943,1.3095
2595971.0,-4.5179,2.1979,6.4332,0.4363,2.0087,1.5197
2595981.0,-4.956,1.2977,6.0813,0.4943,2.1716,1.673
2595991.0,-5.2816,0.3615,5.8969,0.5108,2.3892,1.7512
2596001.0,-5.8035,-0.5746,5.928,0.4363,2.6207,1.7416
2596011.0,-6.3087,-1.4916,6.6008,0.2826,2.8622,1.6458
2596021.0,-6.9791,-2.0638,7.4005,0.125,3.0937,1.4766
2596031.0,-9.1459,-2.0231,8.3079,0.0325,3.3076,1.2904
2596041.0,-6.9528,-3.9073,10.7931,0.0293,3.5609,1.0914
2596051.0,-8.6957,-4.039,13.4075,0.1277,3.8722,0.7907
2596061.0,-9.1482,-4.4149,16.9533,-0.1852,3.6125,0.422
2596071.0,-9.8282,-4.3383,19.8144,-0.4257,3.0586,0.0399
2596081.0,-9.1506,-3.4955,18.9788,-0.4651,2.3855,-0.2751
2596091.0,-9.7276,-3.3016,20.5255,-0.7184,1.8406,-0.5683
2596101.0,-10.4555,-1.8411,19.1416,-0.6859,1.2318,-0.7902
2596111.0,-10.6853,-1.3503,18.8591,-0.7705,0.6284,-0.945
2596121.0,-10.5465,-0.0694,16.3763,-0.5561,0.1953,-1.0142
2596131.0,-10.4315,0.6177,15.4905,-0.4486,0.0223,-1.0227
2596141.0,-10.4914,1.5874,14.4251,-0.2996,-0.0585,-0.9876
2596151.0,-10.5632,1.8723,14.607,-0.2836,-0.141,-0.9195
2596161.0,-10.2903,1.8507,14.2455,-0.2559,-0.2799,-0.837
2596171.0,-9.8737,1.3479,14.2048,-0.3437,-0.4385,-0.7918
2596181.0,-9.5289,0.9074,14.3101,-0.4693,-0.6119,-0.8035
2596191.0,-9.3446,0.6464,14.4562,-0.58,-0.8104,-0.8567
2596201.0,-9.1842,0.7805,14.1665,-0.6444,-1.0483,-0.9206
2596211.0,-9.0525,0.929,13.8409,-0.6673,-1.2776,-0.9615
2596221.0,-8.8992,1.1947,13.2232,-0.5965,-1.4633,-0.9637
2596231.0,-8.6239,1.3192,12.6773,-0.48,-1.6049,-0.9275
2596241.0,-8.4036,1.2809,12.2703,-0.3283,-1.7038,-0.8615
2596251.0,-8.1355,1.1636,11.7819,-0.1708,-1.8071,-0.7923
2596261.0,-7.7572,1.0511,11.0445,-0.083,-1.9443,-0.7455
2596271.0,-7.3646,0.996,10.0269,-0.0825,-2.0689,-0.738
2596281.0,-6.9911,1.154,9.1099,-0.1623,-2.1295,-0.7636
2596291.0,-6.7229,1.3575,8.5593,-0.2639,-2.0976,-0.7998
2596301.0,-6.5122,1.6759,8.1235,-0.348,-2.0156,-0.8216
2596311.0,-6.4452,1.7693,8.2839,-0.481,-1.9252,-0.828
2596321.0,-6.3159,1.6903,8.6359,-0.6321,-1.8709,-0.8189
2596331.0,-5.8059,1.336,9.8258,-0.763,-1.8608,-0.8093
2596341.0,-5.9807,1.1037,10.477,-0.6465,-1.9055,-0.8046
2596351.0,-5.8562,0.6656,10.6925,-0.4853,-2.0476,-0.7955
2596361.0,-5.4684,0.8308,10.0126,-0.3501,-2.2051,-0.8152
2596371.0,-5.3343,1.3264,9.4284,-0.3294,-2.3429,-0.8498
2596381.0,-5.2361,1.968,8.4659,-0.3129,-2.4467,-0.8498
2596391.0,-5.1188,2.5666,7.6471,-0.307,-2.4695,-0.7971
2596401.0,-3.4596,2.5498,7.2401,-0.2953,-2.4057,-0.6779
2596411.0,-5.4109,2.5283,7.6758,-0.3022,-2.2045,-0.5316
2596421.0,-4.2713,1.6089,8.3318,-0.3203,-2.2434,-0.4065
2596431.0,-3.8738,1.0463,8.1355,-0.3076,-2.3232,-0.3257
2596441.0,-3.4189,0.2394,8.3199,-0.2724,-2.3152,-0.274
2596451.0,-2.8132,-0.6919,8.7556,-0.199,-2.3397,-0.2661
2596461.0,-2.5211,-1.0271,8.2791,-0.1336,-2.4892,-0.3225
2596471.0,-1.9369,-1.166,7.4531,-0.0793,-2.61,-0.4065
2596481.0,-1.4772,-0.8284,6.4021,0.0319,-2.5621,-0.4911
2596491.0,-1.5155,-0.2346,5.7174,0.0894,-2.4131,-0.5608
2596501.0,-1.336,0.3065,5.2816,-0.0005,-2.3131,-0.5981
2596511.0,-1.1875,0.5507,5.1356,-0.2134,-2.253,-0.6013
2596521.0,-0.9457,0.5148,5.0901,-0.4321,-2.2162,-0.5805
2596531.0,-0.486,0.103,5.1212,-0.5108,-2.1391,-0.5284
2596541.0,0.1437,-0.6321,5.3606,-0.4252,-2.0337,-0.4741
2596551.0,0.7494,-1.4557,6.0406,-0.1767,-1.9289,-0.4518
2596621.0,2.648,1.0487,0.7015,0.3092,-0.9376,-1.1057
2596631.0,2.5953,1.5514,0.68,-0.0819,-0.7785,-1.1036
2596641.0,2.7845,1.4222,0.6823,-0.4448,-0.6231,-1.0669
2596651.0,4.1875,0.7542,0.8547,-0.6428,-0.4294,-1.0328
2596661.0,2.6336,1.391,0.012,-0.655,-0.1713,-1.0217
2596671.0,3.4069,1.0822,-0.067,-0.6891,0.0537,-1.0115
2596681.0,3.7565,2.1045,-0.7063,-0.4257,0.4943,-0.9977
2596691.0,2.1237,3.1005,1.2977,-0.0303,1.119,-0.9583
2596701.0,1.6041,4.1348,0.2873,0.3709,1.3872,-0.8402
2596711.0,1.7645,4.6831,0.4788,0.4597,1.6426,-0.7247
2596721.0,1.3671,5.7509,-0.0144,0.4406,1.956,-0.5731
2596731.0,0.261,6.1076,0.3759,0.2102,2.2987,-0.3624
2596741.0,-0.1532,6.0573,2.2242,-0.041,2.5978,-0.1378
2596751.0,-1.1205,6.3877,3.699,-0.0096,2.8686,0.1266
2596761.0,-2.1763,6.3351,5.4277,0.2267,3.0863,0.4214
2596771.0,-2.7892,6.5697,5.533,0.596,3.2102,0.7242
2596781.0,-3.5602,6.3853,5.5809,0.754,3.3124,0.977
2596791.0,-3.8738,6.4452,4.7836,0.5976,3.3481,1.1701
2596801.0,-4.7573,6.2944,4.6088,0.1027,3.3922,1.3266
2596811.0,-5.6288,5.6934,5.0422,-0.447,3.5268,1.5059
2596821.0,-6.9432,4.5346,7.1443,-0.8359,3.7594,1.7075
2596831.0,-7.6351,3.5267,9.6391,-0.8546,3.9195,1.9167
2596841.0,-8.5617,3.2417,11.2911,-0.5284,3.9382,2.0997
2596851.0,-10.4196,2.8898,11.7029,-0.0612,3.8908,2.262
2596861.0,-9.0621,3.1316,10.7691,0.2969,3.7115,2.3434
2596871.0,-9.8545,3.6512,9.4691,0.4656,3.7791,2.411
2596881.0,-9.8665,1.2498,6.7421,0.2304,3.9392,2.4945
2596891.0,-11.2719,0.7135,13.9319,-0.8482,4.2526,2.3754
2596901.0,-10.0868,2.9473,12.1625,-0.713,4.2276,2.3961
2596911.0,-14.3245,0.7278,20.2119,-1.0068,4.2351,2.5084
2596921.0,-12.8808,1.1636,16.939,-0.2661,3.7668,2.7207
2596931.0,-11.8226,-3.1867,22.7904,-0.2953,3.3784,2.743
2596941.0,-11.0492,-2.1117,19.3595,0.5683,2.9708,2.6058
2596951.0,-11.6047,-2.2266,21.1671,0.5885,2.601,2.3269
2596961.0,-11.5424,0.1149,18.3372,0.7503,2.1705,2.0853
2596971.0,-12.062,0.5459,19.9293,0.4475,2.0119,1.9337
2596981.0,-12.5456,1.1684,20.4537,0.3102,1.7927,1.8752
2596991.0,-12.4379,0.589,21.2366,-0.0963,1.2244,1.814
2597001.0,-11.9926,0.3232,19.9844,-0.4278,0.5853,1.7288
2597011.0,-11.5664,0.1221,18.9429,-0.6699,0.1133,1.6235
2597021.0,-11.0923,0.4405,16.9653,-0.6832,-0.1692,1.5437
2597031.0,-10.8194,0.7661,15.4953,-0.7354,-0.2708,1.4841
2597041.0,-10.7643,0.9266,14.868,-0.9046,-0.307,1.4511
2597051.0,-10.6087,0.407,15.2989,-1.1233,-0.3704,1.4473
2597061.0,-10.307,-0.4429,15.7802,-1.2398,-0.5295,1.4415
2597071.0,-10.0556,-1.1684,15.7945,-1.2627,-0.7716,1.3984
2597081.0,-9.9503,-1.2737,15.3684,-1.1909,-1.0291,1.3186
2597091.0,-9.9766,-1.1085,15.0428,-1.0036,-1.2276,1.2414
2597101.0,-9.9503,-0.6752,14.382,-0.6933,-1.3542,1.2036
2597111.0,-10.0413,-0.2777,13.9941,-0.4268,-1.4511,1.1951
2597121.0,-9.742,-0.2514,13.4506,-0.2432,-1.5745,1.2122
2597131.0,-9.1985,-0.6704,13.0652,-0.2027,-1.715,1.2063
2597141.0,-8.6814,-0.9194,12.3948,-0.2767,-1.8784,1.1472
2597151.0,-8.3653,-1.2785,12.232,-0.4454,-2.0263,1.0382
2597161.0,-8.0349,-1.415,12.1123,-0.5273,-2.1891,0.9035
2597171.0,-7.9535,-1.4724,11.789,-0.4699,-2.3557,0.7721
2597181.0,-7.4771,-1.2234,10.9295,-0.2054,-2.4552,0.671
2597191.0,-7.1922,-0.6488,10.2328,0.1479,-2.4445,0.596
2597201.0,-6.9815,0.2155,9.6031,0.48,-2.3642,0.5672
2597211.0,-6.5841,0.8356,9.4786,0.6886,-2.2514,0.5795
2597221.0,-6.359,1.2546,9.2823,0.6981,-2.2045,0.5917
2597231.0,-5.9472,1.3671,9.0573,0.4161,-2.27,0.5741
2597241.0,-5.5929,1.2905,8.7628,-0.0952,-2.4121,0.5135
2597251.0,-5.1954,0.6081,8.7963,-0.6683,-2.5738,0.4257
2597261.0,-4.7166,-0.2586,8.6814,-1.0355,-2.7143,0.3198
2597271.0,-4.3263,-0.8667,8.2624,-1.1222,-2.7718,0.2054
2597281.0,-3.6536,-1.6664,8.2001,-0.9966,-2.7345,0.0926
2597291.0,-3.2058,-1.5682,7.865,-0.6252,-2.6451,-0.0303
2597301.0,-2.8228,-1.0918,7.4316,-0.2389,-2.5547,-0.1479
2597311.0,-2.715,-0.103,6.4093,0.0213,-2.486,-0.2214
2597321.0,-2.4134,0.1915,6.1507,0.0713,-2.4296,-0.2538
2597331.0,-2.0016,0.2753,5.7964,0.0756,-2.3817,-0.2719
2597341.0,-1.4365,0.249,5.0925,0.0458,-2.3402,-0.29
2597351.0,-1.166,0.012,5.0206,-0.0229,-2.2594,-0.323
2597361.0,-0.8523,-0.0886,4.7645,-0.0192,-2.1513,-0.3602
2597371.0,-0.6081,-0.2322,4.6184,0.0325,-2.0396,-0.397
2597381.0,-0.2753,-0.3424,4.1755,0.0984,-1.9566,-0.4448
2597391.0,0.2682,-0.2849,3.3471,0.1394,-1.8746,-0.5092
2597401.0,2.8156,-0.1389,3.0622,0.1197,-1.7373,-0.5917
2597411.0,-0.1796,0.6464,2.5019,0.0777,-1.4489,-0.6641
2597421.0,1.1516,0.589,2.1644,-0.2235,-1.4644,-0.7327
2597431.0,1.3815,0.8356,1.2378,-0.4922,-1.3979,-0.8312
2597441.0,1.6807,1.1229,0.0527,-0.6827,-1.1398,-0.8753
2597451.0,2.0734,0.7805,0.3472,-0.9168,-0.8019,-0.8924
2597461.0,1.5874,0.6345,0.5411,-1.0946,-0.5023,-0.9046
2597471.0,1.6903,-0.0407,2.241,-1.2494,-0.299,-0.9424
2597481.0,1.1013,-0.1053,1.6855,-0.9668,-0.1341,-0.9791
2597491.0,1.9489,-0.893,1.336,-0.7428,0.0208,-1.0323
2597501.0,2.2601,-0.8571,0.3974,-0.4464,0.3581,-1.1382
2597511.0,1.4198,-0.7135,0.6153,-0.3102,0.7476,-1.2835
2597521.0,1.2833,-0.1269,0.8404,-0.2687,1.0376,-1.4335
2597531.0,0.7901,0.577,1.5395,-0.207,1.3729,-1.5474
2597541.0,0.3926,1.2234,2.4134,-0.1304,1.674,-1.6091
2597551.0,0.0934,1.5993,3.0335,-0.1149,1.8773,-1.6378
2597561.0,0.1532,2.5474,4.8315,-0.1623,2.0359,-1.6623
2597571.0,-1.5993,3.565,5.3247,0.0814,2.1726,-1.6123
2597581.0,-1.5826,3.632,6.3207,0.0814,2.1077,-1.4761
2597591.0,-1.2282,4.221,5.9903,0.1836,2.0784,-1.3271
2597601.0,-1.3551,4.1444,6.2297,0.19,2.0247,-1.1808
2597611.0,-1.6233,4.0749,5.1643,0.1815,1.956,-1.035
2597621.0,-1.9872,3.6416,4.7525,0.1394,2.0412,-0.8929
2597631.0,-2.1883,2.6528,5.2026,0.1362,2.1721,-0.7716
2597641.0,-2.5235,2.2649,5.0039,0.3235,2.2966,-0.7066
2597651.0,-2.7749,2.296,4.4029,0.5715,2.4307,-0.6843
2597661.0,-3.0095,2.8922,2.9664,0.7742,2.6308,-0.6832
2597671.0,-3.4189,3.395,2.5163,0.7753,2.9665,-0.6774
2597681.0,-4.118,3.9241,1.6759,0.6997,3.3656,-0.646
2597691.0,-5.5737,3.8954,2.3918,0.3139,3.7881,-0.5789
2597701.0,-6.9456,2.909,4.5729,-0.2347,4.1978,-0.48
2597711.0,-8.5258,1.5299,9.2608,-0.6481,4.4314,-0.4113
2597721.0,-9.2943,0.9266,11.1929,-0.5683,4.3362,-0.3251
2597731.0,-8.8633,-1.0151,13.793,-0.3858,4.1611,-0.2868
2597741.0,-8.521,-1.7478,14.109,0.3299,4.0457,-0.3624
2597751.0,-8.655,-1.3575,13.3549,0.8998,4.0574,-0.5459
2597761.0,-9.5792,0.0096,13.3956,0.7955,4.1366,-0.8152
2597771.0,-10.8625,0.5363,15.3899,0.0569,4.0542,-1.0695
2597781.0,-12.208,0.0048,18.5742,-0.8604,3.8216,-1.26
2597791.0,-13.1202,-1.3264,23.4536,-1.4724,3.4444,-1.4101
2597801.0,-13.6685,-1.8124,26.2668,-1.3053,2.7766,-1.5069
2597811.0,-13.7307,-1.0534,26.2883,-0.721,1.9369,-1.5798
2597821.0,-13.465,0.6129,24.3754,-0.1144,1.1302,-1.6017
2597831.0,-13.0508,2.5594,21.1049,0.3076,0.5295,-1.5437
2597841.0,-12.5648,3.6392,18.6484,0.2969,0.1564,-1.4181
2597851.0,-12.0572,3.3591,17.5088,0.0447,-0.0761,-1.2494
2597861.0,-11.5784,2.1931,16.9486,-0.2336,-0.273,-1.0977
2597871.0,-11.1211,0.5459,17.2526,-0.3837,-0.4597,-1.003
2597881.0,-10.8218,-0.7326,17.1042,-0.2772,-0.6827,-0.9759
2597891.0,-10.4866,-1.4413,16.3213,-0.0777,-0.9461,-1.0248
2597901.0,-10.0916,-1.6017,15.2271,0.099,-1.1818,-1.126
2597911.0,-9.8402,-1.1684,14.121,0.216,-1.3537,-1.2526
2597921.0,-9.6438,-0.5076,13.0173,0.2783,-1.4596,-1.358
2597931.0,-9.3182,-0.1053,12.1123,0.2405,-1.516,-1.4319
2597941.0,-8.9064,0.0982,11.6334,0.0814,-1.5644,-1.5
2597951.0,-8.588,0.3639,11.2025,-0.1176,-1.6123,-1.5713
2597961.0,-8.6143,0.7159,11.0181,-0.3368,-1.6613,-1.6288
2597971.0,-8.7197,0.6991,11.1306,-0.4762,-1.706,-1.6448
2597981.0,-8.7436,0.4429,11.327,-0.4571,-1.7421,-1.6362
2597991.0,-8.7556,0.2251,11.7244,-0.2554,-1.7496,-1.6182
2598001.0,-8.6143,0.1532,12.0596,0.083,-1.7491,-1.5915
2598011.0,-8.3749,0.3567,12.1003,0.3704,-1.8204,-1.5814
2598021.0,-8.26,0.9912,11.7483,0.5103,-1.955,-1.5857
2598031.0,-8.2169,1.5562,11.3342,0.4518,-2.1519,-1.583
2598041.0,-7.7189,1.7789,10.0509,0.2783,-2.3796,-1.5602
2598051.0,-7.0725,1.7023,9.0908,0.0213,-2.5052,-1.55
2598061.0,-6.7301,1.6903,8.6886,-0.1666,-2.4749,-1.5442
2598071.0,-6.505,1.5778,8.679,-0.2368,-2.4073,-1.5293
2598081.0,-6.3422,1.4916,8.758,-0.2017,-2.3535,-1.5043
2598091.0,-6.1459,1.3216,9.0668,-0.0942,-2.2977,-1.4718
2598101.0,-5.8562,1.3408,9.1746,0.0282,-2.2982,-1.4495
2598111.0,-5.4181,1.5945,8.7867,0.1027,-2.37,-1.4415
2598121.0,-5.1356,2.0997,8.2049,0.0942,-2.4259,-1.4261
2598131.0,-4.7573,2.387,7.8985,0.0862,-2.3892,-1.3665
2598141.0,-4.4412,2.4421,7.5609,0.0926,-2.328,-1.2781
2598151.0,-4.0103,2.1165,7.1515,0.0074,-2.3035,-1.1957
2598161.0,-3.3303,1.5897,6.9576,-0.1538,-2.2705,-1.1488
2598171.0,-2.8994,1.2498,7.0342,-0.315,-2.2136,-1.1446
2598181.0,-2.9688,1.3791,7.3143,-0.3799,-2.1322,-1.1478
2598191.0,-2.9616,1.2474,7.9009,-0.3304,-2.0524,-1.1068
2598201.0,-2.5522,0.5243,8.4228,-0.1676,-2.0146,-1.0408
2598211.0,-2.0375,0.1963,7.841,-0.0059,-2.0763,-1.0222
2598221.0,-1.3647,0.1317,7.2257,0.025,-2.1151,-1.0541
2598231.0,-0.8428,0.7326,6.5984,0.0053,-2.0566,-1.1036
2598241.0,-0.6919,1.5897,6.4284,-0.091,-1.9518,-1.1291
2598251.0,-0.6871,2.4756,6.3351,-0.2309,-1.8693,-1.0988
2598261.0,-0.6704,3.0718,6.4428,-0.4044,-1.8379,-1.0046
2598271.0,-0.5243,3.1364,6.3662,-0.5406,-1.8698,-0.8487
2598281.0,-0.2825,2.7653,6.122,-0.5236,-1.8757,-0.6529
2598291.0,0.0886,1.8962,5.7245,-0.3033,-1.7794,-0.4427
2598301.0,0.9768,0.7063,5.4013,0.0005,-1.6017,-0.2815
2598311.0,1.7334,-0.0072,5.4133,0.2325,-1.4016,-0.2277
2598321.0,1.9704,0.1796,5.3415,0.3352,-1.26,-0.2623
2598331.0,1.9513,1.0271,4.8914,0.2857,-1.184,-0.3155
2598341.0,1.8914,1.8052,4.719,0.1022,-1.0972,-0.3187
2598351.0,2.0782,2.0231,4.798,-0.0623,-0.9839,-0.2512
2598361.0,2.3822,1.8579,4.9057,-0.1548,-0.8721,-0.1453
2598371.0,2.6217,1.5083,5.1811,-0.1751,-0.7439,-0.0293
2598381.0,2.6839,1.0008,5.6336,-0.1564,-0.6476,0.0814
2598391.0,2.8419,0.5004,5.5857,-0.0803,-0.6183,0.1788
2598401.0,3.0789,-0.0383,5.351,0.0074,-0.6008,0.2506
2598411.0,3.2441,-0.3184,4.604,0.0862,-0.5784,0.2804
2598421.0,3.304,-0.4094,3.7876,0.1181,-0.5151,0.2735
2598431.0,3.4692,-0.2753,2.794,0.1245,-0.3858,0.2501
2598441.0,3.6799,-0.1676,2.0303,0.0921,-0.1926,0.223
2598451.0,3.7062,0.0575,1.6664,0.042,0.0665,0.1889
2598461.0,4.628,0.0886,2.4565,-0.0053,0.3964,0.1554
2598471.0,0.8356,1.2115,3.7924,-0.0213,0.647,0.1261
2598481.0,3.2394,1.7023,1.7813,-0.0686,0.4427,0.1846
2598491.0,3.972,1.4629,1.4006,-0.1506,0.6364,0.2602
2598501.0,2.7701,2.2745,0.7111,-0.0644,1.0914,0.3618
2598511.0,1.9752,2.0518,0.6512,-0.3022,1.2851,0.4848
2598521.0,2.8108,1.5634,0.5004,-0.6226,1.4223,0.5672
2598531.0,1.9776,3.0071,0.9888,-0.6955,1.7283,0.539
2598541.0,-0.4932,4.8794,1.1851,-0.4544,2.1737,0.687
2598551.0,-2.5163,5.3391,1.719,-0.2496,2.5286,1.0419
2598561.0,-2.9664,5.533,2.4277,-0.2027,2.717,1.409
2598571.0,-3.0718,5.4181,2.3176,-0.0527,2.9527,1.7762
2598581.0,-3.4189,4.4796,2.5594,-0.0229,3.1698,2.1136
2598591.0,-3.6919,4.6064,1.4413,-0.0287,3.4241,2.3956
2598601.0,-5.205,4.3048,2.5498,-0.2102,3.8887,2.6457
2598611.0,-7.355,4.4532,3.6416,-0.4049,4.2931,2.8974
2598621.0,-10.1275,2.6911,7.6926,-0.6194,4.6704,3.1842
2598631.0,-11.4658,1.3336,12.1889,-0.4752,4.8811,3.4678
2598641.0,-12.3134,0.5076,16.7283,-0.0223,4.7278,3.6891
2598651.0,-13.5847,0.4118,16.8504,0.8147,4.2244,3.8775
2598661.0,-13.2543,-0.905,14.5089,1.3973,3.6945,3.9903
2598671.0,-9.1842,-1.9393,11.6454,1.7959,3.5981,3.8445
2598681.0,-10.3166,-0.3591,10.9559,2.1561,4.2361,3.5024
2598691.0,-8.9471,1.8028,6.7516,1.757,4.78,3.2422
2598701.0,-15.8233,1.1157,20.9134,-0.2091,5.1141,2.7308
2598711.0,-16.6421,5.5234,16.69,-0.6534,4.3458,2.6489
2598721.0,-15.7778,1.3168,23.5087,-1.7331,3.7125,2.7665
2598731.0,-15.0404,-0.0024,22.1128,-1.7352,3.1421,2.9293
2598741.0,-14.054,-2.5786,24.4209,-2.2695,2.246,2.9112
2598751.0,-13.1825,-2.6671,23.2692,-2.1742,1.4543,2.8016
2598761.0,-13.2471,-1.7238,22.6659,-1.8204,0.8179,2.684
2598771.0,-11.3701,-3.1867,19.508,-1.3297,0.2426,2.6185
2598782.0,-10.8098,-3.3136,18.148,-0.9684,-0.1048,2.4514
2598791.0,-10.1107,-2.0949,14.3556,-0.5997,-0.3682,2.287
2598801.0,-9.9503,-1.336,12.5743,-0.7285,-0.4379,2.1311
2598811.0,-10.1969,-0.723,11.1474,-0.8434,-0.3028,2.0524
2598821.0,-9.7564,-1.8842,12.0787,-1.0999,-0.1974,2.0093
2598831.0,-9.0716,-2.7845,12.4187,-1.1435,-0.2017,1.9236
2598841.0,-8.588,-3.4884,13.1298,-1.1451,-0.2975,1.782
2598851.0,-8.4228,-3.316,12.6438,-0.9711,-0.4007,1.6208
2598861.0,-8.2049,-3.0095,12.1314,-0.8546,-0.4895,1.4692
2598871.0,-7.9703,-2.3296,10.6901,-0.8599,-0.5731,1.318
2598881.0,-7.9033,-2.0279,10.2089,-1.1419,-0.6008,1.1659
2598891.0,-7.8745,-1.9417,10.2903,-1.4362,-0.5731,1.0397
2598901.0,-8.0182,-2.4517,11.1642,-1.6522,-0.5789,0.9344
2598911.0,-8.0134,-3.0933,11.8226,-1.6485,-0.6433,0.8413
2598921.0,-7.7021,-3.9504,12.7515,-1.4873,-0.7231,0.7407
2598931.0,-7.2113,-4.13,12.1362,-1.2345,-0.9062,0.6093
2598941.0,-6.7924,-4.5322,12.6629,-1.2063,-1.1307,0.3964
2598951.0,-6.6535,-3.4237,11.6598,-0.911,-1.3047,0.1548
2598961.0,-6.5769,-2.4325,10.0796,-0.6321,-1.3462,0.0037
2598971.0,-6.5194,-1.719,9.256,-0.5992,-1.2866,-0.1133
2598981.0,-6.5314,-1.2809,9.3518,-0.7434,-1.235,-0.2134
2598991.0,-6.4236,-1.2354,9.9407,-0.903,-1.2393,-0.2857
2599001.0,-6.2321,-1.4916,10.2879,-0.9599,-1.2771,-0.3347
2599011.0,-5.9592,-1.9321,10.9583,-0.9892,-1.3803,-0.4049
2599021.0,-5.6431,-1.8028,10.9487,-0.8732,-1.508,-0.4922
2599031.0,-5.3893,-1.1827,10.6638,-0.6556,-1.5953,-0.5715
2599041.0,-5.363,-0.158,9.8474,-0.3959,-1.6134,-0.6034
2599051.0,-5.4755,0.6847,9.3087,-0.3049,-1.6096,-0.5933
2599061.0,-5.4995,1.2354,9.0836,-0.3661,-1.607,-0.5465
2599071.0,-5.4085,1.3431,9.2081,-0.5289,-1.6203,-0.4762
2599081.0,-5.1523,0.8571,9.5289,-0.737,-1.7006,-0.4039
2599091.0,-4.7309,0.2107,9.6319,-0.8801,-1.8113,-0.356
2599101.0,-4.3263,-0.498,9.7923,-0.9051,-1.8933,-0.331
2599111.0,-4.0247,-0.996,9.6175,-0.7854,-1.9443,-0.3225
2599121.0,-3.8427,-1.3862,9.6941,-0.5965,-1.9662,-0.3278
2599131.0,-3.6033,-1.5993,9.6271,-0.3443,-1.9949,-0.3427
2599141.0,-3.2657,-1.4844,9.2249,-0.1006,-2.0529,-0.3672
2599151.0,-3.1149,-1.2641,8.5234,0.1112,-2.063,-0.3842
2599161.0,-3.0358,-1.0056,8.0278,0.1841,-2.046,-0.4023
2599171.0,-2.8108,-0.9098,7.6902,0.1219,-2.0566,-0.4156
2599181.0,-2.4708,-1.1325,7.4196,0.033,-2.0582,-0.4182
2599191.0,-2.0901,-1.6281,7.3957,-0.0122,-2.0194,-0.4241
2599201.0,-1.5921,-2.0159,7.5585,0.025,-1.9683,-0.4454
2599211.0,-1.2163,-2.0183,7.3502,0.1469,-1.9364,-0.48
2599221.0,-0.9864,-1.8411,7.0797,0.2724,-1.9018,-0.5092
2599231.0,-0.8882,-1.3982,6.6008,0.3996,-1.8374,-0.5231
2599241.0,-0.9409,-1.3623,6.5625,0.4778,-1.7288,-0.5092
2599251.0,-0.8356,-1.6759,6.7924,0.5279,-1.6378,-0.4853
2599261.0,-0.2274,-2.1428,6.5601,0.5284,-1.648,-0.4954
2599271.0,0.1604,-2.5115,6.268,0.497,-1.6469,-0.5587
2599281.0,0.7063,-2.6288,5.5569,0.5252,-1.5665,-0.6401
2599291.0,1.0606,-2.6073,5.3032,0.4927,-1.4527,-0.7418
2599301.0,1.3958,-2.0135,4.695,0.4624,-1.3372,-0.8397
2599311.0,1.5586,-1.3767,4.561,0.4001,-1.1728,-0.9088
2599321.0,1.7095,-0.7733,4.221,0.3257,-0.9977,-0.9344
2599331.0,1.6903,-0.4764,4.1635,0.1485,-0.8615,-0.9339
2599341.0,1.6424,-0.4573,4.0294,-0.0952,-0.7817,-0.9174
2599351.0,1.9249,-0.8787,3.8331,-0.3235,-0.7066,-0.8892
2599361.0,2.7653,-1.4341,3.79,-0.4901,-0.6082,-0.8838
2599371.0,2.4636,-1.7214,4.3359,-0.5449,-0.4001,-0.9025
2599381.0,0.7326,-1.5706,3.9097,-0.5651,-0.3262,-0.9195
2599391.0,2.6719,-2.2721,3.8954,-0.5965,-0.3964,-0.9599
2599401.0,2.4229,-1.822,2.988,-0.2054,-0.1101,-1.0046
2599411.0,2.0159,-1.482,3.1101,0.2107,0.2389,-1.0328
2599421.0,1.5514,-1.0343,3.5051,0.6662,0.5092,-1.0509
2599431.0,1.7837,-0.17,2.2266,1.0951,0.6566,-1.0467
2599441.0,1.8842,-0.1628,2.1979,1.2276,0.829,-1.0557
2599451.0,0.8499,0.5602,1.5634,1.3611,1.0515,-1.0802
2599461.0,1.0008,0.8835,1.1732,1.2845,1.1946,-1.0807
2599471.0,0.4166,1.1971,0.9816,1.1632,1.4149,-1.0791
2599481.0,0.2298,1.4102,0.5602,0.9993,1.6054,-1.0685
2599491.0,-0.1341,1.2019,0.8236,0.7838,1.7943,-1.061
2599501.0,-0.0311,1.3886,0.5962,0.7391,2.0279,-1.0626
2599511.0,-1.2665,1.47,1.063,0.6902,2.2785,-1.0775
2599521.0,-1.7095,1.9944,0.5243,0.6971,2.4631,-1.1015
2599531.0,-2.0925,2.1093,0.6009,0.6907,2.685,-1.1334
2599541.0,-3.2226,2.7078,0.2586,0.862,3.0745,-1.1313
2599551.0,-4.1108,2.9616,1.0271,0.9908,3.5045,-1.1057
2599561.0,-5.2313,3.0933,1.992,1.0717,3.8669,-1.0765
2599571.0,-6.0023,2.5235,3.1675,1.0664,4.1372,-1.061
2599581.0,-6.5912,2.2386,4.8411,0.9445,4.2915,-1.0797
2599591.0,-7.7596,2.885,5.9137,0.886,4.383,-1.0919
2599601.0,-10.2304,2.9712,7.4077,0.9674,4.5416,-1.0653
2599611.0,-9.2751,3.3255,8.1403,1.309,4.6533,-1.0828
2599621.0,-8.8418,3.893,7.3071,1.632,5.087,-1.0073
2599631.0,-14.4634,3.2058,13.5847,1.4452,5.6702,-1.0477
2599641.0,-13.1322,4.0079,16.0771,1.3255,5.3818,-1.1254
2599651.0,-14.7842,4.039,20.2023,0.912,5.1333,-1.1142
2599661.0,-15.5456,4.1899,23.626,0.6061,4.6262,-1.0653
2599671.0,-14.7243,3.0957,25.9986,0.2182,3.6705,-0.9998
2599681.0,-13.4985,2.2362,26.6187,0.0234,2.717,-0.978
2599691.0,-13.6781,2.083,26.5972,0.3028,2.047,-0.9817
2599701.0,-14.0181,2.4565,25.3235,0.6971,1.466,-0.9897
2599711.0,-13.2711,3.1484,24.3849,0.7487,0.8349,-1.0392
2599721.0,-13.3046,4.3646,22.7329,0.6838,0.2645,-1.0488
2599731.0,-12.967,4.9488,21.5334,0.53,-0.2256,-0.9951
2599741.0,-12.2344,5.3295,19.8192,0.481,-0.6066,-0.8822
2599751.0,-11.6885,5.3486,18.6125,0.4241,-0.8642,-0.7482
2599761.0,-11.0875,5.3654,16.9653,0.4241,-1.0376,-0.6024
2599771.0,-10.4411,4.9823,15.6174,0.2453,-1.177,-0.4858
2599781.0,-9.7827,4.4796,14.7076,-0.1032,-1.2914,-0.4294
2599791.0,-9.3661,3.9002,14.3532,-0.5231,-1.3904,-0.4177
2599801.0,-9.1315,3.225,14.0755,-0.8971,-1.5043,-0.4268
2599811.0,-8.679,2.4038,13.6206,-1.1999,-1.6437,-0.464
2599821.0,-8.0876,2.0662,12.8257,-1.45,-1.7815,-0.5465
2599831.0,-7.9272,1.9776,12.4522,-1.649,-1.8209,-0.6332
2599841.0,-7.9655,1.9178,12.8281,-1.6809,-1.7884,-0.6758
2599851.0,-7.9104,1.8196,12.876,-1.524,-1.8299,-0.6646
2599861.0,-7.6591,1.5275,12.6198,-1.325,-1.9316,-0.6321
2599871.0,-7.2161,1.4413,11.7962,-1.1568,-2.063,-0.6151
2599881.0,-6.8498,1.5227,11.0157,-1.0855,-2.1428,-0.6167
2599891.0,-6.7924,1.7549,10.3813,-1.0903,-2.1641,-0.6183
2599901.0,-6.5218,1.6831,9.9671,-1.1653,-2.1806,-0.6061
2599911.0,-6.2345,1.3695,9.6295,-1.2792,-2.2061,-0.5928
2599921.0,-5.9161,0.7757,9.5912,-1.3936,-2.2232,-0.5933
2599931.0,-5.612,0.2586,9.6175,-1.4356,-2.2391,-0.621
2599941.0,-5.3989,-0.1532,9.5792,-1.3622,-2.2439,-0.6667
2599951.0,-5.1906,-0.2705,9.1913,-1.2271,-2.2413,-0.7263
2599961.0,-4.8195,-0.1963,8.8131,-1.1414,-2.2221,-0.8008
2599971.0,-4.6591,-0.0168,8.7221,-1.1297,-2.1998,-0.878
2599981.0,-4.3814,0.2322,8.2863,-1.16,-2.2067,-0.9434
2599991.0,-4.1204,0.3472,8.1882,-1.2526,-2.1912,-0.994
2600001.0,-3.9576,0.5052,8.2672,-1.3415,-2.1769,-1.0264
2600011.0,-3.9073,0.5076,8.4132,-1.3915,-2.1902,-1.0307
2600021.0,-3.699,0.4357,8.4587,-1.3175,-2.1998,-1.0073
2600031.0,-3.4429,0.7925,8.0828,-1.1387,-2.1907,-0.9488
2600041.0,-3.0957,-0.2658,8.6574,-0.9397,-2.1364,-0.886
2600051.0,-2.332,-0.3304,7.8386,-0.5757,-2.0928,-0.853
2600061.0,-1.9321,-0.3567,7.695,-0.4518,-2.0199,-0.8695
2600071.0,-1.8555,0.3304,7.6207,-0.5034,-1.9603,-0.9152
2600081.0,-1.9848,0.838,7.7572,-0.7141,-1.9944,-0.9227
2600091.0,-2.138,0.8523,7.9918,-0.9301,-2.0992,-0.8838
2600101.0,-1.6424,0.5052,7.5082,-0.9668,-2.1976,-0.796
2600111.0,-1.154,-0.2011,6.9576,-0.8498,-2.1992,-0.6976
2600121.0,-0.7254,-0.893,6.541,-0.6119,-2.0774,-0.6226
2600131.0,-0.091,-1.3671,6.4787,-0.332,-1.906,-0.5859
2600141.0,0.3089,-1.2043,6.5529,-0.1032,-1.7613,-0.5843
2600151.0,0.498,-0.9553,6.4069,0.0314,-1.6916,-0.589
2600161.0,0.7039,-0.5842,5.9999,0.0474,-1.6746,-0.5954
2600171.0,0.9888,-0.0096,5.4492,0.0037,-1.5947,-0.5694
2600181.0,0.905,0.2203,5.5522,-0.1022,-1.4644,-0.5002
2600191.0,1.1181,-0.1748,5.873,-0.257,-1.3925,-0.4033
2600201.0,1.4054,-0.7997,6.4332,-0.3874,-1.3888,-0.3299
2600211.0,1.6089,-1.1827,6.5003,-0.3821,-1.4463,-0.281
2600221.0,1.9824,-1.6592,6.2225,-0.2054,-1.474,-0.2357
2600231.0,2.7533,-1.6017,5.7988,0.157,-1.4261,-0.2107
2600241.0,3.4022,-1.6544,5.0637,0.5002,-1.2968,-0.1953
2600251.0,1.8986,-1.7047,3.7373,0.5757,-1.2691,-0.2208
2600261.0,4.4149,-1.9465,2.2338,0.4087,-1.3595,-0.3219
2600271.0,4.5346,-0.9313,0.4046,0.3613,-1.0137,-0.423
2600281.0,3.8714,-0.5674,0.1437,0.0873,-0.6135,-0.4805
2600291.0,4.2306,-0.1772,-0.2777,-0.3092,-0.3421,-0.5055
2600301.0,4.2401,0.1269,0.5315,-0.6997,-0.0341,-0.5199
2600311.0,3.9552,0.6871,0.6967,-0.9083,0.224,-0.4943
2600321.0,3.7493,0.929,1.2139,-0.9929,0.4784,-0.4284
2600331.0,3.5482,1.3216,1.3312,-0.9195,0.7545,-0.3187
2600341.0,2.3822,1.4892,1.8172,-0.8088,1.0515,-0.1846
2600351.0,2.478,1.6759,2.2793,-0.6917,1.2515,-0.0378
2600361.0,2.2098,1.6137,2.9353,-0.4736,1.5128,0.1261
2600371.0,1.9321,1.4557,4.0318,-0.1527,1.7906,0.299
2600381.0,1.4222,1.2354,5.5689,0.2714,1.9928,0.447
2600391.0,0.972,1.6376,5.3151,0.7386,2.0635,0.5789
2600401.0,0.5938,1.6352,5.7868,0.9317,2.0907,0.6758
2600411.0,0.0958,1.7095,5.8155,1.0951,2.13,0.7455
2600421.0,0.2873,1.9848,5.5929,1.1648,2.112,0.795
2600431.0,-0.1891,3.1723,7.2185,1.2717,2.2296,0.8317
2600441.0,-0.4836,4.8004,4.7932,1.6368,2.2365,0.9817
2600451.0,-1.5993,4.446,5.351,1.4963,2.3136,1.1898
2600461.0,-1.7693,5.0973,4.0199,1.3947,2.419,1.4032
2600471.0,-2.2649,4.6184,4.9823,0.9807,2.51,1.5841
2600481.0,-2.7414,4.7669,4.3383,0.712,2.5744,1.7538
2600491.0,-3.3734,4.6663,4.719,0.4268,2.7015,1.9124
2600501.0,-4.2162,4.9943,4.4341,0.2629,2.858,2.0997
2600511.0,-5.7437,5.3654,4.6567,0.1176,3.0469,2.3487
2600521.0,-7.1084,5.1619,5.3056,0.0724,3.2576,2.6898
2600531.0,-9.6462,4.8746,6.28,0.232,3.5258,3.0863
2600541.0,-11.1857,3.5123,7.7979,0.6556,3.8126,3.5077
2600551.0,-12.6366,2.3559,10.1514,1.3787,4.2654,3.9307
2600561.0,-13.3596,0.8619,14.2623,2.1795,4.6225,4.2484
2600571.0,-14.0803,0.2227,16.6541,3.3028,4.7071,4.4107
2600581.0,-13.9103,-4.8674,13.5033,4.1515,4.6868,4.3862
2600591.0,-8.8083,-6.6367,18.1002,3.3736,4.7363,3.7376
2600601.0,-12.4594,-3.8954,21.2078,3.2336,5.1381,2.8319
2600611.0,-14.6741,-2.5762,25.7688,2.2812,4.6225,2.054
2600621.0,-13.8888,-1.9154,26.6953,1.0866,3.5928,1.4096
2600631.0,-13.6374,-1.5802,28.1247,-0.357,2.5116,0.754
2600641.0,-12.5791,-0.7877,27.5764,-1.724,1.2116,0.2187
2600651.0,-12.0524,0.0622,26.1207,-2.3269,0.141,-0.133
2600661.0,-11.655,1.6376,22.7162,-2.0124,-0.4816,-0.2224
2600671.0,-11.1522,3.0287,20.0443,-1.3266,-0.6311,-0.1203
2600681.0,-10.635,4.2306,18.002,-0.6226,-0.6582,0.0937
2600691.0,-10.1921,5.1667,16.2925,-0.1064,-0.705,0.3608
2600701.0,-9.572,5.3606,14.6405,0.1532,-0.7817,0.6486
2600711.0,-8.9184,4.9728,13.2256,0.1522,-0.8264,0.8987
2600721.0,-8.3558,4.142,12.7204,-0.0458,-0.8301,1.0781
2600731.0,-7.9727,3.2394,12.5911,-0.2586,-0.8141,1.1877
2600741.0,-7.7883,2.2122,13.0173,-0.4539,-0.7998,1.2398
2600751.0,-7.4508,1.1875,13.5033,-0.589,-0.8535,1.2414
2600761.0,-7.0701,0.3687,13.6254,-0.7455,-1.0296,1.1659
2600771.0,-6.7086,-0.012,13.4626,-0.8961,-1.259,1.0344
2600781.0,-6.4069,-0.2993,13.2375,-0.9541,-1.458,0.8987
2600791.0,-6.0286,-0.3711,12.5935,-0.8695,-1.6256,0.7769
2600801.0,-5.8059,-0.1844,11.6167,-0.7157,-1.7629,0.6673
2600811.0,-5.6767,0.1437,10.5824,-0.5475,-1.8379,0.5827
2600821.0,-5.5043,0.4693,9.6845,-0.3677,-1.8182,0.5364
2600831.0,-5.2122,0.4429,9.0812,-0.223,-1.7278,0.522
2600841.0,-4.7836,0.2849,8.928,-0.1708,-1.6341,0.4943
2600851.0,-4.5107,0.4836,8.837,-0.2128,-1.5942,0.4321
2600861.0,-4.4269,0.7278,8.9687,-0.3336,-1.59,0.3704
2600871.0,-4.3574,0.7949,9.1123,-0.4342,-1.6022,0.3384
2600881.0,-4.3215,0.577,9.3972,-0.4826,-1.6251,0.3374
2600891.0,-4.1851,0.3136,9.5553,-0.4581,-1.6852,0.339
2600901.0,-3.972,0.1796,9.426,-0.3565,-1.7613,0.332
2600911.0,-3.9241,0.2442,9.0908,-0.2038,-1.8166,0.3214
2600921.0,-3.7062,0.2514,8.9591,-0.0399,-1.8315,0.3177
2600931.0,-3.3974,0.1796,8.7915,0.1362,-1.8438,0.3193
2600941.0,-3.1627,0.2777,8.4204,0.2778,-1.8863,0.299
2600951.0,-2.9928,0.6416,7.75,0.3597,-1.9183,0.274
2600961.0,-2.7174,0.7805,7.5058,0.3725,-1.9151,0.2661
2600971.0,-2.4588,0.9673,6.8259,0.39,-1.9023,0.2719
2600981.0,-2.2865,0.8356,6.4452,0.3299,-1.8608,0.282
2600991.0,-1.8483,0.3112,6.2752,0.2464,-1.79,0.2831
2601001.0,-1.4078,-0.4022,6.462,0.157,-1.7198,0.2373
2601011.0,-0.917,-0.9266,6.4883,0.0905,-1.6783,0.1378
2601021.0,-0.5339,-1.1516,6.5386,0.033,-1.6586,-0.0053
2601031.0,-0.2825,-0.9625,6.4667,0.0303,-1.6123,-0.158
2601041.0,-0.1197,-0.4908,6.3111,0.0697,-1.516,-0.2932
2601051.0,0.0335,0.0622,6.098,0.0527,-1.442,-0.4007
2601061.0,0.1197,0.5578,5.7652,-0.0617,-1.3947,-0.4826
2601071.0,0.1628,0.8428,5.6647,-0.2522,-1.3345,-0.5364
2601081.0,0.3759,0.7398,5.7796,-0.4507,-1.2696,-0.5662
2601091.0,0.7087,0.5028,6.0071,-0.6135,-1.2207,-0.596
2601101.0,0.8595,0.407,5.9975,-0.7668,-1.2106,-0.6444
2601111.0,0.9936,0.5243,5.8442,-0.9376,-1.2441,-0.7013
2601121.0,1.0511,0.7422,5.6671,-1.0488,-1.2659,-0.7327
2601131.0,1.1277,0.8523,5.4684,-1.0057,-1.2271,-0.7141
2601141.0,1.2641,0.917,5.2481,-0.795,-1.119,-0.6588
2601151.0,1.2402,1.0726,5.023,-0.4938,-0.977,-0.588
2601161.0,0.9266,1.0511,4.9991,-0.215,-0.862,-0.5034
2601171.0,1.1444,0.5674,4.8985,0.0724,-0.7774,-0.4273
2601181.0,1.5682,0.249,4.1276,0.3751,-0.6864,-0.4033
2601191.0,1.7621,0.0934,3.4261,0.5827,-0.5396,-0.4422
2601201.0,1.8866,0.2705,2.8706,0.7678,-0.2985,-0.5199
2601211.0,1.9704,0.656,2.399,0.9461,0.0165,-0.6029
2601221.0,1.992,1.1253,2.1213,1.0435,0.3549,-0.687
2601231.0,1.9465,1.6137,1.8962,1.0307,0.7008,-0.771
2601241.0,1.7885,2.2625,1.7478,0.8679,1.0472,-0.8636
2601251.0,1.2833,2.9808,1.7262,0.4933,1.3564,-0.9519
2601261.0,0.6752,3.2513,2.1021,-0.083,1.6299,-1.0185
2601271.0,0.1532,3.0143,2.9401,-0.7827,1.8635,-1.0568
2601281.0,0.1413,1.9369,4.7238,-1.458,1.9912,-1.0791
2601291.0,0.1652,1.4413,5.873,-1.7592,2.0715,-1.1201
2601301.0,-1.1205,0.8691,8.8657,-1.5181,2.3019,-1.1611
2601311.0,-0.759,2.2482,6.3375,-0.8035,2.3253,-1.1121
2601321.0,-0.917,2.3367,6.6176,-0.5449,2.4871,-1.0855
2601331.0,-1.64,3.7589,6.019,-0.3805,2.6973,-1.0781
2601341.0,-2.2051,4.5969,5.5785,-0.5811,2.7398,-1.0084
2601351.0,-3.0646,4.5226,5.6743,-0.9062,2.8218,-0.8705
2601361.0,-4.0199,5.2696,8.3151,-0.9392,3.0964,-0.6625
2601371.0,-5.1499,5.3846,8.1116,-0.2629,3.3417,-0.2927
2601381.0,-5.2553,4.2737,8.6814,0.299,3.53,0.0415
2601391.0,-5.3271,3.7182,7.4555,0.6699,3.72,0.2309
2601401.0,-5.5115,3.0478,8.4803,0.3352,3.8866,0.257
2601411.0,-6.2608,3.3878,8.5952,-0.1261,4.0047,0.207
2601421.0,-8.248,3.0047,10.6757,-0.8163,4.0552,0.1703
2601431.0,-9.2775,2.0255,12.8066,-1.2691,4.0366,0.2155
2601441.0,-9.4164,0.249,15.7012,-1.3963,3.9903,0.29
2601451.0,-9.2273,-1.4222,18.1624,-1.086,3.9238,0.3209
2601461.0,-9.2296,-2.0901,20.3651,-0.6779,3.8105,0.2246
2601471.0,-9.6893,-1.5682,22.1176,-0.5678,3.4321,0.0048
2601481.0,-10.398,-0.4932,23.3219,-0.8498,2.7244,-0.2389
2601491.0,-10.7811,0.589,23.2118,-1.2058,1.8693,-0.3837
2601501.0,-10.7787,1.1732,22.2924,-1.3968,1.1174,-0.3916
2601511.0,-10.5896,1.3767,21.1432,-1.2446,0.6109,-0.2884
2601521.0,-10.4244,1.4629,20.2142,-0.8046,0.3225,-0.1229
2601531.0,-10.07,1.6352,19.2398,-0.2315,0.1091,0.0617
2601541.0,-9.6438,1.9848,17.9828,0.2522,-0.1149,0.2309
2601551.0,-9.0429,2.1859,16.69,0.5023,-0.34,0.3778
2601561.0,-8.4587,2.1261,15.4713,0.5364,-0.5337,0.4927
2601571.0,-7.9583,1.6616,14.6789,0.3773,-0.7035,0.5699
2601581.0,-7.4651,1.2019,13.7762,0.1517,-0.8727,0.5986
2601591.0,-7.1251,0.7709,12.9263,-0.1059,-1.0515,0.58
2601601.0,-6.7086,0.5291,11.8944,-0.3017,-1.1935,0.539
2601611.0,-6.201,0.0982,11.0253,-0.4411,-1.2489,0.489
2601621.0,-5.7724,-0.17,10.3765,-0.5209,-1.2425,0.423
2601631.0,-5.4205,-0.4166,10.1754,-0.5263,-1.1914,0.3453
2601641.0,-5.1332,-0.395,9.924,-0.4544,-1.144,0.2692
2601651.0,-4.9297,-0.3352,9.6462,-0.3815,-1.1137,0.1932
2601661.0,-4.7597,0.0407,9.232,-0.3517,-1.1041,0.1112
2601671.0,-4.7477,0.4764,8.8992,-0.3773,-1.0898,0.0436
2601681.0,-4.7142,0.6967,8.8322,-0.4108,-1.0408,0.0096
2601691.0,-4.5562,0.6536,9.0453,-0.4273,-0.9887,-0.0043
2601701.0,-4.4604,0.5746,9.3182,-0.4124,-0.9748,-0.0208
2601711.0,-4.3862,0.5914,9.4068,-0.3555,-0.9972,-0.0357
2601721.0,-4.3551,0.7422,9.3063,-0.3044,-1.0456,-0.0458
2601731.0,-4.1946,0.8428,9.1961,-0.2634,-1.0813,-0.0436
2601741.0,-3.9672,1.2306,8.8107,-0.1948,-1.0818,-0.0346
2601751.0,-3.9887,1.6879,8.4228,-0.2182,-1.0632,-0.0197
2601761.0,-4.1851,1.8747,8.3797,-0.3512,-1.0451,0.0117
2601771.0,-4.2928,1.5658,8.7843,-0.4917,-1.044,0.0596
2601781.0,-4.063,0.9505,9.0884,-0.5204,-1.06,0.1048
2601791.0,-3.723,0.2418,9.3661,-0.4257,-1.0541,0.1272
2601801.0,-3.5195,-0.1197,9.7109,-0.2538,-1.0334,0.1133
2601811.0,-3.3567,-0.2442,9.6295,-0.0782,-1.0477,0.0814
2601821.0,-3.3734,-0.1652,10.0556,-0.0287,-1.0972,0.0266
2601831.0,-3.2417,0.3232,9.7947,0.0963,-1.1515,-0.0223
2601841.0,-3.2346,0.5459,9.4212,0.1591,-1.1893,-0.0388
2601851.0,-3.2657,0.5578,9.1291,0.0873,-1.2302,-0.0537
2601861.0,-3.2729,0.6488,8.8202,-0.116,-1.3021,-0.0851
2601871.0,-3.0622,0.4741,8.5449,-0.3448,-1.3877,-0.1128
2601881.0,-2.6887,0.1006,8.327,-0.448,-1.4011,-0.1336
2601891.0,-2.4445,-0.3472,8.5234,-0.3831,-1.3085,-0.1474
2601901.0,-2.1548,-0.431,8.6718,-0.1921,-1.2228,-0.1687
2601911.0,-1.9609,-0.3711,8.7293,0.0048,-1.1973,-0.2017
2601921.0,-1.9297,0.2203,8.1523,0.1926,-1.1914,-0.2325
2601931.0,-1.8579,0.8068,7.5346,0.2996,-1.1611,-0.2299
2601941.0,-1.652,1.2354,6.9049,0.3182,-1.0972,-0.199
2601951.0,-1.5921,1.3743,6.4955,0.2331,-1.002,-0.157
2601961.0,-1.3623,1.1756,6.3901,0.0926,-0.8822,-0.1107
2601971.0,-1.0247,0.7111,6.5098,-0.0452,-0.7604,-0.0793
2601981.0,-0.8475,0.237,6.8474,-0.1373,-0.6359,-0.0782
2601991.0,-0.6943,-0.0096,7.4915,-0.1298,-0.5119,-0.0952
2602001.0,-0.7494,0.1173,7.7165,0.0037,-0.4092,-0.1107
2602011.0,-0.8428,0.3759,7.8099,0.1421,-0.323,-0.1091
2602021.0,-0.7638,0.5052,7.7788,0.2256,-0.232,-0.0968
2602031.0,-0.8045,0.5339,7.8386,0.1639,-0.1772,-0.0984
2602041.0,-0.8595,0.3974,8.0062,0.0005,-0.1527,-0.1128
2602051.0,-0.7997,-0.0718,8.3558,-0.1671,-0.1261,-0.1389
2602061.0,-0.5866,-0.747,8.995,-0.2597,-0.0984,-0.1857
2602071.0,-0.3831,-1.1205,9.5002,-0.2288,-0.0788,-0.2666
2602081.0,-0.3879,-0.9266,9.7827,-0.099,-0.0718,-0.3645
2602091.0,-0.5459,-0.1101,9.584,0.0564,-0.0708,-0.4486
2602101.0,-0.7805,0.7949,9.4332,0.124,-0.0724,-0.4927
2602111.0,-1.0942,1.5658,9.1674,0.1027,-0.0803,-0.481
2602121.0,-1.2522,1.9225,9.1339,0.0357,-0.0947,-0.4246
2602131.0,-1.1875,2.0566,8.9184,0.0261,-0.066,-0.3421
2602141.0,-1.1756,2.1739,8.9639,0.042,0.0314,-0.2506
2602151.0,-1.1779,2.0423,9.7252,0.0346,0.1431,-0.1559
2602161.0,-1.3192,1.8842,10.6207,0.0452,0.1985,-0.0692
2602171.0,-1.3647,1.7813,11.2312,0.0474,0.141,0.0043
2602181.0,-1.2186,1.6592,11.2839,0.0484,0.0112,0.067
2602191.0,-1.154,1.6472,10.884,0.0474,-0.1016,0.1245
2602201.0,-1.1564,1.4916,10.6063,0.0229,-0.1511,0.1745
2602211.0,-1.0654,1.0918,10.6566,0.0255,-0.132,0.224
2602221.0,-1.2546,0.7015,11.236,0.0383,-0.1,0.2549
2602231.0,-1.2713,0.0527,11.7962,0.0724,-0.165,0.2698
2602241.0,-1.008,-0.668,11.983,0.125,-0.3198,0.2512
2602251.0,-0.7039,-0.996,11.8513,0.2597,-0.4502,0.1926
2602261.0,-0.5076,-0.9936,11.2432,0.4688,-0.5364,0.1224
2602271.0,-0.3687,-0.7997,10.5225,0.63,-0.589,0.0463
2602281.0,-0.316,-0.3065,9.7252,0.7146,-0.6103,-0.0325
2602291.0,-0.4741,0.3639,8.9783,0.7199,-0.6119,-0.0926
2602301.0,-0.6033,0.8835,8.3079,0.6598,-0.5779,-0.1176
2602311.0,-0.5866,0.9553,7.9344,0.5523,-0.5151,-0.1091
2602321.0,-0.3974,0.6847,8.0158,0.4475,-0.431,-0.0958
2602331.0,-0.2346,0.2705,8.5856,0.4252,-0.3241,-0.0915
2602341.0,-0.1413,-0.0215,9.1626,0.5353,-0.2458,-0.1022
2602351.0,-0.0934,0.1221,9.2656,0.6811,-0.2517,-0.1378
2602361.0,-0.1053,0.6033,8.8083,0.7662,-0.306,-0.1841
2602371.0,-0.1413,1.0439,8.3653,0.7386,-0.3597,-0.2219
2602381.0,-0.0599,1.2306,7.9033,0.6699,-0.3932,-0.24
2602391.0,0.2251,1.2306,7.4148,0.6242,-0.3948,-0.2453
2602401.0,0.4381,1.1923,7.0006,0.5917,-0.3789,-0.2528
2602411.0,0.6297,1.2163,6.4404,0.5816,-0.3645,-0.2549
2602421.0,0.7302,1.1205,5.9855,0.5678,-0.356,-0.2543
2602431.0,0.9481,1.1851,5.4564,0.6002,-0.3395,-0.2538
2602441.0,0.972,1.2905,4.7429,0.7019,-0.2932,-0.2432
2602451.0,2.5307,0.9266,4.0103,0.812,-0.2565,-0.2198
2602461.0,0.4046,1.008,3.3782,0.9477,-0.1139,-0.2112
2602471.0,0.8595,1.0798,1.4605,0.9865,-0.1362,-0.2017
2602481.0,1.7789,0.9002,-0.3496,0.9349,-0.0442,-0.2033
2602491.0,0.814,1.5131,-2.7126,0.9546,0.3182,-0.1894
2602501.0,0.9146,1.3001,-3.0885,0.8264,0.7833,-0.1399
2602511.0,0.4501,0.5938,-2.7485,0.911,1.3478,-0.0612
2602521.0,-2.9449,0.0287,-2.4612,1.2467,1.8597,-0.0463
2602531.0,-1.1708,-0.5866,-3.6248,1.947,2.3972,-0.1144
2602541.0,-1.8771,-0.2059,-7.1994,2.6536,3.2906,-0.2969
2602551.0,0.5578,-0.1173,-8.0517,2.7675,4.4229,-0.6311
2602561.0,-7.4148,1.3527,-7.8578,2.4344,6.0267,-1.0355
2602571.0,-10.1849,0.5195,-0.917,0.6412,7.0058,-1.5213
2602581.0,-16.3237,1.9968,4.7932,-1.3846,7.5485,-2.0109
2602591.0,-8.6981,-0.2131,15.5192,-3.455,7.3841,-2.3482
2602601.0,-17.6644,-0.1341,21.464,-4.3596,7.4097,-2.4243
2602611.0,-20.2023,-0.4286,31.3042,-5.1051,6.7174,-2.461
2602621.0,-17.2909,-2.4948,40.2513,-4.8773,5.3499,-2.295
2602631.0,-18.4545,0.8045,38.9465,-3.1927,4.027,-1.9906
2602641.0,-17.6453,0.9481,40.2202,-2.0518,2.4812,-1.6331
2602651.0,-16.6948,3.6392,35.3217,-0.6236,0.9605,-1.2223
2602661.0,-16.0842,4.1587,31.9674,0.4108,-0.1708,-0.7577
2602671.0,-14.71,5.0374,26.2069,1.4505,-1.0099,-0.3193
2602681.0,-13.611,4.7812,22.5701,2.0907,-1.4489,0.0601
2602691.0,-12.1673,4.8746,18.2438,2.494,-1.7086,0.3336
2602701.0,-10.7476,4.312,15.1457,2.3615,-1.815,0.4789
2602711.0,-9.5409,3.9265,12.7707,1.8746,-1.7475,0.4981
2602721.0,-8.6479,3.1843,12.0021,1.0546,-1.6506,0.4017
2602731.0,-7.8434,2.5738,11.1354,0.0745,-1.6762,0.2097
2602741.0,-7.446,1.8771,10.8888,-0.9264,-1.7145,-0.0271
2602751.0,-7.2784,1.0415,11.5329,-1.64,-1.665,-0.2389
2602761.0,-7.0797,0.1221,12.6055,-1.8571,-1.557,-0.3938
2602771.0,-5.1092,-0.4094,13.2543,-1.7347,-1.5314,-0.5252
2602781.0,-7.2999,-0.5794,14.6765,-1.5495,-1.5282,-0.6737
2602791.0,-6.6966,-0.0575,14.0731,-1.1137,-1.7709,-0.7875
2602801.0,-6.3901,0.4573,13.0292,-0.7641,-1.955,-0.8652
2602811.0,-6.2034,1.3336,12.1697,-0.6199,-2.1018,-0.9386
2602821.0,-6.256,2.2146,11.3461,-0.6157,-2.2737,-0.9786
2602831.0,-6.28,3.2034,10.24,-0.6534,-2.4185,-0.9621
2602841.0,-6.292,3.6727,9.1459,-0.7285,-2.4892,-0.879
2602851.0,-5.9017,3.4955,8.3079,-0.845,-2.5094,-0.7673
2602861.0,-5.3223,2.9928,7.7764,-0.9876,-2.4796,-0.6822
2602871.0,-4.8866,2.308,8.0038,-1.0898,-2.3897,-0.6417
2602881.0,-4.5538,1.7789,8.691,-1.086,-2.3035,-0.6321
2602891.0,-4.3479,1.2905,9.4475,-1.0094,-2.3046,-0.638
2602901.0,-4.13,1.0439,9.7516,-0.8998,-2.3796,-0.6619
2602911.0,-4.0175,1.063,9.9192,-0.8413,-2.5345,-0.7077
2602921.0,-4.0055,1.3671,9.3326,-0.803,-2.7537,-0.7492
2602931.0,-3.9433,1.561,8.7508,-0.7934,-2.9357,-0.7646
2602941.0,-3.7757,1.6712,8.0852,-0.7285,-3.0793,-0.7391
2602951.0,-3.5578,1.5706,7.1754,-0.5561,-3.1677,-0.6705
2602961.0,-3.1173,1.4293,5.9424,-0.2543,-3.1607,-0.5651
2602971.0,-3.7373,1.0654,4.8746,0.0357,-3.0224,-0.4512
2602981.0,-1.7837,0.0096,4.7788,0.1713,-2.8723,-0.39
2602991.0,-0.51,-0.4669,4.9799,0.3028,-2.6669,-0.4156
2603001.0,-0.7685,-0.4693,5.2696,0.34,-2.4929,-0.4879
2603011.0,-0.7446,0.0144,5.0973,0.1517,-2.5472,-0.5821
2603021.0,-0.4788,0.2107,5.0566,-0.1517,-2.6366,-0.6556
2603031.0,0.1844,0.2298,4.7884,-0.3081,-2.6446,-0.688
2603041.0,0.6009,0.1413,5.1427,-0.2863,-2.5696,-0.6992
2603051.0,0.7973,0.2227,5.0063,-0.0553,-2.5025,-0.6731
2603061.0,1.0702,0.1125,4.7932,0.3012,-2.4238,-0.6034
2603071.0,1.3671,-0.0958,4.3359,0.7327,-2.3221,-0.514
2603081.0,1.5155,-0.1772,3.1723,1.0674,-2.2785,-0.4406
2603091.0,1.7047,0.0862,0.996,1.1212,-2.328,-0.3948
2603101.0,1.719,0.7254,-1.3599,0.9445,-2.3317,-0.3778
2603111.0,2.9377,0.3089,-3.3136,0.7694,-2.17,-0.3517
2603121.0,3.8858,-0.3519,-5.5593,0.7173,-1.7741,-0.3512
2603131.0,5.0111,-1.1588,-6.936,0.6274,-1.3329,-0.4443
2603141.0,5.6934,-1.2953,-7.1323,0.8003,-0.7114,-0.6194
2603151.0,5.1691,0.2993,-10.2041,1.467,0.0261,-0.7444
2603161.0,4.4867,1.166,-8.77,1.9438,1.1393,-0.8189
2603171.0,3.8499,2.9784,-8.7197,2.046,1.7379,-0.9014
2603181.0,3.146,3.8116,-8.248,1.8081,2.146,-0.944
2603191.0,3.6799,4.707,-7.1635,1.5032,2.5712,-0.9668
2603201.0,-0.3543,3.8259,-10.738,0.9179,2.8356,-0.9115
2603211.0,3.7876,4.9823,-11.9447,-0.7029,2.4131,-1.1845
2603221.0,-0.067,8.5114,-14.2718,-1.1701,3.3555,-1.144
2603231.0,-3.9385,11.2408,-13.3644,-1.4846,4.4485,-0.7684
2603241.0,-7.4651,12.6725,-8.734,-1.6086,4.8188,-0.2458
2603251.0,-10.7284,15.7395,-9.517,0.5475,5.9905,0.7668
2603261.0,-14.8369,11.9447,-4.9416,2.8425,7.6273,1.8975
2603271.0,-16.6469,7.4843,-0.3136,4.5927,8.8448,2.6473
2603281.0,-16.6469,7.4843,-0.3136,4.5927,8.8448,2.6473
2603291.0,-17.674,3.7469,4.1037,5.4148,9.4482,2.7819
2603301.0,-22.7234,2.332,5.8035,5.4424,9.9803,2.4051
2603311.0,-23.0633,1.5682,13.635,4.1276,10.4177,1.698
2603321.0,-29.5636,4.4388,23.3219,2.7324,10.448,0.9349
2603331.0,-31.5197,4.7645,36.1644,2.0039,10.2107,0.5337
2603341.0,-30.9331,4.209,44.8889,1.6895,9.2577,0.29
2603351.0,-31.7495,2.8443,52.1984,0.5906,7.2697,-0.1527
2603361.0,-26.3673,1.087,53.5439,-0.6907,4.7417,-0.654
2603371.0,-24.7848,1.1492,53.2662,-1.7209,2.4616,-1.2042
2603381.0,-24.5262,3.4907,50.0891,-1.6288,0.7849,-1.5197
2603391.0,-24.847,6.9288,45.8202,-0.622,-0.2293,-1.516
2603401.0,-25.1918,11.4634,39.1141,0.4869,-1.0477,-1.3239
2603411.0,-21.2031,14.6453,33.1836,0.7231,-1.5963,-1.0126
2603421.0,-22.6755,16.5487,31.7232,-0.1064,-1.7709,-0.729
2603431.0,-22.4504,14.9757,33.5212,-1.7804,-2.5903,-0.5076
2603441.0,-22.4648,10.4244,34.3424,-3.1975,-3.9307,-0.3922
2603451.0,-21.6699,6.3207,32.2092,-3.8429,-5.4499,-0.4624
2603461.0,-21.0378,5.2529,26.5852,-3.72,-6.6924,-0.687
2603471.0,-20.5901,6.8043,19.4313,-3.3826,-7.5762,-0.9285
2603481.0,-18.6269,9.0166,11.6502,-3.1879,-8.1105,-1.0637
2603491.0,-17.4442,9.6127,7.3215,-3.1001,-8.0471,-1.0802
2603501.0,-15.864,10.3286,2.5714,-2.8207,-7.6656,-0.953
2603511.0,-14.2335,9.8713,0.3903,-3.0043,-7.3453,-0.804
2603521.0,-12.1027,9.244,-2.0183,-3.3576,-7.175,-0.6646
2603531.0,-10.3813,7.8171,-3.486,-3.7418,-6.9552,-0.5428
2603541.0,-9.0573,6.5266,-4.9536,-3.9366,-6.695,-0.4597
2603551.0,-7.5058,5.1451,-5.9209,-3.8834,-6.3571,-0.4023
2603561.0,-5.4899,3.9959,-6.1627,-3.389,-5.9091,-0.3704
2603571.0,-3.4764,4.0103,-9.9886,-2.3232,-5.302,-0.2879
2603581.0,-1.8459,2.7869,-9.9718,-1.706,-4.3617,-0.2155
2603591.0,-0.4453,2.6791,-9.8761,-1.4942,-3.5673,-0.2448
2603601.0,0.2705,2.3798,-7.5753,-1.7182,-3.0277,-0.3384
2603611.0,0.5267,2.8754,-6.0549,-1.7682,-2.601,-0.3954
2603621.0,0.7422,2.9712,-3.9073,-1.5155,-2.1753,-0.3358
2603631.0,1.0247,3.2441,-3.1101,-0.9062,-1.7969,-0.1708
2603641.0,1.3408,2.5163,-1.6592,-0.3347,-1.4069,0.0591
2603651.0,1.7358,2.0375,-0.1939,0.2272,-1.0701,0.2873
2603661.0,3.1364,1.0343,1.0391,0.6987,-0.878,0.4603
2603671.0,1.9441,1.5945,-0.4405,0.9802,-0.6268,0.5922
2603681.0,3.7302,0.8068,0.5052,0.2767,-0.6768,0.5965
2603691.0,4.0175,1.7119,-0.0239,-0.4145,-0.7056,0.5161
2603701.0,3.2465,1.6807,1.0319,-0.8806,-0.3991,0.5992
2603711.0,3.0311,0.2969,2.9951,-1.3356,-0.2235,0.7455
2603721.0,3.2154,-0.8523,5.047,-1.7001,-0.3485,0.7886
2603731.0,3.2992,-1.1085,5.6695,-1.5171,-0.4379,0.8248
2603741.0,5.1451,-5.0637,4.853,-1.0046,-0.3272,0.8748
2603751.0,4.7501,-6.7995,9.8928,-0.687,-0.158,0.7024
2603761.0,4.7262,-5.2553,7.3478,0.4092,-0.2331,0.5028
2603771.0,4.027,-5.6575,8.7939,0.8131,-0.4528,0.307
2603781.0,4.4125,-3.9145,5.4588,1.3659,-0.6753,0.1517
2603791.0,4.9656,-2.9473,3.6033,1.4479,-0.7274,0.0213
2603801.0,4.8387,-1.0774,1.3384,1.4394,-0.5401,-0.0665
2603811.0,4.889,-0.0072,0.2035,1.1808,-0.1948,-0.0665
2603821.0,4.6591,0.4022,0.3687,0.7657,0.223,-0.0138
2603831.0,4.3838,-0.0503,1.834,0.282,0.5949,0.0665
2603841.0,4.0534,-1.1684,4.9201,0.0043,0.886,0.1591
2603851.0,4.0103,-1.7119,6.1938,0.1857,0.9892,0.2549
2603861.0,3.7493,-2.4134,7.185,0.4076,0.977,0.3193
2603871.0,3.6631,-2.6576,6.9576,0.6008,0.8423,0.3283
2603881.0,3.7781,-3.1364,6.2177,0.7082,0.6321,0.2826
2603891.0,4.0438,-3.1891,4.4939,0.8535,0.4715,0.1788
2603901.0,4.1468,-2.9018,2.7198,0.9929,0.455,0.0394
2603911.0,3.8355,-1.8986,0.8404,1.1648,0.5598,-0.1128
2603921.0,3.4836,0.0862,-1.5969,1.3069,0.6976,-0.2309
2603931.0,3.3232,2.4828,-4.8698,1.3569,0.9482,-0.2549
2603941.0,3.2513,4.2234,-7.0222,1.2451,1.4915,-0.1634
2603951.0,2.059,5.2385,-7.5896,1.0892,2.2083,0.0005
2603961.0,2.3966,4.9129,-6.8354,0.7482,2.7718,0.2027
2603971.0,-0.6656,5.0422,-4.6256,0.5736,3.3108,0.3576
2603981.0,-1.4293,4.2904,-2.0207,0.8136,3.5902,0.5651
2603991.0,-1.4437,4.0199,-2.3894,1.525,3.6657,0.7497
2604001.0,-2.569,4.8554,-5.0015,2.3078,3.8871,0.8657
2604011.0,-3.5003,5.9089,-7.6519,2.5509,4.1526,0.9237
2604021.0,-4.6112,7.7716,-10.228,2.3578,4.6597,0.9732
