time_ms,ax,ay,az,gx,gy,gz
1915631.0,3.723,0.2705,10.2975,-0.0085,0.132,-0.049
1915641.0,3.8164,0.261,10.0748,-0.008,0.083,-0.0623
1915651.0,3.7948,0.3759,9.8234,-0.0245,0.0702,-0.0825
1915661.0,3.7781,0.5243,9.8497,-0.0447,0.1054,-0.099
1915671.0,3.6871,0.7254,10.0748,-0.0665,0.1405,-0.1059
1915681.0,3.5865,0.8787,10.2807,-0.0931,0.1293,-0.099
1915691.0,3.5817,0.7853,10.4363,-0.116,0.0867,-0.0788
1915701.0,3.6655,0.6967,10.4435,-0.0958,0.0325,-0.0559
1915711.0,3.711,0.7207,10.2232,-0.067,0.0027,-0.042
1915721.0,3.723,0.7374,10.0365,-0.0617,-0.0096,-0.0325
1915731.0,3.7014,0.6728,9.9359,-0.1006,-0.0186,-0.025
1915741.0,3.7469,0.5339,9.9647,-0.1437,-0.033,-0.0229
1915751.0,3.8211,0.4549,9.912,-0.1453,-0.0325,-0.0245
1915761.0,3.79,0.4669,9.8833,-0.1171,-0.017,-0.0261
1915771.0,3.7493,0.4788,9.8737,-0.091,-0.009,-0.0282
1915781.0,3.8283,0.5315,9.8474,-0.0676,-0.0048,-0.0271
1915792.0,3.8642,0.5938,9.7659,-0.0346,0.0186,-0.0239
1915801.0,3.79,0.6345,9.7875,-0.0197,0.0357,-0.0165
1915811.0,3.8595,0.5291,9.7779,-0.033,0.0271,-0.0122
1915821.0,3.8858,0.4788,9.5074,-0.0426,0.0064,-0.0133
1915831.0,3.9049,0.486,9.572,-0.0825,0.025,-0.0255
1915841.0,3.8331,0.5052,9.809,-0.0867,0.0601,-0.0314
1915851.0,3.7804,0.656,9.7803,-0.0607,0.0644,-0.0303
1915861.0,3.8164,0.7422,9.7731,-0.0697,0.042,-0.0186
1915871.0,3.8355,0.6273,9.7851,-0.0809,0.0197,0.0005
1915881.0,3.893,0.3831,9.6845,-0.0506,0.0069,0.0208
1915891.0,4.0127,0.1915,9.4212,-0.0133,0.0128,0.0202
1915901.0,4.0558,0.2155,9.2727,0.008,0.049,-0.0027
1915911.0,3.9337,0.4334,9.3326,0.0059,0.1075,-0.033
1915921.0,3.79,0.7087,9.5768,-0.0266,0.1586,-0.0527
1915931.0,3.6871,0.8619,9.9359,-0.0734,0.158,-0.0564
1915941.0,3.6943,0.9409,10.1035,-0.0894,0.1144,-0.0447
1915951.0,3.7182,0.9936,9.9862,-0.0665,0.0782,-0.025
1915961.0,3.735,1.0558,9.7396,-0.0479,0.0745,-0.0064
1915971.0,3.6966,1.1779,9.7468,-0.0378,0.1048,0.008
1915981.0,3.8068,1.3575,9.9623,-0.0229,0.1447,0.0261
1915991.0,3.5314,1.3982,10.3358,0.0101,0.1639,0.0639
1916001.0,3.5889,1.3431,10.3382,0.0633,0.1139,0.1096
1916011.0,3.7493,1.2713,10.058,0.0915,0.0628,0.1442
1916021.0,3.7876,1.2929,9.8593,0.0803,0.041,0.1623
1916031.0,3.7852,1.3072,9.6989,0.033,0.0218,0.1703
1916041.0,3.7661,1.3479,9.5217,-0.0303,-0.0021,0.1788
1916051.0,3.7709,1.3408,9.335,-0.1011,-0.0176,0.1878
1916061.0,3.8259,1.2258,9.2249,-0.1687,-0.017,0.2022
1916071.0,3.8427,1.0582,9.256,-0.1942,-0.0005,0.2192
1916081.0,3.9073,0.8835,9.1626,-0.1623,0.0186,0.2405
1916091.0,3.9768,0.7111,9.0118,-0.1054,0.0415,0.2597
1916101.0,4.0917,0.5459,8.8035,-0.0479,0.0782,0.2677
1916111.0,4.063,0.4525,8.6335,0.0016,0.1213,0.2645
1916121.0,4.0582,0.3472,8.4874,0.0309,0.165,0.2581
1916131.0,4.0031,0.261,8.4252,0.05,0.2293,0.241
1916141.0,4.0031,0.261,8.4252,0.05,0.2293,0.241
1916151.0,3.8858,0.328,8.4324,0.0867,0.3257,0.2235
1916161.0,3.7397,0.4525,8.6431,0.083,0.414,0.2107
1916171.0,3.5961,0.3615,9.1051,0.0229,0.4693,0.2065
1916181.0,3.4046,0.1844,9.5888,0.009,0.5007,0.2091
1916191.0,3.3758,-0.0335,9.8952,0.0713,0.5204,0.2176
1916201.0,3.2178,-0.3879,10.3765,0.1846,0.555,0.215
1916211.0,3.1819,-0.1293,9.9311,0.3544,0.58,0.2001
1916221.0,3.1627,-0.1437,9.8402,0.2826,0.6002,0.1745
1916231.0,3.1484,-0.4645,11.0014,0.0474,0.6093,0.1165
1916241.0,3.1795,-0.3065,11.6262,-0.0596,0.5497,0.0532
1916251.0,2.9209,-0.2322,12.3948,-0.1176,0.4885,0.0069
1916261.0,2.8563,-0.0551,12.6677,-0.1256,0.3602,-0.0133
1916271.0,2.7677,-0.0263,12.8425,-0.1804,0.1979,-0.0213
1916281.0,2.8635,-0.2418,12.8904,-0.2426,0.0463,-0.0223
1916291.0,2.988,-0.3615,12.7611,-0.2469,-0.0649,-0.033
1916301.0,3.0215,-0.4214,12.8138,-0.2687,-0.1309,-0.058
1916311.0,2.897,-0.3879,13.2232,-0.2815,-0.19,-0.0889
1916321.0,2.8276,-0.1532,13.4387,-0.2512,-0.3022,-0.1043
1916331.0,2.8204,-0.0766,13.465,-0.223,-0.4475,-0.1016
1916341.0,2.9736,-0.0239,13.0747,-0.166,-0.6274,-0.0798
1916351.0,3.1556,-0.0359,12.4235,-0.1415,-0.8072,-0.0601
1916361.0,3.3926,-0.17,11.5831,-0.1442,-0.9589,-0.0463
1916371.0,3.6248,-0.2227,10.5824,-0.1346,-1.0648,-0.0383
1916381.0,3.9217,-0.3615,9.5409,-0.1442,-1.1126,-0.0415
1916391.0,4.1994,-0.4573,8.588,-0.1767,-1.102,-0.0623
1916401.0,4.3646,-0.5028,7.8434,-0.2192,-1.0531,-0.0931
1916411.0,4.5538,-0.4932,7.1946,-0.2442,-0.9791,-0.1261
1916421.0,4.6831,-0.4166,6.5601,-0.2565,-0.8918,-0.1559
1916431.0,4.7405,-0.3831,5.9568,-0.273,-0.7923,-0.1772
1916441.0,4.8698,-0.3232,5.2074,-0.274,-0.6747,-0.1948
1916451.0,4.9225,-0.3711,4.3981,-0.3017,-0.5183,-0.2091
1916461.0,4.9895,-0.4717,3.9935,-0.3794,-0.3374,-0.2325
1916471.0,4.9823,-0.6895,3.9049,-0.4331,-0.1203,-0.257
1916481.0,4.853,-0.8859,3.6583,-0.4182,0.1006,-0.2841
1916491.0,4.7285,-1.1516,3.553,-0.4097,0.3235,-0.3219
1916501.0,4.3311,-1.4581,3.7302,-0.4065,0.5444,-0.3789
1916511.0,4.1899,-1.6185,3.7924,-0.3517,0.7418,-0.4496
1916521.0,4.0917,-1.5586,3.9361,-0.2932,0.9206,-0.5364
1916531.0,3.8211,-1.2713,4.0677,-0.2623,1.0828,-0.6263
1916541.0,3.5865,-0.7733,4.1252,-0.2714,1.2196,-0.6992
1916551.0,3.3447,-0.1963,4.3742,-0.3608,1.3234,-0.7423
1916561.0,2.8802,0.2035,4.6974,-0.5374,1.3697,-0.7343
1916571.0,2.4876,0.2179,4.8578,-0.7513,1.3452,-0.6768
1916581.0,2.308,-0.2921,4.6615,-0.977,1.2835,-0.5906
1916591.0,2.1021,-1.2953,4.4077,-1.1855,1.2797,-0.5209
1916601.0,2.0614,-2.296,3.9935,-1.3154,1.3409,-0.5002
1916611.0,1.9154,-2.9185,3.6655,-1.3771,1.4825,-0.5454
1916621.0,1.7837,-3.2896,3.5123,-1.3388,1.7091,-0.6263
1916631.0,1.5371,-3.3255,3.5769,-1.1589,2.0215,-0.7221
1916641.0,1.142,-2.727,3.5841,-0.9088,2.3647,-0.8205
1916651.0,0.6225,-1.8771,3.7757,-0.7466,2.6856,-0.8945
1916661.0,-0.2562,-1.0798,4.4269,-0.6886,2.966,-0.9211
1916671.0,-1.2809,-0.4405,5.023,-0.7082,3.1517,-0.8908
1916681.0,-2.2146,-0.2945,5.9687,-0.8232,3.2544,-0.8168
1916691.0,-2.8563,-0.7925,6.5769,-0.87,3.3177,-0.6976
1916701.0,-3.2489,-1.9968,7.1012,-0.8221,3.4353,-0.5821
1916711.0,-3.3232,-2.9712,7.7405,-0.6779,3.6099,-0.5582
1916721.0,-3.814,-3.4548,8.6383,-0.4113,3.8594,-0.6114
1916731.0,-4.3981,-3.4548,9.7133,-0.0697,4.1617,-0.7109
1916741.0,-5.1475,-3.1268,11.5185,0.2203,4.4548,-0.8237
1916751.0,-6.019,-2.9161,14.0971,0.3501,4.5948,-0.9429
1916761.0,-6.7421,-2.6624,16.5272,0.3661,4.4681,-1.0632
1916771.0,-7.2401,-2.4373,18.3947,0.2363,4.1255,-1.1765
1916781.0,-7.4675,-2.3463,20.1113,-0.0245,3.646,-1.2781
1916791.0,-7.5681,-2.411,21.9189,-0.1192,3.1666,-1.334
1916801.0,-7.6088,-2.4445,22.8335,0.1325,2.7633,-1.3425
1916811.0,-7.7979,-1.5754,23.0298,0.4879,2.4647,-1.3564
1916821.0,-8.1906,-0.7326,23.9516,0.6018,2.171,-1.3707
1916831.0,-8.2361,-0.146,25.017,0.4757,1.7139,-1.3739
1916841.0,-7.9128,0.2394,25.9077,0.2985,1.1733,-1.3548
1916851.0,-7.6519,0.7159,26.1567,0.2006,0.6369,-1.3042
1916861.0,-7.5393,1.3455,26.1997,0.1266,0.0942,-1.2265
1916871.0,-7.1706,1.7334,26.116,0.049,-0.5034,-1.1041
1916881.0,-6.7852,1.7071,25.0386,0.0798,-1.1557,-0.9376
1916891.0,-6.1938,1.3575,22.8838,0.1974,-1.7528,-0.7662
1916901.0,-5.4516,0.8068,20.4058,0.2863,-2.1657,-0.6481
1916911.0,-4.7166,0.3304,18.4689,0.3283,-2.3631,-0.6018
1916921.0,-4.2665,0.2801,17.1305,0.3283,-2.4413,-0.6306
1916931.0,-4.1444,1.4413,16.8217,0.3182,-2.5196,-0.6987
1916941.0,-4.6855,3.3758,14.5137,0.4161,-2.7478,-0.704
1916951.0,-3.7302,3.4117,12.3637,0.1916,-2.8942,-0.5827
1916961.0,-3.6751,2.4349,12.8353,-0.1697,-2.8096,-0.4725
1916971.0,-3.1005,2.4876,11.8178,-0.1506,-2.825,-0.3826
1916981.0,-2.6743,1.968,11.7436,-0.0575,-2.7414,-0.2661
1916991.0,-0.5243,1.6257,13.9103,0.3001,-2.6004,-0.125
1917001.0,-15.1266,-5.6623,44.3765,3.9791,-1.9225,0.241
1917011.0,12.5408,4.1922,-24.3323,12.9585,-5.2711,1.6762
1917021.0,-2.4541,8.5066,-12.3325,8.5585,-0.8168,1.5069
1917031.0,-2.988,7.3071,-2.5905,3.4135,-0.2469,1.4692
1917041.0,-0.0072,4.5657,1.3001,-0.8695,-1.4069,1.0536
1917051.0,1.6137,0.237,6.8354,-2.95,-1.3798,0.7913
1917061.0,1.3336,-0.1867,7.4148,-2.6563,-1.0467,0.7221
1917071.0,0.3807,-0.7997,11.8369,-2.8606,-1.1063,0.5348
1917081.0,0.2729,-0.3567,13.4722,-2.3365,-1.5293,0.4885
1917091.0,0.2825,0.5698,12.1362,-1.0562,-1.6687,0.6476
1917101.0,-0.1077,0.4046,10.2544,-0.1431,-1.7522,0.8269
1917111.0,0.51,0.7853,7.1419,0.1623,-1.9449,0.9009
1917121.0,1.142,0.6776,5.8012,-0.1038,-1.8863,0.8902
1917131.0,1.3503,-0.2897,6.3279,-0.3193,-1.6182,0.8567
1917141.0,1.7334,-0.2131,5.9903,-0.3512,-1.4809,0.8008
1917151.0,1.9992,-0.7542,6.7588,-0.4853,-1.3856,0.7333
1917161.0,2.2362,-0.9457,6.7229,-0.3283,-1.3234,0.6896
1917171.0,2.4636,-0.8308,6.0286,-0.0809,-1.2451,0.6572
1917181.0,2.6097,-0.9457,5.5091,0.0314,-1.1802,0.6077
1917191.0,2.7773,-0.8667,4.6663,0.1022,-1.1079,0.5459
1917201.0,3.158,-0.905,4.0342,0.1453,-0.953,0.4768
1917211.0,3.4189,-0.6895,3.5386,0.2054,-0.7141,0.3815
1917221.0,3.5051,-0.1221,3.3734,0.2623,-0.4204,0.2794
1917231.0,3.4548,0.4621,3.6895,0.2762,-0.1373,0.2001
1917241.0,3.4381,1.087,3.8954,0.2395,0.0532,0.1517
1917251.0,3.3782,1.5275,4.221,0.1607,0.1905,0.1282
1917261.0,3.1843,1.98,4.3718,0.1389,0.3352,0.1298
1917271.0,3.0574,2.3774,4.5777,0.1293,0.4879,0.158
1917281.0,2.9185,2.5809,4.8914,0.0681,0.5779,0.1985
1917291.0,2.8252,2.7629,5.0805,0.0144,0.6258,0.2405
1917301.0,2.7031,2.9185,4.9991,0.0048,0.6939,0.2948
1917311.0,2.6767,2.9473,5.0422,0.0192,0.7913,0.3656
1917321.0,2.6408,2.8395,5.2122,0.0899,0.9232,0.4385
1917331.0,2.7509,2.818,5.1092,0.2341,1.0711,0.5044
1917341.0,2.6217,3.0335,4.9704,0.3741,1.2558,0.5502
1917351.0,2.3774,3.5698,5.035,0.4661,1.4708,0.5896
1917361.0,1.9465,4.1396,5.3127,0.4438,1.6511,0.6534
1917371.0,1.3001,4.288,5.8969,0.2985,1.7496,0.7503
1917381.0,0.9361,3.8954,6.2273,0.1235,1.7709,0.8759
1917391.0,0.6201,3.1316,6.5194,-0.0346,1.8055,0.9892
1917401.0,0.3376,2.557,6.8666,-0.1554,1.8725,1.0648
1917411.0,0.2658,1.9776,7.6423,-0.2038,1.9741,1.1206
1917421.0,0.0622,1.7119,8.1235,-0.1022,2.0832,1.1627
1917431.0,-0.328,1.7573,8.339,0.0218,2.1992,1.1808
1917441.0,-0.5578,2.2913,8.6574,0.0527,2.3051,1.1834
1917451.0,-0.9242,2.9497,9.1219,-0.0862,2.3392,1.2122
1917461.0,-1.6424,3.0742,10.07,-0.3858,2.2535,1.2861
1917471.0,-2.0662,2.4325,10.8481,-0.5906,2.0689,1.4197
1917481.0,-2.4277,1.4581,10.9654,-0.5337,1.8853,1.5665
1917491.0,-2.636,0.2777,10.2879,-0.2395,1.8044,1.6985
1917501.0,-2.3511,-1.2091,9.7061,0.1463,1.9023,1.7544
1917511.0,-2.1955,-1.9321,9.4643,0.6173,2.2008,1.665
1917521.0,-2.4421,-1.324,9.493,1.0211,2.6026,1.475
1917531.0,-2.9904,-0.6488,10.6111,1.0658,2.9176,1.2733
1917541.0,-3.5985,0.0215,11.9088,0.7913,2.9633,1.0839
1917551.0,-4.0318,0.2729,13.1968,0.365,2.8186,0.9392
1917561.0,-4.4053,0.1149,14.2263,-0.0282,2.5866,0.8498
1917571.0,-4.9752,-0.3591,14.9853,-0.2751,2.3413,0.7923
1917581.0,-5.126,-0.7709,15.5049,-0.2661,2.1785,0.7407
1917591.0,-5.3606,-0.237,15.761,-0.0383,2.1551,0.6721
1917601.0,-5.7509,0.5698,16.6277,0.1501,2.2003,0.6332
1917611.0,-6.0573,0.9409,18.2558,0.2054,2.1183,0.6396
1917621.0,-6.1746,1.0918,19.1584,0.2054,1.8209,0.6715
1917631.0,-5.7413,0.8356,19.2901,0.1841,1.4255,0.7162
1917641.0,-5.43,0.51,19.1105,0.1479,1.077,0.7274
1917651.0,-5.3893,0.17,18.6221,0.0857,0.7742,0.7088
1917661.0,-5.3008,-0.0096,18.1504,-0.0527,0.5177,0.6444
1917671.0,-5.2864,0.0718,18.1265,-0.273,0.3416,0.5534
1917681.0,-5.4803,-0.0958,19.2111,-0.5273,0.2144,0.4677
1917691.0,-5.624,-0.1173,20.5279,-0.6949,-0.033,0.3938
1917701.0,-5.6982,-0.1077,20.9612,-0.787,-0.4683,0.3416
1917711.0,-5.4324,-0.4477,20.5758,-0.8168,-0.9647,0.3214
1917721.0,-5.2098,-0.8021,19.4433,-0.7221,-1.3824,0.3134
1917731.0,-4.7501,-1.4269,18.0762,-0.5694,-1.6629,0.3033
1917741.0,-4.3718,-2.0255,16.6229,-0.4358,-1.8113,0.249
1917751.0,-4.0199,-2.4948,15.354,-0.3938,-1.8379,0.1309
1917761.0,-3.9289,-2.6288,15.3085,-0.5257,-1.7836,-0.0633
1917771.0,-3.9313,-2.3894,15.8544,-0.7173,-1.7985,-0.2799
1917851.0,-2.1093,-0.6201,10.7117,-0.6784,-2.9713,-0.8647
1917861.0,-1.8531,-0.3376,9.9647,-0.5608,-2.8319,-0.8705
1917871.0,-1.6903,-0.2155,9.8114,-0.6316,-2.7505,-0.8865
1917881.0,-1.5802,-0.4597,9.991,-0.7625,-2.7468,-0.9067
1917891.0,-1.2641,-0.893,9.5026,-0.8088,-2.7947,-0.9259
1917901.0,-0.996,-1.3886,9.0692,-0.8482,-2.8159,-0.978
1917911.0,-0.6249,-1.7238,8.8562,-0.7742,-2.7712,-1.0467
1917921.0,-0.0287,-1.6759,8.406,-0.5385,-2.6803,-1.118
1917931.0,0.3352,-1.1133,7.8482,-0.2565,-2.5627,-1.1919
1917941.0,0.431,-0.182,7.1395,-0.0426,-2.4483,-1.2286
1917951.0,0.5794,0.486,6.6487,0.0639,-2.3471,-1.2127
1917961.0,0.9577,0.8811,5.8706,0.1165,-2.2647,-1.1573
1917971.0,1.5012,0.9912,5.3008,0.0309,-2.1582,-1.1153
1917981.0,1.7382,1.1468,5.0877,-0.2118,-2.0513,-1.1153
1917991.0,1.9728,1.1779,5.3774,-0.5608,-2.0135,-1.1398
1918001.0,2.1332,1.0965,5.715,-0.8695,-2.0353,-1.1675
1918011.0,2.4205,1.1205,5.6,-1.0169,-2.0678,-1.1776
1918021.0,2.5833,1.2163,5.3798,-1.0435,-2.0582,-1.1706
1918031.0,2.7916,1.3479,4.9512,-0.9892,-2.0162,-1.1408
1918041.0,2.9832,1.4269,4.4963,-0.8626,-1.8986,-1.0962
1918051.0,3.0167,1.6903,3.8403,-0.7136,-1.7501,-1.0419
1918061.0,3.4165,1.6209,3.5626,-0.6864,-1.5713,-0.9871
1918071.0,3.6559,1.5299,3.5386,-0.6795,-1.3798,-0.9488
1918081.0,3.7876,1.5107,3.3591,-0.6843,-1.2031,-0.9179
1918091.0,4.0606,1.2306,3.5219,-0.713,-1.0201,-0.8966
1918101.0,4.2641,0.9888,3.5626,-0.6577,-0.8077,-0.8764
1918111.0,4.3527,0.7829,3.7254,-0.5752,-0.5736,-0.8663
1918121.0,4.525,0.4932,4.2306,-0.5071,-0.357,-0.8716
1918131.0,4.5203,0.4788,4.6112,-0.3911,-0.1777,-0.8945
1918141.0,4.6017,0.68,4.6567,-0.3113,-0.0452,-0.919
1918151.0,4.5633,0.8045,5.0063,-0.3528,0.0681,-0.9434
1918161.0,4.5083,1.087,5.3774,-0.4161,0.1548,-0.961
1918171.0,4.3431,1.391,5.7006,-0.4885,0.2043,-0.9557
1918181.0,4.4269,1.4222,6.0071,-0.5571,0.2331,-0.9131
1918191.0,4.7333,1.2258,6.2489,-0.5273,0.2799,-0.8477
1918201.0,4.8315,1.2953,6.1411,-0.3996,0.3565,-0.7907
1918211.0,4.7022,1.5706,6.0669,-0.2895,0.4326,-0.7402
1918221.0,4.7262,1.8435,5.8538,-0.2208,0.4895,-0.6753
1918231.0,4.6711,1.913,5.7365,-0.1325,0.5683,-0.5853
1918241.0,4.7692,1.8435,5.4899,0.0133,0.6651,-0.4895
1918251.0,4.8219,1.81,5.1212,0.1942,0.8014,-0.4097
1918261.0,4.9249,1.8579,4.6184,0.3443,0.9605,-0.3539
1918271.0,4.7908,1.8842,4.5155,0.3863,1.1371,-0.3304
1918281.0,4.47,2.0662,4.4149,0.3326,1.2675,-0.3288
1918291.0,3.9241,2.2434,4.3814,0.1703,1.3473,-0.3315
1918301.0,3.6559,2.0997,4.3167,-0.0436,1.3957,-0.3145
1918311.0,3.2992,1.7861,4.1803,-0.2559,1.4649,-0.2911
1918321.0,2.8467,1.3168,4.2162,-0.4422,1.5809,-0.2634
1918331.0,2.545,0.6584,4.7453,-0.5225,1.7773,-0.2187
1918341.0,2.4565,-0.1604,5.6982,-0.4108,2.046,-0.1602
1918351.0,2.1548,-0.7494,6.6463,-0.1655,2.2844,-0.1123
1918361.0,1.81,-1.3862,7.9176,0.0724,2.453,-0.0766
1918371.0,1.0798,-1.7454,8.7843,0.3235,2.5323,-0.0495
1918381.0,0.5962,-2.2745,9.6007,0.5071,2.5632,-0.0117
1918391.0,0.2825,-3.2154,10.4842,0.6114,2.5536,0.0197
1918401.0,0.3472,-4.5897,11.4802,0.6742,2.5196,0.0053
1918411.0,0.3208,-5.8921,12.6174,0.7833,2.5185,-0.099
1918421.0,0.3974,-6.2944,13.3453,0.9104,2.4898,-0.3134
1918431.0,0.3663,-6.1459,14.1617,0.8636,2.4078,-0.6061
1918441.0,0.0311,-5.6144,14.765,0.5976,2.221,-0.9301
1918451.0,-0.419,-5.2792,15.5479,0.1197,1.9635,-1.2574
1918461.0,-0.5698,-4.9488,16.0986,-0.3677,1.6793,-1.5687
1918471.0,-0.7685,-4.2114,16.2806,-0.8232,1.4085,-1.8688
1918481.0,-1.1349,-3.3399,16.8839,-1.2595,1.1643,-2.121
1918491.0,-1.2426,-2.2721,17.0132,-1.4958,0.9131,-2.2844
1918501.0,-1.2019,-1.0582,16.6062,-1.6006,0.6902,-2.3631
1918511.0,-1.4437,-0.2322,16.2878,-1.6767,0.5002,-2.3567
1918521.0,-1.1133,0.1365,15.9597,-1.6682,0.3155,-2.2817
1918531.0,-0.6895,0.4381,15.1337,-1.5197,0.1809,-2.196
1918541.0,-0.3352,1.1803,13.9462,-1.3638,0.1165,-2.13
1918551.0,-0.1484,1.8387,13.2208,-1.3968,0.0686,-2.0683
1918561.0,0.0814,2.2649,12.7204,-1.5399,-0.033,-1.9938
1918571.0,0.4932,2.6456,11.8226,-1.624,-0.1341,-1.8975
1918581.0,0.9074,3.0742,10.805,-1.6464,-0.1564,-1.781
1918591.0,1.2594,3.4261,10.1155,-1.6501,-0.1107,-1.649
1918601.0,1.5802,3.8068,9.2847,-1.6043,-0.0516,-1.4958
1918611.0,1.8555,4.1324,8.4324,-1.5367,0.0245,-1.326
1918621.0,2.1213,4.3144,7.5561,-1.4548,0.1415,-1.1456
1918631.0,2.1069,4.4748,6.7205,-1.3787,0.3092,-0.9626
1918641.0,2.1596,4.1946,6.7612,-1.3021,0.5635,-0.7795
1918651.0,2.1308,3.9193,6.9599,-1.1244,0.8381,-0.5997
1918661.0,2.3248,3.5674,6.6726,-0.9998,1.0435,-0.4401
1918671.0,1.7693,2.5139,9.335,-1.0552,1.2643,-0.3416
1918681.0,1.664,2.7126,9.8186,-0.7726,1.2329,-0.2474
1918691.0,1.4054,2.8946,9.7372,-0.5023,1.1547,-0.1559
1918701.0,1.3096,3.3902,9.2727,-0.3187,1.0993,-0.0649
1918711.0,1.1229,4.1994,9.0237,-0.2501,1.1201,0.0266
1918721.0,0.5602,4.9704,9.0812,-0.3347,1.1222,0.141
1918731.0,-0.2322,5.5737,8.7221,-0.5385,1.0552,0.2905
1918741.0,-0.8739,5.6814,9.0716,-0.8328,1.0483,0.4725
1918751.0,-1.2234,5.3582,9.7947,-0.9892,1.118,0.6997
1918761.0,-1.506,4.8483,10.9152,-1.0312,1.2058,0.9365
1918771.0,-1.7334,4.4412,12.5767,-0.9802,1.2201,1.152
1918781.0,-1.7933,4.2904,13.7762,-0.7779,1.0892,1.3633
1918791.0,-1.9704,4.2114,14.2024,-0.4874,0.8796,1.5713
1918801.0,-2.3511,4.2617,13.9702,-0.1921,0.6699,1.7682
1918811.0,-2.8132,4.1037,13.6589,0.0287,0.5066,1.9555
1918821.0,-3.4309,4.0318,13.1825,0.1485,0.364,2.1157
1918831.0,-4.0582,4.0127,12.864,0.1235,0.2522,2.2588
1918841.0,-4.4796,3.7254,13.1083,0.0213,0.1612,2.4264
1918851.0,-4.5322,2.8491,13.7212,0.0186,0.1011,2.6457
1918861.0,-4.3694,1.506,14.2,0.2022,0.0681,2.9021
1918871.0,-4.2952,-0.2801,14.5974,0.4837,0.0372,3.1464
1918881.0,-3.7038,-2.4469,14.9518,0.8147,-0.0053,3.33
1918891.0,-3.7278,-4.3862,14.2766,1.152,-0.0394,3.4039
1918901.0,-3.5985,-5.8395,12.7659,1.2281,-0.0314,3.3454
1918911.0,-3.4836,-7.2568,12.4929,0.9312,0.1532,3.1602
1918921.0,-3.1867,-8.6622,13.4889,0.4842,0.4688,2.8851
1918931.0,-3.2896,-9.56,16.3668,0.0074,0.7588,2.5227
1918941.0,-3.96,-9.3494,19.5989,-0.2841,0.8237,2.1577
1918951.0,-4.5298,-8.4994,22.1248,-0.3368,0.6279,1.8986
1918961.0,-5.4684,-7.841,23.7936,-0.2261,0.3076,1.7847
1918971.0,-5.7676,-7.6231,24.1527,-0.0564,-0.1027,1.7773
1918981.0,-5.8107,-7.8697,24.4304,-0.0287,-0.531,1.7703
1918991.0,-6.1507,-8.0972,24.5334,-0.0947,-0.9839,1.7256
1919001.0,-6.3782,-8.4515,24.9763,-0.183,-1.458,1.6591
1919011.0,-6.7109,-8.6838,24.5908,-0.083,-1.9991,1.5878
1919021.0,-6.7325,-8.4922,22.8431,0.1618,-2.5281,1.4931
1919031.0,-6.4021,-7.6902,20.3962,0.3773,-2.9176,1.3537
1919041.0,-6.6056,-6.4548,18.3947,0.4113,-3.0948,1.1675
1919051.0,-6.5625,-4.9823,17.2526,0.2458,-3.2065,0.9711
1919061.0,-6.5769,-3.6559,16.7594,-0.0814,-3.3794,0.7934
1919071.0,-6.9025,-2.7438,16.6158,-0.3863,-3.6439,0.6753
1919081.0,-6.754,-2.3272,15.5456,-0.5087,-3.994,0.6364
1919091.0,-6.2465,-2.3415,13.8529,-0.5353,-4.3378,0.6337
1919101.0,-5.928,-2.411,12.0524,-0.5305,-4.6193,0.6204
1919111.0,-5.3247,-2.2913,9.4499,-0.5103,-4.871,0.5922
1919121.0,-4.4604,-2.2003,6.8307,-0.6109,-5.0333,0.5332
1919131.0,-3.5602,-1.9776,4.3742,-0.8168,-5.0822,0.4385
1919141.0,-2.5379,-1.6975,2.1907,-1.1334,-5.0423,0.315
1919151.0,-1.7885,-1.5419,0.6512,-1.5676,-4.9385,0.1735
1919161.0,-1.0654,-1.4988,-0.589,-1.9667,-4.7949,0.042
1919171.0,-0.1604,-1.3791,-1.6448,-2.2258,-4.5863,-0.0724
1919181.0,0.5148,-1.2809,-2.1524,-2.2695,-4.2691,-0.149
1919191.0,1.1013,-1.2641,-2.5498,-2.0034,-3.877,-0.1671
1919201.0,1.7406,-1.0678,-3.2801,-1.5139,-3.4449,-0.1469
1919211.0,2.4397,-0.9146,-3.8068,-0.9929,-2.9713,-0.1117
1919221.0,3.1364,-0.7661,-4.1611,-0.4417,-2.4663,-0.0553
1919231.0,3.6727,-0.5866,-4.616,0.0649,-1.9592,0.0101
1919241.0,4.1324,-0.4357,-4.7669,0.3592,-1.5075,0.0623
1919251.0,4.4891,-0.2538,-4.5897,0.4773,-1.0892,0.0979
1919261.0,4.6735,-0.1891,-4.1037,0.5161,-0.6939,0.141
1919271.0,4.7573,-0.3735,-3.62,0.4938,-0.3837,0.183
1919281.0,4.9057,-0.7877,-3.1053,0.4337,-0.1373,0.2038
1919291.0,5.0709,-1.0415,-2.8491,0.4156,0.108,0.1985
1919301.0,4.956,-1.0822,-2.3583,0.4108,0.3624,0.1735
1919311.0,4.9009,-0.9888,-2.0375,0.4119,0.5667,0.1485
1919321.0,4.7692,-0.9409,-1.9465,0.4065,0.7497,0.132
1919331.0,4.6878,-0.759,-1.9824,0.4103,0.9498,0.1192
1919341.0,4.3742,-0.4525,-1.8196,0.4321,1.2074,0.1197
1919351.0,3.948,0.0048,-1.6305,0.4597,1.4601,0.1431
1919361.0,3.4812,0.2586,-1.4198,0.4773,1.7001,0.1974
1919371.0,3.1149,0.2298,-1.2019,0.5678,1.9837,0.2783
1919381.0,2.6552,0.1652,-0.8835,0.763,2.3546,0.3629
1919391.0,2.0446,0.0096,-0.2682,1.0142,2.7723,0.4406
1919401.0,1.6305,-0.091,0.3065,1.2819,3.1613,0.4938
1919411.0,1.4437,-0.2011,1.1899,1.4979,3.5109,0.5146
1919421.0,0.9864,-0.1484,1.9321,1.6384,3.7929,0.4981
1919431.0,0.3496,-0.2155,2.5187,1.6538,3.9807,0.464
1919441.0,-0.1748,-0.5578,3.0957,1.5277,4.0935,0.4097
1919451.0,-1.0918,-1.1157,3.4692,1.3143,4.1728,0.3251
1919461.0,-1.834,-1.9154,3.948,1.0786,4.2675,0.1958
1919471.0,-2.6552,-2.5115,4.7692,0.9216,4.4479,0.0096
1919481.0,-3.5314,-2.5738,6.1339,0.9466,4.7241,-0.2128
1919491.0,-4.367,-1.9513,7.8482,1.1345,5.0157,-0.423
1919501.0,-5.1427,-1.1492,9.6055,1.3223,5.1759,-0.5875
1919511.0,-5.8778,-0.3711,10.9463,1.4011,5.1806,-0.7035
1919521.0,-6.1699,0.1389,12.6103,1.326,5.0998,-0.7769
1919531.0,-6.7588,0.6967,14.4514,1.0727,4.8875,-0.8269
1919541.0,-7.4364,0.9218,16.1609,0.6689,4.474,-0.8391
1919551.0,-7.6854,0.9026,17.6644,0.3416,3.9972,-0.804
1919561.0,-8.0948,1.087,18.6796,0.298,3.6114,-0.7178
1919571.0,-8.4084,1.3671,19.089,0.4193,3.2672,-0.5795
1919581.0,-8.2145,0.8428,19.6037,0.5358,2.949,-0.3975
1919591.0,-7.4843,-0.1484,19.5798,0.6502,2.6435,-0.2347
1919601.0,-6.7828,-1.5754,19.0842,0.5928,2.3424,-0.1666
1919611.0,-6.2608,-3.1963,18.8112,0.2714,2.0822,-0.2352
1919621.0,-6.1627,-4.5538,18.8687,-0.2155,1.8528,-0.4262
1919631.0,-6.2896,-5.6743,19.8264,-0.7535,1.6325,-0.6811
1919641.0,-6.4476,-6.3805,21.3635,-0.9951,1.4303,-0.9073
1919651.0,-6.4284,-6.4739,22.5486,-0.6758,1.2946,-1.0254
1919661.0,-6.3111,-6.0573,22.9915,0.0883,1.2318,-1.0376
1919671.0,-6.371,-5.1763,22.7952,0.9333,1.1871,-0.9956
1919681.0,-6.5864,-4.4412,22.4552,1.4293,1.0573,-0.9493
1919691.0,-6.6152,-4.7477,22.5654,1.4144,0.7886,-0.936
1919701.0,-6.505,-5.9352,23.1064,1.118,0.4193,-1.0046
1919711.0,-6.3686,-6.7277,23.2908,0.7758,-0.0106,-1.185
1919721.0,-6.4931,-7.0725,23.2046,0.4534,-0.4629,-1.4383
1919731.0,-6.7157,-6.7804,22.5654,0.2347,-0.8626,-1.7145
1919741.0,-7.2568,-6.2058,21.9261,0.0772,-1.126,-1.9678
1919751.0,-7.6902,-5.7006,21.9907,-0.1096,-1.3313,-2.2093
1919761.0,-8.2528,-4.6232,22.4289,-0.2916,-1.5405,-2.4562
1919771.0,-9.1075,-3.2681,22.9795,-0.4848,-1.8549,-2.6584
1919781.0,-9.4427,-2.3104,23.7313,-0.671,-2.3307,-2.7899
1919791.0,-9.7013,-1.391,23.1974,-0.6082,-2.8947,-2.8409
1919801.0,-9.5241,-0.5435,21.5909,-0.3294,-3.3981,-2.8218
1919811.0,-9.4308,0.4477,19.2637,0.0186,-3.8105,-2.767
1919821.0,-8.7891,1.4629,15.9047,0.3102,-4.1047,-2.701
1919831.0,-8.2432,2.9832,12.8545,0.3267,-4.1595,-2.6771
1919841.0,-7.7285,4.5753,11.327,-0.0069,-4.0616,-2.6536
1919851.0,-7.3095,5.4253,11.4515,-0.5678,-4.01,-2.5962
1919861.0,-6.9983,5.6671,11.5544,-1.003,-4.1095,-2.4828
1919871.0,-6.3662,5.2984,10.8745,-1.2079,-4.2867,-2.3205
1919881.0,-5.5593,4.4005,9.9982,-1.2526,-4.4282,-2.162
1919891.0,-4.7142,3.7134,8.825,-1.0419,-4.4586,-2.0337
1919901.0,-3.6943,3.2609,7.2903,-0.6928,-4.3782,-1.93
1919911.0,-2.9712,3.1699,5.9233,-0.39,-4.2484,-1.8645
1919921.0,-1.992,3.3591,4.3431,-0.2011,-4.1175,-1.8177
1919931.0,-0.9122,3.4381,3.3232,-0.1953,-3.9563,-1.7922
1919941.0,-0.486,3.711,2.5331,-0.2841,-3.7812,-1.7847
1919951.0,-0.2274,3.9648,2.0111,-0.4544,-3.6402,-1.7789
1919961.0,0.3855,3.9289,1.7621,-0.6215,-3.5343,-1.7576
1919971.0,0.9002,4.027,1.3743,-0.6391,-3.4007,-1.7235
1919981.0,1.4988,4.4867,0.8715,-0.4832,-3.1996,-1.6639
1919991.0,1.889,5.2194,0.2849,-0.2203,-2.9527,-1.5522
1920001.0,2.3679,5.9424,-0.2274,0.0745,-2.6824,-1.384
1920011.0,2.8826,6.5984,-0.8547,0.3613,-2.3913,-1.1616
1920021.0,3.8211,7.0701,-1.5706,0.5688,-2.0816,-0.8982
1920031.0,4.5705,7.3478,-1.8699,0.6768,-1.6974,-0.6359
1920041.0,4.9273,7.6231,-1.9776,0.7141,-1.2664,-0.3794
1920051.0,5.4899,7.5322,-1.2522,0.629,-0.8524,-0.1245
1920061.0,5.5234,7.434,0.0072,0.5741,-0.4507,0.1149
1920071.0,5.3439,7.2927,0.8811,0.5965,-0.0931,0.3837
1920081.0,5.5737,6.2824,2.976,0.6178,0.2868,0.6635
1920091.0,5.9831,5.3798,4.8602,0.8828,0.6513,0.9477
1920101.0,6.3207,4.312,7.2496,1.2143,1.003,1.2004
1920111.0,6.28,3.6416,9.4044,1.5011,1.1813,1.3936
1920121.0,5.7724,2.8874,11.0875,1.5687,1.0967,1.5325
1920131.0,5.7317,1.7885,12.3253,1.4809,0.8131,1.6144
1920141.0,5.849,0.9625,12.5289,1.3899,0.4635,1.6299
1920151.0,5.9328,0.0551,12.7443,1.2515,0.1176,1.5596
1920161.0,6.608,-0.2993,12.2128,1.2249,-0.2214,1.4101
1920171.0,7.0701,0.3591,11.3078,1.2537,-0.4486,1.1882
1920181.0,7.1156,2.3224,10.1131,1.235,-0.5539,0.9642
1920191.0,6.3877,4.391,9.7396,0.9424,-0.6753,0.8269
1920201.0,5.7293,5.8754,9.9718,0.4911,-0.9679,0.8248
1920211.0,5.5761,6.8402,8.8131,0.1836,-1.3984,0.9509
1920221.0,5.3415,7.1635,6.5386,-0.0809,-1.7714,1.1424
1920231.0,5.2648,6.8833,4.6735,-0.3288,-1.9326,1.351
1920241.0,5.1643,6.2656,3.2154,-0.4055,-1.856,1.5649
1920251.0,4.9895,5.3917,2.0686,-0.3129,-1.6166,1.7725
1920261.0,5.0925,4.3503,1.4988,-0.0814,-1.2632,1.9449
1920271.0,5.0637,3.5841,1.3288,0.3235,-0.796,2.079
1920281.0,4.6735,3.1125,1.5299,0.7854,-0.2857,2.1998
1920291.0,4.2282,2.5809,2.217,1.1446,0.1325,2.32
1920301.0,3.9648,1.9465,2.8587,1.3904,0.4044,2.4472
1920311.0,3.6081,1.233,3.0263,1.499,0.5401,2.5616
1920321.0,3.2561,0.2179,3.3519,1.4442,0.5917,2.6467
1920331.0,2.9425,-1.0654,3.5674,1.3606,0.6114,2.6952
1920341.0,2.7557,-2.5211,3.8547,1.3862,0.6545,2.6914
1920351.0,3.2274,-3.8475,3.4907,1.5575,0.7354,2.601
1920361.0,3.735,-4.5179,2.806,1.7395,0.9057,2.3966
1920371.0,3.8714,-4.2617,2.2482,1.8358,1.1765,2.1093
1920381.0,3.5913,-3.2753,2.0734,1.7725,1.4904,1.8204
1920391.0,3.1508,-2.3535,2.7102,1.5192,1.7544,1.6022
1920401.0,2.3367,-1.7645,3.395,1.1887,1.8917,1.474
1920411.0,1.2665,-1.5107,3.8211,0.8258,1.9018,1.4181
1920421.0,0.7111,-2.0877,4.5394,0.5603,1.9092,1.4324
1920431.0,0.5291,-2.7916,5.1284,0.6949,2.0593,1.4803
1920441.0,0.3759,-3.1987,5.2122,1.1808,2.3743,1.5335
1920451.0,0.2083,-3.4596,5.6623,1.6714,2.7547,1.5591
1920461.0,-0.0958,-3.5099,6.0885,1.9991,3.049,1.549
1920471.0,-0.079,-3.6823,6.3973,2.0305,3.1772,1.5027
1920481.0,-0.2873,-4.0558,6.675,1.7139,3.1405,1.4058
1920491.0,-0.8092,-4.7501,7.1347,1.1808,2.9692,1.2771
1920501.0,-1.4078,-5.6838,7.2233,0.6566,2.6781,1.1307
1920511.0,-1.3958,-6.754,6.517,0.4076,2.4222,0.9615
1920521.0,-1.1564,-7.118,5.0494,0.6162,2.4823,0.7487
1920531.0,-1.0534,-6.6056,3.7182,1.06,2.9037,0.4911
1920541.0,-1.8028,-5.2816,3.7014,1.4298,3.4965,0.1979
1920551.0,-2.4612,-3.4453,4.0582,1.6054,4.0089,-0.0548
1920561.0,-2.8778,-1.8244,4.6232,1.3537,4.2995,-0.2373
1920571.0,-3.2465,-0.9673,5.8347,0.6604,4.3644,-0.356
1920581.0,-3.9121,-0.4286,6.948,-0.2309,4.2521,-0.4039
1920591.0,-4.8507,-0.8021,8.8442,-1.1414,4.027,-0.3629
1920601.0,-5.94,-1.6855,10.3166,-1.6639,3.7503,-0.241
1920611.0,-6.2584,-2.7461,10.671,-1.6096,3.6013,-0.0633
1920621.0,-5.8921,-4.118,11.6382,-1.0972,3.7769,0.0862
1920631.0,-5.466,-4.5873,11.983,-0.2331,4.135,0.1341
1920641.0,-5.5282,-4.6017,13.113,0.4071,4.5405,0.0463
1920651.0,-6.5027,-4.1635,15.1744,0.5997,4.7885,-0.1282
1920661.0,-7.3239,-3.9002,17.6022,0.3677,4.7209,-0.315
1920671.0,-8.248,-4.0007,20.5758,-0.0144,4.4666,-0.4794
1920681.0,-9.0022,-4.1755,22.8479,-0.2826,4.1356,-0.5944
1920691.0,-9.5433,-4.3455,26.5014,-0.3395,3.886,-0.688
1920701.0,-10.1203,-3.5578,29.3409,0.0506,3.5864,-0.7173
1920711.0,-10.5034,-2.9497,31.4119,0.4661,3.0708,-0.687
1920721.0,-10.2472,-2.6288,32.2858,0.6151,2.2742,-0.6737
1920731.0,-10.0724,-2.545,31.795,0.4938,1.4005,-0.687
1920741.0,-9.833,-3.4261,31.9794,0.149,0.5912,-0.7157
1920751.0,-9.5433,-4.8004,32.293,-0.0101,-0.1596,-0.746
1920761.0,-9.0357,-5.77,31.3042,0.2389,-0.8413,-0.7758
1920771.0,-8.5976,-6.0454,29.3505,0.6071,-1.4229,-0.8471
1920781.0,-8.6838,-5.3558,27.0856,0.7705,-1.9231,-0.9865
1920791.0,-9.1075,-4.6831,25.4049,0.63,-2.3982,-1.1488
1920801.0,-9.2033,-4.2593,23.9181,0.3379,-2.8713,-1.3
1920811.0,-9.3494,-3.9193,22.2302,0.0404,-3.3129,-1.4245
1920821.0,-9.4092,-4.2473,20.9469,-0.1591,-3.6508,-1.4942
1920831.0,-8.9543,-5.1882,19.4768,-0.1043,-3.8685,-1.5288
1920841.0,-8.4491,-5.9448,18.2678,0.125,-3.9408,-1.6059
1920851.0,-8.1762,-5.7916,17.0204,0.423,-3.9536,-1.74
1920861.0,-7.9033,-5.1787,16.0651,0.6619,-4.0047,-1.8959
1920871.0,-7.5944,-4.3287,14.6765,0.7913,-4.1372,-2.0385
1920881.0,-7.5369,-3.6105,13.295,0.6997,-4.3144,-2.1811
1920891.0,-7.4627,-2.8156,11.7076,0.4454,-4.5357,-2.3381
1920901.0,-6.9408,-2.0734,10.1873,0.0926,-4.7166,-2.4967
1920911.0,-6.7445,-1.008,9.1123,-0.2522,-4.7949,-2.6638
1920921.0,-6.5481,0.419,8.0852,-0.4454,-4.8087,-2.7798
1920931.0,-6.0956,1.9393,6.936,-0.5444,-4.7794,-2.8197
1920941.0,-5.5138,3.5506,6.0142,-0.6018,-4.7081,-2.7952
1920951.0,-4.8387,5.4085,4.9057,-0.6247,-4.623,-2.6999
1920961.0,-4.3335,6.5984,4.039,-0.6992,-4.5602,-2.5158
1920971.0,-3.2154,6.9025,2.6217,-0.7535,-4.5267,-2.2652
1920981.0,-1.9441,6.7445,0.6393,-0.8062,-4.408,-2.0273
1920991.0,-0.6153,6.3327,-1.2282,-0.9285,-4.1324,-1.8464
1921001.0,0.4693,5.9759,-2.1931,-1.144,-3.6998,-1.7522
1921011.0,1.3192,5.7126,-1.7573,-1.292,-3.1756,-1.7049
1921021.0,2.0039,5.8586,-1.1564,-1.2265,-2.6723,-1.657
1921031.0,2.3104,6.3351,-0.5674,-1.0632,-2.2492,-1.5841
1921041.0,2.5905,6.8354,-0.2322,-0.9057,-1.9337,-1.4553
1921051.0,2.9233,6.9959,0.4046,-0.763,-1.6517,-1.2792
1921061.0,3.1388,7.2233,0.6177,-0.5624,-1.3957,-1.069
1921071.0,3.067,7.1587,0.7685,-0.4656,-1.2031,-0.8296
1921081.0,3.1173,6.4643,0.9816,-0.4592,-1.0765,-0.571
1921091.0,3.5841,5.2337,0.68,-0.439,-0.9653,-0.315
1921101.0,4.1444,3.553,0.7661,-0.4651,-0.8258,-0.1229
1921111.0,4.2497,2.2936,0.5698,-0.4949,-0.7359,-0.0325
1921121.0,4.2617,1.3671,0.328,-0.5736,-0.696,-0.0245
1921131.0,4.3383,0.9601,-0.3519,-0.6337,-0.6854,-0.0612
1921141.0,4.1659,0.8906,-1.1492,-0.6694,-0.6204,-0.1133
1921151.0,3.9073,1.3096,-2.241,-0.6721,-0.5108,-0.1506
1921161.0,3.8044,1.834,-3.3806,-0.7157,-0.3507,-0.1501
1921171.0,3.5003,2.1931,-4.4436,-0.7758,-0.0947,-0.1043
1921181.0,3.1532,2.7318,-5.6743,-0.861,0.2586,-0.0059
1921191.0,2.5091,2.8898,-6.2896,-1.0759,0.6933,0.1463
1921201.0,1.98,2.6504,-6.8211,-1.3601,1.1377,0.357
1921211.0,1.8555,1.8986,-7.1754,-1.731,1.5963,0.5885
1921221.0,1.8124,0.4142,-6.778,-2.0587,2.1551,0.803
1921231.0,1.2019,-0.7566,-6.122,-2.1785,2.8207,0.9631
1921241.0,0.4429,-1.8268,-4.0869,-2.1449,3.5338,1.0637
1921251.0,-0.6057,-2.411,-2.0566,-1.8416,4.1345,1.1345
1921261.0,-1.6927,-2.6576,-0.2682,-1.4351,4.5772,1.1632
1921271.0,-2.8659,-2.4229,0.8811,-0.9429,4.8981,1.1887
1921281.0,-4.1037,-1.8364,1.5467,-0.4518,5.1721,1.242
1921291.0,-5.4708,-1.4078,1.8435,-0.1197,5.386,1.3255
1921301.0,-6.7588,-1.5419,1.3791,0.0559,5.5914,1.4378
1921311.0,-7.4029,-2.9281,1.4676,0.0851,5.9527,1.525
1921321.0,-7.6183,-4.81,2.885,0.1282,6.5327,1.4899
1921331.0,-8.43,-5.9137,5.7245,0.2086,7.1234,1.2654
1921341.0,-9.2847,-5.6216,8.6646,0.2746,7.4671,0.9073
1921351.0,-10.5536,-4.2018,12.2823,0.2421,7.5464,0.5459
1921361.0,-11.7388,-2.4373,14.5544,0.0809,7.2458,0.3225
1921371.0,-11.6981,-2.557,17.6046,-0.3688,6.686,0.2629
1921381.0,-11.3988,-3.3926,20.1879,-0.6529,5.9927,0.2831
1921391.0,-10.9223,-4.2401,21.3275,-0.5906,5.2684,0.3102
1921401.0,-9.9718,-4.9297,21.8184,-0.2703,4.664,0.2932
1921411.0,-10.0724,-3.8834,19.6061,-0.0282,4.3287,0.1612
1921421.0,-10.4627,-2.8276,21.2366,0.0064,4.2505,-0.0053
1921431.0,-9.0549,-1.5419,19.824,-0.1219,3.8078,-0.1123
1921441.0,-8.0948,-2.7438,32.8484,-1.0344,3.0809,-0.274
1921451.0,-4.3838,-0.182,21.3587,-2.287,2.1795,-0.4864
1921461.0,-7.1587,-1.4509,23.9612,-3.5417,2.1114,-0.5715
1921471.0,-8.5545,-0.158,24.9524,-3.4204,1.8273,-0.4209
1921481.0,-9.0309,-0.431,27.1526,-2.6824,1.3595,-0.0394
1921491.0,-7.8721,-1.5874,26.5804,-1.1627,0.9855,0.5146
1921501.0,-7.501,-2.7749,25.5174,0.3661,0.9482,0.9482
1921511.0,-6.3183,-2.8323,23.4392,1.3457,0.7258,1.1483
1921521.0,-5.7341,-2.6001,20.7338,1.3984,0.3991,1.1323
1921531.0,-5.0398,-2.1237,18.8496,0.9642,0.157,1.0062
1921541.0,-5.1068,-1.6257,18.5622,0.2214,-0.091,0.8109
1921551.0,-5.5881,-0.893,19.6348,-0.5678,-0.415,0.6082
1921561.0,-6.2465,0.3831,19.2183,-0.8977,-0.7801,0.5316
1921571.0,-6.4572,1.7238,17.844,-0.9711,-1.119,0.5885
1921581.0,-6.8426,2.4445,17.7386,-1.1015,-1.3564,0.7215
1921591.0,-6.8307,3.043,17.1329,-1.0988,-1.6059,0.9339
1921601.0,-6.9264,2.9521,16.2614,-1.1483,-1.8741,1.1781
1921611.0,-6.5864,1.7406,15.8927,-1.2526,-2.1769,1.4261
1921621.0,-5.9927,0.0096,15.0523,-1.1611,-2.427,1.6373
1921631.0,-5.5761,-1.3431,13.3884,-0.9509,-2.5653,1.7475
1921641.0,-5.1954,-2.2841,12.0644,-0.8205,-2.5313,1.7347
1921651.0,-5.4205,-2.229,11.5065,-0.7407,-2.2753,1.6389
1921661.0,-6.3231,-1.4437,12.3373,-0.7891,-1.955,1.5389
1921671.0,-7.3406,-1.3527,14.801,-0.9371,-1.822,1.5144
1921681.0,-8.1834,-1.6879,16.9031,-0.7881,-1.9305,1.5995
1921691.0,-8.3917,-2.2577,17.6357,-0.2799,-2.1167,1.7714
1921701.0,-8.5042,-3.2753,17.4872,0.2772,-2.3136,1.9539
1921711.0,-8.4946,-4.0534,16.6612,0.6082,-2.5871,2.0337
1921721.0,-8.5712,-3.984,15.4618,0.6321,-2.8782,1.9757
1921731.0,-8.7939,-3.213,13.975,0.3858,-3.0878,1.8539
1921741.0,-9.0812,-2.7869,13.5177,-0.2182,-3.2842,1.7075
1921751.0,-9.5146,-2.818,14.054,-0.9232,-3.5795,1.5586
1921761.0,-9.6702,-3.0478,14.1665,-1.3457,-3.9728,1.458
1921771.0,-9.5313,-3.4046,13.0747,-1.4287,-4.3841,1.4186
1921781.0,-9.2608,-3.7709,11.576,-1.3074,-4.698,1.4186
1921791.0,-8.7652,-4.1922,9.7085,-1.0163,-4.8853,1.4394
1921801.0,-8.2576,-4.2641,7.1204,-0.6923,-4.954,1.4447
1921811.0,-7.592,-4.537,4.9392,-0.5603,-4.8938,1.4287
1921821.0,-6.5888,-5.3175,3.6296,-0.531,-4.7198,1.3851
1921831.0,-5.5426,-5.7365,2.5594,-0.4778,-4.4618,1.2877
1921841.0,-4.7525,-5.9735,1.7789,-0.3874,-4.1372,1.1669
1921851.0,-4.0342,-6.3255,1.4509,-0.2639,-3.7668,1.069
1921861.0,-3.5291,-6.608,1.5395,-0.0766,-3.3986,0.9855
1921871.0,-2.9928,-6.6439,1.4916,0.2033,-3.0703,0.9243
1921881.0,-2.4469,-6.7588,1.2761,0.5108,-2.7611,0.8892
1921891.0,-1.901,-6.8211,1.0319,0.8056,-2.4578,0.8551
1921901.0,-1.4533,-6.9815,0.7757,1.0238,-2.1614,0.8093
1921911.0,-1.1229,-7.082,0.5626,1.1244,-1.9177,0.7354
1921921.0,-0.9002,-7.0318,0.407,1.1164,-1.7235,0.6321
1921931.0,-0.7757,-6.7181,-0.146,1.0781,-1.5362,0.5305
1921941.0,-0.7997,-6.3829,-0.5578,1.0147,-1.2776,0.4608
1921951.0,-0.5483,-6.5146,-0.5818,0.9658,-0.9493,0.4427
1921961.0,-0.4334,-7.0294,-0.3065,0.9668,-0.5933,0.4422
1921971.0,-0.4788,-7.8913,0.1293,1.0334,-0.2395,0.4326
1921981.0,-0.1053,-9.0453,0.7183,1.1382,0.1192,0.3815
1921991.0,0.1604,-9.924,1.7957,1.3255,0.5204,0.2565
1922001.0,-0.2155,-10.2113,2.7797,1.5921,0.8998,0.0921
1922011.0,-0.3998,-10.6326,3.7733,1.7618,1.1877,-0.0766
1922021.0,-0.6847,-10.8936,4.2186,1.8129,1.392,-0.257
1922031.0,-0.3926,-11.655,4.6495,1.6575,1.6293,-0.4523
1922041.0,-0.4836,-12.5983,6.1938,1.2414,1.9337,-0.7247
1922051.0,-0.8859,-13.4267,9.5289,0.687,2.179,-1.0775
1922061.0,-1.6975,-13.9343,13.5536,0.2975,2.1849,-1.4511
1922071.0,-1.9944,-13.9175,16.0388,0.1815,1.8193,-1.8001
1922081.0,-2.059,-13.5536,16.7714,0.1586,1.2127,-2.1412
1922091.0,-2.0494,-12.7755,15.5551,0.2469,0.646,-2.4589
1922101.0,-1.901,-11.5855,13.1729,0.273,0.3139,-2.775
1922111.0,-2.1404,-10.4315,11.7986,0.0287,0.2554,-3.1038
1922121.0,-2.0159,-9.7181,11.2456,-0.3416,0.3586,-3.4151
1922131.0,-2.1572,-8.9471,11.5017,-0.8349,0.5087,-3.7642
1922141.0,-2.3128,-7.8721,12.4211,-1.4213,0.6045,-4.1361
1922151.0,-2.6719,-7.1826,14.1449,-1.9646,0.6162,-4.465
1922161.0,-3.3088,-6.2968,15.4139,-2.2088,0.5146,-4.7294
1922171.0,-3.8211,-5.0278,15.6581,-2.1253,0.3597,-4.9077
1922181.0,-4.1061,-3.6368,15.0978,-1.8337,0.2219,-4.9848
1922191.0,-4.2545,-2.2913,13.9462,-1.3973,0.1836,-4.9854
1922201.0,-4.0773,-0.747,12.323,-0.9615,0.2847,-4.9742
1922211.0,-3.8738,0.8859,10.6686,-0.8131,0.5225,-5.0317
1922221.0,-4.0654,2.885,10.4651,-1.3212,0.7939,-5.2158
1922231.0,-4.628,4.4867,13.2663,-2.4834,0.8556,-5.4536
1922241.0,-5.0996,5.8155,16.8456,-3.6216,0.5146,-5.5968
1922251.0,-5.0973,7.0677,18.7897,-4.1212,-0.0585,-5.5334
1922261.0,-4.5274,8.4348,18.16,-3.886,-0.5773,-5.2631
1922271.0,-4.0294,10.0269,16.3859,-3.2214,-0.8306,-4.8593
1922281.0,-3.5769,12.3182,14.1809,-2.4153,-0.8407,-4.3591
1922291.0,-3.1292,14.0827,12.4714,-1.8172,-0.7721,-3.7535
1922301.0,-2.0423,14.5352,11.2097,-1.4771,-0.7391,-3.0825
1922311.0,-0.9194,14.0779,10.0389,-1.176,-0.6423,-2.4142
1922321.0,0.1317,13.0628,8.5736,-0.8993,-0.4448,-1.8241
1922331.0,0.7685,11.5089,8.1307,-0.7817,-0.1756,-1.3707
1922341.0,1.3384,10.1754,7.9631,-0.7247,0.0809,-1.0451
1922351.0,1.4533,9.1482,8.9759,-0.7263,0.3225,-0.8221
1922361.0,1.1277,8.6574,10.343,-0.622,0.4603,-0.6268
1922371.0,1.0487,8.3079,11.3509,-0.3975,0.4369,-0.4081
1922381.0,0.9649,8.078,11.6837,-0.1117,0.2794,-0.1761
1922391.0,0.9242,8.1068,11.1139,0.1713,0.0692,0.0591
1922401.0,1.1277,7.9871,10.3166,0.3709,-0.1027,0.2847
1922411.0,1.2091,8.1187,9.4379,0.5454,-0.1932,0.4959
1922421.0,0.9313,8.8514,8.1858,0.6774,-0.2139,0.7019
1922431.0,-0.3089,9.3494,8.4324,0.589,-0.1607,0.9269
1922441.0,0.2107,9.4954,7.2832,0.696,-0.1995,1.2494
1922451.0,0.3065,9.1746,6.7516,0.7684,-0.1437,1.5868
1922461.0,0.3831,8.509,6.2944,0.9067,-0.0197,1.9358
1922471.0,0.0814,7.9057,5.7317,1.119,0.1623,2.2711
1922481.0,-0.3184,7.1108,5.3223,1.2952,0.3272,2.577
1922491.0,-0.4573,6.2728,4.6878,1.4878,0.5066,2.8569
1922501.0,-0.7901,5.3056,4.0821,1.6373,0.7471,3.0889
1922511.0,-1.1013,4.5633,3.565,1.6841,1.0296,3.2576
1922521.0,-1.4317,3.7086,3.7421,1.5804,1.3143,3.3699
1922531.0,-2.1141,3.1436,4.0869,1.3611,1.5128,3.4348
1922541.0,-2.7438,2.2122,5.0015,1.0509,1.6049,3.4864
1922551.0,-3.0478,1.2115,5.5809,0.8769,1.6011,3.5332
1922561.0,-3.2489,0.5291,5.7293,0.9275,1.6123,3.5598
1922571.0,-3.4213,0.2155,5.6455,1.1866,1.723,3.5832
1922581.0,-3.711,0.5291,5.3343,1.5931,1.9262,3.6024
1922591.0,-4.1827,1.4892,4.7429,1.9598,2.2115,3.6338
1922601.0,-5.1619,2.3176,4.9321,2.1146,2.5823,3.7253
1922611.0,-6.6272,2.4708,5.3343,2.0077,2.8707,3.8881
1922621.0,-7.7309,1.4437,5.6575,1.5729,2.9623,4.0611
1922631.0,-8.3917,-0.3519,6.5457,0.9998,2.9862,4.1611
1922641.0,-8.1355,-2.3607,8.3246,0.7492,3.1458,4.1946
1922651.0,-8.5066,-3.4357,9.8857,0.9493,3.3938,4.142
1922661.0,-9.4044,-3.0957,10.5704,1.234,3.5439,4.0185
1922671.0,-9.9718,-2.624,9.8928,1.2483,3.6466,3.902
1922681.0,-10.738,-2.6193,9.1482,0.5151,3.7482,3.7439
1922691.0,-11.5185,-4.2832,12.2607,-1.0557,3.7578,3.5072
1922701.0,-12.5408,-6.4715,16.7187,-2.5472,3.3826,3.2656
1922711.0,-12.287,-9.2033,20.9493,-3.2863,2.6387,3.0969
1922721.0,-11.5688,-11.3605,21.9644,-2.859,1.8076,3.0128
1922731.0,-10.4627,-12.3277,19.8982,-1.6134,1.2654,2.9373
1922741.0,-9.7229,-11.7364,16.1561,-0.2645,1.1967,2.7957
1922751.0,-8.9759,-11.145,13.6757,0.5757,1.6022,2.6345
1922761.0,-8.8753,-11.6669,14.1761,0.6859,2.1253,2.4403
1922771.0,-9.1171,-13.113,16.6636,0.3496,2.3636,2.179
1922781.0,-8.9615,-14.9159,19.4361,0.1745,2.3509,1.8954
1922791.0,-8.521,-16.1489,21.488,0.4704,2.3131,1.5756
1922801.0,-8.4803,-15.7945,22.7976,1.0594,2.3163,1.1898
1922811.0,-8.442,-13.7858,23.4392,1.4069,2.1503,0.7269
1922821.0,-8.6263,-11.6861,24.5358,1.1254,1.6586,0.2336
1922831.0,-8.6838,-9.4715,24.7249,0.4145,0.887,-0.2373
1922841.0,-8.9328,-7.7093,24.8925,-0.4975,0.0271,-0.6497
1922851.0,-9.0429,-6.4979,24.3969,-1.2968,-0.8344,-0.9642
1922861.0,-9.2416,-5.4085,23.5685,-1.7687,-1.5351,-1.1861
1922871.0,-9.2201,-4.2234,21.8854,-1.7655,-2.005,-1.2813
1922881.0,-9.0118,-3.3471,20.3196,-1.5176,-2.2631,-1.2515
1922891.0,-8.5186,-3.96,18.0379,-1.1717,-2.427,-1.1536
1922901.0,-7.5609,-4.6232,16.0196,-0.9466,-2.3887,-1.1302
1922911.0,-6.9121,-5.6264,15.5767,-0.8759,-2.0992,-1.201
1922921.0,-6.6367,-6.28,17.0132,-0.8743,-1.7783,-1.3867
1922931.0,-7.1587,-5.9161,18.5838,-0.8567,-1.7166,-1.6511
1922941.0,-7.4699,-4.9584,19.7522,-0.828,-1.9161,-1.9172
1922951.0,-8.2744,-3.2465,20.2238,-0.7705,-2.2381,-2.1364
1922961.0,-9.0525,-1.4988,20.7984,-0.6694,-2.6026,-2.2439
1922971.0,-9.6917,-0.2083,21.0187,-0.4087,-3.0346,-2.2045
1922981.0,-10.0892,0.7781,19.4457,-0.0351,-3.5832,-2.0641
1922991.0,-9.8378,1.3815,17.267,0.2565,-4.0712,-1.9066
1923001.0,-9.2703,2.3272,14.4538,0.4699,-4.3521,-1.7592
1923011.0,-8.7436,2.9999,12.5624,0.3475,-4.5043,-1.6405
1923021.0,-8.4108,3.1891,11.4299,-0.0383,-4.7103,-1.557
1923031.0,-7.7692,3.0335,9.912,-0.4379,-4.9811,-1.4819
1923041.0,-6.766,2.3343,7.999,-0.779,-5.1828,-1.4175
1923051.0,-5.7652,1.6185,6.3901,-1.0403,-5.2371,-1.4011
1923061.0,-4.8746,1.0319,5.0949,-1.1393,-5.1338,-1.4181
1923071.0,-4.1539,0.8116,4.1851,-1.0839,-4.9316,-1.434
1923081.0,-3.45,0.6776,3.3615,-0.9285,-4.7209,-1.4319
1923091.0,-2.7126,0.7398,2.4349,-0.7391,-4.5416,-1.4149
1923101.0,-1.889,0.8452,1.5299,-0.6029,-4.366,-1.3899
1923111.0,-0.996,0.9026,0.7111,-0.4762,-4.1505,-1.351
1923121.0,-0.1413,0.9481,-0.1365,-0.3645,-3.9004,-1.3037
1923131.0,0.5243,0.8475,-0.9266,-0.3022,-3.6317,-1.2611
1923141.0,1.2402,0.8021,-1.664,-0.2746,-3.3103,-1.2318
1923151.0,1.8842,0.7254,-1.9393,-0.2448,-2.8915,-1.2079
1923161.0,2.478,0.7757,-1.8004,-0.158,-2.4121,-1.1797
1923171.0,2.8946,0.9744,-1.2617,-0.0718,-1.9598,-1.1462
1923181.0,3.2729,1.1085,-0.68,-0.0282,-1.5915,-1.0924
1923191.0,3.6344,1.0295,0.0718,-0.0176,-1.3095,-1.0286
1923201.0,3.9552,0.9577,0.5387,0.0218,-1.0914,-0.9631
1923211.0,4.2976,0.905,0.7853,0.0612,-0.9142,-0.9035
1923221.0,4.5562,0.8356,1.0534,0.074,-0.7657,-0.8508
1923231.0,4.7788,0.8284,1.2641,0.0942,-0.6279,-0.8067
1923241.0,4.9536,1.0199,1.2929,0.0889,-0.5151,-0.7732
1923251.0,4.944,1.245,1.2977,0.0096,-0.4326,-0.7396
1923261.0,4.9464,1.3551,1.1157,-0.1219,-0.3826,-0.6933
1923271.0,5.2194,1.3431,1.0582,-0.2778,-0.3214,-0.6428
1923281.0,5.3606,1.3838,0.8643,-0.4049,-0.2453,-0.5949
1923291.0,5.3175,1.4988,0.589,-0.5092,-0.1554,-0.5406
1923301.0,5.2864,1.4245,0.4764,-0.5699,-0.0351,-0.4656
1923311.0,5.2577,1.3647,0.1987,-0.5236,0.1203,-0.3719
1923321.0,5.2218,1.1899,-0.079,-0.4177,0.3219,-0.2682
1923331.0,5.1092,1.0391,-0.4956,-0.2857,0.5481,-0.1692
1923341.0,4.9105,0.8499,-0.9242,-0.2107,0.7881,-0.0803
1923351.0,4.695,0.4453,-1.1013,-0.2022,1.0488,-0.0048
1923361.0,4.3,0.1101,-1.0151,-0.1937,1.3345,0.0553
1923371.0,3.8499,-0.3089,-0.431,-0.141,1.6389,0.1091
1923381.0,3.3495,-0.6081,-0.1724,-0.0277,1.9098,0.158
1923391.0,2.7749,-0.8954,-0.0024,0.0506,2.1402,0.1884
1923401.0,2.2913,-1.075,0.158,0.0883,2.3408,0.215
1923411.0,1.6759,-1.3024,0.4453,0.0851,2.5446,0.2453
1923421.0,1.0582,-1.6807,0.6871,0.0873,2.7329,0.2788
1923431.0,0.4693,-2.2769,1.0511,0.1192,2.916,0.3065
1923441.0,-0.182,-2.976,1.7142,0.2027,3.1033,0.3022
1923451.0,-0.9673,-3.5338,2.059,0.3815,3.2613,0.2432
1923461.0,-1.6448,-3.7541,1.8914,0.5662,3.3693,0.124
1923471.0,-2.083,-3.9169,1.5754,0.7466,3.5311,-0.025
1923481.0,-2.3942,-3.7781,0.759,0.9583,3.82,-0.2001
1923491.0,-3.4117,-3.1627,0.4645,1.0169,4.2207,-0.4135
1923501.0,-4.3167,-2.4948,0.8619,0.8322,4.6118,-0.629
1923511.0,-5.3726,-1.9321,1.9417,0.4848,4.9492,-0.8253
1923521.0,-6.5936,-1.0654,3.2705,0.1293,5.2509,-0.9977
1923531.0,-7.6136,-0.0958,5.1691,-0.1995,5.5036,-1.1095
1923541.0,-8.5138,0.2993,7.5992,-0.489,5.6526,-1.1148
1923551.0,-9.0285,0.182,10.0461,-0.6167,5.6798,-1.0504
1923561.0,-9.4547,0.1413,11.6909,-0.5076,5.6457,-0.9599
1923571.0,-9.4427,-0.1844,12.9742,-0.3209,5.5994,-0.8759
1923581.0,-9.675,-0.4262,13.9007,-0.2102,5.5329,-0.8418
1923591.0,-9.5984,-1.0127,14.947,-0.3517,5.3892,-0.8642
1923601.0,-9.8019,-1.5443,15.9861,-0.7497,5.1195,-0.9578
1923611.0,-10.0317,-2.071,17.1521,-1.2499,4.7933,-1.0802
1923621.0,-10.0245,-2.6576,18.9621,-1.541,4.5623,-1.1797
1923631.0,-10.1011,-2.1404,20.9564,-1.3431,4.5011,-1.2388
1923641.0,-10.5297,-0.5962,22.5175,-0.8657,4.4442,-1.2249
1923651.0,-10.501,0.4956,23.4919,-0.5364,4.1696,-1.1355
1923661.0,-9.9216,1.2282,23.4991,-0.5598,3.7338,-1.0573
1923671.0,-9.7516,2.0758,23.8032,-0.9908,3.3161,-1.0323
1923681.0,-10.2544,2.2529,25.9124,-1.6831,2.8441,-0.9727
1923691.0,-10.5082,1.5921,28.8501,-1.9816,2.2354,-0.7859
1923701.0,-9.9335,1.087,29.4463,-1.3308,1.6666,-0.456
1923711.0,-9.9742,0.759,28.752,-0.2586,1.2372,-0.1123
1923721.0,-7.6878,0.7207,28.1702,0.3453,0.8317,0.0474
1923731.0,-5.9161,3.723,22.4169,1.1813,0.6263,0.1926
1923741.0,-6.7086,4.7884,23.3123,0.5401,0.5044,0.1857
1923751.0,-6.9935,5.8945,23.0873,-0.2831,-0.0351,0.2341
1923761.0,-7.1515,6.0645,22.0745,-1.0717,-0.6316,0.3555
1923771.0,-7.4436,5.193,21.8591,-1.7778,-1.1738,0.53
1923781.0,-7.4891,4.1037,21.2461,-1.938,-1.5708,0.7689
1923791.0,-7.4316,3.2441,20.3531,-1.6591,-1.8166,1.0222
1923801.0,-7.2951,2.6288,19.4505,-1.1893,-1.9534,1.2537
1923811.0,-7.5681,2.9113,18.342,-0.7599,-2.0875,1.4255
1923821.0,-8.1283,3.6033,16.8839,-0.6662,-2.3594,1.5559
1923831.0,-8.3989,3.7661,15.603,-0.9046,-2.7611,1.6836
1923841.0,-8.4946,3.4931,14.2192,-1.1361,-3.09,1.8315
1923851.0,-8.7747,2.9377,12.979,-1.1898,-3.2384,2.005
1923861.0,-8.9256,1.968,12.3804,-1.1286,-3.3103,2.1918
1923871.0,-8.9016,0.8068,11.4395,-0.9067,-3.372,2.3801
1923881.0,-8.6431,-0.1748,9.7731,-0.6082,-3.3917,2.5387
1923891.0,-8.3414,-1.3815,8.928,-0.4241,-3.2954,2.6403
1923901.0,-8.2696,-2.2458,8.1786,-0.2395,-3.1517,2.6882
1923911.0,-8.0756,-2.909,7.7405,-0.1171,-2.9979,2.6909
1923921.0,-7.6423,-3.7852,7.8099,-0.0213,-2.8399,2.6749
1923931.0,-7.2137,-4.391,7.9559,0.1203,-2.693,2.6281
1923941.0,-7.0174,-4.628,8.1714,0.2943,-2.5893,2.5531
1923951.0,-6.9073,-4.5514,7.7812,0.4954,-2.5281,2.4876
1923961.0,-6.8666,-4.4891,7.2185,0.6077,-2.4701,2.4456
1923971.0,-6.5649,-4.7549,6.754,0.5981,-2.3881,2.4179
1923981.0,-6.2584,-5.1571,6.6798,0.5082,-2.2562,2.3785
1923991.0,-6.201,-5.6743,7.288,0.4129,-2.0869,2.3275
1924001.0,-6.2321,-6.1723,8.2696,0.4337,-1.9491,2.2785
1924011.0,-6.1914,-6.754,9.0046,0.605,-1.8752,2.2466
1924021.0,-6.1603,-7.4699,8.983,0.8381,-1.8502,2.2205
1924031.0,-5.7533,-8.5521,8.5353,0.9711,-1.8012,2.1567
1924041.0,-4.9321,-9.5768,8.3629,0.8844,-1.6985,2.0039
1924051.0,-5.0039,-10.3837,9.2296,0.5906,-1.5825,1.7634
1924061.0,-5.1284,-11.3461,10.5441,0.3006,-1.5431,1.5016
1924071.0,-4.6902,-12.3924,11.564,0.1442,-1.5889,1.2185
1924081.0,-4.1515,-13.0867,12.2655,0.067,-1.666,0.8849
1924091.0,-3.6655,-13.2016,12.6701,0.0053,-1.7703,0.505
1924101.0,-3.7134,-12.7922,12.9024,-0.0543,-1.8927,0.1032
1924111.0,-3.7709,-12.0692,12.4403,-0.1054,-2.0124,-0.2804
1924121.0,-3.2872,-11.6813,12.1338,-0.2517,-2.0736,-0.6332
1924131.0,-2.8012,-11.3437,12.3325,-0.4528,-2.0795,-0.9913
1924141.0,-2.7869,-10.4531,12.5576,-0.6311,-2.0901,-1.3585
1924151.0,-2.7509,-9.3972,12.7372,-0.7886,-2.1678,-1.7033
1924161.0,-2.7725,-7.9655,12.4163,-0.9019,-2.2796,-2.0172
1924171.0,-2.7342,-6.45,12.0524,-0.9679,-2.3466,-2.2833
1924181.0,-2.8778,-4.7669,11.3006,-1.0068,-2.37,-2.5041
1924191.0,-2.8515,-3.0454,10.7141,-1.1472,-2.3828,-2.6861
1924201.0,-2.6384,-1.6257,10.7069,-1.3686,-2.403,-2.8149
1924211.0,-2.2098,-0.5626,10.7428,-1.5463,-2.4424,-2.875
1924221.0,-1.7382,0.2753,10.7212,-1.7033,-2.5408,-2.8867
1924231.0,-1.6065,0.8499,10.4746,-1.9241,-2.75,-2.8718
1924241.0,-1.2378,1.0367,9.7468,-2.1598,-3.0549,-2.8362
1924251.0,-0.4908,0.8571,8.3629,-2.2929,-3.3156,-2.7915
1924261.0,0.2083,0.7278,6.6583,-2.2732,-3.3912,-2.759
1924271.0,0.7805,0.8547,5.0733,-2.17,-3.2895,-2.7409
1924281.0,1.585,1.0271,4.0677,-2.0258,-3.0788,-2.7281
1924291.0,2.2865,1.3599,3.1627,-1.8443,-2.8096,-2.7143
1924301.0,2.7821,1.9178,2.3391,-1.7363,-2.5382,-2.6957
1924311.0,3.3375,2.5618,1.8148,-1.7693,-2.3211,-2.6643
1924321.0,3.7637,3.1843,1.166,-1.9225,-2.1859,-2.6175
1924331.0,4.221,3.6966,0.2322,-2.2003,-2.1013,-2.5541
1924341.0,4.5705,4.1013,-0.7973,-2.5281,-1.9981,-2.4642
1924351.0,5.0015,4.1539,-1.6209,-2.8378,-1.8065,-2.3434
1924361.0,5.2648,3.7781,-1.6161,-2.9708,-1.5,-2.1971
1924371.0,5.3271,3.5171,-1.4605,-2.7686,-1.1307,-2.0375
1924381.0,5.6982,3.4955,-1.5921,-2.3227,-0.7705,-1.881
1924391.0,6.0885,3.5602,-1.8172,-1.7044,-0.3959,-1.74
1924401.0,6.2824,4.1611,-2.557,-0.9706,0.0186,-1.6123
1924411.0,6.0813,4.9297,-2.8276,-0.3704,0.448,-1.4958
1924421.0,5.8155,5.7724,-2.9712,0.0484,0.787,-1.3681
1924431.0,5.4779,6.505,-3.4165,0.2863,1.0286,-1.218
1924441.0,5.2912,7.0725,-4.0342,0.3406,1.2478,-1.0568
1924451.0,4.64,7.6902,-4.8171,0.183,1.4644,-0.8955
1924461.0,3.8259,8.0637,-4.9847,-0.1969,1.6836,-0.7311
1924471.0,3.067,8.339,-5.1595,-0.6188,1.9119,-0.5454
1924481.0,2.2529,8.2744,-5.1978,-0.9924,2.2067,-0.3283
1924491.0,1.3838,8.0014,-4.8123,-1.2068,2.6089,-0.0788
1924501.0,0.3903,7.6686,-3.9792,-1.1611,3.1411,0.1995
1924511.0,-0.6488,7.4101,-2.909,-0.9732,3.6886,0.4927
1924521.0,-1.7549,7.1994,-1.5826,-0.812,4.1233,0.7923
1924531.0,-2.6312,6.924,-0.2729,-0.7152,4.4144,1.1121
1924541.0,-3.7373,6.5936,1.0534,-0.6492,4.5762,1.4543
1924551.0,-5.43,5.9903,2.0758,-0.6039,4.6081,1.8353
1924561.0,-6.7588,4.3838,3.158,-0.5401,4.5325,2.2583
1924571.0,-7.1419,1.8483,3.7397,-0.1011,4.5724,2.6595
1924581.0,-7.3861,-0.2394,3.4213,0.771,4.8917,2.924
1924591.0,-7.4795,-1.7549,3.9385,1.6517,5.4169,2.9814
1924601.0,-8.0852,-2.1117,4.8004,2.4158,5.9767,2.8713
1924611.0,-9.5648,-1.7549,5.3989,2.834,6.4247,2.6994
1924621.0,-10.9295,-2.5929,6.7062,2.6254,6.6855,2.5275
1924631.0,-12.0452,-4.707,8.3845,1.9816,6.7961,2.2961
1924641.0,-12.9814,-7.1611,10.477,1.0568,6.7584,1.922
1924651.0,-13.0699,-9.5672,13.9199,0.1016,6.6221,1.3973
1924661.0,-13.5392,-9.5457,16.4889,-0.3858,6.5194,0.8226
1924671.0,-14.8297,-8.2504,19.8168,-0.6045,6.5125,0.357
1924681.0,-15.263,-7.0797,23.0514,-0.8051,6.2507,0.0713
1924691.0,-15.1385,-6.2201,25.5006,-1.2015,5.6255,-0.0952
1924701.0,-15.1385,-6.2058,27.2843,-1.8193,4.706,-0.1644
1924711.0,-14.6765,-7.8195,29.3026,-2.3418,3.6498,-0.1394
1924721.0,-13.5225,-9.4355,30.2651,-2.1205,2.6526,-0.0623
1924731.0,-12.3684,-9.7779,29.4032,-0.9982,1.905,0.0293
1924741.0,-11.1187,-9.0621,26.262,0.6173,1.433,0.1022
1924751.0,-10.0293,-7.1084,22.0027,1.989,1.2946,0.0479
1924761.0,-9.4595,-4.5442,19.3308,2.5366,1.4106,-0.1336
1924771.0,-8.6598,-2.7509,17.6046,1.9678,1.4021,-0.4294
1924781.0,-8.7771,-1.2234,20.5231,0.7785,1.2861,-0.7865
1924791.0,-8.1092,0.9697,20.4034,-0.0165,0.8115,-0.9924
1924801.0,-7.6327,1.9465,21.9405,-0.8503,0.3054,-1.077
1924811.0,-7.2449,3.213,21.7322,-1.2169,-0.315,-0.9924
1924821.0,-6.6391,3.6583,20.3986,-1.2584,-0.9232,-0.77
1924831.0,-5.6383,3.6823,18.7203,-1.0531,-1.3771,-0.4917
1924841.0,-5.0853,3.8235,16.7618,-0.5555,-1.6251,-0.1884
1924851.0,-4.0247,4.0917,13.3501,-0.0133,-1.8097,0.1016
1924861.0,-3.134,4.2449,10.9104,0.1857,-1.8443,0.3028
1924871.0,-2.4948,4.8818,8.1762,0.2485,-1.7288,0.4427
1924881.0,-2.2386,5.8706,6.3638,0.0287,-1.4543,0.5385
1924891.0,-2.4948,6.6511,5.8897,-0.4645,-1.143,0.638
1924901.0,-2.8994,7.0605,6.2417,-0.9966,-0.8897,0.7918
1924911.0,-3.2681,7.1946,6.4643,-1.4516,-0.746,0.9956
1924921.0,-3.4429,6.9264,6.8738,-1.8283,-0.6353,1.234
1924931.0,-3.6607,6.1842,7.6806,-2.0188,-0.4949,1.5149
1924941.0,-4.0175,5.1188,8.8945,-1.98,-0.3666,1.8065
1924951.0,-4.5035,4.1276,10.0149,-1.7416,-0.3379,2.0827
1924961.0,-4.81,3.1029,10.6662,-1.3633,-0.4161,2.3434
1924971.0,-5.3822,2.0877,10.9607,-0.895,-0.531,2.5802
1924981.0,-5.8323,1.0534,10.489,-0.4001,-0.654,2.7808
1924991.0,-5.9999,-0.0335,9.8904,0.0096,-0.7194,2.9011
1925001.0,-6.3015,-0.589,8.7604,0.298,-0.7077,2.9298
1925011.0,-6.5984,-0.6273,8.0732,0.3092,-0.638,2.8633
1925021.0,-6.8594,-0.0862,7.7261,0.108,-0.5444,2.7441
1925031.0,-7.3885,0.7614,7.7788,-0.2437,-0.4369,2.6419
1925041.0,-8.2456,1.3599,8.5329,-0.6737,-0.3565,2.5988
1925051.0,-9.1818,1.8028,9.3134,-1.0078,-0.3267,2.6531
1925061.0,-10.0221,1.4174,10.6973,-1.2249,-0.3283,2.8303
1925071.0,-10.7548,0.0527,12.0357,-1.2281,-0.4273,3.1043
1925081.0,-10.8433,-2.162,13.1035,-1.0456,-0.6327,3.3959
1925091.0,-10.5082,-5.102,13.9103,-0.6513,-0.8918,3.629
1925101.0,-9.6726,-7.9057,13.5632,-0.0447,-1.1526,3.7184
1925111.0,-8.7771,-9.9886,12.5384,0.4869,-1.375,3.612
1925121.0,-8.2193,-11.1594,11.8058,0.8397,-1.5245,3.3454
1925131.0,-7.8362,-11.3006,10.4986,1.0983,-1.6219,3.007
1925141.0,-7.4843,-11.0038,9.4595,1.1307,-1.673,2.6579
1925151.0,-7.2089,-11.1546,9.2991,1.0461,-1.641,2.3445
1925161.0,-7.0557,-11.4946,9.414,1.1307,-1.5128,2.0795
1925171.0,-6.7349,-12.0596,9.5337,1.3643,-1.3516,1.8363
1925181.0,-6.4332,-12.6414,9.2201,1.6176,-1.1962,1.5665
1925191.0,-6.1124,-13.0269,8.5425,1.7645,-1.0062,1.2356
1925201.0,-5.5809,-13.1418,8.0828,1.698,-0.7317,0.8232
1925211.0,-5.2601,-13.0412,8.6503,1.3856,-0.3927,0.3331
1925221.0,-5.7054,-12.5217,10.0102,0.8673,-0.1229,-0.2043
1925231.0,-6.3183,-12.2583,12.2368,0.2112,-0.0314,-0.7402
1925241.0,-6.8139,-11.9973,14.5759,-0.3927,-0.107,-1.2494
1925251.0,-7.4699,-11.8896,16.6948,-0.8562,-0.3033,-1.7145
1925261.0,-8.0517,-11.7364,18.6939,-1.1909,-0.6146,-2.1556
1925271.0,-8.7173,-11.1282,20.1664,-1.309,-1.0302,-2.5685
1925281.0,-9.0932,-10.1131,20.4752,-1.2004,-1.5186,-2.9218
1925291.0,-9.5217,-8.9854,19.6755,-1.0004,-2.0098,-3.2315
1925301.0,-9.6199,-7.9942,18.3492,-0.845,-2.4062,-3.5263
1925311.0,-9.3278,-7.1491,17.0874,-0.7657,-2.6536,-3.8232
1925321.0,-9.6654,-5.7221,16.204,-0.7125,-2.7537,-4.1537
1925331.0,-10.2017,-3.3591,14.9901,-0.7226,-2.8191,-4.465
1925341.0,-10.331,-1.4748,14.5137,-1.0068,-2.9303,-4.715
1925351.0,-10.5632,0.1748,14.03,-1.3814,-3.0873,-4.9114
1925361.0,-10.5872,1.7238,13.6829,-1.6501,-3.1943,-5.0199
1925371.0,-10.5273,2.636,13.6182,-1.7469,-3.2289,-5.0088
1925381.0,-9.9024,2.8012,13.7451,-1.5947,-3.2289,-4.9066
1925391.0,-9.323,3.2178,13.1801,-1.1824,-3.2411,-4.7778
1925401.0,-8.5042,4.2258,12.0692,-0.721,-3.2597,-4.6517
1925411.0,-7.8889,5.7174,10.398,-0.3986,-3.2544,-4.5192
1925421.0,-7.5896,7.4436,9.0142,-0.4401,-3.2156,-4.3968
1925431.0,-7.2042,9.0453,8.6742,-0.8487,-3.1741,-4.2681
1925441.0,-6.7397,10.1299,9.1435,-1.4287,-3.2289,-4.0946
1925451.0,-6.0693,10.58,9.8234,-1.9353,-3.3912,-3.8621
1925461.0,-5.2864,10.6111,9.754,-2.1598,-3.5912,-3.5694
1925471.0,-4.2593,10.4746,9.153,-2.1189,-3.745,-3.2448
1925481.0,-3.3375,10.4387,8.3438,-1.8486,-3.7966,-2.8989
1925491.0,-2.4636,10.6422,7.0868,-1.4378,-3.7775,-2.5227
1925501.0,-1.6065,10.659,6.0118,-1.036,-3.728,-2.1221
1925511.0,-0.6871,10.5105,4.8243,-0.6311,-3.662,-1.6958
1925521.0,0.3065,10.1275,3.3447,-0.2714,-3.5471,-1.2616
1925531.0,1.1037,9.3805,2.1883,-0.0048,-3.3779,-0.8413
1925541.0,1.992,8.2097,1.4198,0.2006,-3.1762,-0.4571
1925551.0,2.7629,7.0246,0.6584,0.4198,-2.9554,-0.1341
1925561.0,3.4764,6.0358,-0.0215,0.6497,-2.717,0.1229
1925571.0,4.1539,5.0901,-0.6057,0.8562,-2.4647,0.3379
1925581.0,4.8746,4.051,-0.9744,1.0105,-2.2232,0.5146
1925591.0,5.4636,3.0694,-1.4293,1.1153,-2.0279,0.6385
1925601.0,5.8921,2.3631,-2.3559,1.1531,-1.889,0.7061
1925611.0,6.268,1.889,-3.5865,1.1132,-1.7491,0.7317
1925621.0,6.4931,1.5754,-5.0613,0.986,-1.5591,0.7333
1925631.0,6.5649,1.1827,-6.4548,0.7333,-1.3196,0.7109
1925641.0,6.7469,0.723,-7.8219,0.4198,-1.0084,0.6683
1925651.0,6.7588,0.3831,-8.7867,0.0883,-0.5736,0.597
1925661.0,6.5003,0.3783,-9.0597,-0.2251,-0.042,0.5013
1925671.0,6.0549,0.7302,-8.8538,-0.4534,0.5305,0.4315
1925681.0,5.3103,1.0534,-8.26,-0.5364,1.1228,0.4385
1925691.0,4.5562,1.1923,-7.501,-0.423,1.7395,0.5438
1925701.0,3.7948,1.063,-6.7157,-0.1836,2.3477,0.7136
1925711.0,2.909,0.589,-5.6288,0.0724,2.9186,0.9051
1925721.0,1.992,-0.1053,-4.5274,0.3459,3.4055,1.0876
1925731.0,1.2019,-0.8332,-3.699,0.5928,3.8057,1.226
1925741.0,0.4286,-1.2594,-3.3878,0.7497,4.1324,1.3
1925751.0,-0.5363,-1.4317,-2.715,0.7769,4.4447,1.3223
1925761.0,-1.7861,-0.9768,-2.2529,0.8067,4.7566,1.3351
1925771.0,-3.2992,-0.3519,-1.5275,0.8721,5.0982,1.3814
1925781.0,-5.2122,0.2538,-0.984,1.0653,5.4946,1.492
1925791.0,-6.9887,0.2298,-0.6033,1.2728,5.9613,1.6602
1925801.0,-8.3821,-1.1013,0.5459,1.3574,6.4497,1.8299
1925811.0,-9.2751,-3.4069,2.7198,1.3915,6.9265,1.9113
1925821.0,-9.3781,-5.9759,5.7221,1.4819,7.3442,1.7953
1925831.0,-9.9335,-7.3454,8.5018,1.6501,7.5847,1.4591
1925841.0,-10.501,-7.5106,11.2958,1.7698,7.5906,0.9722
1925851.0,-11.2264,-6.2704,12.6773,1.8784,7.4059,0.4464
1925861.0,-12.1578,-4.3479,13.7643,1.8283,7.2399,-0.0484
1925871.0,-13.3189,-1.6903,14.6477,1.475,7.0516,-0.4741
1925881.0,-14.9207,0.2107,16.9677,0.5571,6.6605,-0.7625
1925891.0,-14.7411,0.1006,20.0586,-0.4933,5.957,-0.853
1925901.0,-13.714,-0.8021,21.6149,-1.1302,5.1312,-0.8253
1925911.0,-13.1346,-1.7334,21.9189,-1.3638,4.3484,-0.7827
1925921.0,-12.3325,-2.071,21.0043,-1.1914,3.6923,-0.7508
1925931.0,-11.6191,-1.6759,19.2039,-0.6401,3.3321,-0.7157
1925941.0,-11.0852,-0.8571,14.7411,-0.0117,3.2501,-0.6902
1925951.0,-11.7053,-1.0654,17.99,0.0048,3.604,-0.7998
1925961.0,-10.6662,0.2586,17.3795,0.4092,3.6679,-0.8689
1925971.0,-11.1163,1.2713,18.7753,0.19,3.5928,-1.0009
1925981.0,-11.4347,2.1452,26.5541,-0.3501,3.024,-1.0823
1925991.0,-9.7133,1.0271,27.5644,-1.3053,1.9795,-1.1653
1926001.0,-8.1666,4.2521,19.0722,-0.199,1.4324,-0.8753
1926011.0,-10.3549,3.8044,20.5614,-0.1958,1.3893,-0.6614
1926021.0,-9.0261,4.0366,21.6675,0.1117,0.9057,-0.4044
1926031.0,-8.1642,4.9847,18.1816,0.7226,0.6742,-0.1128
1926041.0,-7.4747,6.0573,13.9079,0.8769,0.7795,0.1591
1926051.0,-7.4915,4.8171,17.4226,-0.0106,0.9009,0.3081
1926061.0,-7.015,3.9409,18.8496,-0.4651,0.6263,0.4805
1926071.0,-6.5027,3.1364,17.7793,-0.5161,0.3139,0.6657
1926081.0,-6.2944,1.5036,18.8879,-0.7333,0.0474,0.7662
1926091.0,-6.0932,0.9266,18.579,-0.6306,-0.2059,0.8062
1926101.0,-6.6128,1.1301,17.7123,-0.564,-0.3347,0.7817
1926111.0,-7.7572,1.2641,18.2366,-0.8301,-0.4379,0.7125
1926121.0,-8.6742,1.2881,19.1799,-1.1653,-0.6284,0.6566
1926131.0,-9.7923,1.1779,20.1328,-1.4729,-0.9222,0.6274
1926141.0,-10.7643,0.6536,21.4401,-1.648,-1.2473,0.6359
1926151.0,-11.3126,0.2131,22.8814,-1.5016,-1.5751,0.6886
1926161.0,-12.4068,0.8356,23.1663,-1.0573,-1.939,0.7732
1926171.0,-13.7331,2.2889,22.2469,-0.6774,-2.3498,0.9078
1926181.0,-15.0284,3.1101,21.3922,-0.6731,-2.7824,1.1095
1926191.0,-16.089,2.4588,21.4808,-0.9621,-3.2384,1.3452
1926201.0,-16.7115,0.7877,22.2038,-1.1653,-3.6801,1.5564
1926211.0,-17.1856,-0.7326,22.6994,-1.0578,-4.1468,1.7166
1926221.0,-17.5351,-1.6927,22.0602,-0.7998,-4.7039,1.8204
1926231.0,-17.4585,-2.3607,20.5207,-0.6321,-5.336,1.8587
1926241.0,-17.4681,-2.3679,17.9086,-0.6923,-6.0065,1.8081
1926251.0,-17.528,-2.308,15.1314,-1.119,-6.67,1.6719
1926261.0,-16.9031,-2.7174,12.8545,-1.7198,-7.2836,1.4771
1926271.0,-16.022,-3.0502,10.5536,-2.1226,-7.7529,1.2467
1926281.0,-15.2678,-2.7461,7.9679,-2.2413,-8.0051,1.0233
1926291.0,-14.4203,-2.4325,6.0741,-2.1449,-8.0615,0.8503
1926301.0,-13.3213,-2.1261,4.1061,-1.8055,-7.9913,0.7529
1926311.0,-11.9159,-1.8172,1.9561,-1.3872,-7.813,0.7215
1926321.0,-10.5082,-1.6352,-0.0575,-1.0238,-7.5565,0.7295
1926331.0,-8.9495,-1.5897,-1.8292,-0.737,-7.2192,0.7625
1926341.0,-7.355,-1.6185,-3.6727,-0.53,-6.8212,0.8147
1926351.0,-5.7916,-2.138,-5.0613,-0.4528,-6.3556,0.8679
1926361.0,-3.869,-3.0574,-6.6822,-0.4768,-5.8974,0.9041
1926371.0,-1.5131,-4.5801,-7.8602,-0.7178,-5.4323,0.8604
1926381.0,0.5052,-5.9113,-8.5832,-1.0977,-4.9997,0.671
1926391.0,1.5874,-6.098,-9.2488,-1.3776,-4.5299,0.3688
1926401.0,2.5331,-5.6623,-9.4355,-1.4191,-3.91,0.0734
1926411.0,3.1556,-5.0398,-9.0357,-1.2281,-3.1932,-0.1522
1926421.0,3.474,-4.4005,-8.1954,-0.9184,-2.5116,-0.3108
1926431.0,3.699,-3.7852,-7.331,-0.5279,-1.9183,-0.4028
1926441.0,3.9576,-3.4046,-6.62,-0.1261,-1.4154,-0.439
1926451.0,3.8714,-3.1053,-5.9304,0.2389,-0.9791,-0.4496
1926461.0,4.0127,-2.9736,-5.6072,0.596,-0.5906,-0.4321
1926471.0,4.3311,-2.9377,-5.1787,0.8833,-0.2198,-0.4124
1926481.0,4.4412,-2.6384,-4.9799,1.0967,0.1176,-0.4071
1926491.0,4.5274,-2.332,-5.0494,1.1249,0.3767,-0.4124
1926501.0,4.6663,-2.3391,-5.217,0.9551,0.5683,-0.4299
1926511.0,4.7453,-2.4014,-5.4396,0.7402,0.7907,-0.4645
1926521.0,4.6615,-2.1452,-5.7676,0.5444,1.0844,-0.5161
1926531.0,4.3072,-1.4772,-5.7293,0.3427,1.4287,-0.5683
1926541.0,3.7661,-0.5722,-5.2385,0.2144,1.8182,-0.5827
1926551.0,3.1077,0.5578,-4.6424,0.2698,2.2381,-0.5236
1926561.0,2.3415,1.5155,-4.1468,0.4417,2.652,-0.3815
1926571.0,1.5443,2.2697,-3.6176,0.7093,3.0655,-0.1761
1926581.0,0.5219,2.976,-3.6823,1.0722,3.5119,0.0756
1926591.0,-0.644,3.3662,-3.5578,1.4,4.0297,0.3618
1926601.0,-1.6137,3.0454,-2.9257,1.6288,4.5698,0.6529
1926611.0,-2.3391,2.2194,-2.308,1.6932,5.0333,0.887
1926621.0,-3.0646,0.6536,-0.9553,1.5862,5.4164,1.0248
1926631.0,-3.6943,-0.7853,0.261,1.5282,5.7324,1.0467
1926641.0,-4.853,-1.7334,1.5826,1.5389,6.0198,0.9371
1926651.0,-6.371,-1.9201,2.5379,1.6533,6.256,0.7327
1926661.0,-7.9966,-1.6472,3.3878,1.9071,6.5982,0.4991
1926671.0,-9.0621,-1.3479,4.9249,2.2104,7.0947,0.2852
1926681.0,-9.9695,-1.2474,7.4412,2.2929,7.4767,0.0458
1926691.0,-11.1378,-0.8475,10.3884,2.0422,7.5331,-0.2543
1926701.0,-12.3732,0.2729,13.0292,1.5873,7.2852,-0.5444
1926711.0,-13.2351,1.0247,15.5839,1.0578,6.86,-0.7146
1926721.0,-13.2806,1.0439,18.0954,0.6678,6.3891,-0.7604
1926731.0,-13.6039,1.336,19.7546,0.4422,5.883,-0.7487
1926741.0,-13.714,0.8452,21.8902,0.1953,5.3286,-0.6976
1926751.0,-13.4339,0.4118,22.879,0.0202,4.6682,-0.6455
1926761.0,-13.5129,-0.2346,23.7577,-0.2001,4.0308,-0.6109
1926771.0,-13.1825,-1.4676,24.4807,-0.397,3.3981,-0.5736
1926781.0,-12.7826,-2.4349,24.8279,-0.4603,2.8127,-0.5747
1926791.0,-12.864,-2.6624,25.5198,-0.3145,2.3456,-0.5896
1926801.0,-12.5528,-2.569,25.5581,0.1075,1.9103,-0.5555
1926811.0,-12.0764,-2.1739,24.5765,0.6029,1.4942,-0.5082
1926821.0,-11.2647,-1.8866,23.4297,0.9461,1.1398,-0.4725
1926831.0,-10.4196,-1.5921,22.4792,1.0967,0.8418,-0.4773
1926841.0,-9.6869,-1.0894,22.0003,1.0903,0.5837,-0.5326
1926851.0,-9.0022,-0.3376,21.9381,0.9706,0.3145,-0.6055
1926861.0,-8.3989,0.3663,21.9955,0.762,-0.0873,-0.663
1926871.0,-7.6471,0.9697,21.0378,0.5252,-0.6774,-0.6955
1926881.0,-6.7277,1.4461,19.5056,0.2442,-1.3127,-0.7194
1926891.0,-5.8275,1.9489,17.4657,0.0442,-1.8581,-0.7178
1926901.0,-5.0853,2.4421,15.3708,-0.0458,-2.2556,-0.6896
1926911.0,-4.3814,2.8826,13.1897,-0.0383,-2.527,-0.6407
1926921.0,-3.6416,3.5745,10.8194,0.0442,-2.6829,-0.5805
1926931.0,-3.1436,4.5681,8.4228,0.1623,-2.7069,-0.5103
1926941.0,-2.5977,5.9089,6.0214,0.2847,-2.6105,-0.4241
1926951.0,-1.9489,7.4244,3.6224,0.3815,-2.3503,-0.29
1926961.0,-1.3264,8.7915,1.7286,0.3884,-1.9342,-0.091
1926971.0,-1.0918,9.8737,0.6321,0.3262,-1.3744,0.1618
1926981.0,-1.0415,10.8816,0.0455,0.215,-0.7338,0.4693
1926991.0,-1.3455,11.1642,0.8188,-0.0372,-0.1192,0.8269
1927001.0,-1.9297,11.0061,1.8747,-0.3044,0.3453,1.2143
1927011.0,-2.3727,10.4938,2.9401,-0.5603,0.6401,1.6011
1927021.0,-2.6887,9.6845,3.7661,-0.7476,0.8626,1.9869
1927031.0,-3.2609,8.6766,4.4915,-0.8705,1.061,2.3498
1927041.0,-3.8858,7.4364,5.6096,-0.9668,1.2185,2.668
1927051.0,-4.7812,6.4165,6.347,-0.9988,1.3005,2.941
1927061.0,-5.8466,4.8961,7.4675,-1.0366,1.3351,3.2023
1927071.0,-6.4715,2.3224,8.746,-1.0084,1.334,3.4497
1927081.0,-6.5984,-1.0008,10.1011,-0.845,1.3372,3.5965
1927091.0,-6.4643,-3.881,11.1522,-0.6093,1.3047,3.5588
1927101.0,-6.2034,-6.359,12.5408,-0.4385,1.2345,3.3369
1927111.0,-6.2417,-7.6567,13.7403,-0.2857,1.0919,2.9931
1927121.0,-6.6726,-8.406,14.8225,-0.149,0.903,2.6297
1927131.0,-7.0533,-8.8969,15.1768,-0.0293,0.6396,2.2971
1927141.0,-7.4555,-9.5337,15.3229,-0.0101,0.3485,1.9869
1927151.0,-7.7093,-10.2831,15.1314,-0.0149,0.1011,1.6964
1927161.0,-7.7237,-10.9774,14.8656,-0.0431,-0.0479,1.4026
1927171.0,-8.0278,-11.7029,14.9135,-0.1447,-0.1011,1.1036
1927181.0,-8.0349,-13.1011,15.7371,-0.2826,-0.1346,0.7982
1927191.0,-7.8195,-14.5639,16.6996,-0.3592,-0.2299,0.4225
1927201.0,-7.5968,-15.2942,17.1114,-0.3661,-0.3799,-0.0511
1927211.0,-7.4699,-15.5743,17.5734,-0.4353,-0.5475,-0.6093
1927221.0,-7.9535,-14.8824,17.6022,-0.596,-0.745,-1.2382
1927231.0,-8.6239,-13.7475,17.9062,-0.9722,-0.9855,-1.8996
1927241.0,-9.517,-12.3804,18.3875,-1.5123,-1.2824,-2.5488
1927251.0,-10.5656,-10.7164,18.7274,-2.0742,-1.6309,-3.1416
1927261.0,-11.3509,-9.5385,19.5223,-2.5339,-1.9619,-3.6216
1927271.0,-12.0333,-8.5976,19.8647,-2.6622,-2.2413,-3.9701
1927281.0,-12.3972,-7.9607,20.2095,-2.5408,-2.477,-4.2165
1927291.0,-12.5887,-7.5992,20.6332,-2.1859,-2.7053,-4.3873
1927301.0,-12.864,-6.6942,19.8599,-1.6261,-2.9793,-4.5251
1927311.0,-12.73,-5.4229,18.7538,-1.1499,-3.2549,-4.6448
1927321.0,-12.7755,-4.118,17.7889,-0.8349,-3.5401,-4.7374
1927331.0,-12.8832,-2.806,16.6612,-0.6455,-3.885,-4.7959
1927341.0,-12.7036,-2.0782,15.512,-0.464,-4.2058,-4.7933
1927351.0,-12.2416,-1.47,13.6853,-0.2155,-4.4575,-4.756
1927361.0,-11.5712,-0.6728,12.0907,-0.0468,-4.6219,-4.7353
1927371.0,-10.817,0.7398,9.9671,0.0357,-4.748,-4.7166
1927381.0,-10.2185,2.5786,7.9344,-0.1171,-4.8146,-4.6986
1927391.0,-9.4236,4.2737,6.3063,-0.4576,-4.7965,-4.6251
1927401.0,-8.3462,5.0949,5.4181,-0.8306,-4.665,-4.4618
1927411.0,-6.8953,5.0757,4.9081,-1.1121,-4.4793,-4.2516
1927421.0,-5.8634,5.1044,4.1755,-1.3106,-4.3064,-4.0685
1927431.0,-4.8076,5.1356,3.8235,-1.4553,-4.1058,-3.8993
1927441.0,-3.5985,4.6759,3.9576,-1.3548,-3.7998,-3.6891
1927451.0,-2.5067,4.5011,3.6655,-1.0222,-3.4672,-3.472
1927461.0,-1.6568,4.4149,3.5434,-0.7141,-3.1874,-3.272
1927471.0,-0.7542,4.1659,3.158,-0.3927,-2.949,-3.0671
1927481.0,0.3591,4.0917,2.8611,-0.0745,-2.6712,-2.8883
1927491.0,1.1061,4.6352,2.7007,0.2203,-2.3376,-2.7494
1927501.0,1.5036,5.782,2.4828,0.3443,-2.0885,-2.6207
1927511.0,1.8052,6.6894,2.8563,0.1681,-1.9986,-2.4749
1927521.0,2.3056,7.367,2.5881,-0.0644,-2.0183,-2.2891
1927531.0,2.8491,7.762,2.2146,-0.2873,-2.0045,-2.0811
1927541.0,3.395,8.1116,1.7238,-0.415,-1.9374,-1.8597
1927551.0,3.9456,8.4851,0.9816,-0.4523,-1.8337,-1.6315
1927561.0,4.4436,8.9256,0.1508,-0.4103,-1.69,-1.3925
1927571.0,4.8818,9.4595,-0.6632,-0.2746,-1.4724,-1.119
1927581.0,5.193,9.6702,-0.9313,-0.0463,-1.1728,-0.795
1927591.0,5.4468,9.7013,-1.4341,0.2517,-0.8934,-0.4417
1927601.0,5.6623,9.6031,-2.1189,0.5183,-0.6518,-0.0883
1927611.0,5.7221,9.5313,-3.213,0.663,-0.4353,0.248
1927621.0,5.7365,9.0668,-4.1013,0.5805,-0.2288,0.5587
1927631.0,5.6671,8.2217,-4.8746,0.3688,-0.0021,0.8381
1927641.0,5.5258,7.3981,-5.7485,0.1128,0.2751,1.0653
1927651.0,5.1691,6.6152,-6.3303,-0.1836,0.6199,1.2457
1927661.0,4.6448,5.94,-6.3231,-0.4129,1.0392,1.4058
1927671.0,4.0366,5.296,-6.0286,-0.4768,1.5293,1.5697
1927681.0,3.2058,4.7788,-5.6192,-0.4055,2.0465,1.7352
1927691.0,2.217,4.3646,-4.9392,-0.2373,2.569,1.9087
1927701.0,1.1947,3.9049,-4.0127,0.0059,3.09,2.1061
1927711.0,0.2107,3.2872,-3.067,0.2692,3.5449,2.3211
1927721.0,-0.8499,2.3607,-2.0758,0.4879,3.9052,2.5323
1927731.0,-1.7334,1.2091,-1.2043,0.7333,4.1893,2.718
1927741.0,-2.5498,0.0359,-0.4405,1.0786,4.4543,2.8527
1927751.0,-3.2657,-0.8523,-0.2107,1.5735,4.7507,2.9154
1927761.0,-4.1444,-1.245,-0.2298,2.1652,5.1312,2.8947
1927771.0,-5.1475,-0.8619,-0.6153,2.7281,5.5765,2.7968
1927781.0,-6.8426,0.4142,-1.5251,3.0745,6.0597,2.6669
1927791.0,-9.1195,1.2474,-1.8364,2.9963,6.5955,2.5898
1927801.0,-11.3389,0.6991,-0.9074,2.5451,7.1314,2.6058
1927811.0,-13.1178,-1.9776,2.1907,1.9757,7.6316,2.6616
1927821.0,-13.6565,-6.0142,5.9807,1.7203,7.9647,2.6143
1927831.0,-13.3405,-9.7205,9.3302,1.9928,8.1514,2.2966
1927841.0,-13.362,-11.169,11.7364,2.7223,8.2664,1.6804
1927851.0,-14.1354,-9.8378,13.1705,3.6311,8.4132,0.8711
1927861.0,-15.4977,-6.2106,13.8696,4.2298,8.5159,0.0255
1927871.0,-17.1353,-2.0662,15.8209,3.9068,8.3393,-0.746
1927881.0,-18.4425,1.3695,18.5263,2.8149,7.6752,-1.3329
1927891.0,-18.3803,3.6176,19.745,1.5208,6.6578,-1.682
1927901.0,-17.9374,4.8291,19.5415,0.3017,5.6941,-1.8454
1927911.0,-17.492,6.0094,18.2079,-0.7859,4.9917,-1.8831
1927921.0,-19.6061,4.8578,22.0195,-1.7315,4.7534,-1.8044
1927931.0,-18.8088,5.0685,22.8359,-1.8337,4.2808,-1.5788
1927941.0,-18.4162,3.6224,26.2788,-1.7773,3.8972,-1.3143
1927951.0,-17.1975,2.7988,28.9411,-1.1802,3.3012,-1.0147
1927961.0,-16.2494,2.8395,29.5828,-0.2368,2.5206,-0.7215
1927971.0,-15.0284,3.3662,28.2564,0.6529,1.5947,-0.4427
1927981.0,-13.6853,4.1132,25.0745,1.2286,0.7098,-0.1985
1927991.0,-12.8832,4.4939,22.0338,1.268,0.0234,-0.0335
1928001.0,-12.2583,4.8315,19.757,0.903,-0.4832,0.0628
1928011.0,-11.6741,4.5729,18.591,0.3235,-0.911,0.1399
1928021.0,-11.2432,4.0031,17.3963,-0.1751,-1.3149,0.2171
1928031.0,-10.6087,3.3327,16.1609,-0.464,-1.6022,0.3017
1928041.0,-9.7588,2.5833,15.208,-0.5103,-1.682,0.3975
1928051.0,-9.5696,2.2242,14.6334,-0.3911,-1.5692,0.4752
1928061.0,-9.6726,2.0279,14.9183,-0.3214,-1.409,0.5284
1928071.0,-9.9623,1.7669,15.8712,-0.3895,-1.3776,0.5417
1928081.0,-10.0676,2.0949,16.3093,-0.5204,-1.474,0.5183
1928091.0,-10.4004,2.3367,17.1928,-0.8711,-1.6309,0.4773
1928101.0,-11.078,2.0111,18.8639,-1.3521,-1.9257,0.4374
1928111.0,-11.485,1.5634,20.2119,-1.6783,-2.3668,0.415
1928121.0,-11.7531,0.7877,21.2342,-1.7863,-2.8303,0.4113
1928131.0,-12.1841,0.1748,21.6603,-1.6873,-3.2815,0.4145
1928141.0,-12.5217,-0.6416,22.1392,-1.5623,-3.7823,0.4097
1928151.0,-12.9574,-1.3144,21.8878,-1.4282,-4.3756,0.3826
1928161.0,-12.8521,-2.0949,21.4353,-1.2686,-4.9598,0.3379
1928171.0,-13.386,-2.3822,20.2861,-1.0648,-5.4951,0.2671
1928181.0,-13.5919,-2.478,19.0291,-0.9605,-6.0342,0.1767
1928191.0,-13.6972,-2.4708,17.2837,-0.9285,-6.5907,0.0585
1928201.0,-13.4937,-2.1045,14.6214,-0.9009,-7.0361,-0.0644
1928211.0,-12.9502,-2.0111,12.7132,-0.9589,-7.2548,-0.1884
1928221.0,-12.4522,-1.5562,11.0157,-0.9929,-7.3224,-0.323
