time_ms,ax,ay,az,gx,gy,gz
1937711.0,2.7294,0.1125,10.1155,-0.0474,0.0239,-0.0229
1937721.0,2.7509,0.1053,9.9766,-0.0644,0.016,-0.0138
1937731.0,2.7869,0.0144,9.9168,-0.0905,0.0229,-0.009
1937741.0,2.8132,-0.0958,9.9144,-0.0995,0.0335,-0.0085
1937751.0,2.8754,-0.1987,9.9048,-0.0921,0.0537,-0.0138
1937761.0,2.8395,-0.2274,9.9742,-0.0734,0.0835,-0.025
1937771.0,2.806,-0.2083,10.1083,-0.0367,0.1181,-0.0372
1937781.0,2.7222,-0.0383,10.1945,0.0074,0.1458,-0.0458
1937791.0,2.6815,0.1556,10.3118,0.0208,0.1554,-0.0484
1937801.0,2.6384,0.2753,10.4339,0.0074,0.1394,-0.0431
1937811.0,2.6432,0.2825,10.489,-0.0192,0.108,-0.0303
1937821.0,2.6624,0.1772,10.4818,-0.0458,0.0676,-0.0186
1937831.0,2.7102,0.1053,10.398,-0.0697,0.0325,-0.0144
1937841.0,2.7461,0.0479,10.3214,-0.083,0.0186,-0.0165
1937851.0,2.715,0.146,10.173,-0.0734,0.0223,-0.0245
1937861.0,2.7078,0.2346,10.2041,-0.0772,0.0341,-0.0239
1937871.0,2.6911,0.2538,10.1778,-0.0883,0.041,-0.0138
1937881.0,2.7126,0.1724,10.2711,-0.0931,0.0468,-0.0005
1937891.0,2.7533,0.1053,10.2663,-0.0745,0.0543,0.0101
1937901.0,2.7797,0.1053,10.2783,-0.0399,0.066,0.0181
1937911.0,2.7485,0.1317,10.2639,-0.0335,0.0766,0.0223
1937921.0,2.7246,0.1149,10.4052,-0.0724,0.0772,0.0229
1937931.0,2.6863,0.0431,10.5177,-0.1043,0.0506,0.0223
1937941.0,2.7102,-0.0622,10.4842,-0.1181,0.0181,0.0245
1937951.0,2.8347,-0.2227,10.5465,-0.1181,-0.009,0.0213
1937961.0,2.8515,-0.2059,10.3717,-0.0905,-0.0271,0.0101
1937971.0,2.8419,-0.0575,10.1299,-0.0819,-0.0362,-0.0059
1937981.0,2.8252,0.0096,10.1035,-0.1112,-0.0378,-0.016
1937991.0,2.806,0.067,10.0652,-0.1277,-0.0372,-0.0165
1938001.0,2.8419,0.0646,9.8952,-0.1277,-0.0372,-0.0064
1938011.0,2.8994,-0.079,9.9551,-0.1266,-0.0255,0.0069
1938021.0,2.9712,-0.2155,9.8881,-0.0857,-0.009,0.0144
1938031.0,2.9999,-0.2873,9.6582,-0.0335,0.0192,0.0149
1938041.0,3.1651,-0.4357,9.7827,-0.0223,0.0681,0.0043
1938051.0,2.9736,-0.4884,9.9886,0.0085,0.1149,-0.0106
1938061.0,3.0047,-0.3352,9.8426,0.0309,0.1261,-0.0351
1938071.0,2.9521,-0.2274,10.0868,-0.0293,0.1501,-0.0623
1938081.0,2.8252,-0.2562,10.5632,-0.1043,0.1729,-0.0777
1938091.0,2.7342,-0.2466,10.9918,-0.125,0.1527,-0.0846
1938101.0,2.7749,-0.2442,11.1354,-0.1091,0.1048,-0.0841
1938111.0,2.8228,-0.1915,11.0756,-0.0995,0.05,-0.0793
1938121.0,2.8443,-0.2538,11.0349,-0.1282,0.0053,-0.0766
1938131.0,2.8778,-0.328,11.0373,-0.1884,-0.0223,-0.0809
1938141.0,2.8706,-0.4764,11.2887,-0.2623,-0.0314,-0.0851
1938151.0,2.8635,-0.7278,11.6837,-0.3203,-0.05,-0.0947
1938161.0,2.8659,-1.0391,12.0787,-0.3182,-0.0931,-0.1091
1938171.0,2.8922,-1.2354,12.0859,-0.2591,-0.1559,-0.1266
1938181.0,2.897,-1.5251,12.1937,-0.2363,-0.2224,-0.1591
1938191.0,3.134,-1.9896,12.0428,-0.2192,-0.3145,-0.2043
1938201.0,3.2801,-2.3415,11.7029,-0.1916,-0.3847,-0.2841
1938211.0,3.3303,-2.4493,11.5784,-0.1836,-0.4028,-0.4033
1938221.0,3.2657,-2.0901,11.6957,-0.1208,-0.3837,-0.5332
1938231.0,3.0957,-1.1779,11.4634,-0.0415,-0.3895,-0.6396
1938241.0,2.9497,-0.3687,11.4682,-0.0591,-0.4214,-0.6971
1938251.0,2.8443,0.2251,11.4754,-0.0798,-0.4773,-0.6987
1938261.0,2.7773,0.7159,11.3174,-0.0745,-0.531,-0.6577
1938271.0,2.7773,1.0247,11.0828,-0.0617,-0.5795,-0.5875
1938281.0,2.8706,1.0726,10.8362,-0.0676,-0.6183,-0.5044
1938291.0,3.0909,0.8763,10.7164,-0.067,-0.6364,-0.423
1938301.0,3.225,0.5602,10.6781,-0.0378,-0.6369,-0.3602
1938311.0,3.3399,0.4453,10.5321,-0.0059,-0.6502,-0.3294
1938321.0,3.4046,0.5243,10.3693,-0.0005,-0.6987,-0.323
1938331.0,3.5075,0.6919,9.9958,-0.0298,-0.7769,-0.3257
1938341.0,3.6392,0.8691,9.4691,-0.0825,-0.8493,-0.3267
1938351.0,3.8403,1.0319,9.0309,-0.1293,-0.8955,-0.3235
1938361.0,3.7541,1.2977,8.4539,-0.1548,-0.9333,-0.3155
1938371.0,3.8834,1.6592,7.7165,-0.1857,-0.9802,-0.3001
1938381.0,3.9648,1.9297,6.9863,-0.2347,-1.0089,-0.274
1938391.0,4.063,2.1907,6.0717,-0.2735,-1.0115,-0.2336
1938401.0,4.1372,2.3367,5.2361,-0.3193,-0.9674,-0.1846
1938411.0,4.2282,2.4086,4.3814,-0.3608,-0.8828,-0.132
1938421.0,4.2737,2.3272,3.7038,-0.3826,-0.745,-0.0708
1938431.0,4.3215,2.2362,2.9473,-0.3597,-0.5656,-0.0133
1938441.0,4.4867,2.0255,2.4253,-0.2948,-0.3038,0.0388
1938451.0,4.5442,1.8555,2.0877,-0.1777,0.016,0.0788
1938461.0,4.4556,1.889,1.9968,-0.0495,0.3512,0.099
1938471.0,4.3048,2.0183,2.162,0.0623,0.6742,0.108
1938481.0,4.1013,2.2482,2.411,0.1873,0.9594,0.1235
1938491.0,3.7996,2.6169,2.4995,0.281,1.1914,0.1479
1938501.0,3.4022,2.9018,2.5498,0.2783,1.3686,0.183
1938511.0,3.1125,3.1651,2.4349,0.1634,1.4761,0.2293
1938521.0,2.8419,3.237,2.399,-0.0378,1.5681,0.282
1938531.0,2.3439,3.2441,2.3439,-0.248,1.665,0.3459
1938541.0,1.8004,3.067,2.4612,-0.4198,1.7927,0.4294
1938551.0,1.4772,2.7461,2.5283,-0.5002,1.9518,0.5247
1938561.0,1.2282,2.4541,2.6408,-0.4709,2.1662,0.6119
1938571.0,0.7183,2.466,2.7653,-0.3475,2.4318,0.6933
1938581.0,0.1077,2.5402,3.395,-0.1873,2.7372,0.7822
1938591.0,-0.431,2.7342,3.8642,0.0277,2.9942,0.8849
1938601.0,-1.0439,2.9904,4.209,0.2246,3.2241,0.9966
1938611.0,-1.494,3.1627,4.8387,0.456,3.4752,1.1265
1938621.0,-2.4541,3.6105,5.035,0.746,3.7392,1.2654
1938631.0,-3.632,3.7278,5.4779,0.9073,3.9999,1.4234
1938641.0,-4.3144,3.2633,6.5697,0.9711,4.2606,1.5804
1938651.0,-4.9249,2.9999,7.6088,1.0078,4.4836,1.6825
1938661.0,-5.5785,3.0239,9.1363,0.8822,4.6124,1.7166
1938671.0,-6.1914,3.2226,10.963,0.6492,4.5804,1.7272
1938681.0,-6.6056,3.6655,12.2392,0.4326,4.3782,1.7597
1938691.0,-7.1275,4.1396,12.9502,0.257,4.0994,1.8347
1938701.0,-7.9009,4.3862,12.5935,0.1229,3.8142,1.9773
1938711.0,-8.1259,3.4764,12.8209,-0.0628,3.6205,2.1598
1938721.0,-8.2456,2.0494,13.1514,-0.1527,3.5034,2.3062
1938731.0,-8.2025,0.6728,13.5248,-0.1602,3.4162,2.3535
1938741.0,-7.9511,-0.4214,14.1785,-0.1713,3.3113,2.2913
1938751.0,-7.8219,-0.7302,14.5591,-0.1772,3.1416,2.1455
1938761.0,-8.0709,-0.6919,15.0811,-0.2017,2.95,1.9922
1938771.0,-8.1882,-0.7207,15.7299,-0.1288,2.7659,1.898
1938781.0,-8.2025,-0.9361,15.8712,0.0553,2.5946,1.8438
1938791.0,-8.1714,-1.2378,15.8161,0.2107,2.4509,1.7773
1938801.0,-8.1738,-1.5419,15.7969,0.2192,2.3035,1.6756
1938811.0,-7.944,-2.0758,16.1178,0.0713,2.1199,1.5399
1938821.0,-7.853,-2.375,16.3093,-0.1075,1.9034,1.3713
1938831.0,-7.8721,-2.3774,16.6397,-0.2389,1.7203,1.1962
1938841.0,-7.8673,-2.2266,16.9438,-0.2379,1.5788,1.0669
1938851.0,-7.7979,-2.1715,17.0036,-0.1463,1.4511,0.986
1938861.0,-7.5465,-2.332,17.0156,-0.067,1.3319,0.9136
1938871.0,-7.422,-2.478,17.1904,-0.0277,1.2244,0.8317
1938881.0,-7.3694,-2.569,17.5232,-0.0362,1.1009,0.7348
1938891.0,-7.3071,-2.5857,17.82,-0.0841,0.9376,0.6247
1938901.0,-7.4484,-2.5043,18.1528,-0.2059,0.7423,0.5013
1938911.0,-7.5681,-2.3942,18.6436,-0.4087,0.4773,0.3688
1938921.0,-7.6231,-2.4876,19.0004,-0.6396,0.1314,0.2352
1938931.0,-7.5298,-2.4062,18.9693,-0.829,-0.2719,0.0878
1938941.0,-7.3933,-2.0686,18.5599,-0.9668,-0.6588,-0.066
1938951.0,-7.3047,-1.5107,17.9182,-1.0632,-0.9935,-0.2001
1938961.0,-7.2544,-1.1061,17.322,-1.1472,-1.2792,-0.3017
1938971.0,-7.367,-0.6728,16.5751,-1.1978,-1.5304,-0.3719
1938981.0,-7.276,-0.3304,15.7802,-1.2095,-1.7459,-0.4145
1938991.0,-6.936,-0.0862,15.05,-1.1589,-1.8831,-0.4326
1939001.0,-6.8354,0.2083,14.4322,-1.0009,-1.898,-0.4198
1939011.0,-6.8402,0.4166,14.1713,-0.7987,-1.8507,-0.3847
1939021.0,-6.8905,0.577,14.2263,-0.6109,-1.815,-0.3491
1939031.0,-6.9001,0.7925,14.2335,-0.4198,-1.8182,-0.3081
1939041.0,-6.8881,0.9218,14.3796,-0.2543,-1.8608,-0.2602
1939051.0,-6.79,0.9505,14.3149,-0.1485,-1.9678,-0.2144
1939061.0,-6.6894,0.7997,14.2575,-0.1506,-2.1348,-0.1916
1939071.0,-6.4763,0.8284,13.963,-0.1815,-2.3487,-0.199
1939081.0,-6.4069,0.9218,13.453,-0.2309,-2.5499,-0.2192
1939091.0,-6.3303,1.0534,13.046,-0.3038,-2.7218,-0.24
1939101.0,-6.189,1.1133,12.5121,-0.3773,-2.9101,-0.249
1939111.0,-5.8323,1.1684,11.8202,-0.4986,-3.1113,-0.2671
1939121.0,-5.6479,1.2737,11.0468,-0.6348,-3.2842,-0.2889
1939131.0,-5.363,1.2761,10.2951,-0.745,-3.397,-0.2948
1939141.0,-5.0757,1.0367,10.0197,-0.7694,-3.4289,-0.2799
1939151.0,-4.525,0.8571,9.5265,-0.6604,-3.4321,-0.2602
1939161.0,-4.0366,0.893,8.9998,-0.5268,-3.4204,-0.2575
1939171.0,-3.699,1.1636,8.3821,-0.4395,-3.4156,-0.2543
1939181.0,-3.4644,1.3743,7.932,-0.4337,-3.4108,-0.232
1939191.0,-3.201,1.3072,7.5992,-0.4432,-3.43,-0.1857
1939201.0,-2.5474,1.1516,6.9504,-0.3858,-3.4385,-0.1272
1939211.0,-1.9728,0.9792,6.1818,-0.2943,-3.3933,-0.0809
1939221.0,-1.5443,0.8954,5.442,-0.2559,-3.3119,-0.0527
1939231.0,-0.9744,0.7638,4.9105,-0.2826,-3.2214,-0.0458
1939241.0,-0.4501,0.7183,4.3024,-0.3251,-3.1182,-0.0548
1939251.0,-0.0551,0.8045,3.814,-0.3757,-2.9873,-0.0702
1939261.0,0.4046,0.7949,3.4453,-0.4417,-2.8356,-0.0793
1939271.0,0.929,0.7039,3.3351,-0.4858,-2.668,-0.0803
1939281.0,1.4389,0.6273,3.0742,-0.4683,-2.4866,-0.0777
1939291.0,1.8747,0.6656,2.9161,-0.4161,-2.2971,-0.067
1939301.0,2.2122,0.6967,2.8491,-0.356,-2.0992,-0.0447
1939311.0,2.5522,0.7039,2.7869,-0.2719,-1.9103,-0.0037
1939321.0,2.8874,0.6704,2.727,-0.1458,-1.7251,0.058
1939331.0,3.3016,0.5267,2.4493,0.0074,-1.5389,0.132
1939341.0,3.6607,0.3424,2.083,0.1681,-1.3356,0.2043
1939351.0,3.9816,0.1389,1.5371,0.2868,-1.1041,0.2591
1939361.0,4.3407,-0.1772,1.1971,0.332,-0.8391,0.2873
1939371.0,4.6424,-0.4717,1.1684,0.3352,-0.539,0.2831
1939381.0,4.81,-0.6273,1.2594,0.2985,-0.2384,0.2496
1939391.0,4.9823,-0.7494,1.5012,0.2006,0.0266,0.1937
1939401.0,4.9943,-0.826,1.901,0.0708,0.2512,0.1309
1939411.0,4.8483,-0.8404,2.3248,-0.0202,0.4619,0.0777
1939421.0,4.8291,-0.8404,2.7318,-0.0176,0.6641,0.0436
1939431.0,4.7333,-0.9409,2.8156,0.0399,0.861,0.0277
1939441.0,4.6352,-1.1756,2.9521,0.0915,1.0632,0.0101
1939451.0,4.4365,-1.3982,3.3232,0.1586,1.3,-0.025
1939461.0,4.2282,-1.47,3.6919,0.2692,1.5458,-0.0692
1939471.0,3.9504,-1.5227,4.2904,0.3735,1.7804,-0.1219
1939481.0,3.4524,-1.5562,4.8219,0.4848,1.9667,-0.1729
1939491.0,3.0574,-1.4724,5.0637,0.6109,2.1157,-0.2246
1939501.0,2.7222,-1.47,5.351,0.7242,2.286,-0.2756
1939511.0,2.5331,-1.4629,5.7557,0.8333,2.4621,-0.3283
1939521.0,2.1045,-1.3647,6.1292,0.9073,2.6249,-0.3959
1939531.0,1.6185,-1.2019,6.6104,0.8929,2.7388,-0.4848
1939541.0,0.9553,-0.9026,7.1658,0.8168,2.7978,-0.5795
1939551.0,0.3041,-0.6201,7.3909,0.6768,2.7872,-0.6561
1939561.0,-0.395,-0.6033,7.7883,0.4363,2.7649,-0.7221
1939571.0,-0.9816,-0.6536,8.3534,0.1538,2.743,-0.7822
1939581.0,-1.166,-0.814,9.1913,-0.107,2.7047,-0.8423
1939591.0,-1.312,-0.9864,10.094,-0.2767,2.6425,-0.9046
1939601.0,-1.4557,-1.0056,10.6255,-0.306,2.5531,-0.9615
1939611.0,-1.7023,-0.723,10.9654,-0.2453,2.469,-1.0158
1939621.0,-1.9992,-0.0694,10.9798,-0.183,2.3796,-1.0568
1939631.0,-2.4804,0.4501,10.8816,-0.1889,2.2897,-1.0648
1939641.0,-2.9209,0.5531,10.9822,-0.223,2.2317,-1.0312
1939651.0,-3.3064,0.0503,11.5161,-0.2171,2.2253,-0.9706
1939661.0,-3.1556,-0.6297,12.1338,-0.1325,2.1971,-0.9461
1939671.0,-2.9497,-0.8499,12.4403,0.0404,2.1545,-0.9903
1939681.0,-3.0382,-0.3855,12.5767,0.2272,2.1428,-1.0738
1939691.0,-3.3686,0.51,12.9454,0.3379,2.1343,-1.1424
1939701.0,-3.7828,1.391,13.5248,0.3411,2.0476,-1.1589
1939711.0,-4.0151,1.9728,13.884,0.2687,1.864,-1.1201
1939721.0,-4.0845,2.2458,13.8624,0.2176,1.6527,-1.0424
1939731.0,-4.0773,2.2889,13.4051,0.2325,1.4979,-0.945
1939741.0,-3.9002,2.0087,13.3357,0.2756,1.4553,-0.8572
1939751.0,-3.8355,1.7765,13.5584,0.3677,1.4793,-0.8014
1939761.0,-3.8235,1.8483,14.0372,0.4448,1.4724,-0.7843
1939771.0,-3.8547,2.083,14.6094,0.4709,1.3697,-0.7854
1939781.0,-3.7589,2.3703,14.6597,0.4741,1.1706,-0.7769
1939791.0,-3.5865,2.6408,14.382,0.4448,0.9402,-0.7545
1939801.0,-3.4309,2.9257,13.8744,0.4108,0.7322,-0.721
1939811.0,-3.2944,3.1125,13.2567,0.3922,0.5704,-0.6699
1939821.0,-3.0143,3.1819,12.4187,0.3943,0.4645,-0.6093
1939831.0,-3.0095,3.2872,11.5903,0.3799,0.4385,-0.5582
1939841.0,-3.0622,3.4692,10.9678,0.3049,0.4656,-0.5119
1939851.0,-3.1125,3.2872,10.9966,0.1793,0.5571,-0.4523
1939861.0,-3.1532,3.0287,11.4084,0.1027,0.6678,-0.3778
1939871.0,-3.292,2.5139,12.3134,0.0798,0.7599,-0.2937
1939881.0,-3.3447,1.8866,13.295,0.1458,0.7817,-0.2049
1939891.0,-3.3016,1.403,13.7906,0.2778,0.7338,-0.1341
1939901.0,-3.4333,1.087,14.0396,0.4001,0.6758,-0.0878
1939911.0,-3.699,1.008,14.2048,0.4347,0.6332,-0.0612
1939921.0,-4.2784,0.7542,14.9757,0.34,0.5949,-0.0319
1939931.0,-4.8578,0.1053,16.0531,0.1809,0.4757,0.0069
1939941.0,-4.9081,-0.9361,17.0826,0.0383,0.2379,0.0239
1939951.0,-4.9177,-2.0662,17.7267,0.0043,-0.0506,-0.0064
1939961.0,-4.7669,-2.8491,17.8727,0.1032,-0.3374,-0.0963
1939971.0,-4.7549,-3.1101,17.8153,0.2708,-0.5795,-0.241
1939981.0,-4.9967,-2.739,17.4489,0.423,-0.803,-0.415
1939991.0,-5.1954,-2.0159,16.8336,0.4496,-1.0546,-0.5859
1940001.0,-5.2002,-1.3455,16.1393,0.2969,-1.3377,-0.7364
1940011.0,-5.1404,-0.8452,15.6413,0.0096,-1.5942,-0.8663
1940021.0,-5.272,-0.5578,15.5264,-0.2687,-1.8023,-0.9642
1940031.0,-5.2505,-0.4357,15.3037,-0.4252,-2.0023,-1.0201
1940041.0,-5.1954,-0.4884,14.9685,-0.4443,-2.1859,-1.0477
1940051.0,-5.0182,-0.4836,14.2216,-0.3586,-2.3386,-1.0669
1940061.0,-4.798,-0.5004,13.5799,-0.2448,-2.4328,-1.0924
1940071.0,-4.4772,-0.3974,12.9598,-0.1101,-2.4876,-1.1291
1940081.0,-4.1994,-0.0862,12.2775,-0.0005,-2.5238,-1.1744
1940091.0,-4.0103,0.3735,11.6861,0.0122,-2.5685,-1.2244
1940101.0,-3.8954,0.8356,11.2408,-0.0559,-2.6164,-1.2638
1940111.0,-3.6272,1.0032,11.0157,-0.157,-2.6425,-1.2819
1940121.0,-3.3471,0.9577,11.1785,-0.2171,-2.6403,-1.2957
1940131.0,-3.1316,1.1971,11.236,-0.2097,-2.6701,-1.3234
1940141.0,-2.9544,1.6305,11.1953,-0.2166,-2.7553,-1.3548
1940151.0,-2.6887,2.0135,11.0181,-0.2102,-2.8729,-1.367
1940161.0,-2.5426,2.624,10.2735,-0.1538,-2.9953,-1.3521
1940171.0,-2.3152,3.225,9.4547,-0.1607,-3.0958,-1.3021
1940181.0,-1.9393,3.4979,8.8562,-0.19,-3.1458,-1.2106
1940191.0,-1.5347,3.6368,7.932,-0.1586,-3.1655,-1.0946
1940201.0,-0.9242,3.4453,7.1227,-0.1304,-3.1208,-0.9738
1940211.0,-0.2921,3.1747,6.5553,-0.0702,-3.0123,-0.8759
1940221.0,0.2873,3.1412,5.952,0.0309,-2.8782,-0.8019
1940231.0,0.7542,3.1436,5.5282,0.107,-2.718,-0.7508
1940241.0,1.2091,3.3088,5.1164,0.1868,-2.5632,-0.7072
1940251.0,1.5874,3.5769,4.6471,0.2203,-2.4121,-0.6609
1940261.0,1.9178,3.7685,4.3167,0.1719,-2.262,-0.6055
1940271.0,2.3296,3.8475,4.2329,0.107,-2.1029,-0.538
1940281.0,2.6145,3.8858,4.13,0.0974,-1.9417,-0.4608
1940291.0,2.9377,3.9576,3.9504,0.1133,-1.7938,-0.3735
1940301.0,3.2585,3.8595,3.7781,0.1266,-1.6586,-0.2815
1940311.0,3.5769,3.7852,3.3734,0.1538,-1.5378,-0.1974
1940321.0,3.9576,3.7062,2.9161,0.1697,-1.3925,-0.1219
1940331.0,4.2689,3.7014,2.4301,0.1719,-1.2175,-0.0601
1940341.0,4.391,3.7757,2.1045,0.1314,-1.0073,-0.0101
1940351.0,4.4436,3.8355,1.9345,0.0601,-0.787,0.0447
1940361.0,4.5586,3.7661,1.9058,-0.0154,-0.5672,0.1043
1940371.0,4.6376,3.7182,1.7334,-0.0857,-0.3549,0.1639
1940381.0,4.7142,3.553,1.719,-0.1846,-0.1383,0.2203
1940391.0,4.6663,3.3854,1.8771,-0.2836,0.0782,0.2645
1940401.0,4.5729,3.3567,1.9513,-0.3395,0.2836,0.3001
1940411.0,4.4173,3.4692,1.9968,-0.3959,0.4715,0.3432
1940421.0,4.1731,3.5123,2.0303,-0.4709,0.6444,0.4049
1940431.0,3.9361,3.4357,2.047,-0.5412,0.8077,0.4874
1940441.0,3.6919,3.3136,1.9154,-0.5938,0.9786,0.5859
1940451.0,3.4979,3.1603,1.8387,-0.6066,1.1776,0.6912
1940461.0,3.1819,3.0789,1.7669,-0.5539,1.4324,0.8077
1940471.0,2.7653,3.0598,1.8914,-0.4486,1.7177,0.936
1940481.0,2.1739,3.0382,2.071,-0.3374,2.0023,1.0828
1940491.0,1.4293,2.7725,2.2841,-0.2373,2.2748,1.2494
1940501.0,0.9433,2.3032,2.3942,-0.1437,2.5227,1.4266
1940511.0,0.5124,1.7502,2.2075,-0.1144,2.7494,1.5756
1940521.0,0.2538,1.063,2.0231,-0.1926,2.991,1.6799
1940531.0,-0.0934,0.261,2.0973,-0.3358,3.281,1.7224
1940541.0,-0.6153,-0.1676,2.2458,-0.5183,3.5806,1.7012
1940551.0,-1.4581,-0.3519,2.9329,-0.7817,3.8568,1.6368
1940561.0,-2.5331,-0.2083,3.5482,-1.0499,4.0552,1.574
1940571.0,-3.6799,0.0335,3.8547,-1.2989,4.1909,1.5671
1940581.0,-4.47,-0.395,4.7238,-1.5665,4.3442,1.6378
1940591.0,-5.1116,-1.4461,5.9831,-1.7661,4.4697,1.74
1940601.0,-5.9496,-2.6049,7.0461,-1.8337,4.5038,1.814
1940611.0,-6.4643,-3.7709,7.8243,-1.7751,4.4825,1.8518
1940621.0,-6.7397,-5.102,8.3127,-1.5708,4.4681,1.8464
1940631.0,-6.7373,-6.5745,8.8178,-1.2026,4.523,1.7725
1940641.0,-6.5362,-7.8721,9.5337,-0.6816,4.6783,1.599
1940651.0,-6.4476,-8.5497,10.2831,-0.0814,4.8784,1.3031
1940661.0,-6.8833,-8.1092,11.0564,0.4172,5.0221,0.8908
1940671.0,-7.9368,-6.5338,11.8513,0.6321,5.0269,0.4363
1940681.0,-9.0716,-4.4987,12.5983,0.5151,4.8523,0.0452
1940691.0,-9.6726,-2.794,13.0292,0.0851,4.5022,-0.2192
1940701.0,-9.9431,-2.0207,13.4027,-0.5736,4.0653,-0.3581
1940711.0,-10.1131,-2.2529,13.86,-1.2435,3.6194,-0.4039
1940721.0,-10.1682,-3.0885,14.2766,-1.7022,3.2086,-0.4033
1940731.0,-10.0149,-4.1444,14.4945,-1.8012,2.8894,-0.3794
1940741.0,-10.1538,-5.2577,15.0404,-1.474,2.7329,-0.3427
1940751.0,-9.7971,-5.5689,15.1194,-0.7279,2.6494,-0.3241
1940761.0,-9.7899,-5.2601,15.0404,0.2086,2.6324,-0.3246
1940771.0,-9.6965,-4.4005,13.9151,1.1307,2.6292,-0.3416
1940781.0,-9.6127,-3.0574,13.0771,1.673,2.7063,-0.4156
1940791.0,-9.8952,-1.992,13.3285,1.673,2.7345,-0.5135
1940801.0,-10.2831,-1.3982,14.4897,1.2153,2.576,-0.6343
1940811.0,-10.3669,-0.9816,15.5551,0.563,2.1912,-0.7694
1940821.0,-10.0197,-0.577,16.1609,-0.1224,1.6948,-0.8785
1940831.0,-10.1083,-0.8164,16.9964,-0.6247,1.2712,-0.9248
1940841.0,-9.8186,-0.6919,17.2023,-0.7694,0.8934,-0.9237
1940851.0,-9.7444,-0.4357,17.2071,-0.7242,0.5683,-0.8902
1940861.0,-9.6654,0.0958,16.8911,-0.5023,0.2889,-0.8147
1940871.0,-9.4547,0.759,16.1824,-0.2144,0.0548,-0.6955
1940881.0,-9.3063,1.2354,15.6437,0.0208,-0.1314,-0.5486
1940891.0,-9.1818,1.6185,15.0667,0.2261,-0.2836,-0.3831
1940901.0,-9.0764,1.9082,14.37,0.3555,-0.4129,-0.2192
1940911.0,-9.0692,1.9465,14.1258,0.3384,-0.5177,-0.0724
1940921.0,-9.0788,1.9896,13.9079,0.1969,-0.6614,0.0383
1940931.0,-8.9184,1.9345,13.8121,-0.0654,-0.8567,0.1091
1940941.0,-8.6455,1.7909,13.6302,-0.3555,-1.0786,0.1575
1940951.0,-8.3797,1.5969,13.4219,-0.5954,-1.2739,0.1963
1940961.0,-8.1882,1.4245,12.9933,-0.7785,-1.4346,0.2219
1940971.0,-8.1618,1.3838,12.5863,-0.9722,-1.5527,0.2304
1940981.0,-8.6407,1.3982,12.7084,-1.1983,-1.648,0.2325
1940991.0,-9.1626,1.4796,12.8664,-1.3276,-1.7783,0.2687
1941001.0,-9.6726,1.3312,13.0556,-1.2936,-1.8938,0.3576
1941011.0,-9.9934,1.1181,13.2423,-1.0392,-1.9454,0.505
1941021.0,-10.1754,0.8882,13.5512,-0.6433,-1.9268,0.6854
1941031.0,-10.1227,0.4262,14.3652,-0.2027,-1.8975,0.8759
1941041.0,-10.0006,0.5195,14.4969,0.2059,-1.9949,1.035
1941051.0,-10.2687,1.0774,14.3269,0.3592,-2.2152,1.1547
1941061.0,-10.6303,1.5443,14.0061,0.1894,-2.543,1.2717
1941071.0,-10.9463,1.47,13.8193,-0.1506,-2.9229,1.3979
1941081.0,-11.1019,1.0175,13.4698,-0.4395,-3.2874,1.5362
1941091.0,-11.2097,0.407,13.6469,-0.5507,-3.5588,1.6815
1941101.0,-11.3485,-0.1341,14.0372,-0.2964,-3.7429,1.8555
1941111.0,-11.4515,-0.1221,13.5296,0.3139,-3.9116,2.0795
1941121.0,-11.5329,-0.1317,12.311,0.9216,-4.0797,2.3408
1941131.0,-10.9702,-0.4788,10.884,1.2808,-4.2479,2.5951
1941141.0,-10.3549,-1.0918,9.7875,1.3984,-4.3612,2.7952
1941151.0,-9.7588,-1.731,8.7939,1.4112,-4.4373,2.933
1941161.0,-9.0501,-2.2984,7.8147,1.3516,-4.491,3.0102
1941171.0,-8.2983,-2.885,7.0126,1.234,-4.5123,3.0267
1941181.0,-7.4915,-3.383,6.2728,1.11,-4.4793,2.9899
1941191.0,-6.6942,-3.8523,5.7437,0.9961,-4.4086,2.9138
1941201.0,-5.8059,-4.1755,5.2577,0.8806,-4.3271,2.7978
1941211.0,-4.9009,-4.4149,4.8363,0.7854,-4.2282,2.6531
1941221.0,-3.8834,-4.4341,4.276,0.7375,-4.1031,2.4945
1941231.0,-2.988,-4.3191,3.6775,0.6907,-3.9584,2.3291
1941241.0,-2.0686,-4.2138,3.1915,0.6204,-3.7833,2.1668
1941251.0,-1.1468,-4.2042,2.7102,0.5523,-3.5806,2.0082
1941261.0,-0.34,-4.0917,2.0973,0.4683,-3.3661,1.84
1941271.0,0.3903,-3.984,1.8938,0.357,-3.1208,1.6698
1941281.0,1.0726,-3.7804,1.6807,0.2852,-2.8574,1.5112
1941291.0,1.7358,-3.5769,1.5921,0.2629,-2.5744,1.3723
1941301.0,2.2362,-3.4093,1.5682,0.2948,-2.2716,1.2537
1941311.0,2.715,-3.2585,1.5251,0.3879,-1.9608,1.1536
1941321.0,3.1364,-3.0837,1.4748,0.5119,-1.6474,1.0642
1941331.0,3.5578,-2.909,1.3336,0.6274,-1.3329,0.9764
1941341.0,3.9433,-2.739,1.3192,0.7019,-0.9998,0.8796
1941351.0,4.142,-2.4469,1.4102,0.7231,-0.6753,0.7785
1941361.0,4.3239,-2.2027,1.7478,0.6699,-0.381,0.6779
1941371.0,4.391,-2.0638,2.1069,0.572,-0.1383,0.5736
1941381.0,4.3934,-1.8986,2.308,0.4459,0.0569,0.4619
1941391.0,4.4628,-1.7454,2.5881,0.274,0.2214,0.34
1941401.0,4.5179,-1.6328,2.7964,0.0921,0.3693,0.2155
1941411.0,4.4891,-1.4916,3.0742,-0.058,0.5193,0.0921
1941421.0,4.3838,-1.2977,3.3232,-0.1751,0.6662,-0.025
1941431.0,4.3072,-1.0558,3.6176,-0.2751,0.796,-0.132
1941441.0,4.1061,-0.6871,3.9121,-0.3469,0.9035,-0.2224
1941451.0,3.8211,-0.3424,4.276,-0.3592,1.0052,-0.2804
1941461.0,3.6129,-0.0455,4.5322,-0.2762,1.0962,-0.2985
1941471.0,3.5554,0.2418,4.4173,-0.1229,1.1855,-0.2927
1941481.0,3.5219,0.4764,4.197,0.0612,1.3047,-0.2799
1941491.0,3.4093,0.7757,3.9744,0.2639,1.4755,-0.2703
1941501.0,3.0742,1.1995,3.7828,0.4528,1.6698,-0.2613
1941511.0,2.5881,1.6185,3.7852,0.5805,1.8603,-0.2528
1941521.0,2.1189,1.9537,3.7781,0.6689,2.0412,-0.2357
1941531.0,1.7071,2.2434,3.8954,0.7348,2.2407,-0.2102
1941541.0,1.4102,2.3918,4.4388,0.7785,2.4546,-0.1799
1941551.0,0.9146,2.4565,5.2601,0.8242,2.6228,-0.1495
1941561.0,0.3879,2.6504,5.8969,0.8966,2.7015,-0.1213
1941571.0,0.0551,2.8635,5.952,0.9732,2.6989,-0.0947
1941581.0,-0.2274,3.0526,5.6407,1.0078,2.7116,-0.0851
1941591.0,-0.6369,3.3878,5.3056,0.9881,2.8042,-0.0942
1941601.0,-1.2881,3.7373,5.5282,0.8657,2.9479,-0.1133
1941611.0,-1.9154,3.972,5.9472,0.6651,3.0506,-0.1282
1941621.0,-2.5019,4.1348,6.4236,0.4768,3.1347,-0.1357
1941631.0,-2.9185,4.197,7.118,0.3624,3.2549,-0.1272
1941641.0,-3.4093,4.4197,7.9009,0.3517,3.3943,-0.1075
1941651.0,-4.1922,4.877,8.8322,0.3938,3.5002,-0.0729
1941661.0,-4.8123,5.4229,9.7659,0.4401,3.5167,-0.0085
1941671.0,-5.2888,6.043,10.1969,0.4773,3.4529,0.0984
1941681.0,-5.9185,6.5098,10.4938,0.4635,3.3693,0.2559
1941691.0,-6.2968,6.5122,10.8002,0.4246,3.3044,0.4502
1941701.0,-6.5864,6.2058,11.3006,0.4023,3.298,0.6534
1941711.0,-6.8666,5.636,12.1027,0.3677,3.2948,0.8487
1941721.0,-7.1251,4.6448,13.2016,0.3267,3.2129,1.0004
1941731.0,-7.4101,3.7565,13.5847,0.3145,3.0298,1.0914
1941741.0,-7.2736,2.8036,13.8361,0.2506,2.8218,1.1222
1941751.0,-7.3478,1.7047,14.1665,0.2182,2.6606,1.0999
1941761.0,-7.4148,0.7805,14.2527,0.2975,2.5525,1.0291
1941771.0,-7.5369,0.0383,14.3987,0.4363,2.5068,0.8966
1941781.0,-7.7788,-0.1963,14.6238,0.5912,2.5041,0.7072
1941791.0,-8.2815,-0.0144,14.868,0.6391,2.4993,0.497
1941801.0,-8.6574,-0.0694,15.706,0.5044,2.4227,0.3012
1941811.0,-9.2344,-0.1269,16.5391,0.2884,2.2599,0.1266
1941821.0,-9.505,-0.3879,17.346,0.0654,2.0273,-0.0059
1941831.0,-9.5002,-0.9529,18.2151,-0.1304,1.7544,-0.1123
1941841.0,-9.4427,-1.4557,18.8639,-0.2581,1.4394,-0.215
1941851.0,-9.4236,-1.8818,19.3811,-0.3102,1.1041,-0.3065
1941861.0,-9.4619,-2.3535,19.6181,-0.265,0.7492,-0.3821
1941871.0,-9.426,-3.0646,19.7785,-0.1192,0.4209,-0.4581
1941881.0,-9.3039,-3.5937,19.7163,0.1309,0.1336,-0.5651
1941891.0,-9.4212,-3.8259,19.575,0.3257,-0.1548,-0.7242
1941901.0,-9.5577,-3.6751,19.3188,0.3608,-0.5385,-0.9402
1941911.0,-9.754,-3.2465,18.6029,0.2549,-0.994,-1.1776
1941921.0,-9.7516,-3.0861,17.82,0.0575,-1.4314,-1.3989
1941931.0,-9.5936,-3.3184,16.9031,-0.1101,-1.7852,-1.6176
1941941.0,-9.584,-3.1819,15.6892,-0.2123,-2.0422,-1.8645
1941951.0,-9.596,-3.0047,14.8824,-0.3613,-2.2109,-2.1269
1941961.0,-9.8641,-2.976,14.3868,-0.5326,-2.3392,-2.3897
1941971.0,-9.8378,-3.0143,14.1018,-0.6758,-2.4365,-2.652
1941981.0,-9.8019,-3.1101,14.4586,-0.7476,-2.4796,-2.9261
1941991.0,-10.1347,-2.624,14.6645,-0.6981,-2.5584,-3.206
1942001.0,-10.2735,-1.9872,15.2032,-0.6502,-2.6749,-3.472
1942011.0,-10.8409,-0.984,15.5695,-0.555,-2.8468,-3.6971
1942021.0,-11.145,0.3089,15.3923,-0.5018,-3.1171,-3.8695
1942031.0,-11.4778,1.6616,14.9829,-0.6018,-3.4508,-4.0015
1942041.0,-11.5257,2.8371,14.0372,-0.7854,-3.7961,-4.0632
1942051.0,-11.3557,3.3495,13.5967,-1.0275,-4.0579,-4.0664
1942061.0,-10.9247,3.7158,13.295,-1.1041,-4.2431,-4.027
1942071.0,-10.5393,4.3814,12.651,-1.0014,-4.3963,-3.9499
1942081.0,-10.161,5.0637,12.1314,-0.8258,-4.5203,-3.8238
1942091.0,-9.675,5.8921,11.1091,-0.5853,-4.6464,-3.6381
1942101.0,-8.9471,6.6822,9.9072,-0.3539,-4.7587,-3.3981
1942111.0,-8.0038,7.4148,8.351,-0.1767,-4.831,-3.1054
1942121.0,-6.9168,7.6183,6.8618,-0.1032,-4.8353,-2.7766
1942131.0,-5.77,7.7572,5.4253,-0.1086,-4.7576,-2.4525
1942141.0,-4.5825,7.6231,4.47,-0.2006,-4.5911,-2.1476
1942151.0,-3.5769,7.4196,3.8379,-0.2708,-4.375,-1.856
1942161.0,-2.6121,7.1467,3.304,-0.24,-4.1233,-1.5575
1942171.0,-1.5993,6.6152,3.1005,-0.1373,-3.8349,-1.2542
1942181.0,-0.7973,5.9687,2.7414,0.0149,-3.5832,-0.9684
1942191.0,0.1628,5.2409,2.1715,0.1618,-3.3465,-0.7194
1942201.0,1.154,4.5538,1.4868,0.2746,-3.098,-0.5252
1942211.0,2.0159,4.0175,0.8499,0.2996,-2.8308,-0.3932
1942221.0,2.6097,3.6416,0.4477,0.2559,-2.5557,-0.3139
1942231.0,3.2968,3.2944,0.3208,0.1974,-2.2636,-0.2607
1942241.0,3.8283,3.0813,0.2298,0.1852,-1.955,-0.2171
1942251.0,4.2569,3.0335,0.0383,0.1729,-1.6522,-0.1825
1942261.0,4.5083,3.067,-0.0048,0.1155,-1.3675,-0.1522
1942271.0,4.695,3.0837,-0.1437,0.025,-1.11,-0.1117
1942281.0,4.9512,3.0095,-0.2753,-0.0968,-0.8663,-0.0612
1942291.0,5.0589,2.9449,-0.4022,-0.2347,-0.6109,-0.0128
1942301.0,4.9632,2.8252,-0.3424,-0.381,-0.3331,0.0431
1942311.0,4.8195,2.6264,-0.2107,-0.5215,-0.0649,0.1171
1942321.0,4.786,2.1452,0.1532,-0.6199,0.2017,0.2075
1942331.0,4.8339,1.4964,0.4908,-0.6343,0.473,0.2964
1942341.0,4.7549,1.1133,0.7183,-0.5656,0.7386,0.3629
1942351.0,4.719,0.7661,1.0702,-0.4715,1.0025,0.4124
1942361.0,4.5873,0.4717,1.3168,-0.3374,1.2531,0.4566
1942371.0,4.2904,0.2394,1.3575,-0.1756,1.5032,0.4927
1942381.0,4.0486,0.1173,1.3048,-0.0133,1.7645,0.5183
1942391.0,3.6607,0.1053,1.2139,0.1336,2.0571,0.5401
1942401.0,3.1316,0.2179,1.1325,0.2464,2.3679,0.5672
1942411.0,2.4205,0.2203,1.2354,0.3076,2.6829,0.6103
1942421.0,1.6688,0.0599,1.494,0.3682,3.0144,0.6721
1942431.0,1.1588,-0.3759,1.9058,0.4635,3.3821,0.7418
1942441.0,0.5148,-0.8954,2.4684,0.572,3.7572,0.7827
1942451.0,-0.1915,-1.2019,3.1101,0.6135,4.0802,0.7795
1942461.0,-0.9337,-1.4724,4.2689,0.547,4.3261,0.7343
1942471.0,-1.5131,-1.4509,5.1212,0.4534,4.4368,0.6641
1942481.0,-2.1524,-1.1037,5.5186,0.3421,4.4767,0.5912
1942491.0,-3.0191,-0.656,5.8275,0.1857,4.5006,0.5529
1942501.0,-3.9696,-0.3926,6.3303,0.0277,4.524,0.5598
1942511.0,-4.5538,-0.5076,6.9528,-0.0138,4.582,0.6173
1942521.0,-4.8985,-0.8643,7.5776,0.0846,4.6842,0.68
1942531.0,-5.3941,-1.1971,8.2528,0.1751,4.7566,0.6955
1942541.0,-5.8323,-1.4844,8.849,0.1607,4.7257,0.6407
1942551.0,-6.2345,-1.3384,8.679,0.0144,4.5767,0.5039
1942561.0,-6.5745,-0.826,7.8985,-0.3421,4.3979,0.3171
1942571.0,-7.0198,-0.3903,7.3047,-0.9163,4.3011,0.1394
1942581.0,-7.8195,-0.4262,7.7931,-1.6001,4.3037,0.0059
1942591.0,-8.5234,-0.8404,8.9639,-2.2024,4.2883,-0.0761
1942601.0,-9.153,-1.1708,9.8569,-2.6372,4.1696,-0.1197
1942611.0,-9.6798,-2.0087,11.157,-2.8995,4.0371,-0.1011
1942621.0,-9.7971,-3.2346,12.7324,-2.7803,3.9382,-0.0287
1942631.0,-9.9383,-3.9528,13.5153,-2.2109,3.8445,0.0335
1942641.0,-10.2687,-4.0917,13.6757,-1.425,3.7562,0.0537
1942651.0,-10.1706,-3.8164,13.4195,-0.6582,3.6822,0.0362
1942661.0,-10.1251,-3.4333,13.4219,-0.0516,3.6471,-0.0074
1942671.0,-10.4148,-2.9137,13.793,0.4007,3.5955,-0.0665
1942681.0,-10.6279,-2.2266,13.7643,0.6784,3.4178,-0.141
1942691.0,-10.7763,-1.4653,13.2088,0.6263,3.1267,-0.2395
1942701.0,-10.9511,-0.8859,12.8066,0.2246,2.826,-0.3491
1942711.0,-10.9894,-0.6105,13.0125,-0.3336,2.5531,-0.4347
1942721.0,-10.9367,-0.5698,13.9151,-0.8349,2.2844,-0.473
1942731.0,-10.75,-0.8188,14.9494,-1.1169,2.0018,-0.4475
1942741.0,-10.4004,-1.1516,15.6078,-1.0701,1.6942,-0.3618
1942751.0,-9.9431,-1.3264,15.5384,-0.7785,1.376,-0.257
1942761.0,-9.3948,-1.3216,14.8369,-0.4177,1.077,-0.1602
1942771.0,-8.9711,-1.1851,13.8121,-0.1155,0.8205,-0.0825
1942781.0,-8.7484,-1.0606,12.9694,0.0585,0.6258,-0.0357
1942791.0,-8.6886,-1.0104,12.3732,0.1969,0.4725,-0.0069
1942801.0,-8.6167,-0.8547,11.3796,0.3555,0.3469,0.0043
1942811.0,-8.3701,-0.5411,10.2783,0.4369,0.2863,-0.0117
1942821.0,-8.3366,-0.1269,9.5624,0.3916,0.3251,-0.0484
1942831.0,-8.4348,0.2131,9.3757,0.2613,0.4198,-0.0841
1942841.0,-8.5162,0.3687,9.7707,0.1075,0.5156,-0.1091
1942851.0,-8.7125,0.4956,10.2256,-0.0245,0.5757,-0.1277
1942861.0,-9.165,0.5363,10.92,-0.1804,0.6194,-0.1426
1942871.0,-9.6941,0.328,11.9423,-0.3283,0.6284,-0.1437
1942881.0,-10.0652,0.17,12.9909,-0.4321,0.5848,-0.1506
1942891.0,-10.5536,0.1987,14.3269,-0.5667,0.4991,-0.1708
1942901.0,-11.2312,0.3424,15.7491,-0.7758,0.2788,-0.1751
1942911.0,-12.232,0.1748,17.3723,-1.0264,-0.0963,-0.1442
1942921.0,-12.6055,-0.4884,18.682,-1.1174,-0.5539,-0.0575
1942931.0,-12.9047,-1.0511,19.4696,-0.961,-1.0153,0.0479
1942941.0,-13.4746,-0.8547,19.6157,-0.6971,-1.492,0.1373
1942951.0,-14.0157,-0.3687,19.4984,-0.5257,-2.0258,0.2379
1942961.0,-14.6405,-0.012,18.8663,-0.4651,-2.6042,0.3704
1942971.0,-14.9015,-0.0192,17.765,-0.4746,-3.1698,0.5316
1942981.0,-14.9614,-0.3879,16.4003,-0.5582,-3.678,0.679
1942991.0,-14.9063,-1.075,15.5503,-0.6667,-4.0696,0.7939
1943001.0,-14.7435,-1.9537,14.9015,-0.6518,-4.3809,0.8817
1943011.0,-14.3868,-2.7102,14.4083,-0.4635,-4.6491,0.9424
1943021.0,-14.0588,-3.292,13.8457,-0.1208,-4.8688,0.9897
1943031.0,-13.6924,-3.8427,13.0915,0.3177,-5.0545,1.0424
1943041.0,-12.8976,-4.3431,12.208,0.7583,-5.2259,1.0834
1943051.0,-12.3038,-4.4388,10.9607,1.1174,-5.3967,1.0898
1943061.0,-11.7388,-4.0845,9.4499,1.2904,-5.5744,1.06
1943071.0,-11.1067,-3.6176,8.1834,1.2606,-5.7016,1.0099
1943081.0,-10.4315,-3.1005,7.0318,1.1467,-5.792,0.9589
1943091.0,-9.8402,-2.4349,5.442,0.9365,-5.8676,0.903
1943101.0,-8.9567,-1.8866,4.0654,0.5773,-5.9075,0.8375
1943111.0,-7.8721,-1.5107,2.8683,0.1783,-5.8596,0.7689
1943121.0,-6.8546,-1.2234,1.9513,-0.1548,-5.7016,0.7184
1943131.0,-5.8083,-1.1157,1.3767,-0.4081,-5.4728,0.6854
1943141.0,-4.6735,-1.154,0.9601,-0.563,-5.2078,0.6662
1943151.0,-3.6057,-1.2713,0.9026,-0.5832,-4.8912,0.6625
1943161.0,-2.6264,-1.2689,0.5171,-0.4337,-4.5559,0.6859
1943171.0,-1.6233,-1.2474,0.079,-0.2219,-4.1888,0.7306
1943181.0,-0.7398,-1.3384,-0.2442,-0.0016,-3.7902,0.7897
1943191.0,0.2203,-1.5299,-0.4046,0.2389,-3.3518,0.8567
1943201.0,0.9768,-1.731,-0.3232,0.5076,-2.8798,0.9179
1943211.0,1.5802,-1.8938,-0.1676,0.7742,-2.4169,0.9658
1943221.0,2.1452,-2.0806,0.2346,0.9855,-1.9885,0.9897
1943231.0,2.6671,-2.0782,0.4932,1.1632,-1.615,0.9903
1943241.0,3.0502,-1.9944,0.8116,1.2803,-1.2797,0.9754
1943251.0,3.3639,-1.992,1.2043,1.3462,-0.9599,0.9557
1943261.0,3.6296,-2.0279,1.5347,1.3798,-0.6832,0.9269
1943271.0,3.9528,-2.0423,1.7717,1.3372,-0.4555,0.8668
1943281.0,4.1875,-1.9154,1.9824,1.2324,-0.2501,0.7737
1943291.0,4.2258,-1.6281,2.2075,1.0775,-0.0607,0.6731
1943301.0,4.1851,-1.3719,2.4325,0.87,0.0867,0.5779
1943311.0,4.1635,-1.0678,2.4732,0.6173,0.1799,0.4869
1943321.0,4.118,-0.8356,2.4277,0.3464,0.2602,0.4097
1943331.0,4.0462,-0.7087,2.2386,0.0878,0.3618,0.3517
1943341.0,4.0318,-0.7853,2.1141,-0.1399,0.4943,0.3028
1943351.0,4.0318,-0.9385,2.1189,-0.3092,0.6673,0.2538
1943361.0,3.9768,-1.0391,2.1835,-0.3927,0.886,0.2027
1943371.0,3.7828,-1.0989,2.4325,-0.3868,1.1361,0.1548
1943381.0,3.5602,-1.1444,2.7174,-0.3028,1.3941,0.1171
1943391.0,3.3232,-1.2139,3.1196,-0.1495,1.657,0.0846
1943401.0,3.0813,-1.312,3.5865,0.0495,1.9092,0.0532
1943411.0,2.8132,-1.324,4.0366,0.2698,2.137,0.0096
1943421.0,2.5714,-1.2091,4.4173,0.5204,2.3301,-0.0415
1943431.0,2.2865,-1.0127,4.7142,0.7891,2.5052,-0.0968
1943441.0,1.822,-0.6464,4.7597,1.0515,2.6701,-0.1602
1943451.0,1.0798,-0.0814,4.9847,1.2467,2.8276,-0.2272
1943461.0,0.4956,0.4334,5.102,1.3681,2.9452,-0.2857
1943471.0,0.0718,0.9457,5.3846,1.3883,3.0277,-0.3421
1943481.0,-0.4118,1.3024,5.8155,1.3755,3.0916,-0.3927
1943491.0,-0.8212,1.7837,5.7581,1.3643,3.0905,-0.4337
1943501.0,-1.2905,2.1787,5.7628,1.3202,3.1006,-0.4704
1943511.0,-1.731,2.7629,5.2409,1.3276,3.148,-0.5028
1943521.0,-2.6384,3.5817,4.6424,1.2829,3.2932,-0.5444
1943531.0,-3.881,4.5849,4.8004,1.1068,3.5215,-0.5619
1943541.0,-5.0398,5.138,5.8586,0.8652,3.7503,-0.5082
1943551.0,-5.8993,5.1427,7.3382,0.6609,3.878,-0.3847
1943561.0,-6.2153,4.4867,8.6526,0.6039,3.878,-0.2272
1943571.0,-6.1435,3.7948,9.0908,0.7263,3.8254,-0.107
1943581.0,-6.0908,3.5889,9.1794,0.9578,3.8546,-0.0633
1943591.0,-6.4955,4.2066,9.1004,1.1579,3.968,-0.0862
1943601.0,-7.4124,5.1954,9.8857,1.1552,4.0935,-0.1325
1943611.0,-8.2217,6.2608,10.9104,0.9871,4.1052,-0.1309
1943621.0,-9.3972,6.8666,12.3421,0.6263,3.9531,-0.05
1943631.0,-10.1706,6.5769,14.0324,0.2065,3.6391,0.1117
1943641.0,-9.7659,5.8155,14.6381,-0.0048,3.2044,0.3299
1943651.0,-9.5289,4.8554,14.6812,-0.0756,2.8154,0.5305
1943661.0,-9.6031,3.9959,14.7219,0.0607,2.5563,0.6907
1943671.0,-9.5768,3.7158,13.6972,0.4188,2.4062,0.8131
1943681.0,-10.0293,3.4907,12.7946,0.6577,2.4254,0.8822
1943691.0,-10.1754,3.0526,13.046,0.6401,2.494,0.9009
1943701.0,-10.173,2.3559,13.8026,0.4039,2.5031,0.8535
1943711.0,-10.4483,1.6544,15.1816,-0.0431,2.3711,0.7343
1943721.0,-10.6686,0.8236,16.7283,-0.4842,2.0869,0.5965
1943731.0,-10.6255,0.0239,17.8919,-0.7242,1.7256,0.4757
1943741.0,-10.568,-0.7757,18.9118,-0.7471,1.3883,0.3725
1943751.0,-10.5249,-1.4916,19.6205,-0.5571,1.069,0.281
1943761.0,-10.2137,-1.9178,20.0969,-0.2655,0.7657,0.1681
1943771.0,-10.1969,-1.8028,20.6452,-0.0037,0.4629,0.0138
1943781.0,-10.5058,-1.0702,20.6284,0.0724,0.0639,-0.1554
1943791.0,-10.7811,-0.68,20.5207,-0.2458,-0.5034,-0.3251
1943801.0,-10.6781,-0.8787,20.334,-0.8099,-1.1866,-0.5028
1943811.0,-10.3621,-1.3958,19.563,-1.2968,-1.8177,-0.6827
1943821.0,-10.1562,-1.9992,18.5287,-1.6171,-2.295,-0.8764
1943831.0,-10.0916,-2.4804,17.8799,-1.79,-2.6121,-1.0977
1943841.0,-9.991,-2.7581,17.4418,-1.8055,-2.8399,-1.334
1943851.0,-9.8306,-2.8108,16.9988,-1.7166,-3.0192,-1.5793
1943861.0,-9.7372,-2.4493,16.6253,-1.6448,-3.1772,-1.8363
1943871.0,-9.6702,-2.2194,17.164,-1.6304,-3.3214,-2.0869
1943881.0,-9.7612,-1.6137,17.8296,-1.5085,-3.5061,-2.3088
1943891.0,-10.0963,-0.4094,18.002,-1.3356,-3.786,-2.4802
1943901.0,-10.386,0.9601,17.7793,-1.2819,-4.2346,-2.585
1943911.0,-10.4842,2.1883,16.9294,-1.293,-4.7715,-2.6089
1943921.0,-10.4483,3.237,15.1146,-1.2345,-5.2626,-2.535
1943931.0,-10.137,3.9313,12.9957,-1.1467,-5.6329,-2.3785
1943941.0,-9.4427,4.312,11.0277,-1.0094,-5.858,-2.1657
1943951.0,-8.2815,4.2856,8.272,-0.6481,-5.9352,-1.9087
1943961.0,-7.0198,4.5538,6.1603,-0.3187,-5.7777,-1.6602
1943971.0,-5.5498,4.8315,4.1348,-0.1096,-5.5691,-1.4133
1943981.0,-3.984,4.9943,2.0806,-0.0681,-5.3094,-1.177
1943991.0,-2.5786,4.8387,0.656,-0.1681,-4.9566,-0.9626
1944001.0,-1.3719,4.7429,-0.4741,-0.2565,-4.5187,-0.7646
1944011.0,-0.3232,4.4819,-1.2067,-0.3799,-4.0632,-0.5875
1944021.0,0.6608,3.9385,-1.5107,-0.513,-3.6093,-0.4337
1944031.0,1.4293,3.3375,-1.6305,-0.5103,-3.1278,-0.2916
1944041.0,2.1859,2.7102,-1.6089,-0.3374,-2.5983,-0.1596
1944051.0,2.7629,2.1189,-1.3072,-0.0788,-2.0476,-0.0537
1944061.0,3.3974,1.5395,-0.8284,0.1937,-1.5431,0.0069
1944071.0,3.7182,1.3192,-0.3735,0.4752,-1.0828,0.0149
1944081.0,3.9959,1.5107,0.0311,0.6822,-0.7088,-0.0005
1944091.0,4.0342,1.6735,0.5914,0.7551,-0.4326,-0.0149
1944101.0,3.9959,1.8435,0.9146,0.7705,-0.2554,-0.009
1944111.0,3.9002,1.9561,0.8811,0.7199,-0.149,0.009
1944121.0,3.7709,1.8986,0.6943,0.6061,-0.0665,0.0394
1944131.0,3.6847,1.6161,0.4405,0.4784,0.042,0.0692
1944141.0,3.6296,1.3455,0.0431,0.4001,0.207,0.091
1944151.0,3.5314,1.1181,-0.2825,0.3453,0.4571,0.0926
1944161.0,3.462,0.9768,-0.3831,0.3171,0.7742,0.0777
1944171.0,3.2394,0.8619,-0.4094,0.2698,1.1142,0.0527
1944181.0,2.9377,0.7207,-0.2753,0.1932,1.4521,0.0165
1944191.0,2.6408,0.6728,-0.0694,0.124,1.7938,-0.0266
1944201.0,2.3056,0.6752,0.2514,0.0931,2.1535,-0.0676
1944211.0,1.7909,0.8787,0.6369,0.1096,2.5323,-0.1011
1944221.0,1.1157,1.2929,1.2282,0.1607,2.925,-0.1197
1944231.0,0.2394,1.8771,2.1404,0.2368,3.3161,-0.1091
1944241.0,-0.6632,2.4852,3.1484,0.2996,3.6045,-0.049
1944251.0,-1.6257,2.8802,3.9576,0.332,3.769,0.066
1944261.0,-2.6528,2.8395,4.5274,0.3395,3.8663,0.2293
1944271.0,-3.3399,2.2362,5.1811,0.3693,3.9477,0.4135
1944281.0,-3.5482,1.2905,5.454,0.4757,4.0212,0.5635
1944291.0,-3.8403,0.3591,5.2457,0.6401,4.1585,0.6125
1944301.0,-4.4412,0.0239,5.3175,0.7897,4.4373,0.538
1944311.0,-5.363,0.2298,6.0645,0.8434,4.7895,0.3964
1944321.0,-6.4236,0.644,7.4244,0.7742,5.071,0.2575
1944331.0,-7.4053,0.7853,9.1722,0.5539,5.1924,0.1453
1944341.0,-8.2959,0.7422,11.2527,0.2485,5.1248,0.0548
1944351.0,-9.0333,0.8116,13.0867,0.0059,4.8795,-0.0106
1944361.0,-9.4834,1.2234,14.3556,-0.0846,4.5528,-0.025
1944371.0,-9.7588,1.494,15.038,-0.0394,4.2282,0.049
1944381.0,-10.1059,1.1468,15.9071,0.0979,4.0026,0.1767
1944391.0,-10.635,0.7566,17.0922,0.398,3.8759,0.2948
1944401.0,-11.0133,0.5195,18.3803,0.7748,3.7604,0.3799
1944411.0,-11.3389,0.3807,20.1185,1.0222,3.5683,0.4129
1944421.0,-11.8585,0.4573,21.4018,1.0685,3.1698,0.4001
1944431.0,-12.0644,0.1939,22.4073,0.8375,2.5813,0.3517
1944441.0,-12.2176,-0.1724,23.0538,0.4629,1.9183,0.2708
1944451.0,-12.3038,-0.6752,23.4584,0.0958,1.2776,0.1878
1944461.0,-12.2846,-1.6688,24.1216,-0.1187,0.7056,0.1208
1944471.0,-11.8561,-2.332,24.2724,-0.0064,0.2081,0.0495
1944481.0,-11.5161,-2.32,23.8127,0.2735,-0.1979,-0.0442
1944491.0,-11.4084,-1.822,23.5494,0.4135,-0.5821,-0.1628
1944501.0,-11.4347,-1.2977,23.4775,0.2911,-1.0584,-0.2879
1944511.0,-11.3533,-1.4222,23.5925,-0.0388,-1.6591,-0.4044
1944521.0,-11.0923,-2.1332,23.389,-0.3789,-2.3296,-0.5268
1944531.0,-10.8122,-2.6097,22.1607,-0.5992,-2.9963,-0.6896
1944541.0,-10.5273,-2.7869,20.571,-0.7471,-3.5497,-0.8881
1944551.0,-10.2065,-2.3846,18.6604,-0.87,-3.9898,-1.1052
1944561.0,-10.2376,-1.8962,17.1377,-1.0121,-4.2782,-1.318
1944571.0,-9.9168,-1.3934,16.0076,-1.0983,-4.4527,-1.4889
1944581.0,-9.7612,-0.7135,14.9638,-1.1467,-4.5772,-1.6336
1944591.0,-9.4523,-0.1867,14.3724,-1.1706,-4.6523,-1.7363
1944601.0,-8.9783,0.2131,13.4698,-1.1137,-4.723,-1.7757
1944611.0,-8.3582,0.3855,12.7467,-1.1036,-4.7986,-1.7895
1944621.0,-7.6926,0.3208,12.1458,-1.0711,-4.8635,-1.79
1944631.0,-7.1898,0.4453,10.9942,-0.9482,-4.9146,-1.7767
1944641.0,-6.7445,0.5746,10.0485,-0.853,-4.9103,-1.7586
1944651.0,-6.1244,0.4836,9.4188,-0.721,-4.8561,-1.724
1944661.0,-5.4516,0.5363,8.6,-0.4874,-4.7816,-1.6735
1944671.0,-4.8794,0.7087,7.4124,-0.282,-4.7177,-1.6267
1944681.0,-4.0247,0.8356,6.2584,-0.207,-4.6374,-1.5905
1944691.0,-3.4069,1.0295,5.1763,-0.2155,-4.5139,-1.5697
1944701.0,-2.6767,1.2258,4.2042,-0.2895,-4.3596,-1.5527
1944711.0,-2.0039,1.3168,3.8331,-0.3592,-4.1404,-1.5351
1944721.0,-1.2163,1.415,3.4333,-0.3182,-3.9078,-1.5011
1944731.0,-0.3998,1.403,3.1292,-0.2453,-3.6822,-1.4591
1944741.0,0.1676,1.4509,2.6576,-0.2187,-3.5109,-1.433
1944751.0,0.6225,1.5706,2.1715,-0.2379,-3.3699,-1.417
1944761.0,1.0654,1.6233,1.5921,-0.2597,-3.2028,-1.3968
1944771.0,1.6185,1.6999,0.8595,-0.2756,-2.9969,-1.3675
1944781.0,2.1811,1.719,0.261,-0.3448,-2.759,-1.3473
1944791.0,2.8108,1.7741,-0.4142,-0.4773,-2.5206,-1.3457
1944801.0,3.2417,1.8603,-0.7781,-0.6343,-2.2162,-1.3654
1944811.0,3.6871,2.1021,-0.6249,-0.712,-1.8129,-1.3814
1944821.0,3.8547,2.6121,-0.1772,-0.7189,-1.4005,-1.376
1944831.0,3.8116,3.0358,0.5483,-0.7301,-1.0935,-1.3308
1944841.0,3.9816,3.4812,0.7111,-0.6843,-0.8753,-1.2441
1944851.0,4.0917,3.8834,0.5674,-0.6768,-0.7098,-1.1286
1944861.0,4.0773,4.1324,0.4334,-0.7657,-0.5917,-0.9897
1944871.0,4.0941,4.1084,0.3567,-0.8716,-0.4762,-0.8242
1944881.0,4.2449,3.9337,0.1293,-0.9163,-0.3411,-0.6465
1944891.0,4.4173,3.7469,-0.3543,-0.8939,-0.1729,-0.4725
1944901.0,4.5753,3.5482,-0.9792,-0.8312,0.0612,-0.3092
1944911.0,4.5538,3.4692,-1.6592,-0.7625,0.3682,-0.1639
1944921.0,4.4029,3.4572,-2.3727,-0.7178,0.7402,-0.0314
1944931.0,4.1252,3.4381,-2.7988,-0.7008,1.2063,0.1006
1944941.0,3.5985,3.4979,-2.8252,-0.7019,1.7304,0.2384
1944951.0,2.9305,3.4405,-2.4612,-0.7269,2.2498,0.3927
1944961.0,2.2649,3.1867,-2.0351,-0.7418,2.7404,0.5726
1944971.0,1.5826,2.7174,-1.4413,-0.7497,3.2113,0.7646
1944981.0,0.8906,2.0063,-0.5555,-0.7003,3.6891,0.9456
1944991.0,0.158,1.4174,0.4836,-0.5672,4.1265,1.0988
1945001.0,-0.7973,0.7853,1.4557,-0.3991,4.5033,1.2159
1945011.0,-1.7885,0.2538,2.1524,-0.1687,4.8518,1.2957
1945021.0,-2.6839,-0.1389,2.8563,0.0527,5.1961,1.3335
1945031.0,-3.6775,-0.2634,3.5003,0.1564,5.4738,1.3255
1945041.0,-5.023,-0.4334,4.537,0.1272,5.6739,1.301
1945051.0,-5.964,-0.735,5.3056,0.0149,5.7654,1.2914
1945061.0,-6.7014,-1.4605,6.3422,-0.1878,5.7867,1.2765
1945071.0,-7.5561,-2.0901,6.8402,-0.3427,5.7282,1.2457
1945081.0,-8.0014,-3.1436,7.4555,-0.4289,5.7085,1.2127
1945091.0,-7.9583,-4.4724,8.3725,-0.3448,5.8091,1.143
1945101.0,-8.1547,-5.2457,9.232,-0.1197,5.9634,0.9722
1945111.0,-8.8274,-5.2361,10.1586,0.0133,6.0272,0.6997
1945121.0,-9.6247,-4.6926,10.6374,-0.049,5.9496,0.3863
1945131.0,-10.2161,-4.0342,11.0109,-0.3528,5.799,0.0889
1945141.0,-10.8577,-3.6344,11.5113,-0.9355,5.5739,-0.1708
1945151.0,-11.2336,-3.8571,13.1202,-1.7389,5.2759,-0.3767
1945161.0,-11.4706,-4.6495,15.5456,-2.4232,4.8864,-0.5108
1945171.0,-11.1474,-5.3917,17.9757,-2.6249,4.4256,-0.5736
1945181.0,-10.9128,-5.43,19.6396,-2.2264,3.9344,-0.5811
1945191.0,-10.6734,-4.5346,19.8623,-1.3952,3.439,-0.5385
1945201.0,-10.319,-3.3208,19.2063,-0.4757,2.9495,-0.447
1945211.0,-10.0916,-2.5091,18.0116,0.3129,2.4818,-0.3214
1945221.0,-6.0717,-0.8547,22.9125,0.5279,1.6049,-0.2038
1945231.0,-8.3797,-2.8635,16.939,0.0239,1.127,-0.2033
1945241.0,-8.2935,-0.984,8.4803,0.6875,0.8189,-0.1405
1945251.0,-9.6367,-1.3551,11.9088,-0.0846,1.028,-0.2352
1945261.0,-10.0916,-1.6161,12.8066,-0.2964,0.9642,-0.2155
1945271.0,-9.9551,-1.3096,11.6406,0.1751,1.1031,-0.1181
1945281.0,-9.7348,-0.7925,12.2942,0.7194,1.2904,0.0138
1945291.0,-9.3374,-0.9649,13.1418,1.036,1.3276,0.1266
1945301.0,-8.6622,-0.8045,12.2176,1.3191,1.3936,0.1836
1945311.0,-8.3869,-0.249,12.536,1.3149,1.5059,0.1724
1945321.0,-8.5042,-0.103,13.5344,0.9041,1.4218,0.1123
1945331.0,-8.7628,0.0551,14.2383,0.3443,1.1414,0.0362
1945341.0,-8.8107,0.1915,15.0308,-0.183,0.7439,-0.0218
1945351.0,-8.8633,-0.237,15.8783,-0.5805,0.2969,-0.0521
1945361.0,-8.6526,-0.2298,15.5192,-0.6816,-0.0905,-0.0564
1945371.0,-8.521,-0.0718,14.8369,-0.6949,-0.3544,-0.0521
1945381.0,-8.5473,0.3328,13.9223,-0.6614,-0.4922,-0.0426
1945391.0,-8.9783,0.9601,13.3429,-0.6321,-0.5151,-0.0202
1945401.0,-9.5648,1.664,13.2758,-0.6604,-0.5619,0.0245
1945411.0,-9.9288,2.4349,13.0101,-0.6944,-0.6928,0.1086
1945421.0,-9.8114,2.897,13.3716,-0.8939,-0.853,0.2214
1945431.0,-9.6893,3.0047,13.9247,-1.1238,-1.0584,0.3693
1945441.0,-9.742,2.8898,14.4658,-1.3457,-1.3324,0.5289
1945451.0,-9.9623,2.6647,14.7674,-1.4867,-1.6506,0.6965
1945461.0,-10.3477,2.3296,14.8057,-1.5213,-1.9459,0.8759
1945471.0,-10.8745,1.7526,15.0691,-1.4234,-2.1503,1.0738
1945481.0,-11.3916,0.972,15.6365,-1.218,-2.32,1.276
1945491.0,-11.7962,0.1844,16.0459,-0.9982,-2.5914,1.4479
1945501.0,-11.8848,-0.2801,15.8233,-0.8125,-2.9734,1.5671
1945511.0,-11.9112,-0.6393,15.1385,-0.7003,-3.3395,1.6687
1945521.0,-11.7627,-1.3001,14.516,-0.6753,-3.6556,1.7581
1945531.0,-11.5544,-2.1548,13.8888,-0.6641,-3.9493,1.8124
1945541.0,-11.5305,-2.9066,12.8162,-0.6204,-4.1936,1.8161
1945551.0,-11.2791,-3.4979,11.6837,-0.622,-4.349,1.7693
1945561.0,-10.9415,-4.1252,11.0875,-0.721,-4.4304,1.6644
1945571.0,-10.4914,-4.6376,11.2863,-0.8093,-4.4793,1.5186
1945581.0,-10.1251,-4.6974,11.1737,-0.7524,-4.565,1.367
1945591.0,-9.7875,-4.458,10.8026,-0.6226,-4.6762,1.2388
1945601.0,-9.3326,-4.2665,10.3956,-0.455,-4.7848,1.1605
1945611.0,-8.6886,-4.1587,9.6079,-0.2575,-4.8965,1.1244
1945621.0,-8.181,-4.0007,8.3151,-0.157,-5.0274,1.0962
1945631.0,-7.5274,-4.039,7.1467,-0.2011,-5.1477,1.0573
1945641.0,-6.766,-4.1444,5.9711,-0.274,-5.2073,1.0174
1945651.0,-5.9927,-4.3551,5.0087,-0.3006,-5.1657,0.9796
1945661.0,-5.1308,-4.5322,4.1037,-0.224,-5.0636,0.944
1945671.0,-4.1731,-4.6232,3.1699,-0.0612,-4.9039,0.9126
1945681.0,-3.2489,-4.6831,2.2194,0.1415,-4.6645,0.8849
1945691.0,-3.2489,-4.6831,2.2194,0.1415,-4.6645,0.8849
1945701.0,-1.336,-4.7094,0.9218,0.6327,-3.9547,0.8365
1945711.0,-1.336,-4.7094,0.9218,0.6327,-3.9547,0.8365
1945721.0,-0.3759,-4.6448,0.5052,0.8019,-3.555,0.7865
1945731.0,0.3519,-4.3551,0.1532,0.8833,-3.1852,0.7114
1945741.0,0.929,-3.881,-0.1963,0.8514,-2.8516,0.6194
1945751.0,1.4988,-3.371,-0.3328,0.7428,-2.5339,0.5348
1945761.0,1.9776,-2.9161,-0.3663,0.6433,-2.2077,0.4784
1945771.0,2.332,-2.5642,-0.3926,0.5885,-1.8826,0.4512
1945781.0,2.5977,-2.2529,-0.4597,0.5465,-1.5772,0.439
1945791.0,2.9113,-2.0949,-0.4693,0.5199,-1.2547,0.4379
1945801.0,3.1436,-1.9824,-0.3567,0.5699,-0.895,0.4544
1945811.0,3.2202,-1.9201,-0.2562,0.6604,-0.5124,0.48
1945821.0,3.3471,-1.9345,-0.0335,0.7221,-0.1511,0.497
1945831.0,3.474,-2.0518,0.3136,0.7604,0.1948,0.4975
1945841.0,3.5985,-2.1763,0.6345,0.7966,0.522,0.4784
1945851.0,3.5769,-2.1811,1.008,0.7646,0.7992,0.4358
1945861.0,3.5243,-2.2266,1.3695,0.6476,1.0126,0.3682
1945871.0,3.4405,-2.2266,1.5443,0.5055,1.1877,0.2889
1945881.0,3.4668,-2.2577,1.4293,0.3246,1.3457,0.2006
1945891.0,3.2322,-2.2913,1.3791,0.0569,1.5186,0.0867
1945901.0,2.7821,-2.2098,1.3503,-0.2559,1.7081,-0.0399
1945911.0,2.3152,-2.0949,1.6783,-0.5726,1.9225,-0.1517
1945921.0,1.7526,-2.0806,2.1596,-0.8083,2.1423,-0.2272
1945931.0,1.1013,-2.1284,2.3343,-0.8998,2.3668,-0.2618
1945941.0,0.1628,-2.2984,2.4349,-0.8663,2.6366,-0.2661
1945951.0,-0.7805,-2.6073,2.3032,-0.7221,2.9601,-0.249
1945961.0,-1.5562,-3.2274,2.6001,-0.5124,3.3656,-0.2235
1945971.0,-2.4636,-3.9528,3.0071,-0.2395,3.82,-0.2347
1945981.0,-3.3016,-4.458,3.7421,0.0229,4.2681,-0.3097
1945991.0,-4.0414,-4.6495,4.7262,0.1772,4.6411,-0.4496
1946001.0,-4.7908,-4.5394,5.6814,0.1591,4.8747,-0.6332
1946011.0,-5.8969,-4.2737,6.6128,-0.0777,4.9396,-0.828
1946021.0,-6.7109,-3.8978,7.3071,-0.5028,4.8369,-1.0009
1946031.0,-7.252,-3.6799,7.8913,-1.0642,4.6512,-1.1249
1946041.0,-7.9727,-3.6631,8.6742,-1.6277,4.4405,-1.1829
1946051.0,-8.4084,-3.8738,9.2871,-1.9709,4.2255,-1.1547
1946061.0,-8.5904,-4.2856,9.3685,-1.963,4.0781,-1.0637
1946071.0,-8.5928,-4.6687,8.8083,-1.6895,4.0398,-0.9626
1946081.0,-8.7149,-5.1044,8.3127,-1.376,4.1079,-0.9014
1946091.0,-8.7125,-5.6695,8.3414,-1.1041,4.2223,-0.8977
1946101.0,-8.8035,-6.0358,8.4324,-0.8759,4.3144,-0.9615
1946111.0,-8.7269,-6.1459,8.7771,-0.7513,4.3468,-1.0919
1946121.0,-9.2201,-5.77,9.5672,-0.7035,4.3362,-1.2515
1946131.0,-9.7348,-4.9823,10.5919,-0.622,4.2532,-1.376
1946141.0,-10.1059,-4.276,11.6765,-0.4411,4.0983,-1.4197
1946151.0,-10.2041,-3.6943,12.3206,-0.1309,3.8876,-1.3899
1946161.0,-9.9886,-3.1819,12.5815,0.2703,3.671,-1.3266
1946171.0,-9.6774,-2.5714,12.4738,0.6598,3.4582,-1.2568
1946181.0,-9.4332,-1.98,12.1865,0.9003,3.2278,-1.1951
1946191.0,-9.4691,-1.6017,11.7819,0.9126,2.9617,-1.1515
1946201.0,-9.4643,-1.4126,11.3653,0.7668,2.6728,-1.127
1946211.0,-9.1913,-1.2857,10.7715,0.5965,2.4349,-1.1137
1946221.0,-8.9783,-1.166,10.5345,0.4816,2.3259,-1.1009
1946231.0,-8.8274,-0.7781,10.6829,0.4949,2.3317,-1.0722
1946241.0,-8.7747,-0.3735,11.0923,0.5917,2.3615,-1.0174
1946251.0,-8.5976,0.0838,11.2384,0.647,2.3062,-0.9525
1946261.0,-8.4755,0.3424,11.0852,0.5646,2.1923,-0.8977
1946271.0,-8.5904,0.4717,11.0157,0.3278,2.0795,-0.8588
1946281.0,-8.9687,0.3879,11.2839,-0.0202,1.9896,-0.8285
1946291.0,-9.3613,-0.1556,12.6007,-0.3267,1.9459,-0.7833
1946301.0,-9.6127,-0.7638,14.1018,-0.3698,1.8853,-0.712
1946311.0,-10.1107,-0.9385,15.1984,-0.1687,1.7682,-0.638
1946321.0,-10.659,-0.9337,16.3716,0.1139,1.6144,-0.5486
1946331.0,-11.0564,-0.9816,17.5256,0.4544,1.4149,-0.4411
1946341.0,-11.3964,-0.5387,17.8823,0.7311,1.0946,-0.356
1946351.0,-11.8178,0.0934,17.7722,0.7146,0.654,-0.3022
1946361.0,-12.1458,0.656,17.3843,0.3746,0.1501,-0.2639
1946371.0,-12.5672,0.9385,17.5088,-0.1687,-0.3171,-0.2203
1946381.0,-12.9335,0.8021,18.0475,-0.6683,-0.7859,-0.1277
1946391.0,-13.2256,0.316,18.5622,-0.9237,-1.2781,0.0176
1946401.0,-13.3525,-0.158,18.5048,-0.8477,-1.7326,0.2107
1946411.0,-13.5392,-1.0511,18.6149,-0.5369,-2.0731,0.4432
1946421.0,-13.8145,-1.7837,18.7562,-0.0841,-2.3764,0.6699
1946431.0,-13.9103,-2.0997,18.6939,0.3629,-2.75,0.8652
1946441.0,-13.8098,-2.162,17.9038,0.6662,-3.2363,1.0323
1946451.0,-13.5991,-2.1691,16.5248,0.7104,-3.7807,1.1584
1946461.0,-13.4339,-2.3439,14.6765,0.4885,-4.2963,1.234
1946471.0,-13.3692,-2.9856,13.4291,0.0644,-4.7033,1.2489
1946481.0,-13.3381,-3.9648,12.6462,-0.3884,-5.0375,1.1909
1946491.0,-13.5105,-4.7477,13.2064,-0.6598,-5.2418,1.0669
1946501.0,-13.7164,-5.126,14.0755,-0.4762,-5.3706,0.9764
1946511.0,-13.9797,-5.1188,14.5591,0.0569,-5.534,0.9573
1946521.0,-14.3508,-4.616,13.975,0.6737,-5.808,0.9956
1946531.0,-14.6286,-3.9313,12.56,1.1701,-6.1321,1.0946
1946541.0,-14.5137,-3.5362,10.8362,1.4553,-6.4072,1.2499
1946551.0,-14.03,-3.5889,9.2344,1.5612,-6.5796,1.4207
1946561.0,-13.1346,-3.7757,7.3502,1.5006,-6.7216,1.5495
1946571.0,-12.0883,-3.9911,5.7652,1.2042,-6.8334,1.5915
1946581.0,-10.738,-4.2521,4.4269,0.8115,-6.8781,1.5602
1946591.0,-9.0884,-4.458,3.2322,0.481,-6.8297,1.4846
1946601.0,-7.7093,-4.7764,2.3367,0.2501,-6.67,1.3872
1946611.0,-5.8419,-5.272,1.8316,0.1926,-6.3971,1.2739
1946621.0,-4.2353,-5.3558,1.2378,0.3283,-6.032,1.1345
1946631.0,-2.9712,-4.8052,0.5866,0.4805,-5.6404,0.9791
1946641.0,-1.9632,-4.0701,-0.0958,0.5438,-5.2897,0.8407
1946651.0,-0.9744,-3.3878,-0.996,0.5651,-4.9428,0.7487
1946661.0,0.079,-2.9473,-1.7023,0.5598,-4.5017,0.696
1946671.0,0.8045,-2.6336,-1.6712,0.5763,-3.9483,0.6678
1946681.0,1.4772,-2.3583,-1.3671,0.6337,-3.414,0.6646
1946691.0,2.0351,-2.3104,-0.6273,0.6987,-2.9319,0.6784
1946701.0,2.5307,-2.229,-0.17,0.8626,-2.5057,0.7157
1946711.0,2.9185,-2.2051,0.1149,1.0382,-2.1098,0.7604
1946721.0,3.4668,-2.2051,0.4357,1.1579,-1.7491,0.7886
1946731.0,4.0965,-2.1572,0.972,1.2616,-1.3952,0.7982
1946741.0,4.2832,-2.1093,1.4557,1.3484,-1.0727,0.7982
1946751.0,4.4843,-2.2913,1.9369,1.3617,-0.804,0.7753
1946761.0,4.8914,-2.4181,2.6001,1.3361,-0.5587,0.7019
1946771.0,5.2744,-2.0758,3.1651,1.2654,-0.3735,0.5827
1946781.0,5.0135,-1.6328,3.8547,1.0711,-0.2879,0.4507
1946791.0,4.9177,-0.9002,4.2234,0.8908,-0.298,0.3437
1946801.0,5.0374,-0.1269,3.6703,0.7577,-0.3384,0.3108
1946811.0,5.2625,0.1365,3.292,0.5342,-0.3368,0.3352
1946821.0,5.5809,0.1437,2.7605,0.299,-0.2969,0.3746
1946831.0,5.7317,0.0622,2.4157,0.1038,-0.1857,0.3975
1946841.0,5.8826,0.1221,1.7933,-0.0053,-0.0128,0.4033
1946851.0,5.8849,0.2179,1.4389,-0.0921,0.2246,0.4028
1946861.0,5.9927,0.316,1.1516,-0.1474,0.4991,0.414
1946871.0,6.0645,0.2346,1.0367,-0.1751,0.8046,0.4385
1946881.0,5.9544,0.0239,0.8619,-0.1405,1.1334,0.4709
1946891.0,5.873,-0.4381,0.7829,-0.0431,1.5117,0.4901
1946901.0,5.5258,-0.8547,0.7111,0.1144,1.9396,0.4699
1946911.0,5.3606,-1.3096,0.9457,0.3033,2.4307,0.3927
1946921.0,4.8339,-1.5012,1.4748,0.4752,2.9575,0.2607
1946931.0,3.7828,-1.3647,2.478,0.5635,3.4513,0.0857
1946941.0,2.6097,-0.9529,4.142,0.5965,3.8568,-0.108
1946951.0,1.4581,-0.012,5.7916,0.6114,4.1079,-0.2746
1946961.0,0.4357,1.0654,7.2856,0.5433,4.1606,-0.3618
1946971.0,-0.3376,1.8986,8.0517,0.3294,3.9882,-0.357
1946981.0,-0.6464,1.8411,8.2097,-0.025,3.712,-0.2783
1946991.0,-0.8332,0.972,8.0804,-0.3842,3.5114,-0.1756
1947001.0,-0.9792,-0.4142,8.5641,-0.6375,3.4837,-0.108
1947011.0,-1.3001,-1.5443,9.6486,-0.6949,3.538,-0.1139
1947021.0,-1.6616,-1.8435,10.8409,-0.6018,3.5306,-0.1884
1947031.0,-1.9154,-1.5443,11.8321,-0.4539,3.4034,-0.2804
1947041.0,-2.2817,-0.9529,12.2439,-0.2363,3.2134,-0.3267
1947051.0,-2.6264,-0.3112,11.6741,0.0048,2.9852,-0.3134
1947061.0,-3.1364,0.0503,10.6638,0.1261,2.7957,-0.2655
1947071.0,-3.4931,0.237,9.6798,0.158,2.7377,-0.2043
1947081.0,-3.8858,0.4812,9.2512,0.1527,2.8553,-0.1325
1947091.0,-4.4317,0.4238,10.2424,0.0883,3.073,-0.0372
1947101.0,-5.1571,0.3089,11.7483,0.0213,3.1826,0.0702
1947111.0,-5.7221,0.1293,13.1801,-0.0867,3.0969,0.1985
1947121.0,-5.794,-0.7901,15.0595,-0.1756,2.9128,0.3565
1947131.0,-5.5785,-2.1524,16.2135,-0.0011,2.685,0.506
1947141.0,-5.2241,-3.3136,16.915,0.3986,2.5259,0.5635
1947151.0,-5.1643,-3.5985,17.4011,0.8077,2.4206,0.4954
1947161.0,-5.5929,-3.1125,18.1409,0.9865,2.27,0.3272
1947171.0,-6.0813,-2.0279,18.6532,0.8163,1.9513,0.125
1947181.0,-6.4069,-1.1732,19.3284,0.2634,1.4479,-0.0559
1947191.0,-6.6702,-0.747,19.7977,-0.4464,0.8221,-0.1852
1947201.0,-6.6559,-0.917,20.0658,-0.945,0.2277,-0.2293
1947211.0,-6.3997,-1.0702,19.4194,-0.9764,-0.2283,-0.1889
1947221.0,-6.1627,-1.1037,18.3396,-0.6689,-0.4683,-0.1086
1947231.0,-5.8682,-1.1253,17.8751,-0.1628,-0.4911,0.0037
1947241.0,-5.7724,-0.7614,17.267,0.3837,-0.4746,0.124
1947251.0,-5.5426,-0.4453,17.0539,0.6066,-0.5741,0.2123
1947261.0,-5.1284,-0.4453,17.1545,0.5108,-0.8221,0.2586
1947271.0,-4.8602,-0.5914,16.745,0.2804,-1.176,0.2788
1947281.0,-4.4652,-1.1037,16.453,-0.0921,-1.5665,0.265
1947291.0,-4.0223,-1.8316,16.2183,-0.4273,-1.9693,0.2187
1947301.0,-3.5578,-2.2075,15.2487,-0.564,-2.3509,0.1442
1947311.0,-3.146,-2.1739,13.8217,-0.5587,-2.6377,0.0559
1947321.0,-2.6576,-1.913,12.4546,-0.506,-2.8127,-0.0287
1947331.0,-2.2817,-1.5969,11.2551,-0.4172,-2.8814,-0.0899
1947341.0,-1.9537,-1.166,10.1873,-0.2852,-2.8942,-0.1266
1947351.0,-1.4916,-0.7614,8.9735,-0.1447,-2.8782,-0.1293
1947361.0,-0.8906,-0.5602,7.75,-0.0202,-2.8085,-0.1043
1947371.0,-0.2849,-0.5363,6.7086,0.1192,-2.6249,-0.0729
1947381.0,0.2203,-0.5243,5.928,0.2959,-2.3413,-0.049
1947391.0,0.4908,-0.5459,5.7748,0.4848,-2.0055,-0.0341
1947401.0,0.8284,-0.3855,5.6575,0.7066,-1.6932,-0.0218
1947411.0,1.2426,-0.3472,5.5306,0.9402,-1.4149,0.0037
1947421.0,1.7597,-0.3807,5.2768,1.1212,-1.1691,0.0309
1947431.0,2.1117,-0.4405,5.0733,1.1951,-0.9402,0.0298
1947441.0,2.1835,-0.4669,5.0781,1.1925,-0.7162,-0.0048
1947451.0,2.2458,-0.4166,5.2601,1.1802,-0.4986,-0.0596
1947461.0,2.2745,-0.3089,5.4468,1.1813,-0.2975,-0.1171
1947471.0,2.1859,-0.0934,5.6599,1.1685,-0.1203,-0.1788
1947481.0,1.8938,0.3615,5.5665,1.094,0.0016,-0.2341
1947491.0,2.1308,0.5076,5.6767,0.9062,0.0825,-0.2831
1947501.0,2.1524,0.5626,5.8849,0.6838,0.1767,-0.3528
1947511.0,1.8794,0.5555,6.4787,0.5922,0.3432,-0.4103
1947521.0,1.7286,0.7135,6.6942,0.6683,0.4869,-0.4459
1947531.0,1.5993,0.9242,6.8498,0.6907,0.5795,-0.4959
1947541.0,1.5754,1.1588,6.9216,0.6002,0.6114,-0.5566
1947551.0,1.4341,1.4341,6.6535,0.4246,0.6114,-0.6258
1947561.0,1.0534,1.7909,6.2034,0.1517,0.6327,-0.6981
1947571.0,0.7781,2.1644,5.5976,-0.2325,0.6604,-0.7726
1947581.0,0.5339,2.5905,5.4899,-0.7242,0.7652,-0.8445
1947591.0,0.079,2.9329,6.1004,-1.1116,0.9573,-0.8599
1947601.0,-0.3017,3.2441,6.9695,-1.2792,1.1377,-0.7918
1947611.0,-0.8595,3.2872,7.8147,-1.2169,1.268,-0.6508
1947621.0,-0.8763,3.4309,7.7189,-0.9073,1.3462,-0.4597
1947631.0,-0.9912,3.292,8.1259,-0.4438,1.5777,-0.2629
1947641.0,-1.0846,3.3471,8.7101,0.2235,1.9124,-0.0665
1947651.0,-1.5538,3.7397,9.244,0.8445,2.2248,0.1054
1947661.0,-2.2362,4.027,10.3406,1.0855,2.3322,0.2315
1947671.0,-2.6719,4.2042,10.8146,1.003,2.1801,0.332
1947681.0,-2.8539,4.1372,10.75,0.6598,1.9156,0.4172
1947691.0,-2.9568,3.4069,11.2384,0.1761,1.7097,0.4959
1947701.0,-3.0765,2.0973,12.2463,-0.1208,1.5825,0.5848
1947711.0,-2.9018,0.8021,13.1418,-0.1293,1.4899,0.6572
1947721.0,-3.0406,-0.5674,13.9989,0.041,1.4037,0.687
1947731.0,-3.1316,-1.5275,14.2766,0.3395,1.2898,0.6678
1947741.0,-3.1244,-2.2865,14.6884,0.5651,1.2169,0.5779
1947751.0,-3.3519,-2.387,15.1337,0.687,1.1142,0.4289
1947761.0,-3.5434,-2.1907,15.5599,0.622,0.9062,0.2703
1947771.0,-3.6775,-2.2769,16.0196,0.422,0.6258,0.1453
1947781.0,-3.7397,-2.6025,16.1872,0.281,0.3241,0.0676
1947791.0,-3.7565,-3.2441,16.1393,0.2735,0.0921,0.0223
1947801.0,-3.6033,-4.1348,15.9789,0.4135,-0.0521,-0.0202
1947811.0,-3.4429,-4.968,15.8089,0.6231,-0.1133,-0.1197
1947821.0,-3.4237,-5.1547,15.8329,0.7662,-0.1485,-0.3001
1947831.0,-3.632,-4.9608,16.1489,0.6902,-0.273,-0.5353
1947841.0,-3.7206,-4.8698,16.4913,0.4438,-0.5385,-0.7838
1947851.0,-3.5362,-4.865,16.3189,0.1612,-0.8599,-1.0334
1947861.0,-3.6033,-4.7597,16.1202,-0.107,-1.1339,-1.2914
1947871.0,-3.6799,-4.4867,15.9023,-0.3038,-1.3665,-1.5442
1947881.0,-3.9385,-4.2497,15.6222,-0.389,-1.5442,-1.7773
1947891.0,-3.8116,-4.0031,15.105,-0.3922,-1.6607,-1.9906
1947901.0,-4.0845,-3.7924,15.3205,-0.4369,-1.7171,-2.2221
1947911.0,-4.2018,-3.3543,15.5072,-0.4544,-1.8087,-2.4504
1947921.0,-4.3407,-2.8922,15.9406,-0.5295,-1.9481,-2.6755
1947931.0,-4.8459,-2.2936,16.5583,-0.646,-2.1657,-2.8899
1947941.0,-5.1308,-1.6328,16.8049,-0.6939,-2.4541,-3.0554
1947951.0,-5.2912,-1.3455,17.0826,-0.6588,-2.7409,-3.1666
1947961.0,-5.6886,-0.929,17.1377,-0.4794,-3.0378,-3.2485
1947971.0,-6.0214,-0.2227,16.9964,-0.1426,-3.3188,-3.281
1947981.0,-6.0813,0.6847,16.3979,0.281,-3.6146,-3.2496
1947991.0,-6.1842,1.7166,15.2702,0.6662,-3.9366,-3.1645
1948001.0,-5.8754,2.7749,13.398,0.853,-4.3101,-3.0463
1948011.0,-5.466,3.5937,11.4443,0.7508,-4.6586,-2.9335
1948021.0,-5.0182,4.1779,8.9926,0.3943,-5.0045,-2.8362
1948031.0,-3.8355,3.9792,6.778,-0.1373,-5.2211,-2.792
1948041.0,-2.885,4.3024,4.8746,-0.6151,-5.1993,-2.8266
1948051.0,-2.1931,5.1691,2.9353,-1.0834,-5.0577,-2.8851
1948061.0,-1.3599,6.0286,1.81,-1.6192,-4.8273,-2.9362
1948071.0,-0.2586,6.9312,0.8116,-1.9944,-4.4916,-2.9224
1948081.0,0.5555,7.7812,0.1293,-2.1614,-4.0233,-2.8213
1948091.0,1.4126,8.5712,-0.589,-2.1194,-3.4944,-2.6324
1948101.0,2.1308,9.0836,-0.8068,-1.9566,-2.917,-2.3828
1948111.0,2.7246,9.5385,-0.9529,-1.5782,-2.2695,-2.0657
1948121.0,3.1149,9.8114,-0.9505,-1.1089,-1.6251,-1.6958
1948131.0,3.2777,9.6774,-0.9361,-0.6689,-1.0557,-1.2909
1948141.0,3.3519,9.0357,-1.0127,-0.2639,-0.5204,-0.8828
1948151.0,3.7445,8.0325,-0.8882,0.0772,0.0357,-0.5124
1948161.0,3.7565,7.1371,-0.5938,0.274,0.5736,-0.2336
1948171.0,3.6727,6.359,0.0575,0.2432,1.0142,-0.0426
1948181.0,3.553,5.5689,1.0391,0.0431,1.3457,0.0734
1948191.0,3.2872,5.035,2.138,-0.2017,1.5825,0.1421
1948201.0,3.0574,4.6088,3.1891,-0.4156,1.7373,0.191
1948211.0,2.8802,4.2641,3.9025,-0.5406,1.8172,0.2464
1948221.0,2.8228,3.948,4.0462,-0.5949,1.8363,0.3102
1948231.0,2.7485,3.699,3.7493,-0.6194,1.8661,0.3751
1948241.0,2.6288,3.5985,3.3232,-0.6119,1.9592,0.4385
1948251.0,2.2434,3.7948,2.818,-0.5678,2.1146,0.5119
1948261.0,1.7095,4.0821,2.2434,-0.5108,2.3099,0.6167
1948271.0,1.0918,4.3838,1.6376,-0.4566,2.5499,0.7604
1948281.0,0.2203,4.6519,1.2474,-0.3826,2.8628,0.936
1948291.0,-0.9146,4.7214,0.6512,-0.2794,3.2496,1.152
1948301.0,-1.6999,4.1204,0.3448,-0.2746,3.6934,1.3862
1948311.0,-2.6815,3.1627,0.5315,-0.4113,4.1728,1.5766
1948321.0,-3.4093,2.0901,1.549,-0.6561,4.6145,1.6969
1948331.0,-4.1396,1.0463,2.8587,-0.9009,4.9556,1.7645
1948341.0,-4.6878,0.0239,4.1108,-1.1111,5.1535,1.789
1948351.0,-5.1954,-0.668,5.0542,-1.284,5.1987,1.7687
1948361.0,-6.0621,-0.8021,5.3032,-1.359,5.1886,1.731
1948371.0,-7.5322,-0.5602,4.9704,-1.3718,5.1886,1.7219
1948381.0,-8.8059,-0.7661,4.5897,-1.3558,5.2791,1.7815
1948391.0,-9.9216,-2.0111,4.695,-1.2611,5.5441,1.8991
1948401.0,-10.3262,-4.379,6.1531,-1.0217,5.957,1.9853
1948411.0,-10.1227,-6.8187,8.6239,-0.5023,6.3784,1.9161
1948421.0,-9.9814,-8.1163,10.7955,0.2884,6.7057,1.6394
1948431.0,-10.0197,-7.9392,12.7443,1.0717,6.8818,1.1978
1948441.0,-10.2855,-6.5074,14.437,1.5612,6.8238,0.6795
1948451.0,-10.9607,-4.3191,15.931,1.5564,6.4928,0.1751
1948461.0,-11.5831,-2.3439,17.2478,1.0451,5.9245,-0.2522
1948471.0,-11.9997,-1.0511,18.4976,0.1256,5.1753,-0.6018
1948481.0,-12.2894,-0.3759,20.1472,-0.9706,4.3607,-0.8689
1948491.0,-12.3613,0.0048,21.4185,-1.814,3.5157,-1.0185
1948501.0,-11.9495,0.34,21.6292,-2.3466,2.659,-1.0717
1948511.0,-11.7412,0.5483,21.5718,-2.6441,1.88,-1.0525
1948521.0,-11.6885,0.8691,20.9325,-2.5722,1.2292,-0.9397
1948531.0,-11.5329,0.9074,20.073,-2.2061,0.7391,-0.7482
1948541.0,-11.1642,0.893,18.8735,-1.6442,0.3815,-0.5177
1948551.0,-10.5321,0.7709,17.911,-1.003,0.1602,-0.2783
1948561.0,-10.0054,0.814,16.7235,-0.3932,0.0117,-0.0633
1948571.0,-9.6319,1.1684,15.6078,0.016,-0.1266,0.0937
1948581.0,-9.4379,1.6305,14.4801,0.1857,-0.2453,0.2107
1948591.0,-9.5098,2.0231,13.6877,0.0958,-0.2714,0.299
1948601.0,-9.8162,1.8555,14.3269,-0.2442,-0.2921,0.3688
1948611.0,-10.0868,1.3336,15.2367,-0.5944,-0.4438,0.4289
1948621.0,-10.0892,0.6201,16.0052,-0.8344,-0.7013,0.4688
1948631.0,-9.8689,0.0982,16.1465,-0.9147,-0.9743,0.4864
1948641.0,-9.6414,-0.091,16.3117,-0.9019,-1.1797,0.4837
1948651.0,-9.7851,-0.0862,16.7905,-0.861,-1.3564,0.4725
1948661.0,-10.3525,0.3448,17.1066,-0.8647,-1.6155,0.4581
1948671.0,-11.1259,0.68,17.4226,-1.0004,-2.0071,0.4672
1948681.0,-11.576,0.7494,17.2215,-1.1738,-2.494,0.5119
1948691.0,-11.5185,0.4741,17.0635,-1.2712,-2.9101,0.5837
1948701.0,-11.6334,0.1221,17.1377,-1.2122,-3.2081,0.6779
1948711.0,-11.892,0.0048,17.3699,-1.0834,-3.521,0.7758
1948721.0,-12.2344,-0.3112,17.7386,-0.9333,-3.9339,0.8945
1948731.0,-12.3373,-0.9026,17.4705,-0.6513,-4.3968,1.044
1948741.0,-12.3996,-1.5443,16.6205,-0.2778,-4.8289,1.202
1948751.0,-12.4355,-2.2051,15.67,0.0575,-5.2328,1.3319
1948761.0,-12.3517,-2.6121,14.3006,0.3507,-5.6308,1.4245
1948771.0,-12.1051,-2.9664,12.3493,0.6236,-5.9421,1.4984
1948781.0,-11.6238,-3.2465,10.6231,0.712,-6.1129,1.524
1948791.0,-11.1618,-3.5147,9.4954,0.6284,-6.1965,1.492
1948801.0,-10.6374,-3.6416,8.8657,0.4853,-6.2699,1.408
1948811.0,-10.1562,-3.0047,7.7141,0.3608,-6.3736,1.3
1948821.0,-9.6247,-2.3463,6.7516,0.1655,-6.4875,1.2111
1948831.0,-8.9567,-1.7861,5.4923,0.0388,-6.5812,1.1882
1948841.0,-7.7883,-1.5443,3.8307,0.0617,-6.6184,1.2398
1948851.0,-6.1411,-1.6903,1.8148,0.1963,-6.4896,1.3361
1948861.0,-4.4508,-2.2553,0.5243,0.3858,-6.1507,1.4255
1948871.0,-2.4421,-2.7797,-0.8212,0.705,-5.6654,1.4942
1948881.0,-0.9888,-3.1771,-1.8387,0.9642,-5.0886,1.5117
1948891.0,0.2658,-3.5338,-2.3511,1.0727,-4.5059,1.4649
1948901.0,1.3384,-3.6464,-2.4373,1.1387,-3.9052,1.3734
1948911.0,2.1715,-3.5171,-2.6384,1.1542,-3.3454,1.2638
1948921.0,3.0287,-3.5721,-2.5738,1.0392,-2.8468,1.1451
1948931.0,3.7948,-3.6368,-2.4253,0.8955,-2.3823,1.0131
1948941.0,4.3598,-3.6105,-2.2721,0.8125,-1.9108,0.8711
1948951.0,4.6448,-3.4117,-1.9058,0.7907,-1.4436,0.7274
1948961.0,4.8315,-3.1125,-1.482,0.8423,-0.9919,0.5965
1948971.0,4.8842,-2.6959,-1.1349,0.9477,-0.5736,0.4922
1948981.0,4.774,-2.3176,-1.0918,1.0254,-0.2139,0.414
1948991.0,4.6831,-2.1476,-1.1923,1.06,0.1086,0.3581
1949001.0,4.5538,-2.1596,-1.4222,1.0642,0.4539,0.3108
1949011.0,4.5179,-2.4229,-1.5778,1.0296,0.8418,0.2607
1949021.0,4.446,-2.9544,-1.6065,0.945,1.234,0.1841
1949031.0,4.5107,-3.5099,-1.6616,0.8141,1.6261,0.049
1949041.0,4.3862,-3.984,-1.6688,0.6524,2.0571,-0.1442
1949051.0,4.0007,-4.1252,-1.3001,0.4262,2.5206,-0.4012
1949061.0,3.0885,-3.8164,-0.3567,0.1442,2.991,-0.6907
1949071.0,2.0494,-3.0981,1.1301,-0.2001,3.3752,-0.9541
1949081.0,1.075,-2.5977,2.8635,-0.5821,3.588,-1.1377
1949091.0,0.3352,-2.3128,4.0462,-0.9227,3.6269,-1.2425
1949101.0,-0.5052,-2.2075,4.5226,-1.2132,3.5753,-1.2946
1949111.0,-1.0918,-2.1045,4.3574,-1.4798,3.5167,-1.3154
1949121.0,-1.9537,-2.1668,4.2258,-1.6666,3.5561,-1.3026
1949131.0,-2.8156,-2.5474,3.7709,-1.6517,3.7338,-1.2356
1949141.0,-3.6392,-3.6919,3.96,-1.5277,4.0739,-1.1547
1949151.0,-3.8499,-5.3415,4.719,-1.2611,4.482,-1.1302
1949161.0,-4.4556,-6.5003,5.794,-0.8024,4.929,-1.2292
1949171.0,-5.3415,-6.6415,6.7086,-0.2607,5.319,-1.4356
1949181.0,-6.5027,-5.9089,7.2856,0.1086,5.5265,-1.6942
1949191.0,-7.4651,-4.8291,7.4891,0.1197,5.5361,-1.9598
1949201.0,-8.3893,-3.6392,7.4196,-0.2166,5.4281,-2.1934
1949211.0,-9.0764,-2.375,7.5034,-0.8333,5.2796,-2.3525
1949221.0,-9.8162,-1.8411,8.746,-1.5974,5.1461,-2.402
1949231.0,-10.3813,-1.5874,10.0437,-2.1162,4.946,-2.3158
1949241.0,-10.4555,-1.6233,10.9774,-2.2285,4.7289,-2.1194
1949251.0,-10.4914,-2.0016,11.5353,-1.9396,4.5975,-1.8533
1949261.0,-10.1442,-2.9856,12.2631,-1.3367,4.5522,-1.5804
1949271.0,-9.8521,-3.8762,12.3182,-0.5348,4.474,-1.3957
1949281.0,-9.5553,-4.3335,11.7675,0.2325,4.3873,-1.3484
1949291.0,-9.2464,-4.2449,11.3557,0.8152,4.3192,-1.4186
1949301.0,-9.1889,-3.5099,11.5831,1.1393,4.2707,-1.5713
1949311.0,-9.6486,-2.6863,12.469,1.2489,4.1537,-1.7373
1949321.0,-9.7827,-1.415,12.5217,1.2388,3.8764,-1.8816
1949331.0,-10.0245,-0.3663,12.4834,0.9605,3.5455,-1.9986
1949341.0,-10.3166,0.5674,12.7874,0.505,3.215,-2.0774
1949351.0,-10.635,1.2594,13.2351,0.0543,2.9011,-2.0944
1949361.0,-10.963,1.8148,13.7307,-0.2751,2.6121,-2.0444
1949371.0,-11.0157,2.3583,14.2599,-0.4395,2.3557,-1.9262
1949381.0,-11.3701,2.7869,14.8441,-0.4326,2.1609,-1.7331
1949391.0,-11.5831,2.8108,15.8185,-0.2352,1.9944,-1.4601
1949401.0,-11.3916,2.4995,16.4482,0.1596,1.7847,-1.1419
1949411.0,-10.9918,2.0973,16.3644,0.6332,1.5123,-0.8434
1949421.0,-10.6829,1.8675,15.6677,0.9743,1.2388,-0.6103
1949431.0,-10.2496,1.6281,15.1314,1.0477,0.9844,-0.4544
1949441.0,-9.8881,1.5155,14.935,0.9583,0.7471,-0.3576
1949451.0,-9.6702,1.4269,14.8464,0.7811,0.5002,-0.2927
1949461.0,-9.5864,1.3958,14.7507,0.539,0.2182,-0.2453
1949471.0,-9.4068,1.324,14.5089,0.2889,-0.0952,-0.2027
1949481.0,-9.2081,1.245,14.0707,0.1096,-0.373,-0.1548
1949491.0,-8.8562,1.2378,13.5488,0.0,-0.5944,-0.1022
1949501.0,-8.6431,1.3288,13.0963,-0.0862,-0.77,-0.0468
1949511.0,-8.4922,1.4988,12.6869,-0.1697,-0.9392,0.0181
1949521.0,-8.3582,1.6233,12.2679,-0.223,-1.1238,0.1022
1949531.0,-8.0062,1.7957,11.4922,-0.2336,-1.3031,0.2011
1949541.0,-7.6136,1.8699,10.4938,-0.24,-1.4394,0.3118
1949551.0,-7.3382,2.0111,9.5816,-0.2618,-1.5234,0.4193
1949561.0,-7.1419,2.1835,8.8083,-0.3049,-1.5676,0.5263
1949571.0,-6.9599,2.4038,8.0637,-0.3251,-1.5751,0.6486
1949581.0,-6.8283,2.5474,7.4819,-0.3225,-1.5314,0.7918
1949591.0,-6.7924,2.6049,7.2065,-0.2969,-1.4548,0.9472
1949601.0,-6.8235,2.6169,6.9911,-0.2224,-1.3792,1.1174
1949611.0,-6.869,2.5522,6.7876,-0.1016,-1.2962,1.2994
1949621.0,-6.9599,2.4469,6.62,0.0362,-1.1893,1.4894
1949631.0,-7.0533,1.8962,7.1467,0.1963,-1.069,1.6879
1949641.0,-7.039,1.5802,6.9552,0.514,-0.9754,1.8874
1949651.0,-7.288,1.4413,6.6343,0.7705,-0.8764,2.0651
1949661.0,-7.4867,1.2091,6.4141,0.8711,-0.7881,2.2359
1949671.0,-7.6662,0.6991,6.4045,0.8695,-0.704,2.4009
1949681.0,-8.0014,-0.0048,6.4045,0.8077,-0.6284,2.5483
1949691.0,-8.3749,-1.1372,6.7876,0.7317,-0.5401,2.6765
1949701.0,-8.5736,-2.5881,7.5106,0.737,-0.4342,2.768
1949711.0,-8.4731,-4.1156,8.3845,0.8743,-0.3102,2.8021
1949721.0,-8.2073,-5.5713,9.4523,1.144,-0.1905,2.7574
1949731.0,-7.9128,-6.1555,9.8258,1.5447,-0.1197,2.6387
1949741.0,-8.1187,-6.1986,10.094,1.8635,-0.0197,2.478
1949751.0,-8.4563,-6.1531,10.6326,2.0231,0.0809,2.3072
1949761.0,-8.5521,-6.256,11.5999,2.0481,0.1761,2.121
1949771.0,-8.8777,-6.4955,12.9598,1.8688,0.1916,1.8768
1949781.0,-9.3015,-6.4907,14.3676,1.4628,0.0085,1.5506
1949791.0,-9.5672,-6.5769,15.931,0.8796,-0.3246,1.1616
1949801.0,-9.6726,-6.6655,17.8584,0.3991,-0.7077,0.763
1949811.0,-9.9144,-6.4955,18.9884,0.149,-1.1589,0.3863
1949821.0,-9.8809,-6.505,20.3292,-0.0197,-1.6389,0.0165
1949831.0,-10.3813,-5.9209,21.1312,0.0154,-2.1306,-0.34
1949841.0,-11.0492,-5.0087,21.3539,0.0718,-2.6861,-0.654
1949851.0,-11.4826,-4.549,21.543,0.0144,-3.3454,-0.945
1949861.0,-11.8274,-3.7996,20.9828,0.0197,-4.0105,-1.2052
1949871.0,-12.2799,-3.3399,20.3627,0.0309,-4.6129,-1.4186
1949881.0,-12.6701,-3.0263,19.3811,0.0596,-5.2392,-1.6059
1949891.0,-12.4834,-2.6145,17.9805,0.1703,-5.8202,-1.7666
1949901.0,-12.4762,-1.9082,15.4809,0.331,-6.3274,-1.8964
1949911.0,-12.2607,-1.1037,12.6773,0.2751,-6.7456,-2.0135
1949921.0,-11.6669,-0.8188,10.5082,0.016,-7.0329,-2.1269
1949931.0,-10.5704,-0.7685,8.8729,-0.1506,-7.133,-2.228
1949941.0,-9.6678,-0.2514,6.9815,-0.1793,-7.1404,-2.3307
1949951.0,-8.6694,0.6033,4.6519,-0.2198,-7.1314,-2.4435
1949961.0,-7.422,1.9441,2.6217,-0.3629,-6.9813,-2.5515
1949971.0,-6.0478,3.3016,1.0822,-0.5981,-6.7057,-2.6132
1949981.0,-4.7453,4.7884,-0.34,-0.8716,-6.3534,-2.6063
1949991.0,-3.6464,5.1451,-0.7326,-1.251,-5.8841,-2.536
1950001.0,-2.2697,5.3199,-0.8188,-1.4037,-5.4978,-2.4259
1950011.0,-0.9697,5.9352,-2.0901,-1.1946,-5.0348,-2.2647
1950021.0,0.2634,6.1579,-2.7078,-1.0711,-4.4719,-2.0885
1950031.0,1.5562,6.2513,-3.0358,-0.9759,-3.9334,-1.9183
1950041.0,2.3727,6.3111,-3.0071,-0.8232,-3.3592,-1.7581
1950051.0,2.909,6.4548,-2.7366,-0.5922,-2.7755,-1.5894
1950061.0,3.3016,6.6535,-2.3894,-0.3757,-2.2572,-1.4191
1950071.0,3.6224,6.7445,-1.8818,-0.2293,-1.8235,-1.2542
1950081.0,3.9576,6.8546,-1.6161,-0.1107,-1.4644,-1.0914
1950091.0,4.1324,6.8474,-1.2426,-0.0559,-1.1653,-0.9285
1950101.0,4.2856,6.7253,-0.9984,-0.0282,-0.9259,-0.7641
1950111.0,4.5514,6.4524,-0.9433,0.0106,-0.7306,-0.6055
1950121.0,4.7477,6.2489,-1.1229,0.0894,-0.5406,-0.4661
1950131.0,4.8554,6.2704,-1.652,0.1878,-0.3161,-0.3443
1950141.0,4.6831,6.4069,-2.1308,0.2022,-0.0644,-0.2347
1950151.0,4.5777,6.4691,-2.4948,0.1442,0.2065,-0.1208
1950161.0,4.2425,6.462,-2.9377,0.0319,0.505,-0.0016
1950171.0,4.1396,6.3207,-3.0718,-0.1149,0.8524,0.1123
1950181.0,4.0294,6.2417,-3.1149,-0.2432,1.2542,0.2235
1950191.0,3.8618,6.0214,-2.7773,-0.3837,1.6602,0.3267
1950201.0,3.4931,5.9089,-2.5977,-0.4608,2.0673,0.4204
1950211.0,3.0311,5.9759,-2.3607,-0.5108,2.478,0.5082
1950221.0,2.2745,6.2106,-2.0853,-0.5321,2.9069,0.6034
1950231.0,1.3168,6.4548,-1.7262,-0.5252,3.3624,0.7306
1950241.0,-0.0407,6.608,-1.0343,-0.5071,3.8312,0.8918
1950251.0,-1.4461,6.608,-0.5363,-0.5044,4.2393,1.085
1950261.0,-2.5714,6.2369,-0.0718,-0.564,4.5996,1.2898
1950271.0,-3.4237,5.7006,0.5507,-0.6364,4.9689,1.4787
1950281.0,-4.2593,5.387,1.2402,-0.7109,5.3286,1.6315
1950291.0,-5.4037,5.3893,2.2769,-0.8056,5.6558,1.748
1950301.0,-6.6846,5.9687,3.0957,-0.9057,5.8974,1.8698
1950311.0,-8.2839,6.505,3.814,-1.1201,6.032,2.046
1950321.0,-10.6757,6.6319,4.6304,-1.4165,6.0991,2.3227
1950331.0,-12.5624,5.6144,6.0717,-1.6724,6.1555,2.7154
1950341.0,-12.9407,3.7086,7.4029,-1.7405,6.172,3.1384
1950351.0,-12.9431,1.6113,8.7747,-1.6591,6.1651,3.4508
1950361.0,-13.0388,-0.012,10.1849,-1.4085,6.1762,3.6077
1950371.0,-13.4434,-0.5483,11.4706,-0.9727,6.2603,3.6269
1950381.0,-14.8321,0.1987,12.6486,-0.5225,6.3869,3.595
1950391.0,-16.2494,0.4046,14.6741,-0.3421,6.3492,3.637
1950401.0,-16.453,-0.589,16.7834,-0.3411,6.056,3.7588
1950411.0,-15.7155,-2.2793,18.3468,-0.4981,5.5063,3.8365
1950421.0,-14.7363,-4.3383,19.4601,-0.7705,4.8204,3.786
1950431.0,-13.635,-5.9161,20.0874,-0.9887,4.0584,3.6136
1950441.0,-13.0915,-6.7612,20.0969,-0.9535,3.3486,3.3826
1950451.0,-12.4642,-7.3694,19.2135,-0.6359,2.7287,3.1458
1950461.0,-11.5975,-7.6207,17.1209,-0.1676,2.2492,2.8676
1950471.0,-10.9056,-7.4029,15.0883,0.2421,2.0289,2.5201
1950481.0,-10.5249,-6.9815,13.5368,0.4778,2.0369,2.1162
1950491.0,-10.6542,-6.1124,12.7563,0.4135,2.1247,1.6543
1950501.0,-11.0325,-5.2696,13.0939,-0.0016,2.1407,1.1898
1950511.0,-11.1354,-5.2888,14.3245,-0.5976,2.0156,0.7764
1950521.0,-11.0038,-5.6144,15.4761,-1.0536,1.782,0.4092
1950531.0,-10.8936,-5.7581,16.4745,-1.2744,1.5389,0.0798
1950541.0,-10.8098,-5.7461,17.7937,-1.3069,1.3218,-0.2038
1950551.0,-10.7811,-5.5905,18.8879,-1.1494,1.0397,-0.4326
1950561.0,-10.5704,-5.035,19.2853,-0.9349,0.6433,-0.6279
1950571.0,-10.398,-4.3072,19.1416,-0.821,0.166,-0.7939
1950581.0,-10.2424,-3.814,18.4377,-0.845,-0.3517,-0.9275
1950591.0,-9.9838,-3.7278,17.1521,-1.0243,-0.8689,-1.0536
1950601.0,-9.7109,-4.0294,15.5958,-1.3377,-1.3047,-1.2122
1950611.0,-9.4547,-4.4245,14.4897,-1.7001,-1.5713,-1.4314
1950621.0,-9.4906,-4.6256,14.382,-1.996,-1.6554,-1.6942
1950631.0,-9.73,-4.4843,15.3684,-2.0949,-1.6304,-1.956
1950641.0,-10.1011,-3.869,16.4386,-2.0172,-1.6863,-2.1843
1950651.0,-10.41,-2.9592,17.4178,-1.9396,-1.9066,-2.3796
1950661.0,-10.5465,-1.8268,17.8847,-1.8555,-2.253,-2.519
1950671.0,-10.6781,-0.6249,18.0619,-1.7863,-2.6233,-2.5903
1950681.0,-10.9128,0.5578,18.318,-1.765,-3.0352,-2.5893
1950691.0,-11.1402,1.4078,18.7298,-1.7299,-3.4896,-2.5047
1950701.0,-11.6526,2.0399,18.6508,-1.5453,-3.9871,-2.3269
1950711.0,-11.9758,2.3846,18.0643,-1.2318,-4.483,-2.0657
1950721.0,-12.1051,2.0925,17.7841,-0.762,-4.8901,-1.7304
1950731.0,-12.1362,1.8004,16.8576,-0.099,-5.2546,-1.3452
1950741.0,-12.0404,1.3168,15.5264,0.53,-5.6255,-0.9615
1950751.0,-11.4634,0.9481,13.5584,0.9961,-6.0538,-0.621
1950761.0,-10.738,0.7614,10.8409,1.2201,-6.4902,-0.3448
1950771.0,-10.0389,0.4501,8.3558,1.2201,-6.8419,-0.1219
1950781.0,-8.4396,0.2107,4.6831,1.2329,-6.9861,0.0846
1950791.0,-6.9647,-0.3424,1.9393,0.953,-6.8525,0.2033
1950801.0,-5.5713,-1.2378,0.6249,0.5034,-6.6903,0.2128
1950811.0,-3.6416,-1.4461,-1.8866,0.3235,-6.4109,0.1671
1950821.0,-1.6376,-1.6448,-3.6272,0.107,-5.8602,0.066
1950831.0,-0.1437,-1.5419,-4.4388,-0.1256,-5.1849,-0.0702
1950841.0,1.0367,-1.2785,-4.4532,-0.3336,-4.4756,-0.2065
1950851.0,2.1452,-1.0415,-4.0917,-0.4385,-3.787,-0.3092
1950861.0,3.0191,-0.7901,-3.7493,-0.4023,-3.1278,-0.357
1950871.0,3.6966,-0.6321,-3.2274,-0.2948,-2.5084,-0.3608
1950881.0,4.1396,-0.4932,-2.8706,-0.107,-1.9401,-0.3278
1950891.0,4.4796,-0.498,-2.545,0.1187,-1.4117,-0.2692
1950901.0,4.7046,-0.5555,-2.3727,0.3767,-0.9057,-0.1985
1950911.0,4.7333,-0.565,-2.1979,0.6236,-0.4076,-0.1362
1950921.0,4.537,-0.5602,-1.8028,0.8301,0.0995,-0.0835
1950931.0,4.3048,-0.4597,-1.3862,0.9684,0.5566,-0.0383
1950941.0,3.9504,-0.5602,-1.0032,0.9722,0.9333,-0.0005
1950951.0,3.7948,-0.8068,-0.747,0.8727,1.2462,0.0245
1950961.0,3.7421,-1.1684,-0.3639,0.7008,1.55,0.0181
1950971.0,3.4931,-1.5179,0.1748,0.5108,1.847,-0.0229
1950981.0,3.1915,-1.7526,0.7398,0.34,2.1029,-0.0857
1950991.0,2.9209,-1.9872,1.1061,0.1676,2.3142,-0.1639
1951001.0,2.4924,-2.0806,1.3815,-0.0085,2.5068,-0.2559
1951011.0,1.6783,-1.9489,1.4581,-0.1442,2.7085,-0.3416
1951021.0,0.8068,-1.7789,1.2594,-0.2778,2.924,-0.3991
1951031.0,-0.1484,-1.8364,1.5275,-0.4198,3.2241,-0.4241
1951041.0,-1.0846,-1.9872,1.8579,-0.464,3.5715,-0.4209
1951051.0,-1.7693,-2.4588,2.8635,-0.481,3.9483,-0.4023
1951061.0,-2.3032,-3.1053,4.221,-0.4268,4.2798,-0.3948
1951071.0,-2.8946,-3.4213,5.3056,-0.2708,4.5219,-0.4273
1951081.0,-3.5961,-3.2346,5.9999,-0.1101,4.6714,-0.4965
1951091.0,-4.3,-2.6456,6.3997,-0.0569,4.7433,-0.5773
1951101.0,-5.0422,-1.8771,6.5888,-0.2086,4.7464,-0.6385
1951111.0,-6.1172,-1.166,6.8738,-0.5944,4.6794,-0.6513
1951121.0,-7.0509,-0.9385,6.9911,-1.1552,4.4958,-0.6045
1951131.0,-7.3765,-1.415,6.6391,-1.757,4.2516,-0.5114
1951141.0,-7.671,-2.3535,5.782,-2.2311,4.1308,-0.3986
1951151.0,-7.9607,-3.8307,5.8993,-2.4999,4.2558,-0.2916
1951161.0,-8.509,-5.3295,6.9839,-2.3812,4.5389,-0.2144
1951171.0,-8.691,-6.3087,7.9703,-1.8369,4.8332,-0.1873
1951181.0,-8.8226,-7.015,9.1482,-1.0871,5.1269,-0.2277
1951191.0,-9.0453,-6.9408,9.7516,-0.2937,5.3158,-0.3565
1951201.0,-9.6103,-6.0238,10.3573,0.2857,5.4153,-0.5667
1951211.0,-10.1801,-4.6807,11.1666,0.5103,5.3499,-0.7944
1951221.0,-10.5082,-3.4788,11.6909,0.3906,5.0992,-0.986
1951231.0,-10.7284,-2.4924,11.8058,0.0,4.7417,-1.1313
1951241.0,-11.0804,-1.9489,12.2511,-0.6119,4.3835,-1.2276
1951251.0,-11.1642,-2.0399,13.2447,-1.2744,4.0159,-1.2659
1951261.0,-10.9439,-2.7126,14.2192,-1.7831,3.6322,-1.2494
1951271.0,-10.9559,-3.5841,15.3995,-2.0273,3.2853,-1.2143
1951281.0,-10.0006,2.0542,16.1345,-2.0518,2.8016,-1.1664
1951291.0,-7.4388,-7.4029,22.1081,-2.6462,2.163,-1.1132
1951301.0,-6.4859,-3.0502,13.4722,-0.2645,1.9736,-0.9019
1951311.0,-9.73,-2.9712,16.1417,0.0043,2.1316,-0.8716
1951321.0,-10.2831,-2.2218,16.6636,0.5146,1.7491,-0.7764
1951332.0,-9.5289,-0.0215,13.8936,1.2877,1.326,-0.6247
1951341.0,-8.8322,0.498,11.7699,1.0956,0.9248,-0.506
1951351.0,-8.8155,0.6057,10.5776,0.4709,0.6651,-0.4321
1951361.0,-9.256,0.4597,10.2951,-0.1857,0.5598,-0.373
1951371.0,-9.8426,0.1413,10.7715,-0.6678,0.5257,-0.2831
1951381.0,-10.3022,-0.431,11.6095,-0.8455,0.5396,-0.1362
1951391.0,-10.4411,-1.3599,12.8808,-0.6784,0.596,0.0633
1951401.0,-10.7093,-2.0111,14.0564,-0.282,0.6199,0.273
