time_ms,ax,ay,az,gx,gy,gz
1851961.0,4.889,1.8507,9.232,-0.1091,0.0633,-0.0186
1851971.0,4.8746,1.7693,9.3015,-0.0905,0.0654,-0.0122
1851981.0,4.9153,1.7214,9.2153,-0.0676,0.0511,-0.0122
1851991.0,4.9009,1.6999,9.2632,-0.0532,0.0458,-0.0138
1852001.0,4.944,1.7286,9.1004,-0.0319,0.0463,-0.0138
1852011.0,4.9536,1.7142,9.0094,-0.0378,0.0585,-0.0202
1852021.0,4.8937,1.7813,9.1147,-0.0686,0.0681,-0.0341
1852031.0,4.8698,1.8794,9.1339,-0.0803,0.0718,-0.0404
1852041.0,4.8195,1.9154,9.2416,-0.0915,0.0724,-0.0367
1852051.0,4.8387,1.889,9.3518,-0.0952,0.0686,-0.0282
1852061.0,4.8578,1.8866,9.268,-0.0617,0.0548,-0.0154
1852071.0,4.9129,1.8794,9.153,-0.0335,0.0511,-0.0021
1852081.0,4.968,1.8818,9.0764,-0.0383,0.05,0.0037
1852091.0,4.9321,1.8579,9.0525,-0.0788,0.0468,0.0016
1852101.0,4.9704,1.7406,9.019,-0.1341,0.0388,-0.0032
1852111.0,4.9799,1.5897,9.1961,-0.1591,0.0394,-0.0122
1852121.0,4.9392,1.5897,9.1626,-0.132,0.0367,-0.0208
1852131.0,5.0135,1.5538,9.1171,-0.0968,0.0394,-0.0277
1852141.0,4.9728,1.5826,9.074,-0.0617,0.0447,-0.0351
1852151.0,4.9704,1.6616,8.9663,-0.0309,0.0511,-0.0447
1852161.0,4.9704,1.6879,8.9136,-0.0239,0.0702,-0.0527
1852171.0,4.9392,1.834,8.9328,-0.0223,0.1,-0.0596
1852181.0,4.889,1.9417,9.0644,-0.0202,0.1282,-0.0596
1852191.0,4.8794,2.0039,9.2608,-0.0208,0.133,-0.0506
1852201.0,4.889,1.9896,9.268,-0.0357,0.1144,-0.0394
1852211.0,4.8985,1.9321,9.3565,-0.0495,0.0931,-0.0309
1852221.0,4.8746,1.9896,9.3182,-0.0532,0.0761,-0.0277
1852231.0,4.8315,2.0853,9.2512,-0.0623,0.0676,-0.0245
1852241.0,4.8147,2.1284,9.2105,-0.0915,0.0516,-0.0138
1852251.0,4.8123,1.9585,9.3134,-0.1357,0.0399,-0.0032
1852261.0,4.8698,1.7861,9.426,-0.1362,0.0255,0.0021
1852271.0,4.8937,1.7837,9.256,-0.1006,0.0096,0.0032
1852281.0,4.8985,1.7717,9.1913,-0.0819,0.0016,-0.0016
1852291.0,4.9009,1.9225,9.0692,-0.0766,0.0011,-0.009
1852301.0,4.8554,2.0183,8.928,-0.0654,0.0048,-0.0043
1852311.0,4.9273,1.98,8.7388,-0.0516,0.009,0.0096
1852321.0,5.0159,1.8603,8.576,-0.075,0.0341,0.016
1852331.0,5.0206,1.6831,8.8298,-0.107,0.0846,0.0133
1852341.0,4.9728,1.6328,9.1315,-0.0803,0.1304,0.0032
1852351.0,4.9488,1.7813,9.1099,-0.017,0.1517,-0.0074
1852361.0,4.8578,1.9489,9.2656,-0.0016,0.1687,-0.0128
1852371.0,4.7621,2.0494,9.4715,-0.0186,0.1639,-0.0069
1852381.0,4.7238,2.071,9.6127,-0.0436,0.1325,0.0069
1852391.0,4.7285,2.0183,9.6295,-0.0644,0.0857,0.0234
1852401.0,4.8339,1.822,9.6558,-0.0835,0.0468,0.0383
1852411.0,4.8746,1.6328,9.6247,-0.0942,0.0112,0.0426
1852421.0,4.9153,1.561,9.4523,-0.1032,-0.0218,0.0309
1852431.0,4.9201,1.5658,9.2727,-0.1261,-0.0388,0.0106
1852441.0,4.9344,1.6041,9.2991,-0.1548,-0.0325,-0.0064
1852451.0,4.9297,1.6376,9.3685,-0.1548,-0.0245,-0.0149
1852461.0,4.9416,1.6065,9.3518,-0.1277,-0.0245,-0.0138
1852471.0,4.968,1.6137,9.2991,-0.0862,-0.0245,-0.0106
1852481.0,5.0182,1.5897,9.177,-0.042,-0.0218,-0.009
1852491.0,5.0374,1.6472,9.0932,-0.0165,-0.0149,-0.0106
1852501.0,5.0422,1.719,9.0166,-0.0266,-0.0021,-0.0186
1852511.0,5.0326,1.7573,9.0381,-0.0639,0.0032,-0.0239
1852521.0,5.0015,1.7573,9.1674,-0.0984,-0.0005,-0.0293
1852531.0,5.0015,1.7478,9.1387,-0.1059,-0.0117,-0.0277
1852541.0,4.9775,1.731,9.0836,-0.0915,-0.0117,-0.0223
1852551.0,4.9991,1.6496,9.0166,-0.0665,-0.0096,-0.0165
1852561.0,5.0278,1.5682,8.9687,-0.0479,-0.0016,-0.0223
1852571.0,5.0254,1.7166,8.8969,-0.0341,0.0181,-0.0367
1852581.0,4.9416,1.8603,9.007,-0.0383,0.0458,-0.0447
1852591.0,4.9057,1.9417,9.0932,-0.0596,0.0463,-0.0436
1852601.0,4.9033,1.9561,9.2057,-0.0841,0.0325,-0.0388
1852611.0,4.865,1.9513,9.1602,-0.0793,0.0181,-0.0266
1852621.0,4.9392,1.8818,9.1147,-0.0591,0.0186,-0.0149
1852631.0,4.9081,1.8842,9.1387,-0.0351,0.041,-0.009
1852641.0,4.9153,1.9585,9.1722,-0.016,0.0559,-0.0085
1852651.0,4.8578,2.0327,9.3039,-0.0341,0.0623,-0.0059
1852661.0,4.8746,2.0016,9.4212,-0.0729,0.0388,0.0016
1852671.0,4.9081,1.9297,9.4691,-0.1075,0.0043,0.0096
1852681.0,4.968,1.7837,9.5433,-0.1187,-0.025,0.0154
1852691.0,5.0302,1.6975,9.5361,-0.1128,-0.0553,0.0149
1852701.0,5.0542,1.7334,9.3661,-0.1048,-0.0889,0.0064
1852711.0,5.0853,1.7214,9.2009,-0.1155,-0.1011,0.0021
1852721.0,5.0709,1.7119,9.2057,-0.1203,-0.0905,-0.0016
1852731.0,5.0853,1.7334,9.1626,-0.1101,-0.0782,-0.0059
1852741.0,5.1571,1.6688,9.2799,-0.0984,-0.067,-0.0064
1852751.0,5.0949,1.7837,9.4068,-0.0947,-0.0564,-0.0144
1852761.0,4.9991,1.9154,9.5864,-0.0867,-0.0713,-0.0128
1852771.0,5.0063,1.9465,9.5146,-0.0835,-0.1261,0.0011
1852781.0,5.0901,1.889,9.3901,-0.0883,-0.1639,0.0149
1852791.0,5.114,1.6951,9.5912,-0.0772,-0.1708,0.0255
1852801.0,5.1499,1.6951,9.2081,-0.0341,-0.2325,0.0378
1852811.0,5.3463,1.4988,8.7149,-0.0889,-0.3187,0.0303
1852821.0,5.5378,1.2402,8.4635,-0.1852,-0.3544,0.0048
1852831.0,5.6168,1.2474,8.1235,-0.1979,-0.3459,-0.0245
1852841.0,5.7078,1.2977,7.6399,-0.1985,-0.3331,-0.0537
1852851.0,5.7485,1.4126,7.3047,-0.2368,-0.3102,-0.0862
1852861.0,5.849,1.4868,6.8498,-0.2554,-0.2799,-0.0995
1852871.0,5.861,1.5251,6.4404,-0.2538,-0.2091,-0.1048
1852881.0,5.8586,1.5227,6.0597,-0.2368,-0.1181,-0.1022
1852891.0,5.9256,1.4461,5.7844,-0.2038,-0.009,-0.0995
1852901.0,5.952,1.3767,5.5952,-0.1623,0.1139,-0.099
1852911.0,5.9496,1.4174,5.4061,-0.1219,0.2379,-0.1059
1852921.0,5.9304,1.4389,5.3941,-0.0979,0.3469,-0.1144
1852931.0,5.8299,1.5131,5.3582,-0.1011,0.4278,-0.1261
1852941.0,5.715,1.652,5.2625,-0.1208,0.4762,-0.1368
1852951.0,5.5857,1.7286,5.1332,-0.1719,0.4991,-0.1373
1852961.0,5.5569,1.6879,4.628,-0.2682,0.4757,-0.1383
1852971.0,5.3271,1.7071,3.9289,-0.4411,0.4401,-0.1538
1852981.0,5.3606,1.5371,3.0478,-0.6822,0.431,-0.1751
1852991.0,5.1332,1.2617,2.806,-0.9104,0.5231,-0.2102
1853001.0,5.1571,1.0989,2.3679,-1.0052,0.6657,-0.24
1853011.0,5.0853,1.0415,1.98,-1.0701,0.8157,-0.2831
1853021.0,4.7836,1.3623,1.7334,-1.1978,0.9551,-0.3437
1853031.0,4.4796,1.8196,1.6472,-1.3766,1.0765,-0.381
1853041.0,3.9313,2.1739,1.3455,-1.5453,1.1983,-0.3592
1853051.0,3.4213,2.3224,1.0918,-1.6634,1.3627,-0.2847
1853061.0,3.043,2.1931,1.1588,-1.6517,1.6208,-0.1724
1853071.0,2.5881,2.0375,1.3024,-1.4165,1.9507,-0.0372
1853081.0,1.9776,1.992,1.403,-0.9908,2.3158,0.1107
1853091.0,1.1636,2.0135,1.2474,-0.4752,2.6882,0.2661
1853101.0,0.6656,1.6879,1.1803,-0.0043,3.1219,0.414
1853111.0,0.0215,1.0654,2.0782,0.3916,3.6295,0.5055
1853121.0,-0.6895,0.8212,3.2465,0.7822,4.0653,0.5231
1853131.0,-1.3934,1.2905,3.8642,1.0562,4.349,0.481
1853141.0,-2.2913,2.0303,4.3574,0.9908,4.5113,0.4236
1853151.0,-3.2753,2.3248,5.2241,0.6039,4.5975,0.3927
1853161.0,-4.3574,2.1356,6.5673,0.1336,4.6432,0.4001
1853171.0,-5.2792,1.719,7.5489,-0.2639,4.6209,0.4315
1853181.0,-5.7461,1.1205,8.8705,-0.6146,4.6022,0.456
1853191.0,-6.3015,0.735,10.8002,-0.8716,4.5975,0.4619
1853201.0,-7.1323,0.5794,12.6797,-0.9631,4.49,0.4906
1853211.0,-7.7165,0.0838,14.4083,-0.8737,4.2734,0.5635
1853221.0,-7.6782,-0.7015,14.9302,-0.5215,4.0036,0.6513
1853231.0,-7.3574,-1.5802,14.9709,-0.0756,3.8493,0.687
1853241.0,-7.2903,-2.1644,15.1481,0.2081,3.7631,0.6119
1853251.0,-7.4891,-2.2482,16.01,0.2001,3.604,0.4204
1853261.0,-7.8673,-1.3336,16.362,-0.0021,3.3119,0.1836
1853271.0,-8.1355,-0.4717,16.8791,-0.3427,2.9766,0.0112
1853281.0,-8.248,-0.2442,17.8392,-0.5981,2.692,-0.0521
1853291.0,-8.2145,-0.0862,18.3492,-0.5773,2.4147,-0.0346
1853301.0,-8.2217,-0.0335,18.0068,-0.4438,2.1258,0.009
1853311.0,-7.8985,-0.3663,17.6788,-0.4007,1.8741,0.041
1853321.0,-7.5369,-0.7302,17.5495,-0.3805,1.6964,0.042
1853331.0,-7.2832,-0.8332,17.2071,-0.3304,1.5596,0.0133
1853341.0,-7.3454,-0.7685,17.5782,-0.3358,1.4649,-0.0309
1853351.0,-7.1946,-0.6847,18.148,-0.2863,1.325,-0.0511
1853361.0,-7.0437,-0.5818,18.2103,-0.1219,1.1536,-0.041
1853371.0,-6.9767,-0.3496,18.1528,0.0543,0.9855,-0.0165
1853381.0,-6.7756,-0.2418,18.0331,0.1985,0.7992,0.0197
1853391.0,-6.6463,-0.1437,17.5351,0.3129,0.6024,0.0506
1853401.0,-6.4715,0.0503,17.0874,0.3496,0.4321,0.066
1853411.0,-6.2824,0.0742,16.9701,0.2985,0.2873,0.0777
1853421.0,-6.1172,-0.0455,16.8767,0.2118,0.1091,0.0819
1853431.0,-5.9161,-0.1987,16.9222,0.1123,-0.1027,0.0708
1853441.0,-5.6838,-0.3112,16.5607,0.0569,-0.3294,0.058
1853451.0,-5.5306,-0.3567,16.2399,0.017,-0.5374,0.041
1853461.0,-5.4157,-0.4525,15.706,-0.0543,-0.7551,0.017
1853471.0,-5.2337,-0.5914,15.184,-0.1873,-0.986,-0.0277
1853481.0,-5.1164,-0.7446,14.6238,-0.3363,-1.2127,-0.0894
1853491.0,-4.9799,-0.7207,13.8505,-0.4252,-1.3989,-0.157
1853501.0,-4.8842,-0.735,13.1753,-0.4555,-1.508,-0.2155
1853511.0,-4.8028,-0.6728,12.5839,-0.414,-1.5463,-0.2655
1853521.0,-4.7309,-0.5219,12.2152,-0.3251,-1.533,-0.3092
1853531.0,-4.7501,-0.3017,12.0237,-0.1809,-1.4835,-0.3384
1853541.0,-4.81,-0.0431,11.5999,0.041,-1.4186,-0.3432
1853551.0,-4.6687,0.1987,11.3533,0.2219,-1.3212,-0.3395
1853561.0,-4.7525,0.4286,11.6023,0.2996,-1.2185,-0.3427
1853571.0,-4.8626,0.51,12.3158,0.3203,-1.1659,-0.3437
1853581.0,-4.9464,0.5148,12.979,0.3938,-1.1973,-0.3336
1853591.0,-4.9991,0.5339,13.4626,0.4986,-1.2813,-0.3182
1853601.0,-5.047,0.6009,13.8121,0.5859,-1.4186,-0.3108
1853611.0,-5.0925,0.8619,13.7954,0.679,-1.6075,-0.307
1853621.0,-5.1787,1.2641,13.2687,0.7646,-1.8049,-0.2921
1853631.0,-4.9895,1.5634,12.6127,0.7764,-1.9747,-0.2645
1853641.0,-4.7429,1.5012,12.3086,0.6886,-2.1002,-0.2432
1853651.0,-4.7692,1.2665,11.8728,0.5747,-2.22,-0.2341
1853661.0,-4.391,1.1588,11.6741,0.4007,-2.3498,-0.2613
1853671.0,-4.1827,1.2139,11.4443,0.2309,-2.4929,-0.3097
1853681.0,-3.7469,1.3982,11.0732,0.1447,-2.6137,-0.3443
1853691.0,-3.553,1.6041,10.5632,0.1676,-2.6717,-0.3421
1853701.0,-3.0813,1.8555,9.821,0.2421,-2.7047,-0.3113
1853711.0,-2.9113,1.9704,9.1459,0.2575,-2.6978,-0.2692
1853721.0,-2.66,1.9752,8.7125,0.2155,-2.6723,-0.2203
1853731.0,-2.2889,1.8292,8.43,0.1745,-2.6387,-0.1761
1853741.0,-2.0207,1.6305,8.2791,0.2118,-2.5733,-0.1325
1853751.0,-1.5275,1.4245,8.0421,0.3336,-2.469,-0.0819
1853761.0,-1.1109,1.2785,7.9895,0.472,-2.3402,-0.0458
1853771.0,-0.6847,1.3767,7.841,0.5624,-2.2562,-0.033
1853781.0,-0.3879,1.6089,7.8243,0.5348,-2.2115,-0.0367
1853791.0,-0.1652,1.8651,7.7093,0.422,-2.22,-0.0341
1853801.0,0.17,2.0494,7.6974,0.2852,-2.2492,-0.0192
1853811.0,0.3472,2.0901,7.3502,0.1963,-2.2801,0.017
1853821.0,0.7374,2.0686,6.7445,0.166,-2.2796,0.0633
1853831.0,1.3312,2.0231,6.2752,0.1511,-2.1944,0.1101
1853841.0,1.4437,1.9656,6.201,0.1314,-2.0694,0.1485
1853851.0,1.9776,1.8938,6.122,0.1293,-1.9912,0.1852
1853861.0,2.1356,1.8196,5.9328,0.1298,-1.9124,0.2144
1853871.0,2.6097,1.798,5.5569,0.1314,-1.8395,0.249
1853881.0,3.0526,1.6424,5.375,0.1096,-1.7246,0.2783
1853891.0,3.2298,1.4437,5.2241,0.0873,-1.6144,0.2959
1853901.0,3.5841,1.4461,4.8483,0.0708,-1.5069,0.3006
1853911.0,3.8283,1.2857,4.6807,0.0213,-1.3595,0.2975
1853921.0,4.0749,1.1133,4.6424,-0.0202,-1.1887,0.282
1853931.0,4.3551,1.0846,4.8315,0.0016,-0.9903,0.2597
1853941.0,4.4652,1.2139,5.0973,0.0979,-0.7769,0.2458
1853951.0,4.4724,1.3743,5.3606,0.2011,-0.5933,0.2506
1853961.0,4.5322,1.5562,5.4923,0.2602,-0.4518,0.2602
1853971.0,4.6136,1.5897,5.8634,0.2575,-0.3161,0.2735
1853981.0,4.6902,1.4198,6.3327,0.2639,-0.1979,0.2948
1853991.0,4.6902,1.2163,6.6798,0.3065,-0.1006,0.3139
1854001.0,4.8052,1.0271,7.0294,0.3267,-0.0325,0.3139
1854011.0,4.7621,0.9002,7.3694,0.3134,0.0043,0.2905
1854021.0,4.7836,0.8954,7.5585,0.2889,0.0101,0.2554
1854031.0,4.707,0.9768,7.8386,0.2363,0.0154,0.2171
1854041.0,4.6783,1.0199,7.8697,0.1458,-0.0186,0.1777
1854051.0,4.7262,0.9409,7.9416,0.0181,-0.0564,0.1352
1854061.0,4.8339,0.8428,8.0661,-0.0649,-0.0617,0.0947
1854071.0,4.9057,0.8164,8.0709,-0.0543,-0.0447,0.0585
1854081.0,4.8866,0.9601,8.0038,-0.0266,-0.0106,0.0181
1854091.0,4.7908,1.1851,7.8697,-0.0287,0.0298,-0.0202
1854101.0,4.7477,1.2857,8.1475,-0.0442,0.0984,-0.0426
1854111.0,4.6495,1.2689,8.5066,-0.0181,0.1666,-0.0521
1854121.0,4.6352,1.2402,8.746,0.05,0.2097,-0.0559
1854131.0,4.6017,1.2354,8.9232,0.1139,0.2395,-0.0628
1854141.0,4.6831,1.2929,9.0573,0.1761,0.2639,-0.0782
1854151.0,4.6471,1.549,9.1913,0.2251,0.2996,-0.1
1854161.0,4.3527,1.9345,9.6391,0.2517,0.3272,-0.1139
1854171.0,4.2258,2.3727,9.5768,0.241,0.2724,-0.1011
1854181.0,4.2234,2.4565,9.5505,0.1171,0.1862,-0.0713
1854191.0,4.2425,2.1931,9.6199,-0.0452,0.1101,-0.0404
1854201.0,4.3144,1.8675,9.73,-0.1325,0.0628,-0.0234
1854211.0,4.2928,1.8579,9.6247,-0.1304,0.0378,-0.0192
1854221.0,4.2138,1.9273,9.2871,-0.1181,0.0165,-0.0165
1854231.0,4.3024,1.7238,9.2608,-0.1463,0.0218,-0.0128
1854241.0,4.3527,1.5107,9.3709,-0.1165,0.0596,-0.0181
1854251.0,4.3431,1.5323,9.3805,-0.0341,0.1096,-0.0309
1854261.0,4.3072,1.6161,9.5409,0.0059,0.1453,-0.0527
1854271.0,4.2425,1.7526,9.584,0.017,0.1474,-0.0745
1854281.0,4.2377,1.9561,9.6654,0.0239,0.1474,-0.083
1854291.0,4.197,2.0686,9.6989,0.0282,0.1511,-0.0772
1854301.0,4.1779,2.1165,9.7013,0.0005,0.1341,-0.0665
1854311.0,4.1372,2.0782,9.73,-0.0713,0.091,-0.0585
1854321.0,4.1587,1.9728,9.7803,-0.1437,0.0484,-0.0553
1854331.0,4.0965,1.9537,9.8665,-0.1607,0.0303,-0.0527
1854341.0,4.1755,1.9058,9.7636,-0.1309,0.0202,-0.0431
1854351.0,4.1707,1.8124,9.7899,-0.1101,0.0138,-0.0388
1854361.0,4.2784,1.7957,9.6654,-0.0915,-0.0037,-0.0415
1854371.0,4.2473,1.8076,9.6175,-0.0862,0.0,-0.0495
1854381.0,4.2593,1.889,9.5577,-0.074,0.0027,-0.0569
1854391.0,4.3191,1.992,9.5816,-0.0702,0.009,-0.0601
1854401.0,4.2401,2.0877,9.4451,-0.0809,-0.0011,-0.0564
1854411.0,4.2713,2.0423,9.4619,-0.1235,-0.0197,-0.0458
1854421.0,4.3551,1.8507,9.4523,-0.1383,-0.033,-0.0351
1854431.0,4.3287,1.8124,9.2991,-0.1006,-0.0271,-0.0309
1854441.0,4.3766,1.7382,9.2632,-0.0591,0.0043,-0.0298
1854451.0,4.3598,1.6975,9.2153,-0.0229,0.0346,-0.0357
1854461.0,4.3934,1.6472,9.3278,-0.0021,0.0692,-0.0474
1854471.0,4.3574,1.6065,9.5146,0.0362,0.1,-0.0596
1854481.0,4.3455,1.7406,9.5361,0.0857,0.1027,-0.0734
1854491.0,4.3622,1.9752,9.4954,0.0878,0.0883,-0.0905
1854501.0,4.2976,2.2625,9.4691,0.0532,0.0654,-0.0937
1854511.0,4.2162,2.4493,9.3972,-0.0053,0.0245,-0.0793
1854521.0,4.2282,2.3679,9.2368,-0.0995,-0.0346,-0.0516
1854531.0,4.3455,2.0638,9.1746,-0.1783,-0.075,-0.0282
1854541.0,4.4341,1.8052,9.0285,-0.1596,-0.0633,-0.0176
1854551.0,4.4149,1.8459,8.7795,-0.075,-0.0064,-0.0208
1854561.0,4.3527,2.0734,8.7053,-0.0043,0.0777,-0.0282
1854571.0,4.2952,2.1644,8.837,0.0128,0.157,-0.0234
1854581.0,4.2353,2.0518,9.1913,-0.0059,0.1995,-0.0154
1854591.0,4.2497,1.8531,9.5385,-0.0096,0.2155,-0.0144
1854601.0,4.2449,1.7645,9.7971,0.0357,0.223,-0.0213
1854611.0,4.1875,1.7957,9.912,0.0921,0.2171,-0.0346
1854621.0,4.1515,1.9776,9.9455,0.1096,0.1857,-0.0569
1854631.0,4.0677,2.2697,9.9168,0.0974,0.1447,-0.0724
1854641.0,4.0534,2.557,9.8162,0.0537,0.1006,-0.067
1854651.0,4.027,2.5043,9.8497,-0.0309,0.0639,-0.0484
1854661.0,4.0797,2.3966,9.8378,-0.1027,0.0229,-0.0314
1854671.0,4.0941,2.3439,9.8306,-0.1261,0.0048,-0.017
1854681.0,4.0534,2.3487,9.7851,-0.1155,0.0,-0.0048
1854691.0,4.1372,2.3128,9.7995,-0.1171,-0.0069,0.009
1854701.0,4.118,2.217,9.7779,-0.1181,-0.0213,0.0245
1854711.0,4.2114,2.0518,9.6367,-0.1091,-0.0404,0.0394
1854721.0,4.3239,1.7597,9.6055,-0.0974,-0.0341,0.0452
1854731.0,4.4436,1.6376,9.5816,-0.0607,-0.0234,0.0293
1854741.0,4.4077,1.8028,9.505,-0.0362,-0.0069,-0.0021
1854751.0,4.3431,2.0782,9.4834,-0.0506,0.0021,-0.0277
1854761.0,4.2617,2.2889,9.6031,-0.0952,-0.0074,-0.0351
1854771.0,4.2449,2.3224,9.5337,-0.1554,-0.0527,-0.0208
1854781.0,4.2617,2.1117,9.5505,-0.2155,-0.0846,-0.0011
1854791.0,4.4029,1.834,9.6151,-0.1921,-0.0931,0.0192
1854801.0,4.4436,1.798,9.3494,-0.1096,-0.0841,0.0218
1854811.0,4.446,1.9992,9.1147,-0.0846,-0.0724,0.0117
1854821.0,4.4101,2.0686,9.0668,-0.1548,-0.0708,0.0027
1854831.0,4.4029,1.9465,9.0836,-0.2543,-0.0846,0.0
1854841.0,4.4652,1.7119,9.1961,-0.3134,-0.0931,-0.0021
1854851.0,4.5418,1.5012,9.2464,-0.2937,-0.0798,-0.0096
1854861.0,4.5514,1.4748,9.1842,-0.2107,-0.0495,-0.0245
1854871.0,4.5466,1.7119,8.9399,-0.1314,-0.0218,-0.0468
1854881.0,4.4772,2.0758,8.8969,-0.1293,0.0117,-0.0654
1854891.0,4.3981,2.2482,9.0764,-0.1873,0.0266,-0.0644
1854901.0,4.3598,2.32,9.244,-0.2352,0.0144,-0.0452
1854911.0,4.3622,2.2721,9.2799,-0.2325,-0.025,-0.008
1854921.0,4.4987,2.1093,8.995,-0.2022,-0.0841,0.0346
1854931.0,4.6471,1.9273,8.5353,-0.1729,-0.1298,0.0697
1854941.0,4.7932,1.7142,7.8434,-0.165,-0.1431,0.0942
1854951.0,4.9249,1.4581,7.331,-0.1926,-0.1229,0.0974
1854961.0,5.0996,1.1923,6.9576,-0.2299,-0.0713,0.0793
1854971.0,5.1882,0.9673,6.6463,-0.2235,0.0176,0.0527
1854981.0,5.2601,0.8691,6.4596,-0.1591,0.1341,0.0218
1854991.0,5.2457,0.8763,6.3542,-0.0458,0.2698,-0.0117
1855001.0,5.2002,1.0798,6.2513,0.1187,0.4108,-0.0388
1855011.0,5.126,1.4557,6.0094,0.2927,0.5491,-0.0537
1855021.0,4.944,1.9106,5.624,0.3911,0.6577,-0.0484
1855031.0,4.8147,2.047,5.4731,0.3799,0.7418,-0.0277
1855041.0,4.6424,1.8699,5.4037,0.3272,0.8067,0.0027
1855051.0,4.5633,1.5634,5.454,0.2889,0.8514,0.025
1855061.0,4.4269,1.2809,5.1643,0.2826,0.8785,0.0314
1855071.0,4.2641,0.9864,4.8147,0.2485,0.8987,0.0112
1855081.0,4.1755,0.577,4.2808,0.2059,0.9179,-0.0357
1855091.0,4.1515,0.4286,3.8379,0.2086,1.0243,-0.1224
1855101.0,3.9169,0.5698,3.3854,0.2911,1.2153,-0.2341
1855111.0,3.6559,1.1612,3.1963,0.4039,1.4309,-0.3491
1855121.0,3.2681,1.9441,2.8946,0.455,1.6267,-0.4401
1855131.0,2.8132,2.8108,2.5786,0.356,1.764,-0.4959
1855141.0,2.162,3.486,2.2458,0.0559,1.8539,-0.5108
1855151.0,1.494,3.8427,2.2218,-0.4358,1.9204,-0.4901
1855161.0,0.7326,3.8427,2.2889,-1.0344,1.9539,-0.431
1855171.0,0.3496,3.2417,2.4852,-1.69,1.9587,-0.3475
1855181.0,0.0599,1.9896,3.395,-2.229,2.0422,-0.2799
1855191.0,-0.2682,1.0223,4.2593,-2.3317,2.2109,-0.2219
1855201.0,-0.6129,0.759,4.8794,-1.9885,2.4376,-0.1788
1855211.0,-0.9697,1.221,5.1595,-1.3867,2.7085,-0.1298
1855221.0,-1.324,2.1332,4.9943,-0.7482,2.9777,-0.0463
1855231.0,-1.8364,3.0406,4.6711,-0.3251,3.2054,0.0734
1855241.0,-2.5857,3.3662,4.6783,-0.2293,3.3986,0.2112
1855251.0,-3.5434,3.2801,5.1906,-0.2682,3.5843,0.3533
1855261.0,-4.6376,3.0646,5.4827,-0.2107,3.7796,0.5183
1855271.0,-5.5234,2.2913,6.3614,-0.0293,4.0802,0.704
1855281.0,-6.3853,1.1013,7.5657,0.3725,4.4298,0.8652
1855291.0,-6.7229,-0.0455,8.9016,1.0115,4.8018,0.9402
1855301.0,-6.9073,-0.6967,10.3525,1.7198,5.1519,0.8748
1855311.0,-7.2712,-0.2035,11.5879,2.27,5.361,0.6721
1855321.0,-7.9775,1.2617,12.5241,2.345,5.3632,0.3975
1855331.0,-8.8633,2.3128,14.3532,1.8161,5.1524,0.1341
1855341.0,-9.5122,2.9018,15.8233,1.0568,4.6762,-0.0596
1855351.0,-10.094,3.1867,16.3716,0.3241,4.084,-0.174
1855361.0,-10.3837,2.6767,16.5152,-0.3288,3.5689,-0.2203
1855371.0,-10.0389,1.5467,17.4801,-0.8312,3.2187,-0.2522
1855381.0,-10.1107,0.5674,18.7993,-1.0355,2.9479,-0.3177
1855391.0,-9.8952,0.3208,19.9652,-0.9573,2.6462,-0.4081
1855401.0,-9.7779,0.5842,20.82,-0.7205,2.304,-0.4853
1855411.0,-9.651,1.1851,20.7434,-0.4502,1.873,-0.5231
1855421.0,-9.4786,1.7837,20.31,-0.3134,1.3968,-0.5257
1855431.0,-9.3158,2.1069,19.7043,-0.2341,0.9461,-0.4832
1855441.0,-9.0884,2.2793,18.5168,-0.0633,0.5949,-0.4033
1855451.0,-8.7891,2.3655,17.1425,0.1447,0.3996,-0.3166
1855461.0,-8.5066,2.3727,16.2638,0.2857,0.3512,-0.2474
1855471.0,-8.4898,2.4948,15.8975,0.306,0.3336,-0.2123
1855481.0,-8.4515,2.5355,16.1393,0.1809,0.2698,-0.2011
1855491.0,-8.3151,2.5618,16.5679,0.0229,0.1224,-0.19
1855501.0,-8.1379,2.5091,16.8001,-0.1192,-0.0878,-0.1708
1855511.0,-7.9152,2.2434,17.1736,-0.2315,-0.3171,-0.1421
1855521.0,-7.7381,1.9632,17.1999,-0.2512,-0.5773,-0.1096
1855531.0,-7.6136,1.8292,16.7259,-0.2692,-0.862,-0.0921
1855541.0,-7.5106,1.6951,16.5583,-0.3347,-1.1515,-0.0905
1855551.0,-7.446,1.6688,15.7419,-0.3661,-1.4622,-0.0862
1855561.0,-7.2305,1.4557,14.8129,-0.422,-1.7336,-0.0835
1855571.0,-7.039,1.0008,13.9414,-0.4901,-1.9278,-0.0974
1855581.0,-6.8929,0.8092,13.1106,-0.5151,-2.0438,-0.1437
1855591.0,-6.8067,0.9098,12.4475,-0.5295,-2.0885,-0.2118
1855601.0,-6.8163,1.0463,12.0596,-0.5486,-2.0869,-0.2724
1855611.0,-6.6176,1.0894,12.323,-0.5273,-2.0444,-0.3108
1855621.0,-6.5769,1.2354,12.469,-0.3948,-2.0109,-0.3267
1855631.0,-6.5194,1.5754,12.6462,-0.2565,-2.0188,-0.3342
1855641.0,-6.6607,2.0423,12.876,-0.191,-2.0949,-0.3251
1855651.0,-6.7876,2.3008,12.7491,-0.1501,-2.2503,-0.282
1855661.0,-6.5457,2.2338,12.2799,-0.1038,-2.4078,-0.2203
1855671.0,-6.1531,2.0327,11.6693,-0.017,-2.502,-0.1607
1855681.0,-5.6623,1.8675,11.157,0.0596,-2.527,-0.1224
1855691.0,-5.2313,1.7813,10.9463,0.0654,-2.544,-0.1139
1855701.0,-4.9464,1.8579,10.6207,0.0011,-2.6201,-0.1235
1855711.0,-4.7046,1.8794,10.3382,-0.1261,-2.7356,-0.1373
1855721.0,-4.4269,1.7813,9.6989,-0.2395,-2.8612,-0.1373
1855731.0,-3.8523,1.5826,8.7221,-0.3347,-2.9378,-0.1399
1855741.0,-3.3734,1.4581,7.9966,-0.4087,-2.8958,-0.1681
1855751.0,-3.2729,1.6041,7.6279,-0.4613,-2.7728,-0.1985
1855761.0,-2.976,1.5443,7.6231,-0.5608,-2.6654,-0.215
1855771.0,-2.6767,1.1229,8.327,-0.6689,-2.5946,-0.24
1855781.0,-2.3487,0.8308,8.9471,-0.5992,-2.585,-0.2666
1855791.0,-1.9872,1.0295,8.7795,-0.3789,-2.6419,-0.2841
1855801.0,-1.6496,1.3886,8.2744,-0.2155,-2.7175,-0.2879
1855811.0,-1.3719,1.6065,7.6183,-0.1612,-2.7947,-0.2671
1855821.0,-1.0798,1.4988,6.9552,-0.1799,-2.8463,-0.2368
1855831.0,-0.5291,1.3288,6.1914,-0.207,-2.8415,-0.2128
1855841.0,-0.1676,1.1636,5.6383,-0.248,-2.7526,-0.2107
1855851.0,0.1915,1.0271,5.284,-0.2868,-2.6132,-0.2277
1855861.0,0.7446,0.9122,5.1811,-0.2772,-2.4275,-0.248
1855871.0,1.2953,0.8619,5.3295,-0.2001,-2.2099,-0.2714
1855881.0,1.6017,1.1013,5.5234,-0.1096,-2.0039,-0.298
1855891.0,1.7334,1.4988,5.8897,-0.0766,-1.8555,-0.3171
1855901.0,1.8627,1.8579,5.9807,-0.1139,-1.7916,-0.3113
1855911.0,1.834,2.0183,5.7437,-0.165,-1.7522,-0.2735
1855921.0,2.4612,1.8962,5.2672,-0.149,-1.6559,-0.2065
1855931.0,3.043,1.4964,5.2146,0.0,-1.4229,-0.1341
1855941.0,3.3303,1.3144,5.1619,0.2959,-1.1393,-0.0718
1855951.0,3.6009,1.47,5.0206,0.6141,-0.8631,-0.0255
1855961.0,3.6536,1.6927,5.2361,0.8306,-0.5949,0.0101
1855971.0,3.6679,1.8986,5.5952,0.9062,-0.389,0.0484
1855981.0,3.62,2.0901,6.1723,0.7753,-0.2836,0.0676
1855991.0,3.6081,2.1644,6.6463,0.4874,-0.3001,0.0649
1856001.0,3.6583,2.2721,6.8809,0.1995,-0.3517,0.0702
1856011.0,3.6943,2.1763,7.1371,0.0192,-0.3459,0.1
1856021.0,3.7254,1.9489,7.3765,-0.0223,-0.2751,0.1474
1856031.0,3.6488,1.8435,7.762,0.0282,-0.1804,0.1905
1856041.0,3.6871,1.798,8.1977,0.0921,-0.1203,0.2341
1856051.0,3.8307,1.6089,8.5449,0.1165,-0.1245,0.2719
1856061.0,3.9887,1.4437,8.6766,0.107,-0.1751,0.2873
1856071.0,4.1013,1.4413,8.6048,0.0937,-0.2208,0.2937
1856081.0,4.0749,1.4245,8.5114,0.0926,-0.2453,0.3081
1856091.0,4.1731,1.2953,8.2672,0.0734,-0.2735,0.3219
1856101.0,4.3191,1.0726,8.1547,0.0474,-0.2804,0.3241
1856111.0,4.4029,0.9242,7.7261,0.0458,-0.265,0.3155
1856121.0,4.5849,0.6967,7.6614,0.0069,-0.2006,0.2937
1856131.0,4.549,0.4286,7.7883,-0.0037,-0.116,0.2597
1856141.0,4.5945,0.3328,7.7931,0.0452,-0.0367,0.2139
1856151.0,4.6735,0.2514,8.0349,0.0995,0.0686,0.1586
1856161.0,4.6687,0.3879,8.327,0.2081,0.1825,0.1006
1856171.0,4.4125,0.8906,8.509,0.3209,0.2895,0.05
1856181.0,4.2976,1.2833,8.837,0.3437,0.348,0.0261
1856191.0,4.1851,1.4844,9.2608,0.3155,0.3608,0.025
1856201.0,4.1108,1.5706,9.5026,0.2964,0.3453,0.0484
1856211.0,4.0965,1.4629,9.6917,0.2767,0.3139,0.0772
1856221.0,4.0582,1.3431,9.6151,0.2363,0.2554,0.0867
1856231.0,4.0127,1.3743,9.4212,0.1671,0.2059,0.0772
1856241.0,4.027,1.2929,9.3039,0.0878,0.2006,0.0665
1856251.0,3.9002,1.1013,9.5193,-0.0043,0.2256,0.049
1856261.0,3.8547,0.9697,9.8162,-0.0915,0.232,0.017
1856271.0,3.8211,0.9912,10.0748,-0.1527,0.2219,-0.0239
1856281.0,3.711,1.1684,10.2089,-0.1995,0.207,-0.0617
1856291.0,3.6129,1.3216,10.2352,-0.2464,0.1783,-0.0846
1856301.0,3.6033,1.3934,10.4387,-0.2964,0.1607,-0.0963
1856311.0,3.5243,1.506,10.6446,-0.2873,0.1527,-0.0942
1856321.0,3.5793,1.652,10.6063,-0.2506,0.1133,-0.0729
1856331.0,3.5961,1.5251,10.8266,-0.2432,0.0665,-0.0351
1856341.0,3.6248,1.2905,10.8194,-0.1905,-0.0021,0.0043
1856351.0,3.7397,1.1923,10.4387,-0.0857,-0.0649,0.0266
1856361.0,3.7996,1.3048,9.8474,-0.0048,-0.0931,0.0314
1856371.0,3.7397,1.4365,9.4691,-0.0096,-0.083,0.025
1856381.0,3.7948,1.3288,9.3326,-0.0915,-0.0644,0.0208
1856391.0,3.9145,1.0606,9.4164,-0.1767,-0.0378,0.0096
1856401.0,3.8666,0.8547,9.4954,-0.2054,-0.0059,-0.0133
1856411.0,3.9911,0.6345,9.8402,-0.19,0.0372,-0.0436
1856421.0,3.9672,0.6584,9.979,-0.0835,0.0713,-0.0793
1856431.0,3.9433,1.1468,9.7995,0.0532,0.0905,-0.1139
1856441.0,3.8786,1.6424,9.8378,0.1075,0.1107,-0.1293
1856451.0,3.6895,1.9297,9.7971,0.0873,0.0931,-0.1144
1856461.0,3.7421,1.8196,9.845,0.0112,0.0415,-0.0851
1856471.0,3.881,1.506,9.9335,-0.0351,0.0101,-0.067
1856481.0,3.8547,1.4892,9.7348,-0.0037,0.0,-0.0681
1856491.0,3.7924,1.6161,9.5888,-0.0208,-0.0021,-0.0835
1856501.0,3.79,1.6999,9.6247,-0.0788,-0.0085,-0.0979
1856511.0,3.8475,1.7119,9.6031,-0.1086,0.0032,-0.1006
1856521.0,3.7373,1.6879,9.8809,-0.1101,0.0452,-0.099
1856531.0,3.7038,1.7645,10.1251,-0.0601,0.0607,-0.091
1856541.0,3.6823,1.9489,10.1394,0.0112,0.0553,-0.0782
1856551.0,3.6703,2.1668,10.1275,0.0479,0.0325,-0.0548
1856561.0,3.6296,2.2051,10.0963,0.0314,-0.0144,-0.0223
1856571.0,3.7158,2.1093,10.0102,0.0032,-0.0724,0.0122
1856581.0,3.802,1.9896,9.7444,0.0085,-0.1107,0.0431
1856591.0,3.9025,1.8699,9.3374,0.0255,-0.1181,0.0665
1856601.0,3.8882,1.8148,9.0764,0.008,-0.0942,0.0713
1856611.0,3.9313,1.7526,9.0429,-0.0367,-0.0426,0.067
1856621.0,3.8618,1.5969,9.2799,-0.0628,0.0059,0.0654
1856631.0,3.8618,1.5467,9.3757,-0.0644,0.0293,0.0548
1856641.0,3.9337,1.4796,9.6726,-0.033,0.0649,0.0468
1856651.0,3.9409,1.482,9.6869,0.0724,0.0963,0.0495
1856661.0,3.9145,1.6903,9.6654,0.1442,0.1293,0.0436
1856671.0,3.7565,1.9537,9.9048,0.1447,0.1517,0.0378
1856681.0,3.62,2.1763,10.0604,0.1155,0.1346,0.0532
1856691.0,3.5291,2.1141,10.3118,0.0474,0.091,0.0825
1856701.0,3.5817,1.8148,10.5632,-0.0112,0.0176,0.1149
1856711.0,3.7182,1.4605,10.4866,-0.0335,-0.0628,0.1352
1856721.0,3.9097,1.1564,10.2855,-0.0287,-0.1208,0.1266
1856731.0,3.9289,1.1779,10.1251,-0.0106,-0.125,0.0894
1856741.0,3.881,1.3431,10.2663,0.0234,-0.075,0.0559
1856751.0,3.7445,1.5467,10.5536,0.0569,-0.041,0.0394
1856761.0,3.7373,1.6855,10.8936,0.0511,-0.074,0.0351
1856771.0,3.7661,1.7406,11.1043,0.0458,-0.1548,0.0394
1856781.0,3.7804,1.9082,10.8529,0.0495,-0.241,0.05
1856791.0,3.7014,1.9824,10.829,0.0223,-0.2937,0.066
1856801.0,3.7517,1.8818,10.8649,-0.0053,-0.3315,0.0894
1856811.0,3.7876,1.6616,10.8649,-0.0186,-0.3799,0.107
1856821.0,3.9313,1.4676,10.8386,-0.0239,-0.4374,0.1064
1856831.0,4.0055,1.4557,10.8218,-0.0122,-0.4805,0.0921
1856841.0,4.0294,1.6113,10.7284,0.0234,-0.5146,0.0745
1856851.0,4.0366,1.798,10.5943,0.0287,-0.5571,0.066
1856861.0,4.0869,1.9513,10.4914,-0.0271,-0.6125,0.0628
1856871.0,4.1851,1.9728,10.3477,-0.1043,-0.6859,0.0702
1856881.0,4.3,1.9824,10.0413,-0.1921,-0.7689,0.0798
1856891.0,4.4556,1.8411,10.0078,-0.2581,-0.8317,0.0958
1856901.0,4.6352,1.8028,9.4212,-0.2405,-0.9142,0.124
1856911.0,4.8339,1.7549,8.8155,-0.2464,-0.9743,0.1463
1856921.0,5.0542,1.5826,8.2456,-0.2634,-1.0264,0.1708
1856931.0,5.2074,1.5706,7.264,-0.2863,-1.0807,0.1905
1856941.0,5.4444,1.549,6.3303,-0.3783,-1.0988,0.1995
1856951.0,5.679,1.4269,5.3056,-0.5236,-1.0935,0.2065
1856961.0,5.8897,1.1612,4.4532,-0.7104,-1.0451,0.2001
1856971.0,6.0885,0.8906,3.6607,-0.8982,-0.953,0.1783
1856981.0,6.2824,0.577,2.976,-1.0589,-0.8093,0.1453
1856991.0,6.3973,0.1604,2.4277,-1.1786,-0.6109,0.0995
1857001.0,6.45,-0.2035,2.3056,-1.2217,-0.3501,0.0372
1857011.0,6.3734,-0.4956,2.4086,-1.1095,-0.0612,-0.0266
1857021.0,6.2369,-0.5962,2.6073,-0.8381,0.2288,-0.0862
1857031.0,6.0501,-0.5195,2.727,-0.4677,0.4959,-0.1447
1857041.0,5.8203,-0.1053,2.4732,-0.107,0.7109,-0.1985
1857051.0,5.4827,0.4142,2.1572,0.091,0.8924,-0.2506
1857061.0,5.1643,0.905,1.9249,0.075,1.0174,-0.2964
1857071.0,4.6902,1.3024,1.4964,-0.1378,1.1004,-0.3342
1857081.0,4.2449,1.5083,1.3982,-0.4864,1.1978,-0.3613
1857091.0,3.7996,1.4222,1.6544,-0.762,1.358,-0.3661
1857101.0,3.4644,1.245,1.9178,-0.7737,1.5766,-0.34
1857111.0,3.2729,1.2641,1.8818,-0.5444,1.848,-0.3054
1857121.0,2.8706,1.585,1.7286,-0.2331,2.1545,-0.2762
1857131.0,2.3655,2.1069,1.6209,0.0245,2.4695,-0.248
1857141.0,1.7142,2.7222,1.743,0.1692,2.7814,-0.2033
1857151.0,0.9816,3.213,2.162,0.2011,3.0596,-0.1203
1857161.0,0.2849,3.5171,2.3128,0.1038,3.2539,-0.0016
1857171.0,-0.5243,3.3447,2.7031,-0.1783,3.3981,0.1352
1857181.0,-0.9864,2.5043,3.1603,-0.5582,3.505,0.2714
1857191.0,-1.3408,1.3192,3.7781,-0.853,3.671,0.3629
1857201.0,-2.2362,0.5459,4.6663,-0.9035,3.9531,0.4001
1857211.0,-3.1244,0.182,6.0286,-0.6981,4.3053,0.4284
1857221.0,-3.1244,0.182,6.0286,-0.6981,4.3053,0.4284
1857231.0,-4.4005,-0.0646,9.5361,0.1479,4.8475,0.4661
1857241.0,-4.4005,-0.0646,9.5361,0.1479,4.8475,0.4661
1857251.0,-4.9057,0.3639,10.9319,0.6742,4.9465,0.4624
1857261.0,-5.6431,1.0463,11.7962,1.1275,4.9226,0.4571
1857271.0,-6.2249,1.6257,12.0835,1.3622,4.8193,0.4613
1857281.0,-6.8139,1.7765,12.8305,1.2702,4.7017,0.4592
1857291.0,-7.1108,1.2474,14.1665,0.9711,4.5304,0.4555
1857301.0,-7.1371,0.3735,16.0651,0.6811,4.275,0.4172
1857311.0,-7.0773,-0.237,17.3939,0.6274,3.9211,0.3384
1857321.0,-7.1108,-0.1389,17.5016,0.8141,3.5465,0.2315
1857331.0,-7.3574,0.7661,17.1425,1.0477,3.2778,0.1086
1857341.0,-7.3909,1.7741,16.994,1.1691,3.0894,0.0218
1857351.0,-7.4819,2.3607,16.7594,1.0307,2.8394,-0.0341
1857361.0,-7.3646,2.5857,16.6876,0.5566,2.4754,-0.1038
1857371.0,-7.2353,2.387,16.7043,-0.0734,2.0705,-0.1713
1857381.0,-7.1802,1.7334,16.7379,-0.5763,1.7336,-0.2086
1857391.0,-7.3454,1.1636,16.4721,-0.8046,1.492,-0.2251
1857401.0,-7.4651,0.6632,16.3883,-0.8221,1.3595,-0.2416
1857411.0,-7.422,0.2059,16.769,-0.5906,1.3686,-0.2581
1857421.0,-7.4603,0.3831,17.1928,-0.1032,1.4521,-0.273
1857431.0,-7.6303,1.2594,17.492,0.3342,1.475,-0.2916
1857441.0,-7.7381,2.0782,18.069,0.4842,1.3425,-0.299
1857451.0,-7.8793,2.7078,18.6029,0.4624,1.0882,-0.2788
1857461.0,-7.8266,3.213,18.6628,0.4188,0.7748,-0.2097
1857471.0,-7.8793,3.2202,18.8591,0.332,0.4645,-0.1048
1857481.0,-7.8003,2.8659,18.9477,0.2256,0.1107,0.0053
1857491.0,-7.5226,2.4493,18.7035,0.1394,-0.2836,0.0921
1857501.0,-7.2233,2.1332,17.9254,0.075,-0.671,0.158
1857511.0,-7.0725,1.6831,16.8839,-0.0452,-1.028,0.1932
1857521.0,-6.778,1.1013,15.8472,-0.2464,-1.3468,0.1878
1857531.0,-6.3734,0.498,14.9278,-0.4443,-1.5915,0.1336
1857541.0,-6.0861,0.261,13.9773,-0.5922,-1.7624,0.0399
1857551.0,-5.8227,0.2514,13.3812,-0.7295,-1.8587,-0.0756
1857561.0,-5.624,0.4597,12.9431,-0.8008,-1.9231,-0.1804
1857571.0,-5.5019,0.814,12.5241,-0.8184,-1.9497,-0.2565
1857581.0,-5.4612,1.0175,12.5528,-0.8008,-1.9587,-0.29
1857591.0,-5.3271,0.9936,12.6007,-0.7152,-1.9869,-0.2911
1857601.0,-5.387,1.0271,12.4834,-0.5624,-2.0353,-0.2794
1857611.0,-5.1475,1.1756,12.1482,-0.3778,-2.0864,-0.2538
1857621.0,-4.9368,1.2809,11.8657,-0.2139,-2.1104,-0.2192
1857631.0,-4.7166,1.2905,11.7914,-0.0628,-2.1221,-0.1804
1857641.0,-4.5849,1.2761,11.9088,0.1032,-2.137,-0.1346
1857651.0,-4.4053,1.2713,11.5065,0.2852,-2.2045,-0.0867
1857661.0,-4.2737,1.2857,10.7619,0.3677,-2.2806,-0.0591
1857671.0,-3.8906,1.2857,10.3046,0.3017,-2.3179,-0.0633
1857681.0,-3.541,1.1756,10.2639,0.2033,-2.3179,-0.0862
1857691.0,-3.3758,1.2402,10.0772,0.1527,-2.3115,-0.1229
1857701.0,-3.1436,1.6448,9.8617,0.0633,-2.3264,-0.1719
1857711.0,-2.873,2.0016,9.8497,-0.149,-2.3743,-0.2155
1857721.0,-2.9209,2.083,10.1251,-0.3932,-2.4568,-0.2416
1857731.0,-2.7126,2.0901,10.1801,-0.5023,-2.5653,-0.2368
1857741.0,-2.3343,2.0135,9.8904,-0.4667,-2.6441,-0.199
1857751.0,-2.1308,1.8387,9.4978,-0.3586,-2.6749,-0.1506
1857761.0,-1.7693,1.6879,9.0453,-0.1862,-2.6829,-0.1027
1857771.0,-1.1133,1.6352,8.4922,-0.0048,-2.6632,-0.0601
1857781.0,-0.905,1.5802,8.0828,0.1176,-2.6286,-0.0287
1857791.0,-0.4884,1.4964,7.4005,0.1378,-2.6318,-0.0144
1857801.0,-0.1006,1.2713,7.0222,0.0239,-2.6244,-0.0282
1857811.0,0.5052,1.0487,6.5481,-0.1059,-2.6143,-0.0697
1857821.0,0.7566,1.0726,5.9352,-0.224,-2.568,-0.1479
1857831.0,1.1851,1.4844,5.3056,-0.3507,-2.4727,-0.2379
1857841.0,1.5993,1.889,5.2816,-0.464,-2.3025,-0.3001
1857851.0,1.6831,2.2338,5.3343,-0.4699,-2.1167,-0.307
1857861.0,1.9345,2.5235,5.3008,-0.3826,-1.9486,-0.2591
1857871.0,2.2051,2.6264,5.296,-0.2671,-1.7831,-0.1772
1857881.0,2.5833,2.5187,5.2768,-0.1197,-1.6203,-0.0798
1857891.0,2.8515,2.3918,5.1954,0.05,-1.4447,0.0138
1857901.0,3.1891,2.2266,5.035,0.2102,-1.2723,0.0995
1857911.0,3.5817,2.059,4.9488,0.307,-1.0823,0.1666
1857921.0,3.7852,1.9393,4.9249,0.3214,-0.8998,0.2144
1857931.0,4.0414,1.719,5.1882,0.2512,-0.729,0.2416
1857941.0,4.1875,1.4916,5.6431,0.1639,-0.5688,0.2501
1857951.0,4.2042,1.3455,6.0956,0.1346,-0.4401,0.2501
1857961.0,4.2306,1.2522,6.3351,0.1314,-0.3555,0.2512
1857971.0,4.4149,1.1061,6.5888,0.107,-0.2804,0.248
1857981.0,4.4365,1.0199,6.9073,0.0724,-0.2081,0.232
1857991.0,4.5155,1.1085,7.0437,0.0357,-0.1777,0.2134
1858001.0,4.3383,1.2306,6.9025,-0.0564,-0.1697,0.1963
1858011.0,4.3742,1.1396,6.9743,-0.2017,-0.1399,0.1889
1858021.0,4.4173,0.9361,7.1299,-0.307,-0.0809,0.1878
1858031.0,4.6017,0.7853,7.4124,-0.3507,0.0165,0.1841
1858041.0,4.4053,0.6895,8.1475,-0.332,0.1575,0.1751
1858051.0,4.3981,0.7302,8.8178,-0.2155,0.2379,0.1767
1858061.0,4.3335,0.8954,9.2177,-0.0809,0.2714,0.1916
1858071.0,4.1396,0.9625,9.7396,0.0303,0.2719,0.2139
1858081.0,4.1156,0.9577,9.7324,0.1655,0.2293,0.2543
1858091.0,4.0797,0.8691,9.5146,0.2623,0.1953,0.2879
1858101.0,4.0917,0.7829,9.3901,0.3017,0.1958,0.2937
1858111.0,4.0007,0.8835,9.3541,0.3331,0.2176,0.2921
1858121.0,3.948,0.8452,9.0525,0.3108,0.2192,0.2953
1858131.0,3.9935,0.3855,9.1578,0.1708,0.2219,0.281
1858141.0,4.2449,-0.0168,9.584,0.0266,0.2272,0.224
1858151.0,4.0893,-0.1413,9.7324,-0.0213,0.2341,0.1517
1858161.0,3.9768,-0.1389,9.912,-0.0447,0.2288,0.0772
1858171.0,3.9217,0.0048,10.2711,-0.0452,0.2235,-0.0027
1858181.0,3.7733,0.4573,10.3765,0.0458,0.2123,-0.0569
1858191.0,3.6105,0.9768,10.1945,0.1139,0.2011,-0.074
1858201.0,3.5793,1.1181,10.2903,0.0766,0.1666,-0.0708
1858211.0,3.5913,1.1037,10.3956,0.0218,0.1144,-0.0596
1858221.0,3.5434,1.0918,10.3382,0.0117,0.0676,-0.0495
1858231.0,3.5267,1.0822,10.1131,0.0213,0.0282,-0.0436
1858241.0,3.6081,1.0798,9.979,-0.0043,0.0005,-0.0452
1858251.0,3.6536,0.9984,9.9359,-0.0372,0.0016,-0.0553
1858261.0,3.7014,1.0343,9.9671,-0.0452,0.0234,-0.0654
1858271.0,3.6631,1.063,10.0604,-0.0415,0.0293,-0.0734
1858281.0,3.8331,1.0582,10.0269,-0.0309,0.0043,-0.0777
1858291.0,3.8618,1.1205,10.0461,0.0005,0.0053,-0.0846
1858301.0,3.7373,1.4365,9.9407,0.0415,0.0064,-0.0878
1858311.0,3.6488,1.6831,9.6989,0.0037,-0.0271,-0.0761
1858321.0,3.8283,1.482,9.5553,-0.0968,-0.0718,-0.0553
1858331.0,4.0342,1.1468,9.5361,-0.1389,-0.074,-0.0367
1858341.0,3.9911,0.9936,9.4284,-0.1032,-0.0367,-0.041
1858351.0,3.8666,1.1037,9.3709,-0.0686,-0.0011,-0.0607
1858361.0,3.881,1.233,9.2584,-0.0601,0.0261,-0.0761
1858371.0,3.8978,1.2833,9.3661,-0.0644,0.0761,-0.083
1858381.0,3.814,1.3958,9.584,-0.0585,0.1261,-0.0846
1858391.0,3.7781,1.4102,9.9503,-0.049,0.149,-0.0782
1858401.0,3.7804,1.3336,10.1442,-0.009,0.1357,-0.0681
1858411.0,3.7373,1.4605,10.0748,0.0569,0.1133,-0.0644
1858421.0,3.7373,1.798,9.9551,0.0942,0.1075,-0.0575
1858431.0,3.7086,2.0518,9.9431,0.0506,0.0958,-0.0383
1858441.0,3.5195,2.0135,9.9311,-0.0692,0.0426,-0.0106
1858451.0,3.6559,1.6592,9.9862,-0.1979,-0.0261,0.0176
1858461.0,3.7948,1.154,10.0341,-0.2235,-0.0511,0.0372
1858471.0,3.8618,0.917,9.9144,-0.1261,-0.0255,0.0351
1858481.0,3.8355,1.063,9.8521,-0.0101,0.0277,0.0128
1858491.0,3.8044,1.2761,9.7731,0.0383,0.0553,-0.0106
1858501.0,3.8044,1.3815,9.8881,0.0112,0.05,-0.0277
1858511.0,3.7948,1.4126,9.9958,-0.0133,0.0357,-0.033
1858521.0,3.8786,1.3479,10.1083,-0.0096,0.0367,-0.0309
1858531.0,3.8068,1.3264,10.1825,0.0362,0.0506,-0.0335
1858541.0,3.7709,1.5538,10.1586,0.1096,0.05,-0.0383
1858551.0,3.7421,1.8459,10.1347,0.1421,0.049,-0.0362
1858561.0,3.7613,1.992,10.058,0.1282,0.0325,-0.017
1858571.0,3.8116,1.9489,10.1562,0.0623,0.0218,0.0048
1858581.0,3.7804,1.7621,10.2975,0.016,-0.0122,0.0314
1858591.0,3.8666,1.4341,10.343,0.0149,-0.0532,0.05
1858601.0,3.8954,1.1899,10.2615,0.074,-0.0644,0.0458
1858611.0,3.9385,1.2809,10.1347,0.1761,-0.0293,0.0218
1858621.0,3.7661,1.5897,10.1658,0.2464,0.0112,0.0021
1858631.0,3.6823,1.798,10.4435,0.2192,0.0133,-0.0122
1858641.0,3.723,1.901,10.726,0.1575,-0.0282,-0.016
1858651.0,3.6847,1.9968,10.7811,0.125,-0.0974,-0.0048
1858661.0,3.7828,2.0327,10.7093,0.0984,-0.1761,0.0122
1858671.0,3.8451,2.0542,10.5752,0.058,-0.257,0.033
1858681.0,3.9097,2.1117,10.4172,0.0064,-0.332,0.0575
1858691.0,3.9696,2.1141,10.058,-0.0426,-0.4129,0.0915
1858701.0,4.0917,2.0159,9.4954,-0.0963,-0.5135,0.1325
1858711.0,4.3622,1.7909,8.8897,-0.1825,-0.5906,0.165
1858721.0,4.5729,1.47,8.2073,-0.2677,-0.6348,0.1846
1858731.0,4.7118,1.2474,7.4484,-0.3342,-0.6359,0.1889
1858741.0,4.8674,1.0439,6.7109,-0.3943,-0.5965,0.1825
1858751.0,4.9991,0.747,6.1651,-0.4592,-0.514,0.1671
1858761.0,5.138,0.4022,5.7317,-0.4794,-0.3959,0.1463
1858771.0,5.2529,0.1413,5.3941,-0.4379,-0.2368,0.1144
1858781.0,5.284,-0.0599,5.193,-0.3581,-0.0617,0.0718
1858791.0,5.3032,-0.0503,4.8937,-0.2559,0.1117,0.0202
1858801.0,5.2505,-0.0192,4.7046,-0.1618,0.2927,-0.0335
1858811.0,5.2337,0.1317,4.4604,-0.0665,0.4592,-0.0841
1858821.0,5.3199,0.3639,3.7924,-0.0261,0.605,-0.1309
1858831.0,4.9368,0.5866,3.4333,-0.1224,0.7678,-0.1894
1858841.0,4.8578,0.7901,3.1436,-0.2756,0.9094,-0.24
1858851.0,4.6352,0.8619,3.0718,-0.4012,1.0919,-0.2677
1858861.0,4.3503,0.8787,2.7916,-0.4885,1.2632,-0.2783
1858871.0,3.9528,0.8523,2.4684,-0.6444,1.4245,-0.2975
1858881.0,3.6512,0.6823,2.1572,-0.9174,1.5633,-0.3395
1858891.0,3.2417,0.3735,1.9321,-1.2127,1.7251,-0.3975
1858901.0,2.8084,0.1652,1.743,-1.4011,1.9454,-0.4629
1858911.0,2.2649,0.0694,1.7861,-1.4527,2.2429,-0.5193
1858921.0,1.5897,0.0383,2.1644,-1.3766,2.5877,-0.5587
1858931.0,0.8882,0.0718,3.0335,-1.1818,2.9426,-0.5773
1858941.0,0.2035,0.1341,4.3766,-0.8737,3.2714,-0.5715
1858951.0,-0.4621,0.3352,5.6168,-0.4794,3.4848,-0.5422
1858961.0,-1.1253,0.7638,6.3446,-0.1304,3.5471,-0.513
1858971.0,-1.64,1.2474,6.6511,0.05,3.5322,-0.4832
1858981.0,-2.1691,1.5921,6.9887,0.0745,3.513,-0.4411
1858991.0,-2.7007,1.7957,7.4484,0.1123,3.537,-0.3714
1859001.0,-3.1771,2.0782,7.671,0.2235,3.5806,-0.2799
1859011.0,-3.4285,2.387,8.0972,0.3134,3.6668,-0.1852
1859021.0,-3.9073,2.6336,9.2584,0.3874,3.7993,-0.0819
1859031.0,-4.3431,3.0263,10.082,0.4768,3.8307,0.0399
1859041.0,-5.2385,3.4069,10.8864,0.3735,3.7594,0.1703
1859051.0,-5.8155,2.9688,11.9255,0.0255,3.5545,0.3108
1859061.0,-6.0334,1.7573,13.0652,-0.3139,3.2938,0.4518
1859071.0,-6.1866,0.3687,13.7714,-0.439,3.0341,0.5624
1859081.0,-6.1842,-0.9553,14.4729,-0.39,2.8356,0.5949
1859091.0,-6.0525,-1.6975,15.0452,-0.1394,2.6728,0.5406
1859101.0,-5.8275,-1.4772,15.1433,0.2969,2.5499,0.4385
1859111.0,-5.7533,-0.4717,14.8297,0.7199,2.4435,0.331
1859121.0,-5.8299,0.8188,14.0707,0.9152,2.2987,0.2421
1859131.0,-5.9999,1.798,13.3165,0.745,2.1242,0.1878
1859141.0,-6.2704,1.7549,13.2854,0.2645,1.9539,0.1644
1859151.0,-6.5457,0.9625,13.7714,-0.2932,1.7698,0.1383
1859161.0,-6.699,0.0527,14.5232,-0.7114,1.5958,0.0931
1859171.0,-6.7995,-0.5914,15.2559,-0.8317,1.4415,0.0431
1859181.0,-6.7612,-0.8787,15.6222,-0.6486,1.3175,-0.0005
1859191.0,-6.7924,-0.7805,15.7131,-0.2517,1.276,-0.0346
1859201.0,-6.7612,-0.1317,15.1721,0.2219,1.276,-0.0559
1859211.0,-6.778,0.7278,14.6022,0.4576,1.2813,-0.083
1859222.0,-6.7373,1.2809,14.8129,0.3395,1.2494,-0.1155
1859231.0,-6.9168,1.5227,15.627,0.0803,1.1749,-0.1298
1859241.0,-7.0701,1.4988,16.6493,-0.0947,1.0339,-0.1022
1859251.0,-7.3646,1.2378,17.4011,-0.1091,0.8445,-0.0431
1859261.0,-7.1658,1.0056,17.9493,0.0516,0.638,0.0282
1859271.0,-7.1922,0.826,18.0595,0.3166,0.4432,0.0952
1859281.0,-7.1946,0.8882,17.8224,0.4709,0.2001,0.1272
1859291.0,-7.1156,0.8045,17.7817,0.4103,-0.1059,0.1112
1859301.0,-6.9025,0.7422,17.5663,0.274,-0.4491,0.0718
1859311.0,-6.8354,0.9266,16.994,0.1517,-0.7604,0.0208
1859321.0,-6.7421,1.3216,16.5128,-0.0101,-1.027,-0.0287
1859331.0,-6.7301,1.5395,16.2399,-0.2134,-1.2936,-0.0607
1859341.0,-6.7732,1.5395,15.864,-0.3693,-1.5777,-0.0665
1859351.0,-6.6391,1.5203,15.0571,-0.4544,-1.8395,-0.0516
1859361.0,-6.4212,1.2833,14.3006,-0.497,-2.0289,-0.0325
1859371.0,-6.2177,1.0463,13.7331,-0.4587,-2.1295,-0.017
1859381.0,-6.1316,0.9218,13.137,-0.3581,-2.1726,-0.008
1859391.0,-5.7916,0.747,13.0292,-0.2379,-2.17,-0.0005
1859401.0,-5.5689,0.565,13.0939,-0.0383,-2.1598,0.0053
1859411.0,-5.4157,0.747,12.73,0.2022,-2.195,0.009
1859421.0,-5.1092,1.1851,12.3134,0.3198,-2.2482,0.0011
1859431.0,-4.9799,1.5371,12.1194,0.2996,-2.3184,-0.0021
1859441.0,-4.9201,1.7645,11.9064,0.2256,-2.4179,0.016
1859451.0,-4.6759,1.7358,11.6454,0.1325,-2.5318,0.0468
1859461.0,-4.3742,1.5203,11.4754,0.066,-2.6372,0.0756
1859471.0,-4.0654,1.3503,11.1809,0.0654,-2.7271,0.0974
1859481.0,-3.9792,1.3001,10.738,0.1203,-2.809,0.1128
1859491.0,-3.6272,1.3096,9.9647,0.1729,-2.8777,0.125
1859501.0,-3.1795,1.2594,9.5098,0.1825,-2.891,0.1197
1859511.0,-2.7677,1.3838,8.7269,0.1857,-2.8883,0.1054
1859521.0,-2.229,1.5514,8.3629,0.0921,-2.8436,0.0798
1859531.0,-1.9944,1.6927,8.4228,-0.058,-2.8165,0.0553
1859541.0,-1.7406,1.7885,8.3031,-0.1889,-2.8479,0.0442
1859551.0,-1.5036,1.8459,7.8314,-0.2927,-2.8968,0.0516
1859561.0,-1.0606,1.7023,7.1994,-0.3661,-2.9213,0.0772
1859571.0,-0.5866,1.2977,6.5912,-0.3975,-2.8766,0.1075
1859581.0,0.1317,0.8116,6.2632,-0.3592,-2.7516,0.1224
1859591.0,0.6081,0.5531,6.1028,-0.2235,-2.5866,0.1112
1859601.0,0.9409,0.6776,5.7437,-0.041,-2.4302,0.091
1859611.0,1.257,0.9792,5.3247,0.0724,-2.2801,0.0809
1859621.0,1.7262,1.0056,5.1523,0.0942,-2.1375,0.0841
1859631.0,2.0399,0.8595,4.9344,0.0963,-2.0002,0.0809
1859641.0,2.3918,0.9218,4.3694,0.0745,-1.8672,0.0612
1859651.0,2.8467,1.0319,4.1348,-0.0458,-1.6996,0.0309
1859661.0,3.1891,0.8882,4.3527,-0.2001,-1.5112,-0.0032
1859671.0,3.3639,0.7757,4.6974,-0.2485,-1.3212,-0.0388
1859681.0,3.474,0.9912,4.8794,-0.1564,-1.1387,-0.0601
1859691.0,3.644,1.2594,4.8554,-0.0271,-0.9647,-0.0569
1859701.0,3.7421,1.4269,4.7381,-0.0021,-0.8072,-0.0447
1859711.0,3.8116,1.4509,4.9416,-0.1,-0.6545,-0.0415
1859721.0,3.7493,1.3503,5.4588,-0.2017,-0.5108,-0.041
1859731.0,3.9049,1.0846,5.9831,-0.2097,-0.3751,-0.0234
1859741.0,4.0414,0.7661,6.5721,-0.0931,-0.2368,-0.0069
1859751.0,4.0582,0.7829,6.857,0.125,-0.1027,-0.0059
1859761.0,3.9145,1.1899,6.9695,0.3368,0.0287,-0.0074
1859771.0,3.8427,1.5586,7.2544,0.4443,0.1437,0.0069
1859781.0,3.7996,1.6017,7.7476,0.4677,0.2214,0.0346
1859791.0,3.7781,1.6041,8.1187,0.4693,0.2645,0.0585
1859801.0,3.7852,1.7047,8.4036,0.4502,0.2778,0.074
1859811.0,3.7254,1.7909,8.6383,0.389,0.2661,0.0867
1859821.0,3.6272,1.7502,8.8657,0.2932,0.2288,0.0958
1859831.0,3.6703,1.6233,9.0621,0.1937,0.1916,0.1043
1859841.0,3.6655,1.4102,9.0836,0.1192,0.1527,0.1038
1859851.0,3.7038,1.3479,9.2177,0.0596,0.1266,0.0899
1859861.0,3.7182,1.3575,9.2177,0.0213,0.1149,0.0756
1859871.0,3.7613,1.4006,9.3589,-0.0074,0.1038,0.0607
1859881.0,3.5793,1.5538,9.3709,-0.025,0.0915,0.0506
1859891.0,3.7637,1.5921,9.3087,-0.0415,0.074,0.0591
1859901.0,3.8188,1.4413,9.2991,-0.0506,0.0718,0.0681
1859911.0,3.8786,1.4581,9.165,-0.0303,0.0798,0.0729
1859921.0,3.9409,1.482,9.1171,-0.017,0.1043,0.0798
1859931.0,3.8858,1.4198,9.1147,-0.0138,0.1219,0.0899
1859941.0,3.9217,1.2689,9.0381,0.0133,0.1501,0.0984
1859951.0,3.9409,1.1468,8.8609,0.0846,0.2086,0.1027
1859961.0,3.8954,1.0894,8.8801,0.1362,0.2905,0.0905
1859971.0,3.8259,1.1396,9.1219,0.1426,0.3688,0.0633
1859981.0,3.7517,1.2402,9.3302,0.1139,0.398,0.0335
1859991.0,3.6152,1.2641,9.5505,0.0293,0.3884,0.0059
1860001.0,3.5889,1.1492,9.8402,-0.0506,0.3645,-0.0144
1860011.0,3.6943,0.9409,10.0293,-0.0442,0.3539,-0.0277
1860021.0,3.5099,0.9433,9.9862,0.0192,0.3576,-0.05
1860031.0,3.4189,1.1085,10.1873,0.0623,0.3799,-0.0867
1860041.0,3.3351,1.4365,10.4267,0.1298,0.3943,-0.1123
1860051.0,3.2154,1.7454,10.3262,0.1948,0.39,-0.1128
1860061.0,3.1388,1.9273,10.5417,0.1708,0.3831,-0.1054
1860071.0,3.158,1.9154,10.6829,0.116,0.3459,-0.0942
1860081.0,3.0789,1.9513,10.7955,0.0814,0.307,-0.0889
1860091.0,2.9928,2.1069,10.8529,0.0585,0.2682,-0.0809
1860101.0,2.9185,2.1524,10.9032,0.0144,0.2128,-0.0623
1860111.0,2.9401,2.0638,10.8242,-0.0442,0.1426,-0.041
1860121.0,3.0287,1.8962,10.7739,-0.0846,0.0867,-0.0239
1860131.0,3.043,1.7502,10.6686,-0.0862,0.0543,-0.017
1860141.0,3.0382,1.7262,10.4746,-0.0713,0.0271,-0.0181
1860151.0,3.1316,1.6855,10.3908,-0.0772,0.0271,-0.0298
1860161.0,3.0909,1.8004,10.5129,-0.0745,0.0474,-0.0452
1860171.0,2.9975,2.0351,10.6135,-0.0803,0.0372,-0.0521
1860181.0,2.964,2.1859,10.6255,-0.1213,-0.0213,-0.0399
1860191.0,3.1053,2.047,10.5034,-0.1564,-0.0942,-0.0106
1860201.0,3.2346,1.8603,10.1801,-0.1293,-0.1352,0.0192
1860211.0,3.2896,1.913,9.7971,-0.0782,-0.1304,0.0367
1860221.0,3.3782,1.9321,9.4547,-0.0793,-0.1165,0.0511
1860231.0,3.3878,1.8411,9.2847,-0.1517,-0.1032,0.0564
1860241.0,3.4381,1.7334,9.3158,-0.2198,-0.0809,0.0585
1860251.0,3.4477,1.4772,9.3877,-0.2363,-0.0495,0.0681
1860261.0,3.4884,1.1013,9.493,-0.2128,-0.0213,0.0708
1860271.0,3.6152,0.8021,9.5002,-0.1389,0.0122,0.0474
1860281.0,3.5793,0.9002,9.4547,-0.0208,0.0782,0.0032
1860291.0,3.4357,1.324,9.4762,0.074,0.1591,-0.0357
1860301.0,3.3064,1.6376,9.7636,0.0798,0.2065,-0.0585
1860311.0,3.2322,1.8196,10.1682,0.0468,0.2038,-0.066
1860321.0,3.1939,1.9537,10.3693,0.0394,0.1676,-0.0548
1860331.0,3.1388,1.9992,10.4818,0.0452,0.1192,-0.0319
1860341.0,3.1603,1.9321,10.3669,0.0463,0.0569,-0.0069
1860351.0,3.1939,1.834,10.2137,0.0282,0.0005,0.0085
1860361.0,3.2274,1.7573,9.8761,-0.0122,-0.0463,0.0138
1860371.0,3.2848,1.549,9.73,-0.0782,-0.0511,0.0037
1860381.0,3.3495,1.3934,9.8857,-0.1043,-0.0181,-0.0192
1860391.0,3.2681,1.5658,9.9216,-0.0569,0.0277,-0.0463
1860401.0,3.1699,1.9058,10.1418,-0.0085,0.0777,-0.0633
1860411.0,3.0742,2.2027,10.3741,0.0277,0.0915,-0.0543
1860421.0,3.0454,2.3894,10.4746,0.0431,0.0607,-0.0239
1860431.0,3.1364,2.4134,10.4411,0.0383,-0.0021,0.0197
1860441.0,3.2633,2.2529,10.2185,0.0223,-0.0745,0.0649
1860451.0,3.3854,1.9393,9.845,0.0,-0.1346,0.1016
1860461.0,3.5506,1.6664,9.5026,-0.0234,-0.165,0.1171
1860471.0,3.6033,1.4341,9.2081,-0.0335,-0.1612,0.1165
1860481.0,3.6823,1.2953,8.8657,-0.0293,-0.1501,0.108
1860491.0,3.711,1.1803,8.4755,-0.0484,-0.1282,0.0867
1860501.0,3.7182,1.075,8.1977,-0.0591,-0.0665,0.0591
1860511.0,3.9025,1.0175,8.1882,0.0,0.0537,0.0309
1860521.0,3.9863,1.087,8.2432,0.1091,0.1862,0.0021
1860531.0,3.7876,1.3503,8.3941,0.1692,0.2873,-0.0319
1860541.0,3.632,1.6209,8.6742,0.158,0.3347,-0.0601
1860551.0,3.5913,1.798,8.8083,0.1463,0.3304,-0.0633
1860561.0,3.5937,1.8627,8.6095,0.1181,0.3044,-0.0521
1860571.0,3.5698,1.834,8.5425,0.0192,0.281,-0.0463
1860581.0,3.541,1.7454,8.5449,-0.0979,0.2426,-0.05
1860591.0,3.5482,1.6759,8.272,-0.1751,0.1948,-0.0532
1860601.0,3.5841,1.6879,7.6998,-0.2182,0.1676,-0.0585
1860611.0,3.6799,1.6855,7.2449,-0.2655,0.1979,-0.066
1860621.0,3.7158,1.5658,7.0916,-0.2751,0.2788,-0.0686
1860631.0,3.7326,1.6041,6.7325,-0.2256,0.3544,-0.0654
1860641.0,3.7589,1.7478,6.2704,-0.2272,0.4161,-0.0686
1860651.0,3.7158,1.8076,5.9927,-0.315,0.4635,-0.0708
1860661.0,3.6727,1.7669,5.5689,-0.4246,0.4975,-0.0617
1860671.0,3.5674,1.6137,5.1164,-0.5401,0.5513,-0.0479
1860681.0,3.474,1.2953,4.7501,-0.6497,0.629,-0.0335
1860691.0,3.395,0.9409,4.4029,-0.721,0.7375,-0.0357
1860701.0,3.122,0.7015,4.1061,-0.7348,0.8865,-0.0532
1860711.0,2.794,0.5435,3.6847,-0.6822,1.0626,-0.0803
1860721.0,2.6288,0.51,3.2872,-0.5768,1.2898,-0.1128
1860731.0,2.3607,0.5291,3.1436,-0.4262,1.5884,-0.1469
1860741.0,1.9417,0.6536,3.3447,-0.2033,1.9183,-0.1719
1860751.0,1.4485,1.0056,3.45,0.0601,2.2189,-0.1894
1860761.0,1.075,1.5969,3.5003,0.2543,2.4658,-0.2011
1860771.0,0.6967,2.0901,3.6033,0.2671,2.6451,-0.2022
1860781.0,-0.1676,2.636,3.5123,0.0527,2.7558,-0.1916
1860791.0,-0.8763,2.8874,3.5937,-0.4124,2.8021,-0.158
1860801.0,-1.4078,2.3415,4.221,-1.003,2.8159,-0.0905
1860811.0,-2.0087,1.2402,4.9536,-1.4394,2.8271,-0.0117
1860821.0,-2.4636,0.1987,5.6575,-1.5038,2.9202,0.0415
1860831.0,-2.9161,-0.5195,6.5769,-1.0919,3.1506,0.074
1860841.0,-3.3327,-0.5962,6.9599,-0.2575,3.4337,0.0947
1860851.0,-3.9409,-0.1173,7.0868,0.6407,3.7557,0.0745
1860861.0,-4.5514,0.7254,7.3167,1.2861,4.0015,0.0176
1860871.0,-5.1404,1.5754,7.4101,1.5139,4.1281,-0.0607
1860881.0,-5.6719,2.4349,8.4084,1.2973,4.2069,-0.1517
1860891.0,-6.4643,2.9329,9.6965,0.8125,4.1063,-0.1985
1860901.0,-6.9767,2.9784,10.7763,0.2102,3.8392,-0.1926
1860911.0,-7.5848,2.4349,12.1266,-0.2682,3.5566,-0.1527
1860921.0,-7.8961,1.9609,12.8209,-0.2815,3.3502,-0.0782
1860931.0,-8.1355,1.7741,12.8928,0.0298,3.2762,0.0027
1860941.0,-8.4396,1.6735,13.0029,0.257,3.2326,0.0388
1860951.0,-8.5258,1.4461,13.7691,0.2246,3.1368,0.0154
1860961.0,-8.4204,1.1995,14.5998,0.0681,2.9463,-0.0431
1860971.0,-8.4324,1.1588,14.947,-0.1197,2.6755,-0.1203
1860981.0,-8.6479,1.2881,15.1792,-0.3927,2.3892,-0.2091
1860991.0,-8.9112,1.324,15.5743,-0.6795,2.1146,-0.2708
1861001.0,-8.8969,1.2186,15.9095,-0.8344,1.8613,-0.2857
1861011.0,-9.1195,1.0056,15.9765,-0.8088,1.6581,-0.2682
1861021.0,-9.1267,0.8332,15.8496,-0.6513,1.524,-0.2347
1861031.0,-8.9639,0.6153,16.0603,-0.4214,1.4644,-0.2075
1861041.0,-8.8466,0.7111,16.4003,-0.0883,1.4484,-0.1868
1861051.0,-8.8705,1.2019,16.5655,0.2682,1.4239,-0.1655
1861061.0,-8.9567,1.7047,16.8001,0.4448,1.318,-0.1437
1861071.0,-8.9807,1.8986,17.0707,0.3975,1.0999,-0.1192
1861081.0,-8.8777,1.9249,17.3388,0.2485,0.8226,-0.099
1861091.0,-8.7771,1.9178,17.571,0.1144,0.5465,-0.0772
1861101.0,-8.8466,1.822,17.5734,0.0277,0.2724,-0.0537
1861111.0,-8.5617,1.9034,17.8512,-0.0436,0.0043,-0.0426
1861121.0,-8.6479,2.047,17.7171,-0.042,-0.2826,-0.0074
1861131.0,-8.6359,2.0375,17.3699,-0.1325,-0.6162,0.0314
1861141.0,-8.509,1.7909,17.1114,-0.3358,-0.9908,0.042
1861151.0,-8.2624,1.5993,16.5056,-0.4619,-1.3393,0.0479
1861161.0,-8.1714,1.5155,15.7131,-0.4842,-1.5963,0.0596
1861171.0,-7.9104,1.336,15.0236,-0.4879,-1.7789,0.0686
1861181.0,-7.7835,1.154,14.3221,-0.5023,-1.9427,0.0617
1861191.0,-7.604,1.1468,13.7188,-0.5571,-2.0891,0.0388
1861201.0,-7.616,1.1133,13.5895,-0.6194,-2.188,0.0154
1861211.0,-7.6854,0.9122,13.5799,-0.5784,-2.2748,0.0133
1861221.0,-7.6447,0.8571,13.3884,-0.4257,-2.3514,0.0208
1861231.0,-7.5824,0.9026,13.2136,-0.2235,-2.3897,0.0293
1861241.0,-7.4603,1.0606,13.1681,0.0431,-2.4014,0.0585
1861251.0,-7.3957,1.2665,13.1059,0.3539,-2.4057,0.1091
1861261.0,-7.1419,1.3527,13.0029,0.6151,-2.436,0.1735
1861271.0,-6.8522,1.1612,12.9311,0.7487,-2.511,0.2256
1861281.0,-6.6295,0.8595,12.8449,0.7471,-2.6505,0.2379
1861291.0,-6.1148,0.6919,12.6749,0.6204,-2.8543,0.1942
1861301.0,-6.0478,0.7901,12.3014,0.4087,-3.0889,0.1101
1861311.0,-5.7988,1.1995,11.6478,0.1266,-3.3465,0.0101
1861321.0,-5.5617,1.7071,10.963,-0.1868,-3.5854,-0.0825
1861331.0,-5.193,2.2434,10.0173,-0.4619,-3.787,-0.1336
1861341.0,-4.7884,2.6408,9.0285,-0.6976,-3.911,-0.1458
1861351.0,-4.4077,2.9401,8.1187,-0.862,-3.9477,-0.1277
1861361.0,-3.9289,3.0478,7.0294,-0.936,-3.9185,-0.0665
1861371.0,-3.4261,2.9353,6.1196,-0.9935,-3.8099,0.0128
1861381.0,-2.7102,2.6217,5.6527,-1.0179,-3.6301,0.0995
1861391.0,-2.0399,2.1644,5.5019,-0.9418,-3.4124,0.1815
1861401.0,-1.5419,1.7933,5.3798,-0.7317,-3.1714,0.2496
1861411.0,-0.9816,1.6209,5.387,-0.397,-2.9048,0.3177
1861421.0,-0.6656,1.6448,5.533,0.0149,-2.6233,0.398
1861431.0,-0.2873,1.6999,5.4947,0.4076,-2.3913,0.5013
1861441.0,0.1963,1.5299,5.5857,0.6502,-2.2216,0.6002
1861451.0,0.6943,1.2761,5.5713,0.7301,-2.1178,0.6721
1861461.0,1.1995,1.008,5.1547,0.6689,-2.0843,0.7035
1861471.0,1.8004,0.7015,4.8291,0.4406,-2.0566,0.6891
1861481.0,2.1021,0.3208,4.5514,0.1192,-2.0284,0.6348
1861491.0,2.3846,-0.1077,4.5107,-0.1963,-1.9688,0.547
1861501.0,2.7845,-0.5435,4.5825,-0.3783,-1.8502,0.4358
1861511.0,3.1627,-0.6416,4.7788,-0.3815,-1.6751,0.3155
1861521.0,3.3255,-0.3328,5.0063,-0.3246,-1.4963,0.2033
1861531.0,3.5123,0.0407,5.1978,-0.3374,-1.383,0.108
1861541.0,3.6416,0.3855,5.4324,-0.4331,-1.3101,0.0335
1861551.0,3.8331,0.5674,5.4947,-0.506,-1.2409,0.0016
1861561.0,4.1372,0.4501,5.5138,-0.4975,-1.1424,0.0154
1861571.0,4.3407,0.1221,5.7365,-0.4103,-1.002,0.0325
1861581.0,4.3862,-0.0503,5.9616,-0.2235,-0.8466,0.0335
1861591.0,4.4149,0.1556,6.0597,0.0202,-0.6854,0.0266
1861601.0,4.4341,0.4262,5.849,0.2448,-0.5412,0.0341
1861611.0,4.6543,0.4501,5.9376,0.3735,-0.3751,0.0506
1861621.0,4.786,0.3424,6.1387,0.4491,-0.2038,0.0607
1861631.0,4.8411,0.3256,6.5338,0.4709,-0.0521,0.0484
1861641.0,4.7094,0.4573,7.1156,0.4709,0.074,0.0197
1861651.0,4.7142,0.68,7.5154,0.4784,0.1383,0.0021
1861661.0,4.5897,0.8715,7.8075,0.4294,0.166,-0.009
1861671.0,4.3934,0.9673,8.1116,0.3145,0.1495,-0.008
1861681.0,4.604,0.8619,8.351,0.1681,0.1128,-0.0053
1861691.0,4.5394,0.6177,8.5593,0.0474,0.0889,-0.0133
1861701.0,4.4796,0.5986,8.6239,-0.0298,0.0665,-0.0378
1861711.0,4.5298,0.6632,8.679,-0.1128,0.0548,-0.0686
1861721.0,4.4796,0.6608,8.8538,-0.2081,0.0495,-0.1016
1861731.0,4.4412,0.7374,8.9423,-0.2953,0.0335,-0.1357
1861741.0,4.4676,0.9098,9.0692,-0.397,0.0213,-0.1697
1861751.0,4.4245,1.063,9.1602,-0.4927,-0.0059,-0.1953
1861761.0,4.3742,1.2402,9.2344,-0.5449,-0.0176,-0.2075
1861771.0,4.4005,1.4724,9.1746,-0.5321,0.0,-0.1905
1861781.0,4.3144,1.6688,9.2488,-0.506,0.0474,-0.1522
1861791.0,4.1204,1.6807,9.402,-0.4922,0.0761,-0.0984
1861801.0,4.197,1.4676,9.7109,-0.4741,0.0883,-0.0335
1861811.0,4.276,0.9409,10.07,-0.3821,0.1075,0.0351
1861821.0,4.3862,0.4669,10.2424,-0.1942,0.1139,0.0894
1861831.0,4.5657,0.1077,10.3142,0.033,0.1091,0.1117
1861841.0,4.5179,-0.0239,10.0078,0.2416,0.0905,0.0995
1861851.0,4.5298,0.2634,9.3182,0.3374,0.0628,0.05
1861861.0,4.537,0.6081,8.916,0.248,0.0756,-0.0138
1861871.0,4.4748,0.8092,9.1482,0.0479,0.1187,-0.0686
1861881.0,4.2856,0.9266,9.6295,-0.141,0.1378,-0.108
1861891.0,4.13,0.9792,10.0556,-0.2597,0.1048,-0.1224
1861901.0,4.1539,0.9266,10.2879,-0.2847,0.0559,-0.1149
1861911.0,4.197,0.8691,10.3477,-0.2054,0.017,-0.0931
1861921.0,4.1922,1.0199,10.0987,-0.0979,-0.0154,-0.0729
1861931.0,4.1156,1.1253,9.9838,-0.066,-0.0399,-0.0553
1861941.0,4.2066,1.0487,9.9264,-0.0819,-0.0788,-0.0293
1861951.0,4.3167,0.826,9.6247,-0.0809,-0.1208,-0.0064
1861961.0,4.4365,0.6752,9.3015,-0.0851,-0.1288,-0.0021
1861971.0,4.4987,0.5818,9.1435,-0.1054,-0.1112,-0.016
1861981.0,4.4796,0.6273,9.0285,-0.1272,-0.0803,-0.0447
1861991.0,4.4173,0.8332,8.9998,-0.1325,-0.0388,-0.0681
1862001.0,4.3574,0.9505,9.0477,-0.1298,0.0064,-0.0697
1862011.0,4.3335,0.8906,9.1459,-0.1288,0.0431,-0.0575
1862021.0,4.367,0.7087,9.3422,-0.1016,0.0777,-0.0452
1862031.0,4.4125,0.5794,9.5553,-0.0287,0.108,-0.0383
1862041.0,4.4029,0.6345,9.6343,0.0506,0.1139,-0.0399
1862051.0,4.3048,0.8045,9.505,0.0644,0.0873,-0.0537
1862061.0,4.379,0.9457,9.3757,0.0266,0.0564,-0.0623
1862071.0,4.3981,1.0175,9.1315,-0.0223,0.0458,-0.0644
1862081.0,4.3622,1.0175,9.1123,-0.0984,0.066,-0.0692
1862091.0,4.312,0.9361,9.3757,-0.1421,0.1038,-0.0745
1862101.0,4.3024,0.9888,9.4308,-0.1176,0.1368,-0.0745
1862111.0,4.2593,1.0918,9.584,-0.0958,0.1703,-0.0702
1862121.0,4.197,1.1827,9.7947,-0.0846,0.1724,-0.0607
1862131.0,4.1731,1.2689,9.8497,-0.075,0.141,-0.0431
1862141.0,4.2042,1.3336,9.8186,-0.0942,0.1075,-0.0218
1862151.0,4.2018,1.2689,9.7971,-0.1314,0.0724,0.0053
1862161.0,4.2473,1.087,9.7707,-0.1628,0.0319,0.0362
1862171.0,4.2952,0.7398,9.7851,-0.1602,0.0043,0.0617
1862181.0,4.4843,0.3998,9.5361,-0.1038,-0.0239,0.0745
1862191.0,4.6136,0.2442,9.256,-0.0325,-0.0122,0.0543
1862201.0,4.5945,0.3663,8.9399,0.0309,0.041,0.0176
1862211.0,4.5538,0.6081,9.0357,0.0351,0.1181,-0.0181
1862221.0,4.4245,0.7925,9.2344,0.0085,0.1804,-0.0404
1862231.0,4.3718,0.8691,9.5313,0.0021,0.2049,-0.0399
1862241.0,4.3383,0.8284,9.7252,0.0213,0.2155,-0.025
1862251.0,4.3144,0.7039,9.8904,0.0601,0.2134,-0.0085
1862261.0,4.3335,0.577,9.9958,0.1,0.1958,-0.0027
1862271.0,4.3096,0.6273,9.9671,0.1256,0.1644,-0.0176
1862281.0,4.3191,0.7614,9.8043,0.1389,0.1405,-0.0335
1862291.0,4.2784,0.8811,9.742,0.1038,0.1288,-0.0468
1862301.0,4.2258,0.905,9.8809,-0.0016,0.1038,-0.0596
1862311.0,4.2186,0.7997,10.0533,-0.0883,0.0564,-0.0713
1862321.0,4.3335,0.6991,10.0126,-0.0979,0.0255,-0.0798
1862331.0,4.276,0.7973,9.9934,-0.0511,0.0293,-0.091
1862341.0,4.1707,1.154,9.8761,-0.0032,0.0341,-0.1
1862351.0,4.1851,1.5131,9.7396,-0.0074,0.0298,-0.0894
1862361.0,4.13,1.5467,9.7396,-0.0575,0.0197,-0.0591
1862371.0,4.1563,1.3168,9.845,-0.1128,0.009,-0.0239
1862381.0,4.3024,0.9936,9.9671,-0.1022,0.0117,0.0037
1862391.0,4.3167,0.8428,9.9,-0.025,0.025,0.0122
1862401.0,4.2617,0.9984,9.8569,0.0346,0.0468,0.0021
1862411.0,4.2377,1.2258,9.9096,0.0404,0.0559,-0.0064
1862421.0,4.1324,1.336,9.9288,-0.0154,0.0351,-0.0011
1862431.0,4.0989,1.2306,10.0628,-0.1139,-0.0101,0.008
1862441.0,4.1994,1.0223,10.173,-0.1644,-0.0532,0.0186
1862451.0,4.2425,0.8715,10.1562,-0.1378,-0.0846,0.0261
1862461.0,4.3096,0.8835,10.0149,-0.0921,-0.1117,0.0234
1862471.0,4.3622,1.0439,9.7851,-0.0756,-0.1485,0.0149
1862481.0,4.4245,1.2115,9.4715,-0.1123,-0.1926,0.0149
1862491.0,4.4843,1.2665,9.1482,-0.1963,-0.2405,0.0266
1862501.0,4.5777,1.166,8.8059,-0.2794,-0.2943,0.0463
1862511.0,4.7621,1.0175,8.272,-0.3453,-0.3358,0.0676
1862521.0,4.889,0.7805,7.6926,-0.406,-0.3496,0.0819
1862531.0,5.0613,0.6033,7.1084,-0.4597,-0.3395,0.0857
1862541.0,5.0973,0.4046,6.5745,-0.5177,-0.3033,0.0803
1862551.0,5.1188,0.2514,6.0478,-0.5678,-0.2458,0.066
1862561.0,5.272,0.0431,5.5545,-0.6002,-0.1543,0.0521
1862571.0,5.3247,-0.1987,5.3151,-0.5843,-0.0229,0.0372
1862581.0,5.2888,-0.3974,5.0374,-0.4885,0.1229,0.0218
1862591.0,5.3726,-0.6225,4.6711,-0.3485,0.2804,-0.0069
1862601.0,5.2529,-0.6393,4.4293,-0.1974,0.4736,-0.0591
1862611.0,5.0661,-0.3926,4.1635,-0.0463,0.6747,-0.1187
1862621.0,4.9392,0.0431,3.9097,0.0575,0.87,-0.1644
1862631.0,4.6855,0.3879,3.9576,0.0649,1.0727,-0.1953
1862641.0,4.3407,0.6895,4.0582,0.0138,1.2329,-0.2038
1862651.0,4.051,1.0295,4.0127,-0.0511,1.3627,-0.1852
1862661.0,3.7757,1.1133,4.0031,-0.1298,1.492,-0.1421
1862671.0,3.4261,0.838,4.0318,-0.1506,1.6389,-0.0793
1862681.0,3.2633,0.4429,3.8738,-0.0458,1.8193,-0.0154
1862691.0,2.9999,0.0527,3.7661,0.1336,2.0577,0.0287
1862701.0,2.6001,-0.3376,3.7733,0.3102,2.3009,0.0319
1862711.0,2.1644,-0.6153,3.6512,0.4704,2.5158,-0.008
1862721.0,1.7885,-0.735,3.4716,0.5603,2.7649,-0.0894
1862731.0,1.1444,-0.8428,4.379,0.5401,3.0825,-0.2123
1862741.0,0.2993,-0.8116,6.2034,0.563,3.3374,-0.3491
1862751.0,-0.4238,-0.3543,7.7189,0.7492,3.4417,-0.472
1862761.0,-0.8763,0.5555,8.4779,0.9833,3.4401,-0.5731
1862771.0,-1.4293,1.6305,9.0932,1.0679,3.3805,-0.6486
1862781.0,-1.8627,2.7438,9.7109,0.9961,3.2352,-0.6827
1862791.0,-2.1476,3.6248,10.0197,0.8785,3.024,-0.6492
1862801.0,-2.5905,4.3551,9.5936,0.7093,2.7904,-0.5646
1862811.0,-3.1723,4.7285,8.7963,0.3608,2.5887,-0.4518
1862821.0,-3.5506,4.2976,8.6072,-0.224,2.4467,-0.3331
1862831.0,-3.371,3.1101,9.4403,-0.804,2.3817,-0.2341
1862841.0,-3.4596,1.9561,10.0078,-1.085,2.3482,-0.1745
1862851.0,-3.4979,1.4772,10.2256,-1.16,2.3408,-0.1676
1862861.0,-3.4381,1.5706,10.738,-1.177,2.3599,-0.1937
1862871.0,-3.8642,2.0734,11.0397,-1.1121,2.3578,-0.1926
1862881.0,-4.1515,2.5546,11.0325,-1.0664,2.3291,-0.1298
1862891.0,-4.4245,2.4612,11.4658,-1.0839,2.3243,-0.0245
1862901.0,-4.7621,2.1476,11.6933,-1.0334,2.3088,0.1064
1862911.0,-4.8602,1.6089,12.1985,-0.9142,2.3168,0.2379
1862921.0,-5.2122,0.9577,12.7443,-0.6614,2.336,0.3533
1862931.0,-5.5258,0.4118,12.8617,-0.2565,2.378,0.4438
1862941.0,-5.7197,0.0934,12.9478,0.2017,2.4796,0.4837
1862951.0,-5.9113,-0.0168,12.9215,0.6173,2.6015,0.4773
1862961.0,-6.0406,-0.0239,13.2208,0.803,2.7069,0.4166
1862971.0,-6.2632,0.0072,14.3365,0.737,2.7329,0.2948
1862981.0,-6.4404,0.3519,15.4378,0.5598,2.6074,0.1517
1862991.0,-6.6128,0.9122,16.1585,0.3336,2.345,0.0388
1863001.0,-6.8378,1.2139,16.4841,0.0921,2.0055,-0.0181
1863011.0,-6.7684,1.154,16.8336,-0.0484,1.7102,-0.033
1863021.0,-6.9815,1.3192,16.9821,0.0623,1.5176,-0.0186
1863031.0,-7.1754,1.6305,16.7067,0.2724,1.351,0.0346
1863041.0,-7.1658,1.5514,17.1568,0.2868,1.143,0.0782
1863051.0,-7.0677,1.3455,17.2742,0.2086,0.796,0.0947
1863061.0,-6.9049,1.3503,16.6708,0.1171,0.4039,0.099
1863071.0,-6.517,1.1564,15.931,-0.0074,0.0654,0.1043
1863081.0,-6.3375,0.8308,15.2487,-0.0878,-0.1548,0.0937
1863091.0,-6.256,0.9984,14.6022,-0.0867,-0.2794,0.0697
1863101.0,-6.213,1.1995,14.0899,-0.1634,-0.3719,0.0521
1863111.0,-6.1004,1.1157,14.3101,-0.3485,-0.4826,0.0303
1863121.0,-6.1172,0.8882,14.5041,-0.4406,-0.6066,0.0271
1863131.0,-5.9831,0.6297,14.801,-0.3964,-0.7114,0.041
1863141.0,-5.9783,0.4908,14.6932,-0.2682,-0.8402,0.0559
1863151.0,-5.7676,0.4094,14.4825,-0.1799,-0.9865,0.0591
1863161.0,-5.6838,0.3783,14.4083,-0.1352,-1.127,0.0511
1863171.0,-5.5593,0.4549,13.9702,-0.0649,-1.2675,0.05
1863181.0,-5.5043,0.3256,13.805,-0.0266,-1.358,0.0484
