time_ms,ax,ay,az,gx,gy,gz
1870911.0,3.304,1.64,10.1011,-0.067,0.0713,0.0559
1870921.0,3.3327,1.4724,9.9886,-0.0553,0.0612,0.0617
1870931.0,3.3734,1.3862,9.9192,-0.0553,0.0479,0.0532
1870941.0,3.3854,1.3671,9.8234,-0.083,0.0362,0.0335
1870951.0,3.3926,1.3982,9.8282,-0.1128,0.0415,0.0144
1870961.0,3.3471,1.4413,9.9264,-0.1096,0.0559,0.0043
1870971.0,3.2992,1.5107,9.9671,-0.0942,0.0708,0.0005
1870981.0,3.2394,1.6161,9.9958,-0.0841,0.074,0.0016
1870991.0,3.2465,1.7142,10.0604,-0.0756,0.0628,0.0074
1871001.0,3.2226,1.7095,9.991,-0.0713,0.0511,0.0239
1871011.0,3.2417,1.6017,10.0556,-0.0676,0.0431,0.0431
1871021.0,3.316,1.4174,9.9527,-0.0521,0.0325,0.0543
1871031.0,3.4261,1.2761,9.8952,-0.0447,0.0287,0.0484
1871041.0,3.395,1.2665,9.8306,-0.0607,0.0287,0.0277
1871051.0,3.4117,1.3862,9.754,-0.0958,0.025,0.0021
1871061.0,3.2729,1.5275,9.8354,-0.1415,0.0218,-0.016
1871071.0,3.2394,1.5634,9.9599,-0.1517,0.0197,-0.0165
1871081.0,3.237,1.5802,9.9407,-0.0958,0.025,-0.0016
1871091.0,3.2968,1.5897,9.7372,-0.0176,0.0388,0.0186
1871101.0,3.3279,1.5754,9.6247,0.0133,0.0601,0.033
1871111.0,3.3423,1.5874,9.6031,-0.0085,0.0756,0.0335
1871121.0,3.2729,1.6233,9.6175,-0.0686,0.0793,0.0287
1871131.0,3.2729,1.5538,9.7947,-0.1437,0.0686,0.0282
1871141.0,3.2944,1.3958,9.9359,-0.1809,0.0474,0.0319
1871151.0,3.3208,1.2522,9.9264,-0.1453,0.0404,0.0378
1871161.0,3.4069,1.1253,9.7659,-0.0777,0.0495,0.0415
1871171.0,3.4141,1.0774,9.6103,-0.0314,0.075,0.033
1871181.0,3.4022,1.1444,9.5289,-0.0085,0.107,0.0101
1871191.0,3.3567,1.2977,9.6055,-0.0154,0.1447,-0.0117
1871201.0,3.2872,1.3767,9.8713,-0.0521,0.1687,-0.0261
1871211.0,3.2034,1.4054,10.1347,-0.0894,0.1543,-0.0346
1871221.0,3.2082,1.4269,10.2472,-0.0937,0.1128,-0.0325
1871231.0,3.2825,1.403,10.2137,-0.0676,0.0676,-0.0218
1871241.0,3.3351,1.3384,9.9503,-0.0394,0.0303,-0.0154
1871251.0,3.3662,1.415,9.6462,-0.042,0.0074,-0.0208
1871261.0,3.3806,1.4772,9.4379,-0.091,0.0133,-0.0351
1871271.0,3.3495,1.47,9.4164,-0.1543,0.041,-0.0436
1871281.0,3.3255,1.4222,9.6319,-0.1804,0.0729,-0.0484
1871291.0,3.2968,1.4078,9.7875,-0.1394,0.099,-0.049
1871301.0,3.2848,1.4629,9.7324,-0.0633,0.1224,-0.0426
1871311.0,3.2657,1.5012,9.6893,-0.0005,0.1399,-0.0346
1871321.0,3.316,1.5778,9.6319,0.0351,0.1469,-0.0282
1871331.0,3.3878,1.6472,9.4643,0.0293,0.1543,-0.0271
1871341.0,3.4022,1.7502,9.4571,-0.0181,0.1676,-0.0319
1871351.0,3.3351,1.9824,9.3134,-0.0814,0.1671,-0.0346
1871361.0,3.2609,2.1548,8.9232,-0.2059,0.166,-0.0266
1871371.0,3.3639,1.6759,9.6462,-0.3219,0.2666,-0.0048
1871381.0,3.2992,1.4006,10.1347,-0.2187,0.3975,0.0229
1871391.0,3.1867,1.4772,10.75,-0.1101,0.5044,0.0309
1871401.0,2.9544,1.391,11.5209,-0.132,0.5252,0.0266
1871411.0,3.0119,1.4868,12.3684,-0.1857,0.4991,0.0154
1871421.0,2.624,1.3838,13.3716,-0.2304,0.4816,0.0154
1871431.0,2.5402,1.2881,14.1042,-0.2751,0.398,0.0106
1871441.0,2.3487,1.336,15.0859,-0.3714,0.3187,-0.0192
1871451.0,2.0231,1.6424,16.2231,-0.4411,0.1905,-0.041
1871461.0,1.9034,2.0662,16.9845,-0.4885,-0.0208,-0.0431
1871471.0,1.549,2.4253,17.7506,-0.5864,-0.3076,-0.0085
1871481.0,1.3072,2.4612,18.0116,-0.7146,-0.7136,0.0474
1871491.0,1.3791,2.2458,17.7315,-0.8381,-1.1675,0.1064
1871501.0,1.5419,1.8148,17.0826,-0.9152,-1.5761,0.1607
1871511.0,1.731,1.4964,16.0005,-0.9158,-1.9342,0.1985
1871521.0,2.0494,1.2809,14.5567,-0.912,-2.2445,0.2198
1871531.0,2.5187,1.0032,13.0101,-0.9312,-2.4818,0.2256
1871541.0,2.964,0.6416,11.4706,-0.9025,-2.6223,0.2246
1871551.0,3.4907,0.3424,10.0437,-0.8046,-2.6574,0.216
1871561.0,3.9145,0.0862,8.7221,-0.6385,-2.6191,0.2006
1871571.0,4.2641,-0.012,7.434,-0.4581,-2.5291,0.1777
1871581.0,4.5633,-0.103,6.3398,-0.331,-2.4073,0.1453
1871591.0,4.8698,-0.158,5.4253,-0.2687,-2.2844,0.0968
1871601.0,5.1356,-0.1389,4.5633,-0.249,-2.1471,0.0362
1871611.0,5.375,-0.0814,3.8403,-0.2458,-1.9991,-0.0266
1871621.0,5.5857,-0.0575,3.2537,-0.2549,-1.8283,-0.0873
1871631.0,5.7174,-0.0215,2.9425,-0.2559,-1.648,-0.1522
1871641.0,5.9209,0.1365,2.5809,-0.2139,-1.4681,-0.2176
1871651.0,6.0358,0.4046,2.2553,-0.1442,-1.2872,-0.274
1871661.0,6.1148,0.7183,1.9345,-0.0665,-1.1015,-0.3214
1871671.0,6.098,1.1372,1.64,0.0059,-0.9206,-0.3539
1871681.0,6.0549,1.64,1.2785,0.0479,-0.7583,-0.3608
1871691.0,5.9448,2.0662,0.9385,0.0319,-0.6055,-0.3453
1871701.0,5.8945,2.3559,0.6752,-0.0229,-0.4534,-0.3033
1871711.0,5.7868,2.4636,0.2538,-0.0899,-0.3022,-0.2421
1871721.0,5.7485,2.557,-0.2586,-0.1618,-0.1203,-0.1719
1871731.0,5.7509,2.5762,-0.5315,-0.241,0.1128,-0.0942
1871741.0,5.7102,2.5043,-0.7518,-0.3012,0.3773,-0.0101
1871751.0,5.5833,2.2218,-0.5411,-0.2767,0.7114,0.0857
1871761.0,5.5234,1.7238,-0.1077,-0.0883,1.0818,0.191
1871771.0,5.43,1.2665,0.2729,0.2762,1.45,0.2841
1871781.0,5.1787,1.0798,0.4764,0.7125,1.8023,0.3485
1871791.0,4.8842,1.1061,0.6009,1.0802,2.1136,0.3789
1871801.0,4.4412,1.2522,0.5435,1.2946,2.369,0.3831
1871811.0,3.8882,1.4796,0.2897,1.3149,2.577,0.3672
1871821.0,3.4429,1.6017,-0.1676,1.1057,2.7617,0.3358
1871831.0,2.7845,1.4269,-0.0455,0.6987,3.0001,0.2921
1871841.0,2.1883,0.9816,0.6225,0.298,3.2512,0.2405
1871851.0,1.5514,0.6943,1.2139,0.0644,3.4992,0.1857
1871861.0,0.9649,0.8404,1.4389,-0.0463,3.7423,0.132
1871871.0,0.1197,1.2426,1.7813,-0.1767,4.0068,0.0894
1871881.0,-0.68,1.664,2.6384,-0.3406,4.2644,0.0883
1871891.0,-1.6783,1.8866,3.8523,-0.4566,4.4825,0.1431
1871901.0,-2.8826,2.0183,4.5059,-0.4539,4.6065,0.2543
1871911.0,-3.4596,1.6831,4.7285,-0.4374,4.6996,0.4028
1871921.0,-4.1084,0.6967,5.1236,-0.4486,4.8529,0.5268
1871931.0,-4.6471,-0.2658,5.4109,-0.4161,5.029,0.5848
1871941.0,-5.3247,-0.8212,6.0717,-0.3581,5.2631,0.5587
1871951.0,-6.3135,-0.9266,6.8402,-0.2341,5.4898,0.4853
1871961.0,-7.2616,-0.5124,6.8809,-0.1346,5.651,0.406
1871971.0,-8.3701,-0.3974,7.8219,-0.2959,5.8351,0.3272
1871981.0,-8.3701,-0.3974,7.8219,-0.2959,5.8351,0.3272
1871991.0,-9.8617,-0.8954,10.1586,-0.5433,6.0076,0.2751
1872001.0,-10.5776,-1.5107,13.4195,-0.5545,6.098,0.2448
1872011.0,-10.75,-1.5921,16.2016,-0.2283,6.0139,0.215
1872021.0,-10.8433,-0.8882,17.8488,0.1043,5.7175,0.1596
1872031.0,-11.0828,-0.0287,19.587,0.0734,5.2535,0.0862
1872041.0,-11.157,0.5866,20.9612,-0.2208,4.5677,0.0463
1872051.0,-10.9822,0.6847,22.0578,-0.5369,3.8152,0.0819
1872061.0,-10.8816,0.0886,22.3714,-0.696,3.0634,0.1666
1872071.0,-10.6973,-0.4693,21.6508,-0.7146,2.3594,0.2363
1872081.0,-10.1897,-1.008,20.796,-0.6673,1.7831,0.2714
1872091.0,-9.8043,-1.2977,19.4553,-0.505,1.4069,0.2873
1872101.0,-9.4212,-1.64,18.2773,-0.315,1.1909,0.2879
1872111.0,-9.1075,-1.9489,17.5471,-0.2144,1.0642,0.2453
1872121.0,-8.9998,-2.0327,17.1018,-0.2017,0.9594,0.1591
1872131.0,-8.9016,-2.0638,16.9366,-0.2458,0.8604,0.0628
1872141.0,-8.7724,-2.1404,17.3532,-0.3017,0.7774,-0.0314
1872151.0,-8.8849,-2.0806,18.0259,-0.2134,0.6944,-0.1043
1872161.0,-8.8633,-1.4796,18.0259,0.0484,0.5789,-0.1421
1872171.0,-8.6455,-0.7805,18.0044,0.2751,0.4597,-0.1495
1872181.0,-8.5545,-0.4381,18.4904,0.4177,0.3299,-0.1282
1872191.0,-8.4755,-0.1341,18.6006,0.5337,0.1144,-0.0905
1872201.0,-8.3534,0.067,18.6772,0.531,-0.1783,-0.0596
1872211.0,-8.2528,0.0192,18.5311,0.4044,-0.5593,-0.042
1872221.0,-8.0732,-0.1867,18.16,0.2097,-0.9892,-0.042
1872231.0,-7.9487,-0.5411,17.3795,0.0213,-1.4149,-0.0601
1872241.0,-7.7452,-0.9433,16.4003,-0.1304,-1.7879,-0.1
1872251.0,-7.4436,-1.3001,15.5671,-0.2022,-2.0646,-0.1612
1872261.0,-7.1682,-1.3336,14.5017,-0.1517,-2.2567,-0.2373
1872271.0,-6.9073,-0.9385,13.441,-0.0851,-2.3876,-0.3166
1872281.0,-6.7828,-0.4717,12.5384,-0.1139,-2.4908,-0.3895
1872291.0,-6.7229,-0.2155,11.9878,-0.2086,-2.5717,-0.4417
1872301.0,-6.4021,-0.1867,11.6478,-0.2639,-2.6228,-0.4741
1872311.0,-6.0214,-0.1484,11.5329,-0.2357,-2.626,-0.4965
1872321.0,-5.8131,0.0622,11.3222,-0.1171,-2.618,-0.506
1872331.0,-5.6814,0.5195,11.2575,0.0064,-2.6281,-0.4959
1872341.0,-5.5905,0.8308,11.2599,0.1086,-2.6824,-0.4544
1872351.0,-5.4612,0.8763,11.0612,0.2474,-2.7627,-0.3815
1872361.0,-5.1212,0.8499,10.4291,0.4294,-2.8431,-0.2969
1872371.0,-4.6591,0.7398,9.5122,0.5906,-2.8665,-0.2283
1872381.0,-4.1946,0.5531,8.5641,0.6699,-2.8292,-0.1953
1872391.0,-3.8235,0.5842,7.908,0.6247,-2.7383,-0.2155
1872401.0,-3.1939,0.7638,7.7931,0.4901,-2.618,-0.2671
1872411.0,-2.7916,0.9792,8.0493,0.3501,-2.4871,-0.3198
1872421.0,-2.8611,1.4078,8.4683,0.2581,-2.3897,-0.3501
1872431.0,-2.7438,1.7741,8.9184,0.2059,-2.3402,-0.3352
1872441.0,-2.5977,1.7669,9.1363,0.1948,-2.3567,-0.2783
1872451.0,-2.5283,1.5993,9.1243,0.2006,-2.4046,-0.2187
1872461.0,-2.1356,1.3982,8.8155,0.2304,-2.4472,-0.1692
1872471.0,-1.7909,1.2186,8.3965,0.2767,-2.4669,-0.1282
1872481.0,-1.3168,1.008,7.9727,0.2969,-2.4541,-0.1064
1872491.0,-0.8811,0.8236,7.7931,0.3006,-2.4142,-0.1107
1872501.0,-0.4884,0.7733,7.58,0.29,-2.3785,-0.1325
1872511.0,-0.0982,0.7757,7.3047,0.2155,-2.3738,-0.1713
1872521.0,0.1915,0.7757,6.9815,0.0553,-2.3865,-0.2283
1872531.0,0.4501,0.8882,6.7086,-0.1708,-2.4009,-0.2953
1872541.0,0.9122,0.9194,6.5218,-0.3874,-2.4004,-0.3549
1872551.0,1.2139,0.9098,6.3135,-0.5225,-2.3636,-0.3964
1872561.0,1.5036,0.8643,5.9041,-0.5731,-2.2854,-0.4204
1872571.0,1.9201,0.7829,5.6599,-0.5518,-2.1556,-0.4278
1872581.0,2.4205,0.5866,5.5905,-0.4608,-1.9757,-0.4363
1872591.0,2.66,0.5986,5.5737,-0.2889,-1.7725,-0.4518
1872601.0,3.0047,1.0319,5.4492,-0.1187,-1.5889,-0.4603
1872611.0,3.0909,1.549,5.4588,-0.0543,-1.4261,-0.455
1872621.0,3.3471,1.9776,5.5115,-0.0569,-1.3047,-0.4161
1872631.0,3.4189,2.2194,5.5474,-0.0878,-1.1882,-0.3374
1872641.0,3.6871,2.1189,5.4947,-0.1219,-1.0935,-0.2283
1872651.0,3.9935,1.6568,5.5474,-0.1314,-0.9812,-0.1187
1872661.0,4.2401,1.2234,5.3965,-0.0835,-0.8556,-0.0378
1872671.0,4.4149,1.0702,5.1092,-0.0117,-0.6928,-0.0011
1872681.0,4.4149,1.2905,4.9368,0.025,-0.4837,0.017
1872691.0,4.3694,1.4317,5.0422,-0.0585,-0.274,0.0394
1872701.0,4.3455,1.1995,5.5689,-0.2804,-0.1107,0.0532
1872711.0,4.3072,0.7829,6.3494,-0.5289,0.0,0.049
1872721.0,4.4053,0.3855,7.1395,-0.6896,0.074,0.0351
1872731.0,4.3934,0.0862,7.7668,-0.7482,0.1314,0.0144
1872741.0,4.2713,-0.0215,8.3893,-0.7194,0.1783,-0.0122
1872751.0,4.3024,-0.103,8.8298,-0.6167,0.2134,-0.0287
1872761.0,4.1252,-0.1867,9.4403,-0.4571,0.2528,-0.0357
1872771.0,4.0941,-0.1604,9.8138,-0.2075,0.2549,-0.0309
1872781.0,4.0701,-0.1149,9.6582,0.0585,0.2336,-0.0202
1872791.0,4.1108,-0.1101,9.481,0.2267,0.2288,-0.0271
1872801.0,4.0414,-0.0599,9.3015,0.3193,0.2432,-0.0569
1872811.0,3.9983,0.0958,9.2177,0.332,0.2687,-0.1038
1872821.0,3.9792,0.2801,9.4308,0.2522,0.2863,-0.1596
1872831.0,3.9672,0.4381,9.7276,0.1336,0.2772,-0.2182
1872841.0,3.8714,0.7422,10.082,0.0447,0.2613,-0.2687
1872851.0,3.7757,1.1947,10.3334,0.0303,0.2288,-0.2847
1872861.0,3.6727,1.6185,10.422,0.0266,0.1729,-0.2634
1872871.0,3.6152,1.8531,10.3789,0.0037,0.0984,-0.216
1872881.0,3.6607,1.8435,10.1682,-0.0218,0.0239,-0.1538
1872891.0,3.6943,1.6855,9.9575,-0.0357,-0.0181,-0.0942
1872901.0,3.8211,1.4772,9.6534,-0.0298,-0.0335,-0.0447
1872911.0,3.9169,1.2761,9.3972,-0.041,-0.0181,-0.0181
1872921.0,3.8954,1.1444,9.3948,-0.0596,0.0202,-0.0106
1872931.0,3.8571,1.1109,9.2895,-0.0335,0.0692,-0.0048
1872941.0,4.0055,1.0032,9.3278,-0.0016,0.1383,0.0053
1872951.0,3.9552,0.9242,9.6558,0.0367,0.2198,0.0074
1872961.0,3.8307,1.0942,9.7995,0.0958,0.2575,0.0043
1872971.0,3.7972,1.3024,9.8569,0.1155,0.2639,0.0112
1872981.0,3.7924,1.3671,10.1466,0.1048,0.2783,0.0282
1872991.0,3.6631,1.4724,10.2448,0.1149,0.2724,0.0543
1873001.0,3.4788,1.6065,10.2615,0.0841,0.224,0.0857
1873011.0,3.5243,1.403,10.1442,-0.0149,0.1352,0.124
1873021.0,3.7206,0.8643,10.2328,-0.116,0.0777,0.1495
1873031.0,3.7757,0.51,10.3118,-0.1091,0.0644,0.1543
1873041.0,3.7565,0.6345,10.003,-0.0463,0.0378,0.1421
1873051.0,3.7421,0.7039,9.572,-0.0952,-0.0048,0.1245
1873061.0,3.8379,0.5411,9.5241,-0.2006,-0.0112,0.1075
1873071.0,3.8978,0.3328,9.6798,-0.2097,0.0388,0.1032
1873081.0,3.814,0.2682,9.6582,-0.149,0.0798,0.0958
1873091.0,3.8523,0.2777,9.7923,-0.1165,0.0947,0.0788
1873101.0,3.8547,0.2586,9.7468,-0.0506,0.0984,0.0708
1873111.0,3.9552,0.3208,9.5672,0.0596,0.1352,0.0676
1873121.0,3.9409,0.5339,9.5074,0.133,0.1963,0.0591
1873131.0,3.814,0.8332,9.5505,0.1293,0.2368,0.049
1873141.0,3.6105,0.9888,9.6798,0.0468,0.2272,0.0511
1873151.0,3.62,0.7733,9.8641,-0.0713,0.1894,0.0644
1873161.0,3.6655,0.4525,10.0413,-0.1256,0.158,0.0718
1873171.0,3.7062,0.3017,9.9647,-0.0937,0.1479,0.066
1873181.0,3.6488,0.3184,9.8593,-0.0527,0.1607,0.0479
1873191.0,3.6536,0.3974,9.8569,-0.0303,0.1767,0.0266
1873201.0,3.6176,0.4573,9.9742,-0.0053,0.2001,0.0149
1873211.0,3.5482,0.5962,10.0102,0.0287,0.216,0.0059
1873221.0,3.5027,0.814,10.1706,0.0484,0.2277,0.0005
1873231.0,3.4069,0.9888,10.319,0.049,0.2251,0.0096
1873241.0,3.3615,1.0534,10.4124,0.0325,0.1979,0.0282
1873251.0,3.4046,1.0534,10.4339,0.0037,0.1548,0.049
1873261.0,3.4285,1.0439,10.3669,-0.0293,0.1032,0.0692
1873271.0,3.4548,0.9505,10.2855,-0.0644,0.0575,0.083
1873281.0,3.5243,0.7949,10.0676,-0.0846,0.016,0.0979
1873291.0,3.6464,0.6416,9.7827,-0.1054,0.0032,0.099
1873301.0,3.62,0.5602,9.7061,-0.116,0.0287,0.0883
1873311.0,3.5889,0.5483,9.6726,-0.1117,0.0686,0.0793
1873321.0,3.5985,0.3519,9.9311,-0.1219,0.1107,0.0692
1873331.0,3.565,0.1867,10.1299,-0.0819,0.1336,0.0553
1873341.0,3.5961,0.1532,10.2185,0.0048,0.1575,0.0341
1873351.0,3.5721,0.328,10.3477,0.1123,0.2017,0.0074
1873361.0,3.3854,0.8212,10.3501,0.1932,0.2347,-0.0144
1873371.0,3.2657,1.1971,10.5991,0.149,0.2347,-0.0192
1873381.0,3.1651,1.2641,10.987,0.0346,0.1932,-0.0106
1873391.0,3.0957,1.2809,11.2791,-0.0346,0.124,0.0085
1873401.0,3.1053,1.2665,11.3725,-0.0521,0.0575,0.0404
1873411.0,3.1101,1.0989,11.4395,-0.0319,0.0048,0.075
1873421.0,3.1891,0.917,11.497,0.0112,-0.0245,0.1011
1873431.0,3.1484,0.735,11.6358,0.0506,-0.0532,0.1101
1873441.0,3.201,0.7494,11.6981,0.0782,-0.1086,0.1011
1873451.0,3.1819,0.9266,11.643,0.0793,-0.1719,0.0846
1873461.0,3.2561,0.984,11.7388,0.066,-0.2357,0.0777
1873471.0,3.2106,1.2091,11.6358,0.066,-0.3108,0.0798
1873481.0,3.2633,1.4222,11.5448,0.0202,-0.4129,0.0937
1873491.0,3.383,1.415,11.2599,-0.0511,-0.547,0.1208
1873501.0,3.5985,1.3479,10.6805,-0.1128,-0.6928,0.1543
1873511.0,3.8595,1.2186,9.8665,-0.1761,-0.8179,0.1846
1873521.0,4.1156,1.0774,8.9519,-0.2325,-0.8993,0.2112
1873531.0,4.367,0.9242,8.0397,-0.2836,-0.9264,0.232
1873541.0,4.5203,0.7997,7.1778,-0.3406,-0.9152,0.2442
1873551.0,4.7525,0.668,6.3997,-0.4177,-0.8732,0.2506
1873561.0,4.9033,0.407,5.7197,-0.4789,-0.7944,0.2517
1873571.0,5.1308,0.1652,4.9847,-0.5135,-0.6891,0.2474
1873581.0,5.3271,-0.0814,4.3814,-0.5358,-0.5342,0.2309
1873591.0,5.3822,-0.3232,3.9385,-0.5098,-0.3331,0.2033
1873601.0,5.4253,-0.4717,3.5386,-0.4177,-0.0968,0.1697
1873611.0,5.3726,-0.5459,3.1963,-0.2948,0.1708,0.1282
1873621.0,5.2672,-0.5459,2.964,-0.1724,0.4395,0.0782
1873631.0,5.1404,-0.5195,2.8036,-0.0681,0.7168,0.0234
1873641.0,4.9177,-0.565,2.7749,0.0192,1.0004,-0.0362
1873651.0,4.7142,-0.6536,2.988,0.0974,1.2712,-0.107
1873661.0,4.5155,-0.6201,3.2154,0.1926,1.5006,-0.1878
1873671.0,4.2042,-0.51,3.4596,0.2714,1.7012,-0.2767
1873681.0,3.8858,-0.3232,3.7134,0.3102,1.8416,-0.3709
1873691.0,3.4955,-0.0215,3.8882,0.2826,1.9135,-0.4677
1873701.0,3.0215,0.3065,3.5291,0.1841,1.9199,-0.5577
1873711.0,2.5666,0.7997,3.043,-0.0192,1.9326,-0.6385
1873721.0,2.1883,1.1468,2.569,-0.3171,1.9667,-0.6971
1873731.0,1.7549,1.4509,2.0997,-0.6795,2.0407,-0.7327
1873741.0,1.1923,1.7262,1.7861,-1.0733,2.1529,-0.7418
1873751.0,0.5052,1.9082,1.8028,-1.4505,2.3264,-0.7215
1873761.0,-0.103,1.9848,2.4828,-1.6958,2.5786,-0.6481
1873771.0,-0.7733,1.7765,3.5434,-1.6464,2.8686,-0.5087
1873781.0,-1.494,1.6688,4.4053,-1.26,3.1528,-0.332
1873791.0,-2.0638,1.9058,4.9416,-0.7003,3.4135,-0.149
1873801.0,-2.715,2.2242,5.3463,-0.1979,3.662,0.0383
1873811.0,-3.5051,2.2146,5.9711,0.1133,3.8637,0.2203
1873821.0,-4.142,1.9369,7.0773,0.2469,4.018,0.3821
1873831.0,-4.6424,1.3623,8.5042,0.3044,4.1026,0.5108
1873841.0,-5.2361,0.9146,9.4715,0.3421,4.0664,0.5811
1873851.0,-5.6216,0.9218,10.0461,0.3065,3.9813,0.597
1873861.0,-6.2632,1.2139,10.6039,0.1852,3.8924,0.596
1873871.0,-7.1132,1.5036,11.0373,0.009,3.7918,0.6194
1873881.0,-7.5824,1.1157,12.1697,-0.1607,3.7418,0.696
1873891.0,-8.023,-0.103,13.5225,-0.1724,3.6923,0.7998
1873901.0,-7.9511,-1.5107,14.6741,-0.0319,3.5997,0.8477
1873911.0,-7.8171,-2.4157,15.6724,0.1458,3.4449,0.7769
1873921.0,-8.0206,-2.5714,15.627,0.2203,3.1969,0.6103
1873931.0,-8.0709,-2.4565,16.2111,0.0234,2.9697,0.3927
1873941.0,-8.2552,-2.2601,17.4753,-0.2123,2.7457,0.1862
1873951.0,-8.5425,-1.8028,17.9206,-0.2921,2.4552,0.0383
1873961.0,-8.7053,-1.2546,18.3492,-0.3437,2.1849,-0.067
1873971.0,-9.0836,-0.7757,18.761,-0.3342,1.9316,-0.1123
1873981.0,-9.1626,-0.5076,18.907,-0.2118,1.7022,-0.0899
1873991.0,-9.0309,-0.4573,19.0147,-0.0165,1.5383,-0.0447
1874001.0,-8.9232,-0.2682,18.9357,0.1862,1.4064,0.0
1874011.0,-8.7867,0.0718,19.3188,0.2581,1.2835,0.0319
1874021.0,-8.7987,0.2107,20.1233,0.2315,1.1142,0.0734
1874031.0,-8.576,0.0239,20.8631,0.2166,0.8471,0.1368
1874041.0,-8.2528,-0.3208,21.1959,0.2107,0.5055,0.1905
1874051.0,-8.0685,-0.7015,21.4185,0.1676,0.1117,0.2102
1874061.0,-7.7835,-0.8164,20.9995,0.1027,-0.3448,0.2006
1874071.0,-7.6902,-0.8882,20.4441,-0.0357,-0.8056,0.165
1874081.0,-7.4771,-0.8906,19.4864,-0.1767,-1.2478,0.1245
1874091.0,-7.3071,-0.929,18.3061,-0.3139,-1.6299,0.0819
1874101.0,-7.0749,-1.0678,17.2359,-0.4294,-1.9225,0.0378
1874111.0,-6.9049,-1.0271,16.2087,-0.4656,-2.1183,-0.0144
1874121.0,-6.7516,-0.8428,15.2702,-0.456,-2.2402,-0.0628
1874131.0,-6.6343,-0.6584,14.7076,-0.464,-2.3168,-0.1027
1874141.0,-6.4691,-0.5363,14.5017,-0.4613,-2.3801,-0.1389
1874151.0,-6.4165,-0.3472,14.2048,-0.3852,-2.4584,-0.1548
1874161.0,-6.2058,-0.1413,13.7667,-0.2985,-2.5435,-0.1543
1874171.0,-6.0789,-0.1891,13.5703,-0.2192,-2.6047,-0.1447
1874181.0,-5.8227,-0.2825,13.2974,-0.0718,-2.6675,-0.125
1874191.0,-5.533,-0.3041,12.9861,0.107,-2.709,-0.1149
1874201.0,-5.4923,-0.17,12.5217,0.2826,-2.7579,-0.1176
1874211.0,-5.2026,-0.0168,11.9854,0.3826,-2.8287,-0.1235
1874221.0,-4.944,-0.0479,11.5616,0.3948,-2.9053,-0.1437
1874231.0,-4.4556,0.0742,10.8984,0.3677,-2.9878,-0.1873
1874241.0,-4.1228,0.3687,10.3094,0.2831,-3.057,-0.2501
1874251.0,-3.9648,0.7518,9.7636,0.1458,-3.1246,-0.3092
1874261.0,-3.711,0.917,9.4643,-0.0229,-3.1943,-0.3469
1874271.0,-3.3806,0.9074,8.9423,-0.1309,-3.2661,-0.3682
1874281.0,-2.9137,0.8404,8.1642,-0.1809,-3.3103,-0.3884
1874291.0,-2.411,0.9337,7.3598,-0.2112,-3.3012,-0.4076
1874301.0,-1.913,0.9553,6.869,-0.2368,-3.231,-0.4182
1874311.0,-1.5634,1.0008,6.4356,-0.2219,-3.1405,-0.4252
1874321.0,-1.1851,1.1684,6.0142,-0.182,-3.0421,-0.4257
1874331.0,-0.8332,1.3695,5.5019,-0.1431,-2.9436,-0.4145
1874341.0,-0.3639,1.506,5.0805,-0.1352,-2.8308,-0.3911
1874351.0,0.0,1.4676,4.695,-0.1479,-2.7143,-0.3576
1874361.0,0.656,1.257,4.4317,-0.1777,-2.5871,-0.3203
1874371.0,1.1971,0.9433,4.1444,-0.1974,-2.4573,-0.3006
1874381.0,1.6424,0.7374,3.6943,-0.2097,-2.3227,-0.3049
1874391.0,2.2338,0.6273,3.2657,-0.2283,-2.1529,-0.3235
1874401.0,2.6719,0.6105,3.2801,-0.2352,-1.9044,-0.3507
1874411.0,2.8347,0.6584,3.3327,-0.1415,-1.6453,-0.3666
1874421.0,3.0981,0.8619,3.134,-0.009,-1.4074,-0.3618
1874431.0,3.395,0.8882,3.4524,0.0585,-1.135,-0.3475
1874441.0,3.5338,0.7973,4.0151,0.1336,-0.8913,-0.3251
1874451.0,3.6727,0.7326,4.5083,0.2453,-0.6923,-0.3044
1874461.0,3.8403,0.8164,4.7716,0.3672,-0.5289,-0.2836
1874471.0,4.0247,0.8859,5.2074,0.4534,-0.3725,-0.2623
1874481.0,4.0654,1.0463,5.4923,0.5231,-0.2453,-0.2395
1874491.0,4.0941,1.1995,5.7317,0.5406,-0.1298,-0.2097
1874501.0,4.1851,1.2354,6.1292,0.505,-0.0415,-0.1767
1874511.0,4.1468,1.2306,6.529,0.4629,0.0277,-0.1506
1874521.0,4.221,1.3575,6.7756,0.4358,0.0899,-0.1282
1874531.0,4.2784,1.482,6.9911,0.4001,0.1692,-0.1043
1874541.0,4.2521,1.5874,7.4124,0.3624,0.249,-0.0777
1874551.0,4.1779,1.8866,7.6183,0.3139,0.2996,-0.0516
1874561.0,4.0151,2.1979,7.829,0.2144,0.3406,-0.0117
1874571.0,3.9935,2.1907,8.3462,0.0798,0.3778,0.0537
1874581.0,3.9145,1.7238,8.928,0.008,0.406,0.1352
1874591.0,3.9959,1.3503,9.2296,0.0346,0.4049,0.2043
1874601.0,4.1707,0.996,9.3733,0.1043,0.4177,0.2421
1874611.0,4.0438,0.8404,9.4595,0.1772,0.4523,0.2522
1874621.0,3.9696,0.8547,9.6965,0.2198,0.4816,0.248
1874631.0,3.8164,0.8595,9.833,0.2118,0.4784,0.2373
1874641.0,3.7876,0.7877,10.1754,0.1277,0.4464,0.2251
1874651.0,3.8451,0.4501,10.3837,0.0362,0.3778,0.2091
1874661.0,3.9935,0.1149,10.477,-0.0298,0.3092,0.1729
1874671.0,3.9456,0.0718,10.6159,-0.0442,0.265,0.1107
1874681.0,3.8068,0.4477,10.5824,0.0016,0.2261,0.0537
1874691.0,3.6488,0.8859,10.3621,0.0144,0.1788,0.0234
1874701.0,3.5147,0.9792,10.1586,-0.0569,0.1213,0.0181
1874711.0,3.6919,0.5602,10.2065,-0.1453,0.0899,0.017
1874721.0,3.8355,0.1772,10.3741,-0.1224,0.1075,-0.0053
1874731.0,3.8259,0.4286,10.2831,0.0064,0.1421,-0.0442
1874741.0,3.5769,0.8691,10.1275,0.0521,0.1394,-0.0777
1874751.0,3.5913,0.9481,10.0461,-0.0266,0.0931,-0.0921
1874761.0,3.7469,0.7254,10.3046,-0.0521,0.0952,-0.0995
1874771.0,3.6033,0.9409,10.2783,0.0846,0.1453,-0.1048
1874781.0,3.4644,1.4533,10.1155,0.1628,0.1692,-0.1048
1874791.0,3.3567,1.5778,10.2615,0.058,0.1187,-0.0968
1874801.0,3.3926,1.3408,10.2065,-0.067,0.0234,-0.0777
1874811.0,3.6057,0.972,10.1897,-0.0958,-0.0059,-0.067
1874821.0,3.5147,0.9984,10.0892,-0.0106,0.0346,-0.0745
1874831.0,3.3686,1.3623,10.0652,0.0335,0.0633,-0.0894
1874841.0,3.2082,1.5945,10.2711,-0.0218,0.0335,-0.0984
1874851.0,3.2226,1.6281,9.9407,-0.0819,-0.0362,-0.0766
1874861.0,3.4572,1.2737,9.9431,-0.1304,-0.0458,-0.0516
1874871.0,3.5458,1.0702,10.0413,-0.0697,-0.0027,-0.0484
1874881.0,3.4237,1.5251,9.7923,0.0442,0.0388,-0.0559
1874891.0,3.2729,1.992,9.7157,0.009,0.0415,-0.0537
1874901.0,3.2274,2.0782,9.8785,-0.1213,0.0,-0.0245
1874911.0,3.2537,1.8507,9.8689,-0.1884,-0.0436,0.0309
1874921.0,3.4309,1.5419,9.6822,-0.1708,-0.058,0.0841
1874931.0,3.5506,1.3001,9.4164,-0.1304,-0.0399,0.1181
1874941.0,3.5769,1.2067,9.2608,-0.1107,-0.0016,0.1272
1874951.0,3.5027,1.2378,9.2009,-0.1133,0.0468,0.1224
1874961.0,3.5075,1.2785,9.1674,-0.141,0.0825,0.1245
1874971.0,3.486,1.0415,9.3254,-0.2033,0.108,0.1309
1874981.0,3.6129,0.6823,9.7755,-0.2426,0.1352,0.1282
1874991.0,3.5817,0.4214,9.9766,-0.1761,0.1517,0.1176
1875001.0,3.5865,0.3783,10.058,-0.0788,0.158,0.0974
1875011.0,3.6224,0.3591,10.1969,-0.009,0.1591,0.0708
1875021.0,3.6009,0.4238,10.0197,0.0484,0.1362,0.0404
1875031.0,3.6081,0.6345,9.9311,0.0601,0.1266,0.0053
1875041.0,3.5889,0.9074,9.8521,0.0399,0.1272,-0.0186
1875051.0,3.5602,1.0032,9.8665,-0.0122,0.1266,-0.0239
1875061.0,3.5195,0.9912,9.9551,-0.0756,0.1107,-0.0271
1875071.0,3.5099,1.0104,10.0509,-0.1112,0.0974,-0.0303
1875081.0,3.4812,1.0822,10.0556,-0.091,0.0958,-0.0234
1875091.0,3.4381,1.1037,10.0197,-0.0548,0.108,-0.0138
1875101.0,3.3974,1.1085,10.1562,-0.0293,0.124,-0.0053
1875111.0,3.4093,1.0463,10.2687,-0.0048,0.1357,0.0027
1875121.0,3.4524,0.9792,10.3142,0.0325,0.1336,0.008
1875131.0,3.5219,0.9481,10.3214,0.0537,0.1208,0.0032
1875141.0,3.5003,0.9577,10.4076,0.0548,0.099,-0.0085
1875151.0,3.541,1.0558,10.3549,0.0617,0.066,-0.0186
1875161.0,3.4644,1.2689,10.149,0.0697,0.0383,-0.0261
1875171.0,3.3567,1.4629,9.9527,0.0442,0.0229,-0.0266
1875181.0,3.2944,1.4437,9.9599,-0.0101,0.0223,-0.0154
1875191.0,3.395,1.3455,9.9407,-0.0357,0.0261,-0.0011
1875201.0,3.4405,1.2713,9.9695,-0.0431,0.0559,0.0005
1875211.0,3.3854,1.3982,10.1754,-0.0404,0.1006,-0.0069
1875221.0,3.2394,1.6161,10.4531,-0.0287,0.1368,-0.008
1875231.0,3.0478,1.7813,10.7907,-0.016,0.1474,0.0085
1875241.0,3.0119,1.8316,11.1522,-0.0021,0.1325,0.0388
1875251.0,3.0143,1.7526,11.4874,0.0319,0.0942,0.0756
1875261.0,3.0239,1.7286,11.6262,0.0862,0.0404,0.1075
1875271.0,3.0765,1.7502,11.6215,0.1442,-0.0138,0.1352
1875281.0,3.0646,1.8411,11.6478,0.1532,-0.0756,0.157
1875291.0,3.0502,1.9273,11.5712,0.0862,-0.1868,0.1729
1875301.0,3.1316,1.8794,11.4946,-0.0452,-0.3288,0.1868
1875311.0,3.3447,1.6759,11.2887,-0.1676,-0.4821,0.2081
1875321.0,3.5602,1.482,10.75,-0.232,-0.6295,0.2304
1875331.0,3.7469,1.3216,9.9766,-0.2852,-0.7529,0.2421
1875341.0,4.0247,1.2282,9.1243,-0.3374,-0.8503,0.2533
1875351.0,4.2665,1.1516,8.1044,-0.3932,-0.9067,0.2634
1875361.0,4.4891,0.9816,7.1874,-0.4736,-0.9216,0.274
1875371.0,4.6615,0.7781,6.3063,-0.5593,-0.9025,0.2815
1875381.0,4.889,0.5459,5.4037,-0.6327,-0.8482,0.2841
1875391.0,5.1595,0.261,4.5633,-0.6997,-0.7418,0.2767
1875401.0,5.2457,-0.091,3.8906,-0.7247,-0.5646,0.257
1875411.0,5.3798,-0.3783,3.2777,-0.6827,-0.3469,0.2256
1875421.0,5.4133,-0.6033,2.9568,-0.5816,-0.0681,0.1809
1875431.0,5.3822,-0.7278,2.7749,-0.3986,0.2288,0.1314
1875441.0,5.2625,-0.68,2.4493,-0.1809,0.5092,0.0756
1875451.0,5.114,-0.431,2.1332,-0.0287,0.7811,0.0069
1875461.0,4.6495,0.0742,1.8411,0.0181,1.0435,-0.0591
1875471.0,4.3455,0.5267,1.743,-0.0553,1.2962,-0.0952
1875481.0,3.8427,0.6153,1.9632,-0.2288,1.5437,-0.0963
1875491.0,3.4931,0.3639,2.4708,-0.4342,1.7501,-0.0867
1875501.0,3.2298,0.0407,3.0406,-0.5853,1.9188,-0.0846
1875511.0,2.9209,-0.1508,3.486,-0.6423,2.0774,-0.0937
1875521.0,2.5355,-0.0431,3.8954,-0.5965,2.2269,-0.1059
1875531.0,2.0231,0.2658,3.9193,-0.5013,2.3482,-0.1054
1875541.0,1.2641,0.6153,3.7541,-0.4523,2.4631,-0.0857
1875551.0,0.6584,0.6632,3.6583,-0.448,2.6031,-0.0463
1875561.0,0.2274,0.3543,3.6033,-0.3868,2.7925,0.0048
1875571.0,-0.2562,0.0239,3.62,-0.2432,3.0378,0.0266
1875581.0,-1.0606,0.0311,3.7709,-0.091,3.3183,0.0069
1875591.0,-1.6568,0.1413,4.2497,0.0112,3.5896,-0.0383
1875601.0,-2.4588,0.2658,5.2888,0.1011,3.8594,-0.0921
1875611.0,-3.1963,0.4357,6.6559,0.2283,4.0739,-0.1325
1875621.0,-3.9409,0.7661,7.7883,0.3459,4.1595,-0.1724
1875631.0,-4.5179,1.3767,8.4563,0.3092,4.1233,-0.2208
1875641.0,-5.1595,1.822,9.5265,0.0649,4.0483,-0.2453
1875651.0,-5.6982,1.8244,10.7715,-0.2485,3.8871,-0.2187
1875661.0,-6.2513,1.5706,11.8537,-0.4778,3.6551,-0.1639
1875671.0,-6.4859,1.3096,12.1458,-0.5342,3.3736,-0.091
1875681.0,-6.4572,0.9625,11.9064,-0.448,3.1703,-0.0106
1875691.0,-6.45,0.5124,11.2192,-0.2943,3.0788,0.0474
1875701.0,-6.4859,0.2274,10.4459,-0.1788,3.0852,0.0426
1875711.0,-6.8378,0.2945,10.0245,-0.2288,3.1985,-0.0271
1875721.0,-7.3717,0.3831,10.7164,-0.4704,3.3566,-0.116
1875731.0,-8.0469,0.3232,12.1817,-0.7684,3.4641,-0.1756
1875741.0,-8.6287,0.0239,14.2216,-1.0137,3.4625,-0.191
1875751.0,-8.8394,-0.4405,16.5487,-1.086,3.3438,-0.1634
1875761.0,-9.0621,-0.668,18.239,-0.8955,3.1054,-0.1054
1875771.0,-9.1482,-0.5578,19.259,-0.5188,2.7973,-0.009
1875781.0,-9.2033,-0.5267,19.8503,-0.0702,2.4685,0.116
1875791.0,-9.1219,-0.6129,19.6899,0.415,2.1354,0.2442
1875801.0,-9.0046,-0.5363,18.9429,0.8301,1.8416,0.3379
1875811.0,-8.983,-0.4477,18.1672,1.0195,1.6139,0.3799
1875821.0,-9.0214,-0.7039,17.8775,0.9823,1.4335,0.3751
1875831.0,-8.8538,-0.7949,17.923,0.8514,1.2558,0.323
1875841.0,-8.8394,-0.8691,18.421,0.6486,1.102,0.241
1875851.0,-8.8873,-0.9074,19.5846,0.3863,0.8775,0.1421
1875861.0,-8.9543,-0.7973,20.5877,0.191,0.5114,0.0617
1875871.0,-8.9376,-0.6393,20.8942,0.0681,0.0218,0.0186
1875881.0,-8.8394,-0.5267,20.6452,0.0186,-0.5028,-0.0016
1875891.0,-8.6335,-0.3136,19.4457,0.0474,-0.9966,-0.0005
1875901.0,-8.3199,-0.0934,17.9876,0.008,-1.3941,0.0043
1875911.0,-8.102,-0.2107,16.8432,-0.1383,-1.7038,-0.0011
1875921.0,-7.841,-0.5219,15.9981,-0.2831,-1.9374,-0.0234
1875931.0,-7.604,-0.6321,15.2415,-0.3586,-2.1173,-0.0623
1875941.0,-7.3526,-0.6345,14.619,-0.4071,-2.2652,-0.1144
1875951.0,-7.1587,-0.5387,14.2216,-0.4252,-2.3833,-0.1628
1875961.0,-7.118,-0.3783,13.8026,-0.3975,-2.4977,-0.1926
1875971.0,-6.9791,-0.2682,13.4339,-0.348,-2.61,-0.2091
1875981.0,-6.7971,-0.1628,13.0532,-0.2735,-2.718,-0.2123
1875991.0,-6.6248,-0.0575,12.5767,-0.1825,-2.8149,-0.207
1876001.0,-6.3015,0.0263,12.1769,-0.0803,-2.8936,-0.1868
1876011.0,-5.8706,0.0168,11.9351,0.0649,-2.9527,-0.1543
1876021.0,-5.466,0.146,11.3174,0.2666,-3.0171,-0.1203
1876031.0,-5.2529,0.4262,10.4124,0.415,-3.0676,-0.0926
1876041.0,-4.9488,0.6105,9.7588,0.4438,-3.098,-0.0697
1876051.0,-4.4724,0.6009,9.2632,0.4119,-3.1118,-0.049
1876061.0,-4.1492,0.6488,8.6838,0.3512,-3.1336,-0.0436
1876071.0,-3.6727,0.7446,7.9871,0.223,-3.1549,-0.0559
1876081.0,-3.3447,0.8787,7.7428,0.0394,-3.1453,-0.0803
1876091.0,-2.9568,0.984,7.3933,-0.0862,-3.1325,-0.0883
1876101.0,-2.466,0.9553,7.1826,-0.1197,-3.0809,-0.0772
1876111.0,-1.9776,0.8954,6.9264,-0.0415,-2.9931,-0.0537
1876121.0,-1.5586,0.9792,6.3877,0.1155,-2.8899,-0.025
1876131.0,-1.1157,1.312,5.5306,0.232,-2.7872,0.0016
1876141.0,-0.723,1.5682,5.0278,0.2187,-2.627,0.0319
1876151.0,-0.4094,1.6137,4.7501,0.1575,-2.4552,0.0809
1876161.0,0.0192,1.3695,4.6519,0.0937,-2.2764,0.1373
1876171.0,0.6464,0.8691,4.8267,0.0777,-2.0774,0.1852
1876181.0,1.0798,0.3903,4.8866,0.1469,-1.8911,0.2112
1876191.0,1.5179,0.2107,4.5322,0.2011,-1.7416,0.1958
1876201.0,1.6999,0.2346,4.4197,0.1559,-1.5708,0.1389
1876211.0,2.0518,0.3208,4.6711,0.132,-1.3697,0.0862
1876221.0,2.0423,0.6201,4.8866,0.2102,-1.1568,0.0591
1876231.0,2.1524,0.7829,5.0159,0.2724,-0.9722,0.0628
1876241.0,2.3703,0.6249,5.2265,0.2395,-0.8269,0.0676
1876251.0,2.6935,0.3663,5.3941,0.174,-0.7242,0.0506
1876261.0,2.9042,0.2753,5.7102,0.1405,-0.5986,0.0138
1876271.0,2.7773,0.4717,5.873,0.2001,-0.456,-0.0234
1876281.0,2.7845,0.8547,5.8993,0.2969,-0.306,-0.0426
1876291.0,2.8252,1.1971,6.0693,0.3187,-0.1554,-0.0436
1876301.0,2.8276,1.2498,6.3853,0.2208,-0.0479,-0.0357
1876311.0,2.794,1.1061,6.9647,0.0537,0.025,-0.0383
1876321.0,2.8036,0.984,7.8147,-0.0298,0.0952,-0.0367
1876331.0,2.8922,1.0127,8.1786,0.0596,0.1447,-0.0197
1876341.0,2.8204,1.2713,8.2408,0.2027,0.2049,0.0069
1876351.0,2.8323,1.5634,8.2935,0.2724,0.2522,0.049
1876361.0,2.7078,1.6281,8.3989,0.2331,0.2724,0.1016
1876371.0,2.9042,1.336,8.6455,0.1511,0.2969,0.1586
1876381.0,2.8036,0.9505,8.849,0.1208,0.348,0.1974
1876391.0,2.9736,0.8547,9.0621,0.1256,0.4028,0.2097
1876401.0,2.7892,0.8164,9.3829,0.1054,0.4512,0.2118
1876411.0,2.7461,0.6967,9.7444,0.0612,0.4566,0.2144
1876421.0,2.7246,0.4932,10.1275,0.0144,0.4512,0.2107
1876431.0,2.7126,0.1915,10.3525,0.0165,0.4342,0.2075
1876441.0,2.9568,-0.0742,10.4842,0.0665,0.431,0.1878
1876451.0,2.8563,-0.2059,10.6303,0.1309,0.4566,0.1399
1876461.0,2.6935,-0.0048,10.9008,0.1676,0.4587,0.0782
1876471.0,2.6432,0.3112,11.1211,0.1724,0.4209,0.0239
1876481.0,2.4876,0.6201,11.2049,0.1357,0.3443,-0.009
1876491.0,2.4301,0.6536,11.2599,0.0287,0.2464,-0.0261
1876501.0,2.478,0.4405,11.3772,-0.0548,0.1612,-0.0436
1876511.0,2.4732,0.3591,11.1809,-0.0298,0.0968,-0.0639
1876521.0,2.5259,0.407,10.8505,0.0106,0.0633,-0.0867
1876531.0,2.4684,0.4357,10.7308,0.0074,0.0532,-0.1229
1876541.0,2.4828,0.6416,10.6183,0.0138,0.0708,-0.1596
1876551.0,2.4157,0.8284,10.6422,0.0293,0.1155,-0.182
1876561.0,2.296,0.9218,10.9008,0.0144,0.1431,-0.199
1876571.0,2.2482,1.0582,11.1474,-0.0122,0.1187,-0.216
1876581.0,2.2218,1.233,11.2839,-0.016,0.0729,-0.2251
1876591.0,2.1476,1.5227,11.2695,0.0192,0.0255,-0.2198
1876601.0,2.0758,1.81,11.1402,0.0436,-0.0208,-0.1979
1876611.0,1.98,1.9968,10.9463,0.0165,-0.0862,-0.1671
1876621.0,1.9992,1.9896,10.7715,-0.0676,-0.1713,-0.1309
1876631.0,2.1524,1.719,10.4962,-0.1634,-0.248,-0.0958
1876641.0,2.3032,1.2522,10.1682,-0.2118,-0.2975,-0.0734
1876651.0,2.399,0.9936,9.8306,-0.2107,-0.3006,-0.0851
1876661.0,2.375,1.1253,9.4691,-0.1644,-0.2506,-0.1197
1876671.0,2.3583,1.5107,9.1866,-0.1128,-0.1644,-0.1437
1876681.0,2.2817,1.7142,9.2536,-0.1245,-0.0665,-0.1447
1876691.0,2.2266,1.7502,9.572,-0.1495,0.0005,-0.1282
1876701.0,2.2458,1.7286,9.9359,-0.1352,0.042,-0.1048
1876711.0,2.3152,1.7023,10.1897,-0.0676,0.066,-0.075
1876721.0,2.2075,1.8651,10.1754,0.0037,0.0649,-0.049
1876731.0,2.1308,2.0614,10.1227,0.0197,0.0309,-0.017
1876741.0,2.1859,2.0063,9.9671,-0.0245,-0.0277,0.0245
1876751.0,2.308,1.6783,9.7468,-0.0899,-0.0724,0.0591
1876761.0,2.4684,1.3048,9.6079,-0.1266,-0.0873,0.0772
1876771.0,2.5738,0.996,9.4595,-0.1389,-0.0676,0.0729
1876781.0,2.648,0.9002,9.3422,-0.1415,-0.0367,0.0436
1876791.0,2.5738,1.1109,9.2225,-0.1437,-0.0037,0.0059
1876801.0,2.5474,1.2761,9.1051,-0.1916,0.0309,-0.0128
1876811.0,2.4181,1.1492,9.3661,-0.2602,0.0761,-0.0181
1876821.0,2.4612,0.9792,9.7492,-0.2352,0.1346,-0.016
1876831.0,2.5379,0.9146,9.9958,-0.0825,0.2139,-0.0085
1876841.0,2.4756,1.0487,10.0963,0.0921,0.2841,0.0011
1876851.0,2.3822,1.2953,10.1945,0.174,0.3076,0.0021
1876861.0,2.3703,1.4437,10.3621,0.1559,0.2884,0.0074
1876871.0,2.3415,1.4485,10.4411,0.107,0.2517,0.0176
1876881.0,2.3224,1.3958,10.5201,0.0559,0.2155,0.0266
1876891.0,2.3176,1.312,10.5201,-0.0053,0.1772,0.0314
1876901.0,2.3367,1.087,10.6734,-0.0803,0.1405,0.0298
1876911.0,2.3248,0.8691,10.8505,-0.1235,0.099,0.0144
1876921.0,2.3774,0.8882,10.7595,-0.1203,0.0516,-0.0069
1876931.0,2.3487,0.9481,10.7212,-0.1096,0.0197,-0.0287
1876941.0,2.3248,1.1349,10.5943,-0.075,-0.0016,-0.0404
1876951.0,2.3607,1.3671,10.2639,-0.0266,-0.0106,-0.0357
1876961.0,2.4086,1.4581,10.1155,-0.0117,0.0064,-0.0186
1876971.0,2.387,1.4533,10.1347,-0.0043,0.0319,0.0037
1876981.0,2.3774,1.3862,10.0341,0.0287,0.0484,0.0277
1876991.0,2.4541,1.2785,9.8713,0.0591,0.067,0.0463
1877001.0,2.4397,1.1516,9.7516,0.0681,0.1006,0.0506
1877011.0,2.4541,1.0798,9.8474,0.0596,0.1458,0.0383
1877021.0,2.387,1.1396,9.9934,0.0287,0.1793,0.0149
1877031.0,2.2936,1.2186,10.1538,-0.0362,0.1724,-0.0064
1877041.0,2.2817,1.154,10.5321,-0.099,0.1442,-0.0154
1877051.0,2.2577,1.0534,10.6638,-0.0633,0.1128,-0.0106
1877061.0,2.3032,1.1085,10.4698,0.0383,0.0899,-0.0059
1877071.0,2.3056,1.2163,10.137,0.0905,0.0825,-0.008
1877081.0,2.2649,1.2258,10.0892,0.0654,0.0803,-0.0165
1877091.0,2.2362,1.2474,10.1179,0.0309,0.0803,-0.0309
1877101.0,2.2362,1.3767,10.0078,0.017,0.0841,-0.0442
1877111.0,2.2482,1.5275,10.0533,-0.0144,0.1048,-0.0548
1877121.0,2.1572,1.64,10.2185,-0.0633,0.1197,-0.0564
1877131.0,2.1596,1.652,10.3837,-0.1016,0.1027,-0.0436
1877141.0,2.1739,1.5538,10.4076,-0.1128,0.0654,-0.0261
1877151.0,2.2482,1.4748,10.2999,-0.0889,0.0388,-0.0069
1877161.0,2.2218,1.4796,10.07,-0.0569,0.0442,-0.0021
1877171.0,2.1859,1.549,9.9647,-0.0617,0.0851,-0.0064
1877181.0,2.1763,1.6137,10.2185,-0.0963,0.1389,-0.0064
1877191.0,2.047,1.5778,10.6374,-0.1176,0.174,-0.0011
1877201.0,2.0016,1.549,11.1091,-0.1027,0.1804,0.0138
1877211.0,1.98,1.4796,11.4443,-0.0633,0.158,0.0325
1877221.0,1.8914,1.482,11.5448,-0.0202,0.1027,0.0452
1877231.0,1.9824,1.482,11.5855,-0.0181,0.0372,0.0516
1877241.0,1.9944,1.4581,11.5784,-0.0527,-0.0367,0.0532
1877251.0,2.0423,1.4341,11.6262,-0.1107,-0.1165,0.0479
1877261.0,2.0925,1.47,11.5664,-0.1697,-0.2075,0.041
1877271.0,2.1811,1.4748,11.4108,-0.2309,-0.3124,0.0447
1877281.0,2.3152,1.3838,11.1594,-0.2687,-0.4182,0.0585
1877291.0,2.4972,1.2689,10.6063,-0.2469,-0.506,0.0772
1877301.0,2.7294,1.2498,9.7731,-0.2086,-0.5539,0.0931
1877311.0,2.9353,1.2522,8.9471,-0.2219,-0.5582,0.1043
1877321.0,3.1268,1.1396,8.3294,-0.2857,-0.538,0.1101
1877331.0,3.3351,0.9505,7.8195,-0.3592,-0.5023,0.1091
1877341.0,3.4285,0.8021,7.3406,-0.4129,-0.4454,0.1048
1877351.0,3.5362,0.6536,6.8091,-0.4379,-0.3725,0.0979
1877361.0,3.5913,0.498,6.462,-0.4369,-0.2708,0.0883
1877371.0,3.6344,0.3376,6.1148,-0.4044,-0.1405,0.0803
1877381.0,3.6416,0.1724,5.7676,-0.3331,0.0059,0.0745
1877391.0,3.7326,-0.1053,5.5426,-0.2219,0.1868,0.0543
1877401.0,3.723,-0.2251,5.454,-0.0458,0.4044,0.0192
1877411.0,3.565,0.0742,5.2744,0.1421,0.621,-0.0277
1877421.0,3.3495,0.4717,5.4061,0.2395,0.8125,-0.0697
1877431.0,3.0335,0.7757,5.679,0.2357,0.9371,-0.1006
1877441.0,2.7892,1.0295,5.6599,0.1591,0.9711,-0.1171
1877451.0,2.6743,1.1612,5.4229,-0.0165,0.9615,-0.1336
1877461.0,2.4445,1.0199,5.2313,-0.2474,0.9626,-0.1554
1877471.0,2.0279,1.0295,4.8315,-0.4459,0.9775,-0.1841
1877481.0,1.9896,1.2234,4.2473,-0.6348,1.0344,-0.2166
1877491.0,1.5443,1.3934,3.7326,-0.8285,1.152,-0.2363
1877501.0,1.2019,1.4293,3.3806,-1.0147,1.3186,-0.2368
1877511.0,0.9768,1.3862,3.6655,-1.1339,1.5618,-0.2176
1877521.0,0.5555,1.2857,4.3431,-1.0658,1.8241,-0.1719
1877531.0,0.1437,1.3575,4.9249,-0.7907,2.0545,-0.0947
1877541.0,-0.3567,1.4078,5.3989,-0.3714,2.254,0.0021
1877551.0,-0.5698,1.5395,5.3175,0.1463,2.4153,0.1165
1877561.0,-0.7829,1.5993,4.9057,0.6518,2.585,0.2187
1877571.0,-1.5323,1.7047,3.8714,0.9722,2.759,0.2794
1877581.0,-2.1308,1.8507,3.0861,0.9078,2.9671,0.2799
1877591.0,-2.7581,1.5969,3.6152,0.5215,3.2305,0.2474
1877601.0,-3.5267,0.8356,4.9967,0.1219,3.4699,0.2144
1877611.0,-3.9385,0.0239,6.5266,-0.066,3.6466,0.166
1877621.0,-4.3431,-0.146,7.5274,-0.0394,3.7541,0.0899
1877631.0,-4.6783,0.1915,8.5066,-0.0202,3.819,-0.0053
1877641.0,-5.1499,0.8021,9.6798,-0.0463,3.8238,-0.0878
1877651.0,-5.9903,1.7142,10.2352,-0.0612,3.7312,-0.1096
1877661.0,-6.5769,2.2386,10.6422,-0.183,3.5715,-0.0447
1877671.0,-7.0054,1.8292,11.2504,-0.3395,3.4071,0.0665
1877681.0,-7.4364,0.9337,11.5999,-0.2895,3.2895,0.1921
1877691.0,-7.4484,-0.0096,11.4586,-0.0537,3.2709,0.2857
1877701.0,-7.695,-0.9313,12.2559,0.2081,3.389,0.2836
1877711.0,-8.1954,-1.2617,13.4339,0.5651,3.5103,0.2033
1877721.0,-8.5569,-0.7422,14.0731,0.9237,3.5167,0.0782
1877731.0,-8.8777,0.0622,14.8656,0.9998,3.4305,-0.0718
1877741.0,-9.3996,0.7278,15.9621,0.8195,3.239,-0.2059
1877751.0,-9.7061,1.1923,16.7738,0.5444,2.9447,-0.2996
1877761.0,-9.9311,1.47,17.7219,0.1873,2.6036,-0.3714
1877771.0,-10.2975,1.6544,18.4234,-0.1421,2.2083,-0.4214
1877781.0,-10.4962,1.8914,18.7274,-0.3991,1.8118,-0.4417
1877791.0,-10.3406,1.9824,19.2566,-0.5279,1.4878,-0.4204
1877801.0,-10.3573,2.0494,19.587,-0.4571,1.2255,-0.3496
1877811.0,-10.3166,1.9369,20.0059,-0.3358,0.9706,-0.2528
1877821.0,-10.1394,1.6137,20.5255,-0.2336,0.6412,-0.1634
1877831.0,-9.833,1.5514,20.3842,-0.1272,0.2277,-0.0921
1877841.0,-9.5337,1.6328,19.7163,-0.0772,-0.1937,-0.0346
1877851.0,-9.1842,1.6592,18.9597,-0.1133,-0.5763,0.0133
1877861.0,-8.8921,1.4724,18.1887,-0.2123,-0.9184,0.0591
1877871.0,-8.6598,0.9816,17.4801,-0.3544,-1.2451,0.0905
1877881.0,-8.327,0.4741,16.5798,-0.5055,-1.5623,0.0862
1877891.0,-7.9631,0.1245,15.6246,-0.6295,-1.815,0.0506
1877901.0,-7.7021,-0.1365,14.6717,-0.705,-1.9864,-0.0059
1877911.0,-7.4053,-0.2705,14.0971,-0.7545,-2.0928,-0.0697
1877921.0,-7.2808,-0.3567,13.7691,-0.7524,-2.1662,-0.1304
1877931.0,-7.082,-0.261,13.4291,-0.6917,-2.2466,-0.1793
1877941.0,-7.1108,-0.1053,13.1418,-0.6029,-2.3269,-0.2187
1877951.0,-6.9432,0.158,12.8042,-0.4645,-2.403,-0.2315
1877961.0,-6.8402,0.3472,12.3517,-0.2629,-2.4451,-0.2112
1877971.0,-6.7205,0.3807,11.9638,-0.0144,-2.4397,-0.1671
1877981.0,-6.4691,0.316,11.6358,0.2735,-2.411,-0.1128
1877991.0,-6.1531,0.4166,11.2623,0.5342,-2.3722,-0.0814
1878001.0,-6.031,0.6823,11.0181,0.68,-2.3487,-0.0713
1878011.0,-5.8131,1.0798,10.8481,0.6758,-2.3913,-0.0692
1878021.0,-5.5929,1.1779,11.0564,0.5188,-2.4908,-0.0756
1878031.0,-5.442,1.2522,10.8194,0.34,-2.6691,-0.0889
1878041.0,-5.2074,1.2737,10.3645,0.1405,-2.8564,-0.1128
1878051.0,-4.7836,1.2354,9.8521,-0.0362,-3.0086,-0.1325
1878061.0,-4.6064,1.1588,9.5409,-0.1187,-3.0953,-0.1463
1878071.0,-4.1875,1.1923,8.9591,-0.049,-3.1416,-0.1426
1878081.0,-3.9121,1.3527,8.1139,0.083,-3.1411,-0.1229
1878091.0,-3.5003,1.4772,7.2616,0.1836,-3.1033,-0.0921
1878101.0,-3.0287,1.5012,6.7062,0.2347,-3.0096,-0.0623
1878111.0,-2.3966,1.5179,6.3279,0.3065,-2.8809,-0.0277
1878121.0,-2.0662,1.5083,5.9592,0.3831,-2.7345,0.0069
1878131.0,-1.6089,1.5347,5.7557,0.3986,-2.6042,0.0287
1878141.0,-1.1444,1.5945,5.6288,0.3837,-2.4919,0.0372
1878151.0,-0.7326,1.7573,5.2433,0.3427,-2.403,0.0458
1878161.0,-0.2801,1.8627,4.9177,0.2267,-2.2966,0.0521
1878171.0,0.0168,1.8866,4.8626,0.0819,-2.1731,0.0601
1878181.0,0.407,1.7645,4.8387,-0.0378,-2.0513,0.0761
1878191.0,0.8619,1.5778,4.7285,-0.1181,-1.93,0.0926
1878201.0,1.3144,1.3431,4.7094,-0.1437,-1.7789,0.1043
1878211.0,1.7142,1.0606,4.6495,-0.0841,-1.5953,0.1219
1878221.0,2.2194,0.7853,4.6328,0.0133,-1.3984,0.1272
1878231.0,2.375,0.6895,4.6663,0.1091,-1.1919,0.1006
1878241.0,2.5666,0.8835,4.6208,0.1873,-0.9913,0.0623
1878251.0,2.6671,1.2953,4.8219,0.2155,-0.7742,0.0335
1878261.0,2.806,1.3743,5.2313,0.1783,-0.5954,0.0367
1878271.0,2.8515,1.154,5.8059,0.0952,-0.4651,0.0484
1878281.0,3.0382,0.8021,6.3375,0.0388,-0.3815,0.0548
1878291.0,3.1819,0.5124,6.8187,0.0654,-0.3006,0.041
1878301.0,3.2106,0.498,7.0437,0.2315,-0.1974,0.0186
1878311.0,3.1987,0.8523,6.936,0.4475,-0.0702,-0.0016
1878321.0,3.0957,1.2426,7.0006,0.5321,0.049,-0.0181
1878331.0,2.9664,1.506,7.2544,0.4443,0.1346,-0.0388
1878341.0,2.9209,1.6281,7.7979,0.299,0.1846,-0.0537
1878351.0,2.8874,1.7142,8.2121,0.1942,0.2224,-0.0564
1878361.0,2.7797,1.7214,8.5928,0.1309,0.257,-0.0436
1878371.0,2.6959,1.7502,9.0046,0.0952,0.2863,-0.0245
1878381.0,2.7557,1.7669,9.3733,0.1117,0.2985,0.0037
1878391.0,2.6719,1.6544,9.5816,0.1666,0.3017,0.0367
1878401.0,2.5953,1.6065,9.6917,0.2341,0.3166,0.0612
1878411.0,2.5235,1.585,9.7516,0.2682,0.3225,0.0718
1878421.0,2.4972,1.5467,9.833,0.2118,0.3049,0.066
1878431.0,2.4181,1.3934,10.1107,0.0894,0.2772,0.0431
1878441.0,2.6097,1.3479,10.3022,0.0005,0.2309,0.008
1878451.0,2.4445,1.482,10.4818,-0.0468,0.2097,-0.0282
1878461.0,2.2625,1.6999,10.6279,-0.0713,0.1761,-0.0484
1878471.0,2.2051,1.889,10.7811,-0.0905,0.1149,-0.0484
1878481.0,2.2027,1.9417,10.6183,-0.083,0.041,-0.0282
1878491.0,2.2386,1.8124,10.3094,-0.0585,0.0043,-0.0005
1878501.0,2.3224,1.6999,10.1059,-0.0043,0.0181,0.0154
1878511.0,2.3272,1.6448,9.9527,0.0639,0.0665,0.0229
1878521.0,2.3296,1.5299,10.0868,0.0841,0.1123,0.0213
1878531.0,2.3966,1.3958,10.2424,0.075,0.116,0.0059
1878541.0,2.4349,1.3862,10.2185,0.0633,0.0963,-0.0277
1878551.0,2.4565,1.6065,10.2496,0.0495,0.0979,-0.0665
1878561.0,2.399,1.8364,10.3837,0.0335,0.0984,-0.083
1878571.0,2.2673,1.9489,10.4028,-0.0181,0.0607,-0.0814
1878581.0,2.2529,1.8483,10.422,-0.0926,-0.0096,-0.0729
1878591.0,2.3727,1.6831,10.3501,-0.1235,-0.0559,-0.0649
1878601.0,2.4756,1.6807,10.173,-0.0772,-0.0644,-0.0601
1878611.0,2.3846,1.8364,9.8785,-0.0404,-0.0654,-0.058
1878621.0,2.387,1.8579,9.6798,-0.0654,-0.0803,-0.0543
1878631.0,2.4756,1.7621,9.572,-0.0835,-0.067,-0.0495
1878641.0,2.5307,1.7837,9.4643,-0.042,-0.0245,-0.0452
1878651.0,2.4205,1.9345,9.323,-0.0074,0.0293,-0.041
1878661.0,2.4134,1.8004,9.2105,-0.0266,0.0639,-0.0314
1878671.0,2.5594,1.482,9.505,-0.0474,0.1272,-0.0325
1878681.0,2.5211,1.4365,9.6941,0.0239,0.1942,-0.0463
1878691.0,2.4014,1.6592,9.7827,0.0889,0.2272,-0.0633
1878701.0,2.3511,1.7837,9.7516,0.1064,0.2182,-0.075
1878711.0,2.3583,1.9728,9.6534,0.1048,0.2261,-0.0819
1878721.0,2.15,2.047,9.9168,0.0915,0.2937,-0.0788
1878731.0,1.9776,2.047,10.3932,0.0926,0.3406,-0.0686
1878741.0,1.9441,2.0399,10.568,0.1086,0.3182,-0.066
1878751.0,1.992,2.1261,10.6207,0.0915,0.2719,-0.0697
1878761.0,2.0183,2.2649,10.817,0.0681,0.2421,-0.0686
1878771.0,1.9561,2.4756,10.8553,0.0777,0.2049,-0.0521
1878781.0,1.8771,2.7054,10.7188,0.0548,0.1506,-0.0314
1878791.0,1.9249,2.8635,10.5919,-0.0277,0.0819,-0.0074
1878801.0,1.9728,2.8802,10.3645,-0.1383,0.0074,0.0261
1878811.0,2.0087,2.7533,10.1706,-0.2442,-0.0426,0.0639
1878821.0,2.1428,2.4062,10.1921,-0.3028,-0.0463,0.1027
1878831.0,2.15,2.071,10.161,-0.2788,-0.0271,0.1293
1878841.0,2.1596,1.8818,10.1107,-0.2182,0.0,0.1362
1878851.0,2.2434,1.7238,10.1634,-0.1602,0.041,0.1309
1878861.0,2.2721,1.6233,10.1754,-0.0984,0.0841,0.1181
1878871.0,2.3176,1.5514,10.489,-0.0612,0.1277,0.1006
1878881.0,2.3008,1.573,10.8194,-0.0277,0.1256,0.0798
1878891.0,2.3032,1.6065,10.8625,-0.0043,0.0724,0.0617
1878901.0,2.3224,1.6999,10.8002,0.0138,0.0069,0.0458
1878911.0,2.3535,1.9393,10.4052,0.041,-0.0479,0.0378
1878921.0,2.308,2.1428,10.07,0.0213,-0.0713,0.0372
1878931.0,2.2075,2.2266,9.8426,-0.0511,-0.0729,0.0468
1878941.0,2.2697,2.0327,9.912,-0.1181,-0.0612,0.0681
1878951.0,2.3439,1.6712,10.082,-0.1245,-0.0415,0.0857
1878961.0,2.4253,1.3838,10.149,-0.0777,-0.0239,0.0803
1878971.0,2.3846,1.4054,10.161,0.0016,-0.0005,0.0553
1878981.0,2.3655,1.6951,10.0963,0.0729,0.0202,0.0293
1878991.0,2.2529,1.9465,10.0652,0.0607,0.0319,0.0101
1879001.0,2.229,2.0566,10.307,-0.0074,0.0218,0.0032
1879011.0,2.2625,2.059,10.3837,-0.0325,-0.0149,0.0133
1879021.0,2.3032,1.9968,10.2185,-0.0133,-0.0511,0.0341
1879031.0,2.3535,1.9896,10.0317,-0.0005,-0.0702,0.0452
1879041.0,2.3176,2.0901,9.7157,-0.0122,-0.0756,0.0452
1879051.0,2.3128,2.1859,9.5241,-0.0841,-0.0644,0.0415
1879061.0,2.241,2.2027,9.7133,-0.183,-0.0388,0.0399
1879071.0,2.2721,2.0303,9.8402,-0.2379,-0.0372,0.0559
1879081.0,2.332,1.7286,9.9,-0.2677,-0.0426,0.0633
1879091.0,2.4517,1.47,10.1131,-0.2474,-0.0357,0.0612
1879101.0,2.4612,1.4293,10.0245,-0.1548,-0.0319,0.0532
1879111.0,2.4804,1.5036,9.754,-0.0511,-0.0202,0.041
1879121.0,2.4588,1.731,9.5241,0.0117,0.0122,0.0266
1879131.0,2.3176,1.9513,9.4188,0.0282,0.0681,0.0192
1879141.0,2.3391,2.0279,9.4547,0.0133,0.1149,0.0277
1879151.0,2.32,1.9824,9.6295,-0.0218,0.1532,0.0372
1879161.0,2.3439,1.8531,9.821,-0.0585,0.1681,0.0479
1879171.0,2.3607,1.5993,10.2615,-0.0841,0.182,0.0474
1879181.0,2.2793,1.5538,10.4411,-0.0357,0.1713,0.0351
1879191.0,2.3176,1.7909,10.2352,0.0053,0.149,0.0144
1879201.0,2.2003,2.0087,10.3621,-0.0649,0.1304,-0.0085
1879211.0,2.1308,2.0566,10.58,-0.1846,0.0819,-0.017
1879221.0,2.162,1.9632,10.7619,-0.3022,0.0112,-0.0197
1879231.0,2.2003,1.7669,10.9894,-0.3613,-0.0718,-0.0154
1879241.0,2.3463,1.6783,10.7212,-0.3187,-0.1772,-0.0005
1879251.0,2.4684,1.5993,10.2017,-0.2629,-0.248,0.0144
1879261.0,2.5905,1.4653,9.493,-0.1857,-0.2831,0.0319
1879271.0,2.8611,1.3168,8.7987,-0.0851,-0.2586,0.0468
1879281.0,3.0215,1.1684,8.0637,0.0101,-0.1777,0.0532
1879291.0,3.0454,1.0534,7.6088,0.0564,-0.0521,0.0442
1879301.0,3.2729,0.9122,7.5178,0.1032,0.0761,0.0277
1879311.0,3.3184,0.7518,7.2927,0.2059,0.1937,0.0032
1879321.0,3.2705,0.8787,6.9192,0.339,0.3379,-0.0351
1879331.0,3.2489,1.2833,6.4428,0.4342,0.4848,-0.0777
1879341.0,3.1388,1.6424,5.9807,0.3874,0.605,-0.1165
1879351.0,2.988,1.7621,5.8227,0.2182,0.7093,-0.1506
1879361.0,2.8611,1.6999,5.533,0.0458,0.8024,-0.1793
1879371.0,2.7054,1.5706,5.5306,-0.0873,0.9397,-0.2091
1879381.0,2.5235,1.3096,5.849,-0.1011,1.119,-0.2357
1879391.0,2.3032,1.245,6.0454,0.0282,1.3021,-0.2639
1879401.0,2.0183,1.4629,6.3015,0.1767,1.4745,-0.2969
1879411.0,1.7166,1.7406,6.5769,0.2214,1.5884,-0.3326
1879421.0,1.3695,2.047,7.0964,0.1165,1.615,-0.3624
1879431.0,1.0702,2.217,7.3933,-0.1272,1.525,-0.3746
1879441.0,0.8452,2.0423,7.6255,-0.4832,1.3505,-0.3767
1879451.0,0.8475,1.6137,7.4627,-0.7897,1.1621,-0.3799
1879461.0,0.9601,1.2689,6.7229,-0.92,1.0445,-0.3842
1879471.0,0.9984,1.0918,5.7413,-0.9519,1.0685,-0.4017
1879481.0,0.6416,1.0798,5.1523,-0.9615,1.2244,-0.4353
1879491.0,0.0048,1.2402,4.81,-0.9003,1.4442,-0.4699
1879501.0,-0.5435,1.6448,4.8123,-0.7726,1.7347,-0.4784
1879511.0,-0.929,1.9058,5.5976,-0.6024,2.0699,-0.448
1879521.0,-1.3695,2.0614,6.6295,-0.3719,2.3482,-0.3895
1879531.0,-1.7047,2.4038,7.3454,-0.1394,2.4951,-0.323
1879541.0,-2.0638,2.7988,7.7931,-0.0527,2.5291,-0.2485
1879551.0,-2.4014,2.8395,8.3079,-0.1064,2.4839,-0.1517
1879561.0,-2.5474,2.5546,8.3246,-0.1266,2.3934,-0.0367
1879571.0,-2.6145,2.15,7.6591,-0.0607,2.3317,0.0654
1879581.0,-2.8491,2.0327,6.8378,0.0484,2.3982,0.1235
1879591.0,-3.3088,2.1548,6.45,0.1862,2.6292,0.1666
1879601.0,-4.0318,1.9824,7.1635,0.3815,2.9697,0.2347
1879611.0,-4.8578,1.4581,8.4467,0.7114,3.2826,0.3022
1879621.0,-5.3965,1.3048,9.2991,1.1462,3.455,0.3358
1879631.0,-5.624,1.549,9.7133,1.4846,3.5258,0.3182
1879641.0,-5.794,1.7861,10.4196,1.6565,3.5604,0.2746
1879651.0,-5.9951,2.0327,11.1043,1.7826,3.5385,0.2219
1879661.0,-6.5793,2.5355,11.5496,1.8853,3.4859,0.1495
1879671.0,-7.2089,3.3327,11.5951,1.8768,3.3896,0.075
1879681.0,-7.75,3.8738,12.2104,1.6405,3.2938,0.0144
1879691.0,-8.078,3.8499,13.5991,1.3101,3.1639,-0.0197
1879701.0,-8.3318,3.5721,15.2056,1.0637,2.9319,-0.0415
1879711.0,-8.5784,3.4812,16.0819,0.9371,2.5658,-0.0724
1879721.0,-8.4994,3.5937,16.1848,0.8918,2.1364,-0.107
1879731.0,-8.6072,3.7972,15.761,0.9019,1.7714,-0.1373
1879741.0,-8.6215,4.0869,14.8895,0.9142,1.499,-0.1671
1879751.0,-8.6503,4.3551,14.1593,0.7843,1.3154,-0.223
1879761.0,-8.7317,4.5418,14.0803,0.4624,1.1765,-0.3054
1879771.0,-8.8681,4.7309,14.6501,0.0697,1.0179,-0.3884
1879781.0,-8.9256,4.8291,15.6174,-0.2496,0.829,-0.4432
1879791.0,-8.9136,5.0518,16.441,-0.3555,0.6024,-0.4454
1879801.0,-8.9711,5.4588,16.757,-0.298,0.3416,-0.3837
1879811.0,-9.1387,5.5234,16.6301,-0.2187,0.0484,-0.2714
1879821.0,-8.9711,5.3079,16.1082,-0.1735,-0.2692,-0.1458
1879831.0,-8.5688,4.9656,15.263,-0.1979,-0.5608,-0.05
1879841.0,-8.1594,4.6352,14.6286,-0.3097,-0.7726,0.0016
1879851.0,-8.0302,4.3215,14.4658,-0.464,-0.9174,0.025
1879861.0,-7.9775,3.9337,14.5903,-0.5981,-1.086,0.0378
1879871.0,-7.8482,3.4812,14.5735,-0.6917,-1.3159,0.0442
1879881.0,-7.6926,2.9209,14.2096,-0.7205,-1.5623,0.0447
1879891.0,-7.4484,2.3774,13.8121,-0.6886,-1.7655,0.0255
1879901.0,-7.1754,2.2482,12.9574,-0.6146,-1.9278,-0.0319
1879911.0,-7.0126,2.5283,12.1937,-0.6263,-2.0465,-0.1171
1879921.0,-6.7373,2.8012,11.8561,-0.7641,-2.1471,-0.1969
1879931.0,-6.8019,2.9018,11.7723,-0.9339,-2.2423,-0.2549
1879941.0,-6.6966,2.9305,11.7555,-1.0323,-2.3349,-0.2927
1879951.0,-6.5912,2.8898,11.9734,-1.0036,-2.4078,-0.2969
1879961.0,-6.5697,2.7821,11.8609,-0.837,-2.4743,-0.2671
1879971.0,-6.2082,2.6145,11.8657,-0.6236,-2.5318,-0.2283
1879981.0,-5.9735,2.6719,11.5329,-0.4166,-2.6063,-0.1985
1879991.0,-5.6527,2.7964,11.2264,-0.2985,-2.7021,-0.1799
1880001.0,-5.4085,3.0765,10.8002,-0.241,-2.8064,-0.1618
1880011.0,-5.217,3.3734,10.2783,-0.2421,-2.9069,-0.1288
1880021.0,-4.8818,3.486,9.8737,-0.2783,-2.9899,-0.0713
1880031.0,-4.6352,3.4381,9.4044,-0.3044,-3.0687,-0.0043
1880041.0,-4.3527,3.4141,8.8322,-0.3097,-3.1166,0.0596
1880051.0,-4.0438,3.2609,8.3438,-0.2639,-3.1113,0.1325
1880061.0,-3.4764,3.0406,8.0828,-0.1447,-3.04,0.2128
1880071.0,-3.1627,2.806,7.932,0.0617,-2.95,0.2943
1880081.0,-2.806,2.6767,7.3334,0.2836,-2.8926,0.3719
1880091.0,-2.2865,2.4995,6.7014,0.4007,-2.8298,0.4326
1880101.0,-1.6305,2.2625,6.2177,0.4321,-2.7462,0.4677
1880111.0,-1.1708,2.0135,5.9137,0.4417,-2.635,0.4752
1880121.0,-0.6081,1.9776,5.3798,0.4331,-2.5291,0.4629
1880131.0,-0.0479,2.0686,5.0637,0.3517,-2.4036,0.4246
1880141.0,0.3687,2.2889,4.7764,0.2299,-2.2785,0.3778
1880151.0,0.6009,2.5522,4.5442,0.0878,-2.146,0.3395
1880161.0,0.8859,2.7294,4.458,-0.0596,-2.0023,0.3198
1880171.0,1.1109,2.8443,4.4125,-0.1836,-1.8459,0.3177
1880181.0,1.3216,2.727,4.64,-0.2703,-1.6778,0.3304
1880191.0,1.6041,2.4612,4.786,-0.2794,-1.5213,0.3549
1880201.0,1.889,2.1763,4.8937,-0.2192,-1.359,0.3714
1880211.0,2.2817,1.8986,5.0829,-0.0947,-1.1738,0.3789
1880221.0,2.5594,1.7166,5.1715,0.0676,-0.9956,0.3741
1880231.0,2.727,1.6879,5.1427,0.2214,-0.8285,0.3549
1880241.0,2.9353,1.7573,5.0996,0.3395,-0.6588,0.331
1880251.0,2.988,1.9154,4.9991,0.3959,-0.481,0.3022
1880261.0,2.9784,1.9944,5.1164,0.3714,-0.3033,0.2746
1880271.0,3.0933,1.9345,5.4851,0.3092,-0.1309,0.248
1880281.0,3.146,1.7717,6.0717,0.2698,0.0325,0.2144
1880291.0,2.9856,1.8316,6.5984,0.2783,0.1623,0.1681
1880301.0,2.7892,2.1476,7.0222,0.2948,0.2639,0.1272
1880311.0,2.7557,2.3296,7.4699,0.2847,0.3288,0.1112
1880321.0,2.6839,2.3176,7.7859,0.2496,0.3741,0.1016
1880331.0,2.6504,2.3415,8.3246,0.223,0.4225,0.0841
1880341.0,2.557,2.4852,8.8155,0.2416,0.4688,0.0745
1880351.0,2.4541,2.6719,9.0908,0.2464,0.4635,0.0718
1880361.0,2.4708,2.727,9.3039,0.1852,0.4119,0.074
1880371.0,2.4588,2.5666,9.3805,0.0772,0.3437,0.075
1880381.0,2.3846,2.4684,9.3925,-0.0255,0.2943,0.0591
1880391.0,2.4924,2.4565,9.3613,-0.0867,0.2692,0.0378
1880401.0,2.4181,2.5259,9.4092,-0.1378,0.2746,0.017
1880411.0,2.2889,2.5594,9.5385,-0.2017,0.2746,-0.0053
1880421.0,2.2984,2.6384,9.6271,-0.2629,0.2549,-0.025
1880431.0,2.2936,2.6504,9.7324,-0.3161,0.2485,-0.0346
1880441.0,2.32,2.5762,9.979,-0.3379,0.2554,-0.0293
1880451.0,2.2386,2.5546,10.2951,-0.3097,0.2581,-0.0208
1880461.0,2.2122,2.5546,10.5082,-0.207,0.2432,0.0016
1880471.0,2.2841,2.5402,10.3837,-0.0399,0.2112,0.0399
1880481.0,2.2913,2.4708,9.845,0.1256,0.1948,0.0713
1880491.0,2.3367,2.4253,9.3326,0.2065,0.224,0.0846
1880501.0,2.4948,2.1691,9.2105,0.1884,0.3006,0.066
1880511.0,2.3391,2.0016,9.4332,0.1304,0.3927,0.0154
1880521.0,2.1308,2.1668,9.9072,0.0702,0.4571,-0.0553
1880531.0,2.0016,2.4636,10.3501,0.0388,0.4757,-0.1128
1880541.0,1.9561,2.7677,10.7093,0.0362,0.4768,-0.1373
1880551.0,1.8052,2.8659,11.145,0.0484,0.4608,-0.1341
1880561.0,1.7645,3.0406,11.2623,0.1123,0.3922,-0.1208
1880571.0,1.719,3.4189,11.0756,0.1862,0.3241,-0.0995
1880581.0,1.6185,3.7373,10.7164,0.1889,0.2575,-0.0564
1880591.0,1.5826,3.6583,10.6183,0.0681,0.1857,-0.0059
1880601.0,1.6568,3.2058,10.5656,-0.0814,0.1016,0.0341
1880611.0,1.7933,2.6432,10.4531,-0.1958,0.0341,0.0495
1880621.0,1.8627,2.1284,10.5249,-0.2512,0.0016,0.0261
1880631.0,1.9297,2.1021,10.3525,-0.1995,-0.0101,-0.0287
1880641.0,1.8771,2.4756,10.0197,-0.1038,0.0064,-0.0803
1880651.0,1.8411,2.7509,9.845,-0.0654,0.0447,-0.1054
1880661.0,1.7957,2.8371,9.9455,-0.0559,0.0889,-0.1149
1880671.0,1.7861,2.9568,10.0197,-0.0106,0.1229,-0.1117
1880681.0,1.7406,3.0885,10.0054,0.0357,0.1421,-0.0952
1880691.0,1.7741,3.0981,9.9982,0.0458,0.1511,-0.0772
1880701.0,1.7693,3.0813,10.1754,0.0452,0.1799,-0.0697
1880711.0,1.585,3.3639,10.4076,0.0718,0.199,-0.067
1880721.0,1.5036,3.6966,10.489,0.0697,0.1564,-0.0463
1880731.0,1.3982,3.7781,10.2137,-0.0138,0.0628,-0.0059
1880741.0,1.585,3.3255,10.1514,-0.1644,-0.0293,0.0415
1880751.0,1.6664,2.6767,10.386,-0.2442,-0.0484,0.0537
1880761.0,1.6975,2.6169,10.2113,-0.1479,-0.0458,0.0362
1880771.0,1.7406,2.9568,9.9383,-0.0511,-0.0293,0.0133
1880781.0,1.7382,3.1627,9.7779,-0.0537,-0.0335,0.0074
1880791.0,1.8435,3.0622,9.7181,-0.1245,-0.0394,0.0122
1880801.0,1.6855,2.9401,9.9264,-0.1713,-0.0128,0.0101
1880811.0,1.6257,3.0358,10.082,-0.1634,0.0043,0.0048
1880821.0,1.6448,3.1532,10.1083,-0.1554,-0.0096,0.0085
1880831.0,1.64,3.1915,9.8689,-0.1634,-0.0484,0.0277
1880841.0,1.7765,3.043,9.8043,-0.2043,-0.0665,0.0511
1880851.0,1.8771,2.6863,9.924,-0.1756,-0.0516,0.0756
1880861.0,1.9728,2.6121,9.7085,-0.0133,-0.0218,0.0894
1880871.0,1.9632,2.9066,9.2225,0.1469,0.0208,0.091
1880881.0,1.8914,3.1077,8.7939,0.1623,0.0633,0.0963
1880891.0,2.0159,2.9377,8.8657,0.0617,0.1197,0.1032
1880901.0,2.0207,2.6193,9.2225,-0.0484,0.1708,0.0968
1880911.0,1.9537,2.3894,9.6271,-0.1176,0.1878,0.0708
1880921.0,1.9537,2.3655,9.8474,-0.1176,0.1719,0.0367
1880931.0,1.9106,2.4804,9.8426,-0.0878,0.1602,0.008
1880941.0,1.8723,2.5355,9.9503,-0.0569,0.1692,-0.0117
1880951.0,1.7071,2.7869,9.9982,-0.0202,0.1767,-0.0298
1880961.0,1.6233,3.0885,10.0054,-0.0319,0.1644,-0.0383
1880971.0,1.5371,3.1388,10.2185,-0.0825,0.1352,-0.0314
1880981.0,1.6185,3.0885,10.2687,-0.0889,0.1048,-0.0101
1880991.0,1.6472,3.0239,10.173,-0.0463,0.0894,0.0128
1881001.0,1.6664,2.9305,10.0413,-0.0176,0.0772,0.0309
1881011.0,1.7957,2.727,10.003,-0.0106,0.0665,0.0351
1881021.0,1.8292,2.7533,9.8186,0.017,0.075,0.0208
1881031.0,1.8627,2.9473,9.7037,0.0069,0.1139,0.0021
1881041.0,1.7286,3.0478,10.0987,-0.0633,0.1506,-0.0144
1881051.0,1.5969,3.146,10.3741,-0.1112,0.1288,-0.0149
1881061.0,1.5802,3.0478,10.4411,-0.1378,0.0729,0.0032
1881071.0,1.7047,2.7581,10.4507,-0.1235,0.0293,0.0208
1881081.0,1.7573,2.7581,10.1849,-0.0654,0.0149,0.0186
1881091.0,1.7358,2.9425,10.0796,-0.0511,0.0266,0.0069
1881101.0,1.664,3.0191,10.1179,-0.0995,0.0176,0.0064
1881111.0,1.6807,2.885,10.0868,-0.1559,-0.0239,0.0106
1881121.0,1.8603,2.7701,9.991,-0.1788,-0.0601,0.0133
1881131.0,1.8771,2.715,9.8713,-0.1777,-0.0521,0.0138
1881141.0,1.7909,2.6312,9.8043,-0.1586,-0.0351,0.0138
1881151.0,1.8268,2.5977,9.73,-0.1298,-0.0197,0.008
1881161.0,1.8483,2.7078,9.6989,-0.0846,0.0186,-0.0021
1881171.0,1.8124,2.909,9.6869,-0.0479,0.074,-0.0005
1881181.0,1.7286,2.8994,9.8521,-0.0601,0.1096,0.0138
1881191.0,1.7597,2.7031,10.2017,-0.0724,0.1054,0.0293
1881201.0,1.8435,2.5163,10.2687,-0.0341,0.0825,0.0399
1881211.0,1.8675,2.4541,10.1754,0.0176,0.067,0.0346
1881221.0,1.8794,2.5714,10.058,0.0527,0.0617,0.0144
1881231.0,1.7885,2.806,9.7803,0.0346,0.0495,-0.0037
1881241.0,1.743,2.7749,9.8593,-0.0937,0.033,-0.0165
1881251.0,1.7573,2.4828,10.2424,-0.2208,0.0032,-0.0346
1881261.0,1.8531,2.3511,10.3453,-0.2144,-0.0303,-0.0521
1881271.0,1.8268,2.3798,10.2352,-0.1304,-0.0394,-0.0702
1881281.0,1.7957,2.6959,10.0245,-0.0314,-0.025,-0.0883
1881291.0,1.7262,3.134,9.8354,0.0319,0.0016,-0.0968
1881301.0,1.6927,3.4093,9.7899,0.0213,0.0282,-0.0766
1881311.0,1.6496,3.3662,9.9048,-0.0346,0.033,-0.0447
1881321.0,1.7262,3.1101,10.0317,-0.0793,0.0239,-0.0117
1881331.0,1.8076,2.8515,10.1538,-0.0633,0.0176,0.0069
1881341.0,1.8076,2.8515,9.9766,-0.0122,0.0149,0.0048
1881351.0,1.7454,3.067,9.8904,-0.017,0.0208,-0.0122
1881361.0,1.6951,3.2513,9.979,-0.074,0.0298,-0.0218
1881371.0,1.6328,3.3327,10.252,-0.1298,0.033,-0.0176
1881381.0,1.5514,3.5362,10.4986,-0.1479,0.0181,-0.0112
1881391.0,1.5083,3.8259,10.4914,-0.1474,-0.0234,0.0138
1881401.0,1.5131,3.9049,10.3046,-0.2081,-0.091,0.0564
1881411.0,1.6065,3.6392,10.2065,-0.3017,-0.1735,0.1048
1881421.0,1.8651,3.2609,9.833,-0.3501,-0.232,0.1501
1881431.0,2.0207,2.8084,9.6869,-0.3421,-0.2235,0.1815
1881441.0,2.1117,2.6001,9.6031,-0.2373,-0.1761,0.1926
1881451.0,2.217,2.7414,9.2105,-0.0952,-0.1336,0.1974
1881461.0,2.32,2.8587,8.8274,-0.0681,-0.108,0.2054
1881471.0,2.3439,2.7054,8.7317,-0.1474,-0.107,0.2171
1881481.0,2.4373,2.3296,8.5066,-0.223,-0.124,0.2309
1881491.0,2.6288,1.7478,8.2265,-0.2517,-0.107,0.2341
1881501.0,2.7174,1.1468,7.9799,-0.2139,-0.0282,0.2091
1881511.0,2.7198,0.814,7.8961,-0.133,0.1075,0.1373
1881521.0,2.5331,1.0463,8.1307,-0.0351,0.2767,0.0282
1881531.0,2.3655,1.5562,8.497,0.0234,0.4103,-0.0697
1881541.0,2.1093,1.9609,9.256,0.0154,0.4975,-0.1394
1881551.0,1.8986,2.3511,9.8067,0.0521,0.5252,-0.1687
1881561.0,1.7334,2.6695,10.058,0.1181,0.5199,-0.1628
1881571.0,1.664,2.8156,10.3693,0.1628,0.5103,-0.1415
1881581.0,1.5395,2.9544,10.6207,0.182,0.4949,-0.1165
1881591.0,1.5299,2.8826,10.8793,0.1352,0.4496,-0.0921
1881601.0,1.5107,2.557,11.3605,0.0506,0.3789,-0.0803
1881611.0,1.5131,2.4469,11.5233,0.0362,0.2836,-0.0947
1881621.0,1.5083,2.6671,11.3916,0.0676,0.2112,-0.1208
1881631.0,1.4293,3.0598,11.1235,0.058,0.1548,-0.1405
1881641.0,1.3503,3.2777,11.1019,-0.0351,0.1011,-0.1415
1881651.0,1.3982,3.237,11.2671,-0.1373,0.041,-0.1261
1881661.0,1.4988,3.0885,11.236,-0.1564,-0.0255,-0.0968
1881671.0,1.6352,2.9377,11.0756,-0.1133,-0.0718,-0.0665
1881681.0,1.7334,2.8371,10.7978,-0.0484,-0.0878,-0.0436
1881691.0,1.798,2.9377,10.5417,0.0085,-0.0905,-0.033
1881701.0,1.8124,3.0813,10.1083,0.0117,-0.0974,-0.0239
1881711.0,1.9154,2.9257,9.9311,-0.074,-0.107,-0.0165
1881721.0,1.9776,2.6025,10.058,-0.1548,-0.1038,-0.0202
1881731.0,2.0614,2.5115,9.979,-0.1442,-0.0899,-0.0335
1881741.0,2.0566,2.5498,9.8952,-0.1117,-0.074,-0.0479
1881751.0,1.9632,2.5881,9.7923,-0.1048,-0.0676,-0.0639
1881761.0,2.0566,2.6624,9.7851,-0.0883,-0.0527,-0.0803
1881771.0,1.9704,2.9329,9.5816,-0.0474,-0.0309,-0.0905
1881781.0,1.901,3.2298,9.481,-0.0745,-0.016,-0.0894
1881791.0,1.7597,3.1819,9.6199,-0.1564,-0.0208,-0.0724
1881801.0,1.8483,2.9233,9.6175,-0.1932,-0.0388,-0.0452
1881811.0,1.9297,2.6121,9.6343,-0.1368,-0.0181,-0.0287
1881821.0,1.9369,2.6408,9.5265,-0.0255,0.0351,-0.0319
1881831.0,1.9249,2.8659,9.4858,0.0351,0.0793,-0.0458
1881841.0,1.8411,3.0287,9.5816,0.0176,0.0921,-0.0559
1881851.0,1.7741,3.0646,9.6822,-0.0144,0.0905,-0.0537
1881861.0,1.7214,3.0454,9.6869,-0.0271,0.091,-0.0468
1881871.0,1.7406,3.0526,9.7061,-0.0277,0.0937,-0.0426
1881881.0,1.7573,3.0742,9.8162,-0.0229,0.107,-0.0399
1881891.0,1.7549,3.2178,9.8569,-0.017,0.1272,-0.0388
1881901.0,1.64,3.3758,10.094,-0.0442,0.124,-0.0314
1881911.0,1.6472,3.395,10.2208,-0.0974,0.0867,-0.0128
1881921.0,1.6759,3.2417,10.252,-0.1341,0.0341,0.0133
1881931.0,1.6855,3.0382,10.2256,-0.1415,-0.0165,0.0367
1881941.0,1.8483,2.885,9.9766,-0.1176,-0.0506,0.0484
1881951.0,1.8747,2.9353,9.6079,-0.0931,-0.0495,0.0447
1881961.0,1.8818,3.0023,9.4499,-0.1155,-0.0208,0.0415
1881971.0,1.8172,2.8874,9.4595,-0.1692,0.0043,0.0431
1881981.0,1.9321,2.6384,9.6295,-0.1884,0.0341,0.0458
1881991.0,2.0135,2.4828,9.7181,-0.1171,0.0798,0.0468
1882001.0,2.0423,2.4924,9.6869,-0.0016,0.1346,0.0479
1882011.0,2.0327,2.5714,9.6989,0.0644,0.1783,0.042
1882021.0,1.9345,2.7054,9.7899,0.05,0.1878,0.0314
1882031.0,1.901,2.8299,9.9695,-0.0133,0.1745,0.0229
1882041.0,1.8364,2.8204,10.0485,-0.0697,0.1474,0.0287
1882051.0,1.8052,2.6983,10.1442,-0.116,0.1165,0.0367
1882061.0,1.8244,2.4852,10.2376,-0.1309,0.0894,0.0415
1882071.0,1.8914,2.3176,10.1993,-0.0846,0.0756,0.0388
1882081.0,1.8555,2.3248,9.9862,-0.0282,0.0878,0.0234
1882091.0,1.8004,2.49,9.8689,-0.0181,0.1048,-0.0016
1882101.0,1.7645,2.6432,10.0461,-0.049,0.1224,-0.0213
1882111.0,1.731,2.7031,10.1801,-0.0708,0.133,-0.0271
1882121.0,1.7023,2.6911,10.386,-0.058,0.1357,-0.0234
1882131.0,1.7645,2.7198,10.41,-0.0186,0.1208,-0.0138
1882141.0,1.7286,2.7078,10.3046,0.0005,0.0926,-0.008
1882151.0,1.7789,2.6983,10.2161,-0.0112,0.0681,-0.009
1882161.0,1.7573,2.715,10.1682,-0.0346,0.0559,-0.0154
1882171.0,1.6759,2.7821,10.1538,-0.0873,0.0468,-0.025
1882181.0,1.6496,2.7892,10.3334,-0.1548,0.0261,-0.0335
1882191.0,1.6688,2.7246,10.4387,-0.1815,-0.0112,-0.033
1882201.0,1.6807,2.7126,10.3382,-0.1618,-0.0447,-0.0255
1882211.0,1.7789,2.6504,10.2017,-0.1208,-0.0649,-0.016
1882221.0,1.8172,2.5833,9.9671,-0.0857,-0.0724,-0.0112
1882231.0,1.8747,2.6384,9.7037,-0.0612,-0.0681,-0.0138
1882241.0,1.9537,2.6911,9.5864,-0.0782,-0.0553,-0.0213
1882251.0,1.9106,2.6624,9.4595,-0.124,-0.0447,-0.0309
1882261.0,1.9632,2.6456,9.4978,-0.166,-0.0303,-0.0399
1882271.0,1.9585,2.5115,9.481,-0.1612,-0.0037,-0.0452
1882281.0,1.9872,2.5211,9.4523,-0.1048,0.0346,-0.0516
1882291.0,1.9106,2.6576,9.4475,-0.0596,0.0883,-0.0633
1882301.0,1.822,2.8563,9.5816,-0.0388,0.1389,-0.0724
1882311.0,1.7717,2.9568,9.7636,-0.0255,0.1703,-0.0644
1882321.0,1.7166,2.9425,10.0533,-0.0341,0.1809,-0.0543
1882331.0,1.7023,2.8587,10.3406,-0.0341,0.1681,-0.0442
1882341.0,1.7621,2.8395,10.3142,-0.0016,0.1314,-0.0314
1882351.0,1.7909,2.8395,10.2304,0.008,0.0931,-0.0255
1882361.0,1.798,2.885,10.1682,-0.0192,0.0506,-0.0303
1882371.0,1.8387,3.0765,9.8809,-0.066,0.0165,-0.0383
1882381.0,1.7885,3.1556,9.9,-0.1437,0.008,-0.0362
1882391.0,1.743,3.0598,9.9647,-0.2118,-0.0005,-0.0229
1882401.0,1.7621,2.8108,9.9335,-0.232,-0.0176,-0.0059
1882411.0,1.8411,2.5067,10.0413,-0.2097,-0.0144,0.0016
1882421.0,1.9106,2.3727,9.9742,-0.1266,0.0074,-0.0085
1882431.0,1.8986,2.557,9.8474,-0.0367,0.0442,-0.0335
1882441.0,1.7813,2.8946,9.845,0.0059,0.0851,-0.0537
1882451.0,1.7047,3.2154,9.9168,0.0112,0.1032,-0.0511
1882461.0,1.6879,3.3662,10.07,-0.0154,0.1048,-0.0255
1882471.0,1.7645,3.3303,10.2041,-0.0452,0.0915,0.0112
1882481.0,1.7861,3.1723,10.2208,-0.0686,0.0617,0.0458
1882491.0,1.8483,2.9113,10.1682,-0.0995,0.0229,0.0702
1882501.0,1.8627,2.6983,10.0461,-0.1229,-0.0138,0.0766
1882511.0,1.9154,2.5857,9.9048,-0.1352,-0.0282,0.0708
1882521.0,1.8555,2.4876,9.8689,-0.1506,-0.025,0.0591
1882531.0,1.8842,2.3559,9.8641,-0.1639,-0.0213,0.0426
1882541.0,1.9465,2.2649,9.8689,-0.1378,-0.0064,0.0239
1882551.0,1.9704,2.3272,9.7396,-0.0777,0.0192,0.009
1882561.0,1.9393,2.3966,9.7348,-0.0357,0.0527,-0.0053
1882571.0,1.8842,2.6025,9.6822,-0.0059,0.0793,-0.0197
1882581.0,1.8483,2.8347,9.6845,-0.0059,0.1091,-0.0218
