time_ms,ax,ay,az,gx,gy,gz
1831671.0,5.3415,1.7478,8.7987,-0.0676,0.0197,0.0149
1831681.0,5.3247,1.6616,8.7891,-0.1096,0.0218,0.0101
1831691.0,5.3439,1.5802,8.7867,-0.1293,0.0255,0.0037
1831701.0,5.4516,1.4772,8.7987,-0.1197,0.0394,0.0016
1831711.0,5.4708,1.3862,8.8514,-0.0819,0.0665,-0.0053
1831721.0,5.4564,1.4868,8.8178,-0.033,0.0905,-0.0176
1831731.0,5.4277,1.6161,8.7843,-0.0133,0.1086,-0.0293
1831741.0,5.4253,1.6616,8.8705,-0.0367,0.1192,-0.0372
1831751.0,5.3367,1.6376,9.0333,-0.0756,0.1144,-0.0426
1831761.0,5.3343,1.5969,9.1722,-0.0841,0.1016,-0.0463
1831771.0,5.3391,1.5826,9.1602,-0.0575,0.0889,-0.0436
1831781.0,5.3606,1.5993,9.1482,-0.0298,0.0825,-0.0426
1831791.0,5.3103,1.7119,9.0764,-0.0128,0.0803,-0.0452
1831801.0,5.3319,1.8699,9.007,-0.0192,0.074,-0.0458
1831811.0,5.3343,1.9345,9.007,-0.0639,0.0628,-0.0442
1831821.0,5.3008,1.9369,9.1075,-0.1107,0.0468,-0.0341
1831831.0,5.3151,1.822,9.1339,-0.124,0.0202,-0.0192
1831841.0,5.4348,1.6568,9.1099,-0.0974,0.0032,-0.0064
1831851.0,5.4516,1.5969,8.9543,-0.0436,0.0085,0.0
1831861.0,5.4588,1.6089,8.7125,-0.0149,0.0303,-0.0069
1831871.0,5.4348,1.7214,8.7604,-0.0303,0.0553,-0.0218
1831881.0,5.3654,1.8292,8.7891,-0.0559,0.0734,-0.0303
1831891.0,5.3032,1.8004,9.0046,-0.0894,0.0857,-0.0293
1831901.0,5.3151,1.6759,9.2153,-0.0921,0.0846,-0.0234
1831911.0,5.3558,1.5993,9.2656,-0.0543,0.0686,-0.0202
1831921.0,5.3008,1.6951,9.2249,-0.025,0.0436,-0.0245
1831931.0,5.2792,1.8411,9.0357,-0.0362,0.0117,-0.0309
1831941.0,5.2816,1.9297,8.9854,-0.0734,-0.016,-0.0293
1831951.0,5.3175,1.9034,8.8681,-0.1128,-0.0372,-0.0218
1831961.0,5.3151,1.7885,8.849,-0.1304,-0.0468,-0.0122
1831971.0,5.4229,1.6975,8.7269,-0.1011,-0.0415,-0.0027
1831981.0,5.4612,1.6927,8.5042,-0.0537,-0.0144,0.0021
1831991.0,5.4875,1.7406,8.4563,-0.0293,0.0282,0.0016
1832001.0,5.3989,1.8435,8.3893,-0.0442,0.0617,0.0005
1832011.0,5.375,1.798,8.6072,-0.0889,0.0894,0.0032
1832021.0,5.3726,1.6975,8.7556,-0.1038,0.1048,0.0101
1832031.0,5.3463,1.6113,8.8681,-0.0894,0.1144,0.0165
1832041.0,5.3917,1.4437,8.9567,-0.0708,0.1155,0.0192
1832051.0,5.442,1.403,9.0285,-0.0404,0.1075,0.0122
1832061.0,5.3798,1.5227,8.8825,-0.0144,0.1059,-0.0021
1832071.0,5.3654,1.5826,8.8538,-0.0335,0.1027,-0.0154
1832081.0,5.3606,1.5682,8.9854,-0.0686,0.0974,-0.0261
1832091.0,5.3367,1.6113,9.019,-0.0809,0.0878,-0.033
1832101.0,5.3391,1.5754,9.0908,-0.0825,0.0862,-0.0346
1832111.0,5.3343,1.549,9.1985,-0.0676,0.0798,-0.0362
1832121.0,5.2984,1.6113,9.1482,-0.0511,0.0628,-0.0436
1832131.0,5.3008,1.7454,9.0956,-0.0511,0.0463,-0.0484
1832141.0,5.2912,1.7621,9.0333,-0.0766,0.0277,-0.0484
1832151.0,5.3199,1.7454,9.0237,-0.0968,0.0133,-0.0447
1832161.0,5.3989,1.7597,8.8681,-0.0841,0.0069,-0.0383
1832171.0,5.4013,1.7023,8.7843,-0.0612,0.0149,-0.0298
1832181.0,5.466,1.6496,8.7269,-0.0404,0.0303,-0.0271
1832191.0,5.4612,1.7286,8.5425,-0.0197,0.0596,-0.033
1832201.0,5.3822,1.8316,8.5784,-0.0367,0.0952,-0.0378
1832211.0,5.3008,1.8507,8.7053,-0.0846,0.1,-0.041
1832221.0,5.2768,1.7765,8.8322,-0.1245,0.0867,-0.0378
1832231.0,5.3678,1.5945,8.8538,-0.1213,0.0788,-0.0325
1832241.0,5.4803,1.4748,8.8609,-0.0984,0.091,-0.0378
1832251.0,5.3917,1.7047,8.7556,-0.0899,0.099,-0.0596
1832261.0,5.2409,2.0135,8.4372,-0.1522,0.074,-0.0734
1832271.0,5.2601,1.8555,8.6407,-0.2575,0.0777,-0.0718
1832281.0,5.2505,1.6592,8.9591,-0.2256,0.1479,-0.0548
1832291.0,5.1332,1.6759,9.1147,-0.158,0.1948,-0.049
1832301.0,5.0494,1.7454,9.2416,-0.1697,0.1825,-0.0564
1832311.0,5.3558,1.9154,8.7676,-0.2001,0.1517,-0.0623
1832321.0,5.2002,1.6137,9.5984,-0.3336,0.2086,-0.0734
1832331.0,5.0829,1.3695,10.1849,-0.3363,0.2272,-0.0788
1832341.0,5.1332,1.4293,10.2831,-0.3421,0.1527,-0.107
1832351.0,5.0661,1.4868,10.726,-0.4651,0.0516,-0.1554
1832361.0,4.7669,1.743,11.078,-0.522,-0.0319,-0.1799
1832371.0,4.6064,1.8675,11.2743,-0.5326,-0.1405,-0.174
1832381.0,4.6017,1.9178,11.4395,-0.5055,-0.2607,-0.1469
1832391.0,4.549,1.9106,11.6238,-0.3842,-0.3235,-0.0968
1832401.0,4.5538,1.8962,11.6885,-0.2198,-0.3922,-0.0319
1832411.0,4.5801,1.6424,12.2272,-0.0543,-0.4608,0.0325
1832421.0,4.7764,1.7023,11.9519,0.1948,-0.58,0.0968
1832431.0,5.0542,1.6305,11.4108,0.3342,-0.7199,0.1458
1832441.0,5.1571,1.4844,10.8745,0.3363,-0.8562,0.165
1832451.0,5.3702,1.4126,10.0844,0.2953,-0.97,0.1628
1832461.0,5.4396,1.3144,9.5768,0.1815,-1.0275,0.1368
1832471.0,5.5976,1.3503,8.9807,0.0639,-1.0648,0.1043
1832481.0,5.861,1.4126,8.4324,-0.0628,-1.0892,0.0702
1832491.0,6.0765,1.391,7.8434,-0.1777,-1.0908,0.0404
1832501.0,6.189,1.4341,7.252,-0.2746,-1.0467,0.0128
1832511.0,6.3638,1.3815,6.8211,-0.3954,-0.977,-0.017
1832521.0,6.3877,1.3144,6.9576,-0.4778,-0.8801,-0.0527
1832531.0,6.4955,1.5083,6.6607,-0.389,-0.7567,-0.0569
1832541.0,6.7205,1.7071,6.2728,-0.3246,-0.6423,-0.033
1832551.0,6.7229,1.573,6.7014,-0.3304,-0.5257,-0.0096
1832561.0,6.8738,1.6352,6.5577,-0.2496,-0.4768,0.0176
1832571.0,6.8785,1.6664,6.4284,-0.2022,-0.4363,0.0394
1832581.0,6.845,1.6137,6.1555,-0.1942,-0.4049,0.0623
1832591.0,6.8833,1.4653,5.8466,-0.1862,-0.3597,0.0867
1832601.0,6.9911,1.2522,5.5761,-0.1868,-0.298,0.1038
1832611.0,7.1227,0.9697,5.4444,-0.2059,-0.2224,0.1011
1832621.0,7.2089,0.8571,5.2696,-0.241,-0.1538,0.0766
1832631.0,7.0126,0.8332,5.3103,-0.2927,-0.091,0.0383
1832641.0,7.0701,0.8523,5.0422,-0.332,-0.0644,0.0117
1832651.0,7.0653,0.7829,4.9225,-0.3496,-0.0021,-0.009
1832661.0,7.0581,0.8164,4.6376,-0.3124,0.0899,-0.0245
1832671.0,7.0174,0.8404,4.4796,-0.2687,0.2038,-0.0394
1832681.0,6.9791,0.8739,4.288,-0.2091,0.332,-0.0474
1832691.0,6.9815,0.893,4.063,-0.165,0.4768,-0.0543
1832701.0,6.9671,0.8356,4.2617,-0.149,0.6417,-0.0713
1832711.0,6.8283,0.8643,4.4652,-0.0825,0.8109,-0.0883
1832721.0,6.7277,0.9457,4.7453,0.0271,0.9764,-0.0979
1832731.0,6.6008,1.0678,5.0254,0.1437,1.1212,-0.1059
1832741.0,6.4308,1.3168,5.1116,0.2097,1.2207,-0.1144
1832751.0,6.1651,1.549,5.1236,0.1538,1.2675,-0.1192
1832761.0,5.9017,1.6137,5.0278,-0.0197,1.2478,-0.1171
1832771.0,5.6743,1.3791,4.5226,-0.3028,1.1855,-0.1144
1832781.0,5.6192,0.7542,3.9983,-0.6306,1.1632,-0.1203
1832791.0,5.5665,0.0072,3.802,-0.8721,1.2765,-0.1532
1832801.0,5.3846,-0.4022,3.8906,-0.9472,1.5144,-0.2224
1832811.0,5.1236,-0.4238,4.6759,-0.8897,1.8299,-0.3124
1832821.0,4.5011,-0.0431,6.2297,-0.6476,2.1636,-0.381
1832831.0,4.1276,0.8332,6.9528,-0.29,2.3482,-0.3959
1832841.0,3.7565,1.5538,7.6112,-0.1155,2.4062,-0.3735
1832851.0,3.5099,2.1237,7.8985,-0.1437,2.3253,-0.3246
1832861.0,3.0933,2.5211,7.908,-0.3517,2.162,-0.2533
1832871.0,2.7509,2.2673,7.7859,-0.7029,1.9443,-0.1532
1832881.0,2.7892,1.3503,7.6758,-1.0307,1.7501,-0.0468
1832891.0,2.7892,0.3496,7.027,-1.1871,1.6469,0.0277
1832901.0,2.8299,-0.5435,6.426,-1.2968,1.6687,0.0394
1832911.0,2.5929,-1.3144,6.754,-1.2861,1.8677,-0.0096
1832921.0,2.2482,-1.245,6.9863,-1.0243,2.1364,-0.0846
1832931.0,1.6759,-0.7973,7.6902,-0.7529,2.411,-0.1634
1832941.0,1.3192,-0.1796,8.5545,-0.5571,2.5791,-0.2118
1832951.0,1.0846,0.4046,9.2153,-0.4741,2.6132,-0.2214
1832961.0,0.9481,0.8021,9.5289,-0.5146,2.5164,-0.1969
1832971.0,0.4214,1.0127,9.5122,-0.621,2.3812,-0.1421
1832981.0,0.0646,0.5746,9.1123,-0.7311,2.2546,-0.0458
1832991.0,0.1748,-0.4956,9.2105,-0.7471,2.2359,0.0351
1833001.0,0.1556,-1.1995,8.8131,-0.5108,2.3312,0.0628
1833011.0,-0.1125,-1.5538,8.7388,-0.2027,2.5371,0.0176
1833021.0,-0.7039,-1.2498,9.3302,0.0995,2.7835,-0.0803
1833031.0,-1.1349,-0.6512,10.003,0.3948,2.9756,-0.1745
1833041.0,-1.4916,0.2035,10.5345,0.5422,3.0676,-0.2533
1833051.0,-1.9249,0.9912,11.0157,0.4161,3.0213,-0.3081
1833061.0,-2.3128,1.3575,11.7651,0.0665,2.8612,-0.323
1833071.0,-2.818,1.1301,12.3828,-0.3028,2.6419,-0.282
1833081.0,-3.0789,0.1053,13.0053,-0.5763,2.4089,-0.2065
1833091.0,-2.9497,-0.9457,13.1873,-0.6635,2.2045,-0.1687
1833101.0,-2.8395,-1.6017,13.0077,-0.572,2.1093,-0.1894
1833111.0,-2.9975,-1.8771,13.1681,-0.3879,2.1646,-0.2496
1833121.0,-3.2633,-1.652,13.7475,-0.2256,2.2455,-0.3336
1833131.0,-3.5243,-1.2186,14.7267,-0.1756,2.1976,-0.4129
1833141.0,-3.6703,-0.6895,15.3636,-0.1075,2.0321,-0.4496
1833151.0,-3.7637,-0.0646,15.2798,0.0676,1.8576,-0.4252
1833161.0,-3.9768,0.3974,15.1122,0.273,1.7565,-0.3597
1833171.0,-4.2713,0.9361,14.6501,0.4911,1.7118,-0.2767
1833181.0,-4.5011,1.2186,14.7124,0.6332,1.7368,-0.1815
1833191.0,-4.6448,1.2378,15.0787,0.6614,1.7358,-0.0905
1833201.0,-4.8123,0.9984,15.8209,0.5763,1.649,-0.0293
1833211.0,-4.7166,0.8332,16.3739,0.4746,1.4825,0.0048
1833221.0,-4.7357,0.5722,17.0898,0.3241,1.2595,0.0192
1833231.0,-4.5849,0.1867,17.6309,0.1783,0.9514,0.0197
1833241.0,-4.3144,-0.067,17.6309,0.1123,0.6039,0.0064
1833251.0,-4.118,-0.0742,17.2071,0.0585,0.2629,-0.0229
1833261.0,-4.0055,0.0263,16.6636,-0.0314,-0.0649,-0.0569
1833271.0,-3.8786,0.1796,15.9119,-0.1123,-0.3539,-0.0867
1833281.0,-3.7517,0.3926,15.0069,-0.1671,-0.5662,-0.0968
1833291.0,-3.6272,0.5435,14.2431,-0.2496,-0.7184,-0.0921
1833301.0,-3.5123,0.4573,13.8505,-0.3432,-0.8359,-0.0708
1833311.0,-3.304,0.2418,13.4674,-0.3411,-0.919,-0.0372
1833321.0,-3.0502,0.1053,12.9167,-0.2352,-0.9461,-0.0016
1833331.0,-2.9473,0.0742,12.4762,-0.1133,-0.9131,0.0261
1833341.0,-2.9568,0.0335,12.3421,-0.0245,-0.8668,0.05
1833351.0,-2.885,-0.067,12.3421,0.0458,-0.8391,0.0654
1833361.0,-2.7126,-0.1844,12.4762,0.0809,-0.8514,0.0686
1833371.0,-2.6288,-0.316,12.5408,0.1096,-0.8982,0.0564
1833381.0,-2.545,-0.2346,12.3014,0.1628,-0.9594,0.0372
1833391.0,-2.5474,-0.17,12.2128,0.1878,-0.9924,0.0149
1833401.0,-2.5379,-0.0838,12.2176,0.223,-1.011,-0.0011
1833411.0,-2.5762,0.1389,12.1386,0.2352,-1.0536,-0.0181
1833421.0,-2.5498,0.237,12.4355,0.1963,-1.118,-0.0277
1833431.0,-2.4804,0.3208,12.2679,0.1995,-1.2164,-0.0277
1833441.0,-2.2649,0.3687,12.0835,0.191,-1.2994,-0.0287
1833451.0,-2.1787,0.4884,11.8537,0.1884,-1.3516,-0.0314
1833461.0,-2.1907,0.6752,11.6789,0.1735,-1.4026,-0.0287
1833471.0,-2.0542,0.6704,11.6119,0.1399,-1.4473,-0.0165
1833481.0,-1.8531,0.6249,11.4706,0.1564,-1.4878,0.0053
1833491.0,-1.7358,0.3974,11.4084,0.1772,-1.5101,0.0229
1833501.0,-1.4844,0.2993,11.1881,0.2256,-1.5362,0.025
1833511.0,-1.2163,0.4118,10.963,0.2607,-1.5389,0.0112
1833521.0,-1.063,0.5483,10.9319,0.2586,-1.5314,-0.0032
1833531.0,-0.9601,0.7805,10.8314,0.2171,-1.5532,-0.0149
1833541.0,-0.838,0.7901,10.8218,0.1117,-1.6118,-0.016
1833551.0,-0.6416,0.6943,10.647,0.0096,-1.7012,-0.009
1833561.0,-0.4118,0.4764,10.4172,-0.0628,-1.7719,-0.0027
1833571.0,-0.0742,0.2538,9.9264,-0.0968,-1.8209,-0.0037
1833581.0,0.2059,-0.0287,9.7755,-0.0718,-1.7847,-0.017
1833591.0,0.3328,-0.0431,9.7492,0.0357,-1.6985,-0.0351
1833601.0,0.4381,0.0814,9.7396,0.1405,-1.6229,-0.05
1833611.0,0.6297,0.0718,9.8282,0.1979,-1.5963,-0.0607
1833621.0,0.8811,0.0718,9.7324,0.2421,-1.6022,-0.0734
1833631.0,1.1492,0.1149,9.572,0.2746,-1.5985,-0.0942
1833641.0,1.2761,0.1149,9.5529,0.3076,-1.5623,-0.1224
1833651.0,1.3575,0.2658,9.4451,0.3613,-1.5261,-0.1527
1833661.0,1.5802,0.407,9.4739,0.3837,-1.4915,-0.1868
1833671.0,1.7095,0.7781,9.4691,0.4129,-1.4591,-0.2208
1833681.0,1.7119,1.221,9.5026,0.414,-1.4426,-0.2421
1833691.0,1.6855,1.5347,9.4978,0.3741,-1.4596,-0.2416
1833701.0,1.8747,1.6688,9.2991,0.3033,-1.5048,-0.2214
1833711.0,2.0566,1.549,9.2464,0.2144,-1.5362,-0.2001
1833721.0,2.2913,1.3982,9.153,0.1836,-1.5474,-0.1878
1833731.0,2.4972,1.4605,8.9687,0.1767,-1.5479,-0.1862
1833741.0,2.5905,1.5802,8.8322,0.1282,-1.5548,-0.191
1833751.0,2.7725,1.6951,8.6431,0.0718,-1.5724,-0.1916
1833761.0,2.9473,1.7358,8.6191,0.0277,-1.5639,-0.1841
1833771.0,3.1029,1.889,8.5066,0.009,-1.5665,-0.1751
1833781.0,3.158,2.0399,8.3151,-0.0362,-1.5857,-0.1596
1833791.0,3.4884,2.0399,7.9942,-0.1016,-1.6346,-0.1309
1833801.0,3.7589,1.8483,7.5896,-0.1219,-1.6575,-0.099
1833811.0,4.1084,1.8387,6.9384,-0.0952,-1.641,-0.074
1833821.0,4.2928,1.7717,6.4955,-0.0819,-1.5612,-0.0569
1833831.0,4.5131,1.8268,6.1028,-0.0521,-1.4516,-0.0452
1833841.0,4.6687,1.8579,5.8514,-0.0101,-1.3122,-0.0271
1833851.0,4.7932,1.9656,5.7748,-0.0016,-1.1722,-0.0128
1833861.0,4.9991,1.992,5.77,-0.041,-1.0674,0.0027
1833871.0,5.0542,1.9537,5.6623,-0.1256,-1.0014,0.017
1833881.0,5.3941,1.7478,5.4277,-0.2261,-0.9589,0.0293
1833891.0,5.5905,1.4844,5.2481,-0.2682,-0.8562,0.0271
1833901.0,5.7652,1.4461,4.9488,-0.2203,-0.6976,0.0144
1833911.0,5.7557,1.5562,4.9129,-0.158,-0.4794,-0.0043
1833921.0,5.6934,1.7861,5.0589,-0.1256,-0.2703,-0.0112
1833931.0,5.5043,1.8196,5.6168,-0.1506,-0.1016,-0.0037
1833941.0,5.466,1.6544,6.2249,-0.1522,0.0037,0.0176
1833951.0,5.5857,1.4293,6.62,-0.075,0.0819,0.0426
1833961.0,5.6407,1.2594,6.8809,0.0404,0.1538,0.0569
1833971.0,5.5976,1.2306,7.2401,0.1522,0.2261,0.0564
1833981.0,5.454,1.4892,7.2568,0.2432,0.2708,0.042
1833991.0,5.296,1.7526,7.2281,0.2299,0.299,0.0325
1834001.0,5.2457,1.7597,7.5346,0.1149,0.3214,0.0303
1834011.0,5.3175,1.7406,7.9368,0.0234,0.332,0.0325
1834021.0,5.2098,1.7597,8.157,-0.0101,0.3464,0.0436
1834031.0,5.1595,1.652,8.5569,-0.0208,0.3629,0.067
1834041.0,5.2625,1.5275,8.7005,0.0074,0.3512,0.0921
1834051.0,5.2481,1.4796,8.7149,0.041,0.3448,0.1101
1834061.0,5.2289,1.3623,8.8274,0.0388,0.3533,0.1208
1834071.0,5.2194,1.1947,9.1387,0.016,0.3597,0.1213
1834081.0,5.2457,1.1085,9.1889,0.0037,0.3315,0.1133
1834091.0,5.193,1.0798,9.2033,-0.0277,0.29,0.0984
1834101.0,5.1739,0.9744,9.1842,-0.0431,0.2591,0.091
1834111.0,5.2265,0.8356,9.0477,-0.0277,0.2421,0.083
1834121.0,5.2529,0.7494,8.9878,-0.0048,0.2538,0.0617
1834131.0,5.3079,0.7326,8.9878,0.0341,0.2985,0.0362
1834141.0,5.2744,0.8188,9.1123,0.0617,0.3421,0.0032
1834151.0,5.1763,0.984,9.2584,0.0553,0.3586,-0.0293
1834161.0,5.0996,1.1372,9.3877,0.0239,0.3565,-0.0559
1834171.0,5.0135,1.2546,9.6534,0.0117,0.3555,-0.0686
1834181.0,4.8937,1.3479,9.7516,0.0261,0.3453,-0.067
1834191.0,4.8123,1.4006,9.8928,0.0388,0.3267,-0.0607
1834201.0,4.8363,1.494,9.9024,0.0793,0.3102,-0.0506
1834211.0,4.7429,1.6233,9.8569,0.1091,0.3017,-0.0415
1834221.0,4.6639,1.664,9.9192,0.0937,0.2836,-0.0282
1834231.0,4.6615,1.6281,10.0269,0.0623,0.249,-0.0144
1834241.0,4.7525,1.4629,10.1442,0.0575,0.2235,-0.0021
1834251.0,4.8291,1.4796,10.0533,0.074,0.1884,-0.0011
1834261.0,4.7764,1.5826,10.0293,0.0537,0.1607,-0.0112
1834271.0,4.707,1.7669,9.9527,0.0096,0.1107,-0.0202
1834281.0,4.6663,1.8866,9.7875,-0.0729,0.0484,-0.0234
1834291.0,4.6855,1.8651,9.7252,-0.1564,-0.0016,-0.0138
1834301.0,4.695,1.7837,9.6486,-0.1905,-0.0298,0.0053
1834311.0,4.7764,1.6879,9.4403,-0.1836,-0.0474,0.0261
1834321.0,4.8626,1.5419,9.2919,-0.158,-0.041,0.0442
1834331.0,4.8554,1.4772,9.1818,-0.1038,-0.0128,0.0564
1834341.0,4.8554,1.4078,9.1626,-0.058,0.0404,0.0607
1834351.0,4.8507,1.3503,9.2991,-0.025,0.083,0.0564
1834361.0,4.8722,1.3815,9.414,-0.0271,0.0915,0.0431
1834371.0,4.8123,1.3599,9.5936,-0.0591,0.0766,0.0287
1834381.0,4.8937,1.3072,9.675,-0.0692,0.0404,0.0176
1834391.0,4.877,1.3838,9.6079,-0.0458,0.008,0.0101
1834401.0,4.8483,1.5107,9.347,-0.0431,-0.0261,0.008
1834411.0,4.8267,1.4509,9.2392,-0.0702,-0.0436,0.0112
1834421.0,4.8291,1.3312,9.1411,-0.0607,-0.0399,0.017
1834431.0,4.8842,1.1636,9.0309,-0.0314,-0.0037,0.0181
1834441.0,4.9608,0.9768,9.2943,0.0011,0.0527,0.0048
1834451.0,4.9871,1.0918,9.335,0.0607,0.0814,-0.0266
1834461.0,4.8578,1.3934,9.4044,0.0899,0.0979,-0.0607
1834471.0,4.7621,1.7095,9.4978,0.091,0.0979,-0.0761
1834481.0,4.6759,1.901,9.6295,0.0665,0.0851,-0.0729
1834491.0,4.628,2.1021,9.6271,0.0442,0.0559,-0.0527
1834501.0,4.6495,2.1045,9.7731,0.0117,0.0351,-0.0234
1834511.0,4.5921,2.0686,9.8713,0.0011,0.0138,0.0106
1834521.0,4.6974,1.9609,9.8019,-0.0144,-0.0277,0.0388
1834531.0,4.7381,1.8962,9.7468,-0.042,-0.0692,0.0548
1834541.0,4.7309,1.8938,9.56,-0.0601,-0.1054,0.0702
1834551.0,4.7357,1.7933,9.517,-0.0984,-0.141,0.0835
1834561.0,4.9321,1.6496,9.3446,-0.1256,-0.1852,0.0921
1834571.0,5.023,1.5347,9.1075,-0.1213,-0.2006,0.099
1834581.0,5.1332,1.4461,8.8514,-0.1059,-0.1953,0.099
1834591.0,5.2002,1.4293,8.7149,-0.1075,-0.1671,0.0867
1834601.0,5.2505,1.5275,8.5449,-0.1011,-0.1341,0.0708
1834611.0,5.2218,1.5826,8.5928,-0.1293,-0.0883,0.0639
1834621.0,5.138,1.5467,8.8514,-0.1596,-0.058,0.0601
1834631.0,5.1164,1.5036,8.8442,-0.1325,-0.05,0.0654
1834641.0,5.1787,1.4006,8.7556,-0.0798,-0.041,0.0788
1834651.0,5.3103,1.2306,8.6239,-0.0303,-0.0202,0.0867
1834661.0,5.2792,1.2857,8.6048,0.0314,0.0431,0.0713
1834671.0,5.1811,1.5897,8.6215,0.0798,0.1144,0.0559
1834681.0,4.9967,1.7526,8.9256,0.025,0.1458,0.0506
1834691.0,4.9728,1.6568,9.3446,-0.0734,0.1117,0.0543
1834701.0,5.0254,1.5323,9.5768,-0.1133,0.0447,0.0644
1834711.0,5.0542,1.3264,9.5098,-0.0825,-0.0165,0.0803
1834721.0,5.1547,1.1444,9.3972,-0.0181,-0.049,0.0889
1834731.0,5.2122,1.245,9.0644,0.0639,-0.0506,0.0798
1834741.0,5.2026,1.5179,8.7364,0.0788,-0.0303,0.0612
1834751.0,5.047,1.64,8.7843,-0.0149,-0.0202,0.0479
1834761.0,5.0518,1.4916,9.0716,-0.1165,-0.0282,0.0463
1834771.0,5.126,1.3815,9.0285,-0.1171,-0.0495,0.05
1834781.0,5.2122,1.2737,9.0381,-0.0878,-0.0404,0.0479
1834791.0,5.1284,1.4245,9.1291,-0.0255,-0.0074,0.0367
1834801.0,5.0805,1.7861,8.9591,0.0149,-0.009,0.0303
1834811.0,5.0135,1.9585,8.995,-0.0394,-0.0378,0.0372
1834821.0,5.0901,1.9728,8.7843,-0.1176,-0.1,0.0617
1834831.0,5.193,1.7837,8.6072,-0.182,-0.1522,0.0894
1834841.0,5.3486,1.5897,8.157,-0.1932,-0.1841,0.1155
1834851.0,5.5091,1.3743,7.6375,-0.1974,-0.1862,0.1304
1834861.0,5.624,1.1277,7.2951,-0.2011,-0.1554,0.133
1834871.0,5.715,0.9577,6.9384,-0.1953,-0.1075,0.1245
1834881.0,5.8371,0.8188,6.6343,-0.1921,-0.0516,0.1038
1834891.0,5.8897,0.8092,6.3614,-0.1767,0.0208,0.0745
1834901.0,5.9472,0.9673,6.0047,-0.1639,0.0979,0.0463
1834911.0,5.8754,1.0558,6.0118,-0.2171,0.1788,0.0186
1834921.0,5.6695,1.0439,6.098,-0.2804,0.2155,0.0037
1834931.0,5.4899,0.9792,5.7988,-0.3512,0.1905,0.0032
1834941.0,5.375,0.565,5.4851,-0.5188,0.1442,-0.0069
1834951.0,5.466,-0.0742,5.284,-0.6832,0.1219,-0.0474
1834961.0,5.4731,-0.5124,5.1332,-0.6965,0.1905,-0.1192
1834971.0,5.5545,-0.5507,4.6926,-0.5885,0.3182,-0.2192
1834981.0,5.3079,-0.1844,4.5538,-0.5044,0.5028,-0.3475
1834991.0,5.0494,0.4477,4.4819,-0.4507,0.6816,-0.4597
1835001.0,4.695,0.9529,4.8219,-0.4401,0.8535,-0.5263
1835011.0,4.3239,1.4844,4.9608,-0.4507,0.9482,-0.5561
1835021.0,4.0773,1.9968,4.9009,-0.5741,0.9935,-0.5608
1835031.0,3.9169,2.2218,5.1906,-0.8003,1.0238,-0.5348
1835041.0,3.5937,2.3631,5.2457,-1.0504,1.0147,-0.4832
1835051.0,3.2106,2.3104,5.2409,-1.309,0.9972,-0.4124
1835061.0,3.1053,1.9537,5.3678,-1.4085,1.0568,-0.3044
1835071.0,3.1795,1.5347,5.3008,-1.2398,1.2345,-0.1772
1835081.0,3.0837,1.3288,5.1643,-0.9216,1.5,-0.0734
1835091.0,2.8299,1.4533,5.1763,-0.596,1.789,0.0112
1835101.0,2.3655,1.5514,5.2936,-0.3523,2.0401,0.0883
1835111.0,1.9944,1.3743,5.3295,-0.2187,2.2476,0.1666
1835121.0,1.5826,0.9194,5.8107,-0.1681,2.4685,0.2235
1835131.0,1.2306,0.4453,6.529,-0.1352,2.6771,0.2405
1835141.0,0.7207,0.4956,7.3287,-0.1155,2.842,0.2081
1835151.0,0.2682,0.9026,8.0972,-0.1197,2.958,0.1751
1835161.0,-0.1532,1.4605,8.9854,-0.1852,3.0346,0.1772
1835171.0,-0.7901,1.7621,10.2185,-0.2932,3.0485,0.2293
1835181.0,-1.3503,1.719,11.2073,-0.3225,2.9692,0.3363
1835191.0,-1.3862,1.2809,11.8992,-0.2416,2.8596,0.4699
1835201.0,-1.4222,0.9816,12.2056,-0.0229,2.7872,0.5853
1835211.0,-1.3288,0.8523,12.2463,0.2256,2.7505,0.6753
1835221.0,-1.64,0.8332,12.1338,0.3272,2.6898,0.7279
1835231.0,-2.1715,0.6512,11.7053,0.1969,2.5525,0.7476
1835241.0,-2.2529,-0.182,11.7364,-0.1,2.4568,0.7466
1835251.0,-2.2266,-1.1708,12.2799,-0.3299,2.469,0.6971
1835261.0,-2.2793,-1.6975,13.1466,-0.4757,2.511,0.5784
1835271.0,-2.3822,-1.6376,14.6046,-0.5678,2.4956,0.4214
1835281.0,-2.66,-0.8835,15.6437,-0.4981,2.3865,0.3012
1835291.0,-2.9449,-0.0718,16.1656,-0.3459,2.2067,0.2751
1835301.0,-3.0287,0.079,16.69,-0.2123,1.9704,0.3299
1835311.0,-3.0765,-0.1628,16.7642,-0.058,1.6996,0.4049
1835321.0,-2.9904,-0.5387,16.1633,0.0926,1.425,0.4603
1835331.0,-2.8299,-1.2617,15.5072,0.2171,1.2451,0.4725
1835341.0,-2.8778,-1.561,14.9255,0.3682,1.2015,0.4166
1835351.0,-2.9137,-1.233,14.5855,0.5257,1.2611,0.315
1835361.0,-3.0167,-0.5363,14.5113,0.6151,1.3553,0.215
1835371.0,-3.0526,0.0575,15.0978,0.5715,1.4271,0.141
1835381.0,-3.316,0.5219,16.0196,0.4284,1.4037,0.0947
1835391.0,-3.5338,0.7853,16.8145,0.2389,1.2382,0.0718
1835401.0,-3.6943,0.8523,17.4801,0.1171,1.0206,0.0841
1835411.0,-3.7948,0.644,17.9445,0.1256,0.8099,0.1341
1835421.0,-3.7397,0.4022,18.0523,0.2017,0.5752,0.1793
1835431.0,-3.6033,0.158,18.014,0.2799,0.3347,0.2022
1835441.0,-3.3998,0.0335,17.8248,0.34,0.0926,0.2081
1835451.0,-3.3112,0.0551,17.7219,0.3358,-0.1538,0.1857
1835461.0,-3.1508,0.2993,17.1497,0.2613,-0.4581,0.1506
1835471.0,-2.9808,0.3304,16.3835,0.0548,-0.8077,0.1117
1835481.0,-2.7653,0.2107,15.3732,-0.2171,-1.1467,0.0718
1835491.0,-2.5019,-0.0934,14.5208,-0.4422,-1.3846,0.0314
1835501.0,-2.332,-0.3184,13.5703,-0.5146,-1.5123,-0.0011
1835511.0,-2.0638,-0.5578,12.6653,-0.497,-1.5559,-0.0293
1835521.0,-1.8675,-0.7638,12.2631,-0.397,-1.5107,-0.0596
1835531.0,-1.7669,-0.7111,11.8058,-0.165,-1.408,-0.0825
1835541.0,-1.6424,-0.5459,11.5448,0.0809,-1.2675,-0.1
1835551.0,-1.5754,-0.328,11.5472,0.2767,-1.1297,-0.1181
1835561.0,-1.6281,0.0431,11.7005,0.398,-1.0238,-0.1383
1835571.0,-1.6783,0.3328,11.9471,0.4454,-0.9844,-0.1501
1835581.0,-1.7095,0.3519,12.3924,0.4374,-0.9913,-0.1495
1835591.0,-1.6999,0.2298,12.7228,0.4257,-1.0483,-0.1527
1835601.0,-1.6807,0.1748,12.8401,0.4204,-1.1414,-0.1692
1835611.0,-1.6999,0.3065,12.8209,0.3948,-1.2547,-0.2011
1835621.0,-1.7741,0.5674,12.7635,0.3278,-1.3729,-0.2389
1835631.0,-1.8842,0.905,12.6222,0.2448,-1.5053,-0.2687
1835641.0,-1.7669,1.1947,12.3852,0.1586,-1.6442,-0.2788
1835651.0,-1.5538,1.3527,12.0141,0.0814,-1.7741,-0.2666
1835661.0,-1.2905,1.2378,11.8202,0.0266,-1.8906,-0.2421
1835671.0,-1.1444,1.1612,11.2073,0.0239,-2.0114,-0.216
1835681.0,-0.644,1.0056,10.5273,0.0277,-2.0965,-0.1969
1835691.0,-0.3759,0.7973,9.9192,0.0745,-2.0939,-0.1825
1835701.0,-0.1269,0.7997,9.2847,0.1511,-2.046,-0.1756
1835711.0,0.1149,0.7398,9.1794,0.1916,-1.9795,-0.1846
1835721.0,0.6416,0.9218,8.7317,0.2426,-1.9481,-0.1969
1835731.0,0.7087,1.0534,8.3725,0.2464,-1.9103,-0.1995
1835741.0,0.972,0.972,7.9751,0.2097,-1.8869,-0.1926
1835751.0,1.3216,0.7422,7.8003,0.1932,-1.8273,-0.1932
1835761.0,1.8196,0.577,7.4124,0.2426,-1.7405,-0.2065
1835771.0,1.9824,0.6728,7.2592,0.2969,-1.6027,-0.2485
1835781.0,1.9848,1.1349,7.197,0.3464,-1.467,-0.2948
1835791.0,2.0949,1.5706,7.2496,0.3602,-1.3505,-0.3092
1835801.0,2.1332,1.8747,7.3909,0.3288,-1.2632,-0.3012
1835811.0,2.2865,1.8651,7.4148,0.3022,-1.209,-0.2687
1835821.0,2.4995,1.6664,7.5154,0.2889,-1.1456,-0.2352
1835831.0,2.7916,1.4988,7.5417,0.3129,-1.0834,-0.2182
1835841.0,2.9449,1.4126,7.58,0.3363,-1.0169,-0.2246
1835851.0,2.9329,1.6879,7.6255,0.3225,-0.97,-0.2533
1835861.0,2.9066,2.0782,7.7644,0.2772,-0.9397,-0.2767
1835871.0,3.0694,2.3463,7.7213,0.1974,-0.9472,-0.2714
1835881.0,3.2346,2.3727,7.853,0.0617,-0.9684,-0.2602
1835891.0,3.2992,2.3679,7.6543,-0.0388,-1.0105,-0.2421
1835901.0,3.4285,2.3391,7.446,-0.1229,-1.0291,-0.2166
1835911.0,3.8331,2.1284,7.2305,-0.1681,-1.0094,-0.1969
1835921.0,3.8164,2.1979,6.8594,-0.1293,-0.9285,-0.1868
1835931.0,3.9361,2.387,6.5338,-0.108,-0.8317,-0.1719
1835941.0,3.881,2.2889,6.6511,-0.1591,-0.7066,-0.1538
1835951.0,4.1061,2.15,6.8714,-0.2027,-0.6151,-0.1399
1835961.0,4.2689,2.0949,6.9312,-0.2166,-0.5342,-0.1378
1835971.0,4.3359,2.0566,7.1611,-0.2474,-0.4464,-0.1399
1835981.0,4.3646,1.9776,7.5346,-0.2597,-0.3773,-0.1346
1835991.0,4.3646,1.8507,7.7333,-0.2267,-0.3437,-0.1229
1836001.0,4.4125,1.7502,7.7548,-0.1517,-0.3139,-0.1112
1836011.0,4.4915,1.7669,7.6902,-0.0378,-0.2538,-0.1075
1836021.0,4.5514,1.9561,7.6758,0.0819,-0.1639,-0.1091
1836031.0,4.5538,2.3463,7.6327,0.1501,-0.0857,-0.1064
1836041.0,4.5466,2.6312,7.7524,0.1139,-0.0388,-0.0947
1836051.0,4.5131,2.7294,7.9631,0.0149,-0.0266,-0.0724
1836061.0,4.4676,2.648,8.1523,-0.0681,-0.0293,-0.0372
1836071.0,4.5298,2.3296,8.2696,-0.1277,-0.0335,-0.0037
1836081.0,4.5681,1.9848,8.3845,-0.1681,-0.0404,0.0112
1836091.0,4.6543,1.7142,8.4132,-0.1846,-0.05,0.0032
1836101.0,4.7285,1.6257,8.3366,-0.1575,-0.0431,-0.0223
1836111.0,4.7094,1.7693,8.2145,-0.0952,-0.008,-0.0479
1836121.0,4.6663,1.9441,8.0756,-0.0553,0.0436,-0.0649
1836131.0,4.6615,2.0231,8.2983,-0.0314,0.1229,-0.0718
1836141.0,4.6088,2.1763,8.4946,0.008,0.2033,-0.0724
1836151.0,4.5274,2.3822,8.7077,0.0239,0.257,-0.0665
1836161.0,4.4556,2.5163,9.0094,-0.0218,0.265,-0.0532
1836171.0,4.4341,2.4134,9.323,-0.0814,0.2432,-0.0271
1836181.0,4.4532,2.2266,9.3972,-0.0788,0.2112,0.0032
1836191.0,4.3958,2.1859,9.493,-0.0394,0.2086,0.0277
1836201.0,4.3287,2.1787,9.5792,0.0011,0.216,0.0495
1836211.0,4.3239,2.0327,9.5864,0.0005,0.1852,0.0713
1836221.0,4.4365,1.719,9.572,-0.0537,0.1229,0.0708
1836231.0,4.5274,1.4988,9.5074,-0.1011,0.0851,0.0479
1836241.0,4.4676,1.5275,9.4762,-0.0937,0.0825,0.0218
1836251.0,4.4819,1.5969,9.4475,-0.067,0.0873,-0.0021
1836261.0,4.4365,1.8723,9.323,-0.041,0.0899,-0.0234
1836271.0,4.3981,2.1763,9.0549,-0.0447,0.0937,-0.0271
1836281.0,4.3646,2.1883,9.1099,-0.0995,0.1149,-0.0117
1836291.0,4.3551,2.047,9.1746,-0.1336,0.1245,0.0144
1836301.0,4.4173,1.7645,9.1171,-0.1421,0.1357,0.0378
1836311.0,4.4604,1.4653,9.4164,-0.1086,0.1862,0.041
1836321.0,4.3718,1.4892,9.4571,-0.0048,0.2379,0.0314
1836331.0,4.2545,1.6185,9.6151,0.058,0.2794,0.016
1836341.0,4.1803,1.7454,9.7995,0.0665,0.2937,0.0021
1836351.0,4.1084,1.7621,10.1682,0.0569,0.29,-0.0005
1836361.0,3.9983,1.8172,10.3525,0.0521,0.2453,-0.0005
1836371.0,4.1252,1.8818,10.319,0.0298,0.157,0.0005
1836381.0,4.1755,1.8579,10.2879,-0.0138,0.0793,0.0043
1836391.0,4.1324,2.0279,10.0126,-0.0351,0.0106,0.0053
1836401.0,4.0893,2.1931,9.6295,-0.0782,-0.0367,0.0133
1836411.0,4.0869,2.1069,9.4403,-0.1517,-0.049,0.0325
1836421.0,4.2114,1.7549,9.4762,-0.2043,-0.0335,0.0543
1836431.0,4.3072,1.3886,9.6534,-0.1916,-0.0016,0.0575
1836441.0,4.3742,1.221,9.6582,-0.1086,0.0282,0.0452
1836451.0,4.4293,1.2091,9.6271,-0.0085,0.0537,0.0192
1836461.0,4.3072,1.5203,9.4882,0.0623,0.0777,-0.016
1836471.0,4.1827,1.9082,9.3996,0.0772,0.0979,-0.0404
1836481.0,4.1228,2.1069,9.5409,0.0309,0.1101,-0.0394
1836491.0,4.0869,2.0925,9.8378,-0.033,0.0958,-0.0282
1836501.0,4.0893,2.0063,9.9671,-0.0702,0.058,-0.0117
1836511.0,4.2138,1.7741,10.0149,-0.0639,0.0186,0.0069
1836521.0,4.2928,1.7526,9.7707,-0.0378,-0.0223,0.0096
1836531.0,4.3383,1.8507,9.6055,-0.0388,-0.0436,-0.0053
1836541.0,4.2641,2.1428,9.3685,-0.0506,-0.0447,-0.0165
1836551.0,4.221,2.3104,9.2967,-0.1192,-0.05,-0.0122
1836561.0,4.1587,2.15,9.4643,-0.2097,-0.0644,0.0021
1836571.0,4.2689,1.9489,9.3182,-0.2192,-0.0862,0.0223
1836581.0,4.3311,1.7382,9.3637,-0.1825,-0.067,0.0319
1836591.0,4.3814,1.6328,9.2943,-0.0979,-0.0351,0.033
1836601.0,4.4412,1.6328,9.2751,-0.0112,0.0085,0.0266
1836611.0,4.5011,1.8364,9.1339,0.049,0.0404,0.0117
1836621.0,4.3766,2.0782,9.1794,0.0415,0.066,0.0005
1836631.0,4.2928,2.1356,9.2033,-0.0186,0.0612,0.0021
1836641.0,4.3479,1.9968,9.4978,-0.0809,0.0553,0.0085
1836651.0,4.3191,1.9704,9.6917,-0.0713,0.0623,0.0096
1836661.0,4.3144,2.0351,9.7731,-0.0388,0.0681,0.0133
1836671.0,4.2258,2.1356,9.8641,-0.0431,0.0484,0.0149
1836681.0,4.2114,2.2793,9.9144,-0.0607,0.0112,0.0255
1836691.0,4.1994,2.1811,10.0221,-0.0926,-0.0229,0.0463
1836701.0,4.2449,1.9752,10.0485,-0.091,-0.0654,0.0676
1836711.0,4.3287,1.8771,9.7564,-0.0426,-0.1075,0.0788
1836721.0,4.4604,1.834,9.4523,-0.0213,-0.1309,0.0761
1836731.0,4.4341,1.9345,9.2775,-0.0117,-0.1197,0.0633
1836741.0,4.4508,2.1644,8.9998,0.0016,-0.091,0.0596
1836751.0,4.3886,2.1811,8.9783,-0.041,-0.0601,0.0676
1836761.0,4.4365,1.9513,9.1339,-0.0947,-0.0468,0.0777
1836771.0,4.4796,1.8172,9.2991,-0.0942,-0.0234,0.0782
1836781.0,4.4245,1.8914,9.4212,-0.0553,0.0005,0.0708
1836791.0,4.3646,2.0806,9.505,-0.0229,0.0101,0.0665
1836801.0,4.3359,2.3152,9.5241,-0.009,-0.0106,0.0766
1836811.0,4.3335,2.4277,9.3709,-0.0452,-0.0553,0.0974
1836821.0,4.3718,2.411,9.1363,-0.1235,-0.1101,0.125
1836831.0,4.525,2.1476,8.8897,-0.2091,-0.1543,0.1543
1836841.0,4.707,1.8076,8.7388,-0.2565,-0.1602,0.1708
1836851.0,4.7525,1.731,8.5665,-0.2559,-0.133,0.1676
1836861.0,4.7262,1.7837,8.272,-0.2911,-0.125,0.1532
1836871.0,4.7884,1.7669,8.2552,-0.3735,-0.1203,0.1373
1836881.0,4.8219,1.7669,8.1068,-0.3975,-0.1038,0.1389
1836891.0,4.7549,1.7526,7.9464,-0.4023,-0.0798,0.1479
1836901.0,4.8171,1.5658,7.8961,-0.4236,-0.0644,0.1602
1836911.0,4.9392,1.4748,7.6614,-0.3991,-0.0569,0.1735
1836921.0,4.9632,1.3527,7.4627,-0.3416,-0.0128,0.191
1836931.0,5.0374,1.233,7.2712,-0.2437,0.0388,0.2118
1836941.0,5.1619,1.2019,6.778,-0.1304,0.0766,0.2261
1836951.0,5.2864,1.3001,6.4093,-0.0612,0.1378,0.232
1836961.0,5.296,1.2737,6.1914,-0.0506,0.2166,0.2368
1836971.0,5.0996,1.1971,6.0047,-0.0835,0.2655,0.2389
1836981.0,5.0805,0.9409,5.8945,-0.1772,0.2762,0.232
1836991.0,4.9919,0.4334,5.9113,-0.2788,0.2975,0.2081
1837001.0,5.1212,0.0168,6.0214,-0.3209,0.3177,0.1559
1837011.0,5.1523,-0.0215,5.7126,-0.2863,0.339,0.0692
1837021.0,4.9177,0.4669,5.3822,-0.2522,0.397,-0.0346
1837031.0,4.7549,1.1756,5.43,-0.2442,0.489,-0.116
1837041.0,4.3766,2.0279,5.3822,-0.224,0.5667,-0.1426
1837051.0,4.0366,2.8395,5.1547,-0.2714,0.563,-0.1139
1837061.0,3.8714,3.2489,4.6639,-0.4225,0.5193,-0.0341
1837071.0,3.7062,3.1915,4.0462,-0.6226,0.4981,0.0873
1837081.0,3.4237,2.7629,3.4093,-0.8546,0.5337,0.2155
1837091.0,3.3303,1.9441,3.1029,-1.0435,0.621,0.3304
1837101.0,3.4979,0.905,2.8036,-1.0201,0.821,0.4252
1837111.0,3.4429,0.1365,2.2242,-0.8072,1.1371,0.4624
1837121.0,3.3088,0.0335,1.7693,-0.6125,1.5165,0.4129
1837131.0,2.7533,0.4477,1.9752,-0.538,1.9481,0.3225
1837141.0,1.9345,0.8954,2.8802,-0.4986,2.3823,0.2762
1837151.0,1.2737,0.8978,4.4197,-0.3821,2.7872,0.299
1837161.0,0.4956,1.0223,5.8251,-0.1389,3.09,0.3549
1837171.0,-0.2322,1.2378,7.1419,0.0979,3.2799,0.4225
1837181.0,-0.9026,1.2067,8.5928,0.3485,3.3842,0.5076
1837191.0,-1.3958,1.1827,9.2656,0.7168,3.4194,0.6141
1837201.0,-1.7071,0.9936,9.4858,0.9929,3.4204,0.6843
1837211.0,-2.1452,0.6608,9.3541,1.0254,3.3656,0.6907
1837221.0,-2.1524,-0.0958,9.4762,0.7913,3.3044,0.6252
1837231.0,-2.2051,-0.7614,9.9838,0.3879,3.2496,0.4635
1837241.0,-2.7629,-0.8332,10.3741,-0.0899,3.1538,0.241
1837251.0,-3.2825,-0.6991,11.0612,-0.589,3.0463,0.0271
1837261.0,-3.7134,-0.5148,12.2846,-0.9583,2.9841,-0.125
1837271.0,-4.4125,-0.0527,13.6829,-1.085,2.9405,-0.2022
1837281.0,-5.0853,0.577,14.5663,-0.9605,2.8388,-0.191
1837291.0,-5.114,0.8428,15.1553,-0.6981,2.734,-0.0974
1837301.0,-5.0781,0.838,15.7467,-0.3815,2.6584,0.0218
1837311.0,-4.9488,0.8356,15.8137,-0.1133,2.5254,0.116
1837321.0,-4.6232,0.6991,15.7036,-0.0117,2.345,0.1697
1837331.0,-4.3215,0.5411,15.6772,-0.0894,2.1471,0.1708
1837341.0,-4.4676,0.3903,15.627,-0.2804,1.9433,0.1431
1837351.0,-4.4245,-0.0383,15.9454,-0.5454,1.732,0.1117
1837361.0,-4.3335,-0.5411,16.3931,-0.745,1.5075,0.0697
1837371.0,-4.1635,-0.6871,16.4769,-0.7668,1.2898,0.0293
1837381.0,-4.0318,-0.4812,16.0435,-0.6715,1.102,0.0096
1837391.0,-3.8571,-0.4812,15.7347,-0.5917,0.9445,0.0138
1837401.0,-3.7661,-0.589,15.4522,-0.4454,0.8344,0.0303
1837411.0,-3.5769,-0.7973,14.9183,-0.2107,0.7913,0.0569
1837421.0,-3.541,-0.9912,14.4706,-0.0319,0.7822,0.0527
1837431.0,-3.5602,-0.9984,14.3437,0.0686,0.7827,0.009
1837441.0,-3.541,-0.7709,14.3461,0.1639,0.7992,-0.0431
1837451.0,-3.7876,-0.2059,14.4418,0.1942,0.8157,-0.0931
1837461.0,-3.9337,0.1173,15.1026,0.1373,0.7902,-0.1192
1837471.0,-3.9696,0.3184,15.6174,0.0777,0.6933,-0.1197
1837481.0,-4.0558,0.5028,16.192,0.0122,0.563,-0.1091
1837491.0,-4.1444,0.6943,16.666,-0.042,0.3608,-0.0846
1837501.0,-4.0366,0.7183,16.7115,-0.0878,0.0937,-0.0357
1837511.0,-3.8906,0.4477,16.3716,-0.125,-0.1905,0.0208
1837521.0,-3.7158,0.1269,15.8209,-0.2059,-0.4592,0.0527
1837531.0,-3.4429,-0.2969,15.2152,-0.2996,-0.7019,0.0548
1837541.0,-3.1747,-0.51,14.3413,-0.3235,-0.878,0.0357
1837551.0,-3.0742,-0.5914,13.5512,-0.3241,-0.9599,0.0043
1837561.0,-3.0646,-0.5674,13.1011,-0.3113,-0.9759,-0.0309
1837571.0,-3.0478,-0.5459,12.7898,-0.2224,-0.9365,-0.0474
1837581.0,-2.9521,-0.5531,12.7779,-0.0548,-0.8439,-0.0474
1837591.0,-2.9832,-0.4118,12.9024,0.1681,-0.7231,-0.0452
1837601.0,-3.0191,-0.079,12.9143,0.3624,-0.6465,-0.0383
1837611.0,-3.1292,0.1556,13.5081,0.4597,-0.6077,-0.0303
1837621.0,-3.201,0.34,14.0037,0.5566,-0.6444,-0.0059
1837631.0,-3.3112,0.5076,14.5831,0.655,-0.7402,0.0298
1837641.0,-3.4692,0.5124,14.8752,0.8168,-0.9019,0.0894
1837651.0,-3.5195,0.3519,14.619,1.0594,-1.0962,0.1666
1837661.0,-3.3854,0.2729,13.8193,1.3335,-1.26,0.2256
1837671.0,-3.1508,0.431,12.8521,1.5362,-1.3425,0.2543
1837681.0,-3.0382,0.6584,12.074,1.5841,-1.3883,0.2554
1837691.0,-2.909,0.7853,11.5879,1.4889,-1.4324,0.2341
1837701.0,-2.7246,0.9122,11.2288,1.3345,-1.466,0.191
1837711.0,-2.6719,1.1779,10.8386,1.1377,-1.4771,0.1368
1837721.0,-2.4349,1.3408,10.8984,0.8743,-1.4883,0.083
1837731.0,-2.3248,1.5203,11.0061,0.5976,-1.5373,0.0261
1837741.0,-2.3487,1.6735,11.0205,0.3225,-1.6315,-0.0271
1837751.0,-2.3176,1.7669,11.4203,0.0862,-1.7193,-0.0639
1837761.0,-2.3248,1.7837,11.6167,0.0298,-1.8012,-0.0628
1837771.0,-2.2194,1.7597,11.3868,0.0899,-1.9071,-0.0383
1837781.0,-1.9489,1.731,10.9894,0.1921,-2.0007,-0.0074
1837791.0,-1.4748,1.8196,10.2376,0.3171,-2.0593,0.0303
1837801.0,-1.3527,1.9465,9.5385,0.3411,-2.0896,0.0569
1837811.0,-1.0558,1.9513,8.8609,0.2708,-2.1364,0.0878
1837821.0,-0.6249,1.6831,8.2121,0.1634,-2.1487,0.1155
1837831.0,-0.1532,1.3671,7.5968,0.075,-2.1013,0.1213
1837841.0,0.0311,1.166,7.1156,-0.0378,-1.9976,0.0915
1837851.0,0.3352,1.1181,7.1156,-0.1761,-1.8784,0.0277
1837861.0,0.6345,1.1684,7.3909,-0.3012,-1.7544,-0.0383
1837871.0,0.735,1.221,7.9104,-0.39,-1.6591,-0.0926
1837881.0,0.7925,1.3048,8.1666,-0.4108,-1.6469,-0.1346
1837891.0,1.1109,1.4772,7.9895,-0.3688,-1.6629,-0.1596
1837901.0,1.3671,1.6616,7.7692,-0.2996,-1.6213,-0.1687
1837911.0,1.6305,1.8507,7.7213,-0.2341,-1.5463,-0.1623
1837921.0,1.6281,2.0518,7.6136,-0.1793,-1.4878,-0.1511
1837931.0,1.9896,2.3248,7.3502,-0.1751,-1.4617,-0.1314
1837941.0,2.1213,2.3655,7.2449,-0.2357,-1.4175,-0.1043
1837951.0,2.3343,2.2003,7.1036,-0.3081,-1.3936,-0.0702
1837961.0,2.6552,1.8771,7.0485,-0.3448,-1.3452,-0.0447
1837971.0,2.9616,1.6712,6.9336,-0.3198,-1.2638,-0.0383
1837981.0,3.2394,1.6065,6.8091,-0.299,-1.1669,-0.0511
1837991.0,3.3639,1.7861,6.7828,-0.3379,-1.0876,-0.0851
1838001.0,3.4117,2.0207,7.0078,-0.4023,-1.0248,-0.1059
1838011.0,3.5123,2.0614,7.185,-0.4182,-0.9775,-0.0921
1838021.0,3.5434,1.9465,7.2329,-0.357,-0.9371,-0.0612
1838031.0,3.8595,1.8124,6.8618,-0.274,-0.8977,-0.0277
1838041.0,4.039,1.5874,6.8522,-0.2309,-0.8173,-0.0133
1838051.0,4.1468,1.4892,6.8331,-0.1703,-0.7285,-0.0101
1838061.0,4.3048,1.4102,6.9815,-0.0846,-0.6231,-0.0117
1838071.0,4.3096,1.5921,7.0677,0.0399,-0.5146,-0.0176
1838081.0,4.3431,1.8483,6.9456,0.1128,-0.4427,-0.0122
1838091.0,4.4676,1.7454,7.0988,0.0463,-0.3959,-0.0101
1838101.0,4.5226,1.5945,7.3263,-0.0154,-0.3533,-0.0176
1838111.0,4.5394,1.5874,7.3119,-0.049,-0.3177,-0.0319
1838121.0,4.4987,1.4054,7.5968,-0.1133,-0.2841,-0.0495
1838131.0,4.6088,1.3096,7.7596,-0.1394,-0.2767,-0.0766
1838141.0,4.549,1.3575,7.8769,-0.0958,-0.24,-0.1043
1838151.0,4.5705,1.5443,7.8721,0.008,-0.1836,-0.1187
1838161.0,4.5466,1.8292,7.7979,0.1203,-0.1128,-0.124
1838171.0,4.4412,2.1237,7.7333,0.1612,-0.0479,-0.1176
1838181.0,4.4484,2.1021,7.999,0.1091,-0.0021,-0.1032
1838191.0,4.4484,2.0135,8.2289,0.0548,0.0144,-0.0937
1838201.0,4.4532,2.0877,8.2145,0.0154,0.0112,-0.0915
1838211.0,4.4796,2.162,8.1594,-0.0623,0.017,-0.0921
1838221.0,4.4245,2.1476,8.1403,-0.1612,0.0383,-0.0878
1838231.0,4.391,2.0279,8.3151,-0.2708,0.0745,-0.0825
1838241.0,4.3311,1.8435,8.6694,-0.3592,0.1038,-0.074
1838251.0,4.3287,1.6281,9.0022,-0.4017,0.1064,-0.066
1838261.0,4.4604,1.4006,9.3182,-0.4071,0.0958,-0.0649
1838271.0,4.3934,1.4174,9.5433,-0.3299,0.099,-0.0612
1838281.0,4.379,1.5371,9.56,-0.1703,0.1139,-0.0415
1838291.0,4.4197,1.6352,9.6606,0.0234,0.1517,-0.0085
1838301.0,4.312,1.9465,9.2296,0.1825,0.1591,0.0309
1838311.0,4.3239,1.901,9.1075,0.1517,0.1453,0.0702
1838321.0,4.4245,1.4988,9.2344,0.0452,0.1219,0.0905
1838331.0,4.5155,1.2857,9.1985,0.0149,0.1266,0.0873
1838341.0,4.4604,1.2785,9.2273,0.0154,0.1623,0.0686
1838351.0,4.4269,1.3791,9.2225,-0.0069,0.1836,0.0474
1838361.0,4.3574,1.3767,9.4715,-0.042,0.2043,0.0277
1838371.0,4.2377,1.4174,9.6319,-0.0436,0.2208,0.0218
1838381.0,4.2473,1.3575,9.8689,-0.0378,0.223,0.0208
1838391.0,4.2234,1.312,10.1251,-0.0101,0.2033,0.0202
1838401.0,4.2282,1.403,9.9814,0.0575,0.1708,0.0208
1838411.0,4.197,1.482,9.8665,0.1101,0.166,0.0245
1838421.0,4.2114,1.6017,9.8521,0.1341,0.1713,0.0261
1838441.0,4.0989,1.7717,9.5864,-0.0032,0.0942,0.025
1838451.0,4.1276,1.585,9.6271,-0.1293,0.0601,0.0223
1838461.0,4.1659,1.3312,9.6774,-0.1724,0.0596,0.0192
1838471.0,4.2114,1.1444,9.8569,-0.1437,0.0857,0.0043
1838481.0,4.1204,1.3647,9.7803,-0.066,0.1054,-0.0255
1838491.0,4.0582,1.7095,9.9144,-0.0271,0.1266,-0.0426
1838501.0,3.9361,1.9992,10.0916,-0.0357,0.116,-0.0383
1838511.0,3.9672,2.1141,10.1035,-0.0809,0.0527,-0.0138
1838521.0,4.051,1.9154,10.0987,-0.1261,-0.0112,0.017
1838531.0,4.1899,1.6927,9.8114,-0.1101,-0.0463,0.0479
1838541.0,4.2713,1.4461,9.6151,-0.0846,-0.0335,0.0575
1838551.0,4.3144,1.4437,9.5672,-0.0532,-0.0027,0.0463
1838561.0,4.2425,1.6209,9.3925,-0.0383,0.016,0.0271
1838571.0,4.1539,1.6688,9.5744,-0.0788,0.0431,0.0138
1838581.0,4.1827,1.6352,9.8809,-0.1149,0.0527,0.0106
1838591.0,4.1539,1.6352,10.0437,-0.1091,0.0372,0.0112
1838601.0,4.1587,1.6879,9.9503,-0.0761,0.0011,0.0202
1838611.0,4.2114,1.6281,9.9288,-0.0383,-0.0229,0.0341
1838621.0,4.2784,1.6472,9.6223,0.0176,-0.0325,0.0468
1838631.0,4.2617,1.64,9.4236,0.0277,-0.0202,0.0511
1838641.0,4.2377,1.5802,9.4858,-0.0096,0.0064,0.0506
1838651.0,4.2713,1.4772,9.6175,-0.0596,0.017,0.041
1838661.0,4.2545,1.3096,9.9311,-0.0926,0.0165,0.0223
1838671.0,4.288,1.2977,9.9958,-0.0553,-0.0032,0.0069
1838681.0,4.2832,1.4054,9.9288,0.0069,-0.0181,-0.0043
1838691.0,4.2641,1.6568,9.809,0.0431,-0.0357,-0.0165
1838701.0,4.2114,1.9178,9.6199,0.0319,-0.0559,-0.0186
1838711.0,4.1492,1.992,9.6678,-0.0468,-0.0814,-0.0112
1838721.0,4.2018,1.8723,9.8306,-0.1256,-0.1192,0.0048
1838731.0,4.2018,1.7214,9.8378,-0.124,-0.1586,0.0261
1838741.0,4.3096,1.5897,9.5984,-0.0639,-0.182,0.0442
1838751.0,4.4652,1.4198,9.2967,0.0101,-0.1735,0.0548
1838761.0,4.47,1.4245,9.0333,0.0665,-0.1426,0.0458
1838771.0,4.4101,1.6951,8.8418,0.0724,-0.1006,0.0223
1838781.0,4.4436,1.8004,8.8011,0.0362,-0.0516,0.0117
1838791.0,4.4005,1.8507,8.9639,-0.0229,-0.0074,0.0074
1838801.0,4.3574,1.8244,9.2799,-0.0921,0.0064,0.0021
1838811.0,4.3934,1.7717,9.4834,-0.1133,-0.0101,0.0085
1838821.0,4.4532,1.7502,9.4332,-0.0926,-0.0298,0.0229
1838831.0,4.4796,1.6951,9.4308,-0.0596,-0.042,0.0394
1838841.0,4.4388,1.7358,9.2177,-0.0197,-0.0575,0.0537
1838851.0,4.5011,1.7334,8.9615,-0.0234,-0.075,0.066
1838861.0,4.5921,1.6879,8.8083,-0.0995,-0.0894,0.0639
1838871.0,4.5753,1.6281,8.6311,-0.2187,-0.1059,0.0521
1838881.0,4.628,1.4078,8.5928,-0.3586,-0.1357,0.0415
1838891.0,4.7764,1.1109,8.655,-0.4363,-0.1628,0.0287
1838901.0,4.8435,1.0032,8.3438,-0.4049,-0.1735,0.0165
1838911.0,4.9081,0.9242,7.9344,-0.3294,-0.1564,0.0085
1838921.0,5.047,0.8284,7.6638,-0.2219,-0.1059,0.0005
1838931.0,5.1188,0.893,7.2544,-0.0686,-0.017,-0.008
1838941.0,5.1595,1.0774,6.9049,0.0601,0.0921,-0.0186
1838951.0,5.126,1.2809,6.7636,0.1208,0.2038,-0.0319
1838961.0,5.0254,1.5036,6.608,0.1394,0.2975,-0.0388
1838971.0,5.0159,1.6137,6.5074,0.1123,0.3666,-0.0346
1838981.0,5.0518,1.5443,6.5457,0.0192,0.4103,-0.0319
1838991.0,4.9464,1.5347,6.3877,-0.1213,0.4081,-0.0362
1839001.0,4.7309,1.3647,6.3015,-0.3241,0.3837,-0.0426
1839011.0,4.6807,0.8595,6.2273,-0.5252,0.3453,-0.0575
1839021.0,4.7022,0.51,6.0741,-0.597,0.3517,-0.0899
1839031.0,4.6184,0.5626,5.5929,-0.5555,0.4278,-0.1368
1839041.0,4.4867,0.7685,5.3486,-0.5119,0.5523,-0.1841
1839051.0,4.3934,1.0942,5.3127,-0.464,0.6886,-0.2144
1839061.0,4.1779,1.4796,5.2577,-0.4135,0.8205,-0.2251
1839071.0,3.8283,1.9752,5.0326,-0.4145,0.92,-0.207
1839081.0,3.5961,2.1644,4.889,-0.4922,0.9913,-0.1564
1839091.0,3.3279,2.0734,4.8387,-0.5827,1.0908,-0.0819
1839101.0,3.1244,1.8675,4.8219,-0.6391,1.209,-0.0037
1839111.0,2.897,1.6352,4.8961,-0.6992,1.3329,0.0617
1839121.0,2.6863,1.3336,5.0278,-0.8051,1.4223,0.107
1839131.0,2.5235,0.9361,5.1571,-0.9402,1.4936,0.1282
1839141.0,2.3248,0.7853,5.2505,-1.028,1.5724,0.1224
1839151.0,1.9776,0.9816,5.0901,-1.0962,1.6623,0.1144
1839161.0,1.585,1.1301,5.1451,-1.2372,1.7533,0.1144
1839171.0,1.1564,1.0247,5.8562,-1.334,1.864,0.1447
1839181.0,0.7015,1.0702,6.1268,-1.2255,1.9443,0.2134
1839191.0,0.3232,0.8404,5.94,-1.069,2.021,0.3097
1839201.0,0.0072,-0.0072,6.2082,-0.9546,2.1391,0.3954
1839211.0,-0.146,-0.7949,6.2632,-0.7636,2.2679,0.4289
1839221.0,-0.4214,-1.0774,6.1292,-0.5289,2.453,0.3916
1839231.0,-0.984,-0.8643,6.5218,-0.2959,2.726,0.3129
1839241.0,-1.585,-0.3711,7.3598,0.0021,3.0362,0.2549
1839251.0,-2.3559,0.3328,8.1618,0.3342,3.2916,0.2368
1839261.0,-2.8515,0.9146,8.576,0.505,3.4321,0.2437
1839271.0,-3.3782,1.1349,9.3182,0.4135,3.5056,0.2384
1839281.0,-3.7541,1.1181,10.3597,0.2437,3.5385,0.2352
1839291.0,-4.2904,1.0175,11.1402,0.0761,3.529,0.232
1839301.0,-5.0063,1.0343,11.6143,-0.1963,3.4199,0.1985
1839311.0,-5.5115,0.905,12.6366,-0.505,3.3401,0.1586
1839321.0,-5.9783,0.7326,13.9079,-0.5816,3.3528,0.1687
1839331.0,-6.1076,0.3783,15.7802,-0.4917,3.3731,0.2139
1839341.0,-6.1699,0.1891,17.4657,-0.3634,3.1953,0.2347
1839351.0,-5.9065,0.3735,18.2103,-0.2469,2.8021,0.2448
1839361.0,-5.94,0.3855,18.4952,-0.1719,2.3934,0.2724
1839371.0,-5.9616,0.4334,17.8057,-0.0958,1.9901,0.3134
1839381.0,-5.928,0.1556,17.1329,-0.1197,1.6517,0.3358
1839391.0,-5.5306,-0.3903,16.3811,-0.1575,1.4277,0.3411
1839401.0,-5.2816,-0.9768,16.1776,-0.1229,1.3697,0.3209
1839411.0,-5.1092,-1.0606,16.2183,0.0,1.3856,0.2682
1839421.0,-4.9775,-0.917,16.8073,0.1426,1.4181,0.2123
1839431.0,-5.0326,-0.589,17.3747,0.2847,1.3744,0.174
1839441.0,-5.1044,-0.1221,17.7362,0.3501,1.2255,0.1554
1839451.0,-5.0374,0.0503,18.093,0.332,1.0243,0.1644
1839461.0,-4.8219,0.0144,18.3707,0.3139,0.7998,0.1969
1839471.0,-4.865,-0.1101,18.5383,0.2852,0.5539,0.2256
1839481.0,-4.6878,-0.3783,18.682,0.2464,0.2671,0.2517
1839491.0,-4.5011,-0.7087,18.4258,0.2283,-0.0458,0.2645
1839501.0,-4.3024,-0.8021,17.7674,0.2075,-0.3517,0.2458
1839511.0,-4.1228,-0.7614,16.8935,0.125,-0.638,0.2075
1839521.0,-4.0438,-0.7901,16.1513,-0.0282,-0.8854,0.1607
1839531.0,-3.8044,-0.917,15.263,-0.1517,-1.086,0.1197
1839541.0,-3.6655,-0.9936,14.3987,-0.2128,-1.2036,0.0766
1839551.0,-3.5698,-1.0175,13.6924,-0.2347,-1.2382,0.0303
1839561.0,-3.6081,-0.9625,13.4219,-0.19,-1.2084,-0.0133
1839571.0,-3.5793,-0.7278,13.2256,-0.0692,-1.168,-0.042
1839581.0,-3.5554,-0.3376,13.0532,0.0548,-1.1329,-0.0628
1839591.0,-3.6344,0.0718,13.0699,0.1256,-1.1121,-0.067
1839601.0,-3.6823,0.2993,13.2878,0.1511,-1.1334,-0.049
1839611.0,-3.6655,0.3855,13.4554,0.1735,-1.2079,-0.0202
1839621.0,-3.6775,0.4597,13.3381,0.2001,-1.3149,0.0128
1839631.0,-3.6823,0.2083,13.4051,0.2246,-1.4064,0.049
1839641.0,-3.6464,-0.1197,13.1777,0.3171,-1.5053,0.074
1839651.0,-3.45,-0.2442,12.2775,0.4033,-1.607,0.0607
1839661.0,-3.0885,-0.1844,11.3126,0.3097,-1.6708,-0.0074
1839671.0,-2.9425,-0.0934,11.1713,0.0229,-1.6639,-0.1261
1839681.0,-2.988,0.2753,11.5065,-0.307,-1.6735,-0.2623
1839691.0,-3.2106,0.9218,12.0428,-0.5837,-1.7272,-0.3661
1839701.0,-3.3806,1.3862,12.6797,-0.7364,-1.8198,-0.3927
1839711.0,-3.4405,1.4557,13.2878,-0.6939,-1.931,-0.3342
1839721.0,-3.5051,1.3982,13.4003,-0.4454,-2.0736,-0.2198
1839731.0,-3.1268,1.1588,12.7707,-0.1229,-2.2508,-0.0873
1839741.0,-2.6911,0.8763,11.6119,0.1474,-2.403,0.0245
1839751.0,-2.1332,0.7159,10.0197,0.2528,-2.5196,0.0905
1839761.0,-1.7047,0.3615,8.9471,0.1373,-2.5595,0.0926
1839771.0,-1.1684,-0.0048,8.272,-0.058,-2.5414,0.0463
1839781.0,-0.8571,-0.1437,7.7189,-0.2304,-2.4722,-0.0399
1839791.0,-0.5387,0.0287,7.2018,-0.4438,-2.3929,-0.1495
1839801.0,-0.2083,0.1772,7.3789,-0.7327,-2.3014,-0.2645
1839811.0,0.0503,0.2969,7.9703,-0.895,-2.1982,-0.3469
1839821.0,0.0814,0.5938,8.2217,-0.8322,-2.1183,-0.3698
1839831.0,0.3256,0.905,8.0038,-0.7109,-2.0912,-0.3432
1839841.0,0.6153,0.8739,7.9607,-0.6199,-2.0603,-0.2895
1839851.0,0.9457,0.7374,7.7955,-0.4715,-2.0215,-0.2203
1839861.0,1.1732,0.6943,7.264,-0.2921,-1.9741,-0.1543
1839871.0,1.549,0.5794,6.8067,-0.1926,-1.906,-0.1016
1839881.0,1.9106,0.3663,6.5386,-0.1474,-1.8087,-0.0596
1839891.0,2.3894,0.0192,6.3925,-0.1133,-1.6927,-0.0298
1839901.0,2.8036,-0.3232,6.3662,-0.0926,-1.5687,-0.0335
1839911.0,3.1388,-0.4741,6.3973,-0.0851,-1.4553,-0.0713
1839921.0,3.2465,-0.3136,6.4787,-0.0952,-1.3548,-0.1266
1839931.0,3.292,-0.0958,6.5098,-0.1,-1.2819,-0.1724
1839941.0,3.4141,0.0599,6.3207,-0.0628,-1.2026,-0.1937
1839951.0,3.5913,0.1269,6.3255,-0.017,-1.0882,-0.1995
1839961.0,3.699,0.0814,6.438,0.0346,-0.9642,-0.2027
1839971.0,3.7996,0.2346,6.4045,0.0974,-0.8551,-0.2107
1839981.0,3.9049,0.3591,6.6272,0.1325,-0.7258,-0.2144
1839991.0,3.9672,0.3496,7.2233,0.2208,-0.596,-0.2017
1840001.0,3.9576,0.5794,7.3023,0.3927,-0.5156,-0.1783
1840011.0,4.1013,0.8332,7.0605,0.4757,-0.4762,-0.1522
1840021.0,4.2784,0.7494,7.1778,0.4182,-0.4262,-0.1341
1840031.0,4.3694,0.6393,7.288,0.3358,-0.3911,-0.1256
1840041.0,4.3766,0.6177,7.4843,0.2395,-0.3634,-0.1368
1840051.0,4.4029,0.5842,7.6854,0.1708,-0.3469,-0.1485
1840061.0,4.4963,0.4788,7.7428,0.1596,-0.3272,-0.1511
1840071.0,4.5825,0.4549,7.762,0.1788,-0.2852,-0.1596
1840081.0,4.5011,0.6656,7.8506,0.2144,-0.2272,-0.1772
1840091.0,4.5226,0.9697,7.7931,0.2432,-0.183,-0.1793
1840101.0,4.5274,1.1756,7.8434,0.24,-0.1325,-0.1676
1840111.0,4.5035,1.2857,7.9799,0.232,-0.0798,-0.1405
1840121.0,4.6088,1.0654,8.2361,0.2309,-0.0277,-0.0968
1840131.0,4.6974,0.8308,8.5114,0.2586,0.0011,-0.0692
1840141.0,4.7764,0.905,8.3414,0.2746,-0.0085,-0.0702
1840151.0,4.6567,1.1875,8.2193,0.1932,-0.016,-0.0883
1840161.0,4.6136,1.4413,8.169,0.0718,-0.0133,-0.0926
1840171.0,4.5633,1.549,8.4156,-0.0181,0.0266,-0.0686
1840181.0,4.4939,1.415,8.7221,-0.0452,0.0644,-0.0223
1840191.0,4.5298,1.0846,8.8011,-0.0186,0.0756,0.0314
1840201.0,4.6759,0.6201,8.983,0.0213,0.0942,0.0633
1840211.0,4.6543,0.4621,8.9902,0.1144,0.125,0.0596
1840221.0,4.6471,0.759,8.7053,0.1969,0.1463,0.041
1840231.0,4.5729,1.063,8.7173,0.1697,0.1783,0.0266
1840241.0,4.4748,1.2689,8.6431,0.0777,0.1783,0.025
1840251.0,4.3838,1.2594,8.7771,-0.0436,0.1719,0.0351
1840261.0,4.4005,1.1708,8.8825,-0.1091,0.1825,0.0601
1840271.0,4.4245,0.9673,8.9256,-0.1096,0.2144,0.0926
1840281.0,4.458,0.6249,9.1051,-0.1155,0.249,0.1139
1840291.0,4.391,0.3711,9.3518,-0.1213,0.2639,0.1123
1840301.0,4.4053,0.1652,9.5672,-0.1075,0.2591,0.0958
1840311.0,4.4365,-0.0168,9.5505,-0.0729,0.249,0.0718
1840321.0,4.4269,-0.079,9.505,-0.05,0.2533,0.0325
1840331.0,4.4173,-0.1125,9.7755,-0.0495,0.274,-0.0186
1840341.0,4.3622,0.0048,9.9335,0.0064,0.2735,-0.0596
1840351.0,4.4005,0.1604,9.7564,0.0782,0.2692,-0.0867
1840361.0,4.3455,0.3136,9.9335,0.1224,0.3001,-0.116
1840371.0,4.2234,0.7159,9.9455,0.1953,0.3219,-0.1362
1840381.0,4.0821,1.2019,9.9359,0.2256,0.3416,-0.1399
1840391.0,3.8858,1.4365,10.1323,0.1564,0.3406,-0.1181
1840401.0,3.8786,1.233,10.5872,0.049,0.2937,-0.083
1840411.0,3.9097,0.9433,10.7356,0.0197,0.215,-0.0516
1840421.0,4.0055,0.7805,10.5153,0.0532,0.1415,-0.0335
1840431.0,4.1372,0.6584,10.3501,0.0724,0.107,-0.0383
1840441.0,4.1755,0.826,10.149,0.0798,0.0889,-0.0601
1840451.0,4.0725,1.2306,9.9,0.0271,0.067,-0.0841
1840461.0,3.9863,1.4988,9.9264,-0.1054,0.0357,-0.0878
1840471.0,4.0103,1.5275,10.0221,-0.2251,-0.017,-0.0718
1840481.0,4.0486,1.5371,9.8785,-0.2591,-0.0612,-0.0394
1840491.0,4.027,1.5203,9.5577,-0.24,-0.067,-0.0016
1840501.0,4.0821,1.5012,9.3805,-0.2091,-0.0474,0.0357
1840511.0,4.1276,1.4461,9.2823,-0.1697,-0.0016,0.0649
1840521.0,4.1348,1.4006,9.2033,-0.1293,0.0521,0.0905
1840531.0,4.2066,1.245,9.2823,-0.1298,0.1091,0.116
1840541.0,4.1683,0.905,9.651,-0.157,0.1527,0.1266
1840551.0,4.197,0.6033,10.0341,-0.1431,0.1527,0.1224
1840561.0,4.2617,0.3998,10.1035,-0.0894,0.124,0.1027
1840571.0,4.3383,0.4549,10.0796,-0.0362,0.1059,0.0681
1840581.0,4.2114,0.7278,10.0413,0.0043,0.0995,0.0357
1840591.0,4.1228,1.0295,9.9718,0.017,0.0745,0.0208
1840601.0,4.0701,1.166,9.8114,-0.0005,0.0351,0.0239
1840611.0,4.1851,1.1923,9.7516,-0.0213,0.0239,0.0415
1840621.0,4.118,1.075,9.8306,-0.0426,0.0372,0.0628
1840631.0,4.1084,0.8452,9.8809,-0.058,0.0202,0.075
1840641.0,4.2449,0.68,9.7492,-0.0458,-0.008,0.0729
1840651.0,4.3239,0.6321,9.7109,-0.017,0.0016,0.0569
1840661.0,4.2377,0.6967,9.651,0.0176,0.0277,0.0436
1840671.0,4.2521,0.759,9.6367,0.033,0.033,0.0357
1840681.0,4.3048,0.7254,9.7229,0.0314,0.0383,0.0266
1840691.0,4.2808,0.747,9.6917,0.0346,0.0388,0.017
1840701.0,4.2449,0.7518,9.7971,0.0245,0.0372,0.0101
1840711.0,4.2808,0.7518,9.7564,0.016,0.0213,-0.0027
1840721.0,4.1827,0.9242,9.7707,0.0144,0.016,-0.0181
1840731.0,4.0869,1.1492,9.8019,0.0213,0.0218,-0.0197
1840741.0,4.0845,1.2282,9.6893,-0.0122,-0.0011,-0.0027
1840751.0,4.1228,0.9864,9.8162,-0.091,-0.0325,0.0112
1840761.0,4.209,0.7973,9.7396,-0.1043,-0.0596,0.0181
1840771.0,4.276,0.6967,9.5984,-0.0612,-0.0484,0.016
1840781.0,4.2689,0.747,9.5026,-0.0112,-0.0096,0.0016
1840791.0,4.2306,1.0175,9.5553,0.0245,0.0351,-0.0112
1840801.0,4.0821,1.2498,9.6654,0.0138,0.0532,-0.0096
1840811.0,4.051,1.2067,9.9168,-0.0404,0.0399,0.0053
1840821.0,4.0773,1.0726,10.0437,-0.05,0.0043,0.0271
1840831.0,4.1611,0.9936,9.8186,-0.0186,-0.0383,0.0484
1840841.0,4.209,0.8667,9.6055,-0.0165,-0.0639,0.0569
1840851.0,4.3287,0.7901,9.323,-0.0383,-0.0809,0.0516
1840861.0,4.2641,0.8571,9.1674,-0.0788,-0.0697,0.0335
1840871.0,4.2641,0.9864,9.0836,-0.116,-0.0447,0.0202
1840881.0,4.2425,1.0247,9.1123,-0.1447,-0.0138,0.0213
1840891.0,4.2449,0.9242,9.2799,-0.1527,0.0101,0.0282
1840901.0,4.2737,0.7757,9.4451,-0.1048,0.0442,0.0383
1840911.0,4.288,0.7159,9.5361,0.0011,0.0825,0.0442
1840921.0,4.2976,0.7781,9.4236,0.0942,0.1059,0.0415
1840931.0,4.3239,0.9792,9.3948,0.099,0.1155,0.0245
1840941.0,4.2377,1.2641,9.481,0.0293,0.0979,0.0064
1840951.0,4.2306,1.4413,9.4906,-0.0809,0.0394,0.0053
1840961.0,4.1731,1.3671,9.3972,-0.1926,-0.0372,0.0229
1840971.0,4.3167,1.142,9.1985,-0.2543,-0.107,0.0484
1840981.0,4.4245,0.8452,8.9232,-0.2256,-0.1298,0.0702
1840991.0,4.5993,0.6776,8.2887,-0.1394,-0.1224,0.0809
1841001.0,4.7238,0.5842,7.8243,-0.0894,-0.0803,0.075
1841011.0,4.774,0.5962,7.4915,-0.0729,-0.0165,0.0543
1841021.0,4.8004,0.6129,7.2281,-0.0692,0.0628,0.0325
1841031.0,4.7908,0.6033,7.1371,-0.0692,0.1532,0.0128
1841041.0,4.7836,0.6895,7.0198,-0.0692,0.2373,-0.0074
1841051.0,4.7238,0.7111,7.0413,-0.074,0.3288,-0.0234
1841061.0,4.64,0.747,7.1299,-0.0548,0.4124,-0.0303
1841071.0,4.5921,0.814,7.2496,-0.0218,0.4794,-0.0309
1841081.0,4.4891,0.8763,7.2089,-0.0069,0.5167,-0.0266
1841091.0,4.3934,0.8859,7.1395,-0.0559,0.5209,-0.0229
1841101.0,4.3934,0.577,6.9647,-0.1777,0.4773,-0.0255
1841111.0,4.4149,0.2705,6.5457,-0.34,0.4119,-0.0532
1841121.0,4.379,-0.0886,6.1938,-0.4991,0.3943,-0.1022
1841131.0,4.4388,-0.5267,6.2896,-0.597,0.455,-0.1676
1841141.0,4.2856,-0.5363,5.8634,-0.6029,0.5098,-0.2586
1841151.0,4.2737,-0.2035,5.2481,-0.696,0.5412,-0.3826
1841161.0,4.0797,0.1796,5.0996,-0.8716,0.6524,-0.5039
1841171.0,3.6871,0.7614,5.3463,-0.9775,0.8221,-0.5784
1841181.0,3.4093,1.5323,5.5234,-1.0131,0.969,-0.589
1841191.0,3.146,2.15,5.8586,-1.0914,1.0765,-0.5406
1841201.0,2.739,2.4517,6.3877,-1.1781,1.1387,-0.4299
1841211.0,2.6121,2.6312,6.608,-1.1882,1.1291,-0.265
1841221.0,2.1931,2.466,6.2824,-1.1643,1.1025,-0.0676
1841231.0,1.8723,1.585,6.0813,-1.1158,1.127,0.1442
1841241.0,2.1213,0.0,5.8083,-0.9142,1.2409,0.3288
1841251.0,2.3128,-1.2115,5.4324,-0.5571,1.4745,0.3954
1841261.0,2.1596,-1.5634,5.035,-0.2059,1.7948,0.339
1841271.0,1.8651,-1.1612,5.0949,-0.0553,2.1098,0.1995
1841281.0,1.3001,-0.4286,5.9544,-0.0686,2.3817,0.0591
1841291.0,0.7278,0.4094,7.039,-0.0596,2.5733,-0.009
1841301.0,-0.0838,1.142,7.9009,-0.0144,2.6627,0.0074
1841311.0,-0.747,1.4174,8.6215,-0.0335,2.6462,0.0862
1841321.0,-1.3791,0.9529,9.3925,-0.0803,2.5627,0.199
1841331.0,-1.5514,0.0239,9.5792,0.0186,2.4573,0.3081
1841341.0,-1.3815,-0.6345,8.9016,0.2645,2.4238,0.3464
1841351.0,-1.312,-0.6847,8.0996,0.4784,2.5201,0.2857
1841361.0,-1.6735,-0.1389,7.9942,0.5965,2.7303,0.1735
1841371.0,-2.3343,0.8859,8.1403,0.6247,2.9272,0.0766
1841381.0,-2.897,1.7837,8.3582,0.473,3.0527,0.0341
1841391.0,-3.4812,1.9537,9.3972,0.1309,3.1655,0.0543
1841401.0,-4.0558,1.5826,11.0492,-0.2395,3.2038,0.1197
1841411.0,-4.6974,1.0008,12.4929,-0.5593,3.082,0.1948
1841421.0,-4.7166,0.3567,13.6972,-0.7976,2.8463,0.2528
1841431.0,-4.7285,-0.3232,14.7124,-0.7726,2.652,0.3177
1841441.0,-4.8602,-0.5531,15.0045,-0.4443,2.5185,0.3821
1841451.0,-5.047,-0.4022,14.8991,-0.0559,2.4158,0.4363
1841461.0,-5.0901,-0.4525,14.7938,0.215,2.3104,0.4848
1841471.0,-4.8195,-0.8045,14.7076,0.3805,2.2088,0.513
1841481.0,-4.5226,-1.0487,14.3724,0.4539,2.113,0.4864
1841491.0,-4.4269,-0.9768,14.1354,0.3134,2.0226,0.3927
1841501.0,-4.6639,-0.7278,14.5184,-0.0899,1.8927,0.257
1841511.0,-5.0709,-0.6057,15.5719,-0.5624,1.6815,0.1447
1841521.0,-5.4995,-0.6728,16.3692,-0.7971,1.4181,0.1117
1841531.0,-5.5043,-0.9864,16.52,-0.6864,1.201,0.1543
1841541.0,-5.5162,-1.3982,16.3572,-0.3054,1.1169,0.2251
1841551.0,-5.0685,-1.7454,15.9957,0.1564,1.1052,0.274
1841561.0,-4.9081,-1.822,15.5527,0.4496,1.1047,0.2485
1841571.0,-5.0374,-1.5251,15.4426,0.4326,1.0334,0.1479
1841581.0,-5.0159,-1.1851,15.7634,0.1676,0.8987,0.0229
1841591.0,-5.1763,-0.9744,16.5775,-0.1064,0.7503,-0.0724
1841601.0,-5.2864,-0.8188,17.1042,-0.2261,0.5534,-0.1091
1841611.0,-5.3702,-0.7254,17.5303,-0.2155,0.3507,-0.1133
1841621.0,-5.5402,-0.5148,17.5519,-0.0782,0.141,-0.0835
1841631.0,-5.6551,-0.3112,17.1808,0.0814,-0.0708,-0.0362
1841641.0,-5.5952,-0.2658,16.7427,0.1761,-0.2746,0.0138
1841651.0,-5.3654,-0.3903,16.2662,0.2155,-0.447,0.0532
1841661.0,-5.1284,-0.6369,16.0651,0.2033,-0.5816,0.067
1841671.0,-5.0996,-0.7374,15.84,0.1506,-0.7327,0.0447
1841681.0,-5.0877,-0.7661,15.8352,0.0404,-0.9067,0.0011
1841691.0,-5.0613,-0.8811,16.0052,-0.0506,-1.0993,-0.0357
1841701.0,-5.0542,-0.8116,15.84,-0.0202,-1.3202,-0.0575
1841711.0,-4.9728,-0.6129,15.4234,0.1564,-1.5048,-0.0506
1841721.0,-4.8123,-0.4645,14.7722,0.5114,-1.6033,0.0032
1841731.0,-4.6902,-0.3735,13.8576,0.9977,-1.6155,0.0926
1841741.0,-4.2713,-0.3591,12.6174,1.4351,-1.5798,0.1687
1841751.0,-3.96,-0.1221,11.4802,1.616,-1.5085,0.1841
1841761.0,-3.7852,0.2251,10.8433,1.4521,-1.466,0.1373
1841771.0,-3.723,0.3591,10.9966,0.9951,-1.4809,0.049
1841781.0,-3.7086,0.3831,11.734,0.5023,-1.5745,-0.0575
1841791.0,-3.6081,0.4118,11.892,0.2086,-1.7267,-0.1325
1841801.0,-3.3375,0.2059,11.8393,0.0889,-1.8608,-0.1735
1841811.0,-3.3399,0.1101,11.1402,0.0697,-1.9763,-0.2182
1841821.0,-3.3758,0.4477,10.228,0.008,-2.0305,-0.2905
1841831.0,-3.1867,0.6393,10.817,-0.0495,-1.9475,-0.3469
1841841.0,-3.1101,1.0175,11.2408,0.141,-1.8704,-0.3416
1841851.0,-3.2513,1.5897,11.0923,0.3512,-1.8986,-0.3001
1841861.0,-3.067,1.8459,10.987,0.3507,-2.0391,-0.2453
1841871.0,-2.6576,1.7885,10.4914,0.2937,-2.2194,-0.174
1841881.0,-2.3894,1.5107,9.7707,0.3108,-2.3131,-0.0937
1841891.0,-1.9369,1.0391,9.1219,0.3959,-2.3035,-0.0303
1841901.0,-1.5658,0.6393,8.5497,0.5353,-2.2168,-0.0037
1841911.0,-1.1899,0.6009,7.4915,0.6619,-2.1178,-0.0261
1841921.0,-0.668,0.9026,7.0054,0.5827,-1.9475,-0.1038
1841931.0,-0.4693,1.2665,7.5082,0.3219,-1.7687,-0.2134
1841941.0,-0.6823,1.7909,8.2696,0.0559,-1.6783,-0.2959
1841951.0,-0.5866,2.0279,9.0956,-0.1666,-1.7022,-0.3257
1841961.0,-0.3735,2.0638,9.5433,-0.2857,-1.8102,-0.3203
1841971.0,-0.1389,2.1189,9.2703,-0.2884,-1.9172,-0.2852
1841981.0,0.1341,1.9896,9.1219,-0.2261,-1.955,-0.2315
1841991.0,0.5722,1.8435,8.7556,-0.091,-1.9816,-0.1724
1842001.0,0.8619,1.9249,7.9918,0.0479,-2.0018,-0.1272
1842011.0,1.0989,1.9082,7.331,0.1022,-1.9976,-0.0942
1842021.0,1.4126,1.8531,6.7229,0.0766,-1.9667,-0.0713
1842031.0,1.8914,1.7645,6.1435,-0.0245,-1.9252,-0.067
1842041.0,2.2266,1.5969,5.7892,-0.1772,-1.8682,-0.0809
1842051.0,2.4876,1.3815,5.6383,-0.3033,-1.7773,-0.107
1842061.0,2.9137,1.257,5.4277,-0.3437,-1.6543,-0.1346
1842071.0,3.055,1.3695,5.3199,-0.3294,-1.4904,-0.1724
1842081.0,3.0694,1.6113,5.3654,-0.2607,-1.3111,-0.1969
1842091.0,3.3543,1.8723,5.5282,-0.1421,-1.1201,-0.1889
1842101.0,3.5147,2.071,5.5665,-0.0101,-0.9519,-0.1607
1842111.0,3.6464,2.3487,5.5905,0.0537,-0.8152,-0.133
1842121.0,3.711,2.4756,5.7485,0.0388,-0.7013,-0.0974
1842131.0,3.7924,2.5043,5.8993,0.0192,-0.6119,-0.0537
1842141.0,3.7948,2.4636,5.8778,0.0357,-0.513,-0.0005
1842151.0,3.9887,2.1715,6.122,0.0623,-0.3815,0.0559
1842161.0,4.118,1.7813,6.5481,0.1027,-0.2554,0.0947
1842171.0,4.1899,1.6664,6.6798,0.1362,-0.1799,0.0963
1842181.0,4.1372,1.7669,6.8809,0.1091,-0.1245,0.0761
1842191.0,4.1539,1.6616,7.0916,0.0357,-0.0873,0.0633
1842201.0,4.221,1.506,7.288,-0.042,-0.0708,0.0474
1842211.0,4.2162,1.4485,7.3765,-0.1011,-0.0463,0.0181
1842221.0,4.2353,1.4533,7.446,-0.1325,-0.0005,-0.0138
1842231.0,4.1946,1.6065,7.7357,-0.1266,0.0915,-0.0431
1842241.0,4.0007,1.9441,7.9871,-0.0825,0.1884,-0.049
1842251.0,3.9504,2.138,8.4108,-0.091,0.2464,-0.0298
1842261.0,3.8666,2.1572,9.019,-0.1431,0.2533,0.0005
1842271.0,3.8331,2.0638,9.2967,-0.1527,0.2112,0.0458
1842281.0,4.0127,1.9201,9.3996,-0.1144,0.1687,0.1006
1842291.0,3.8978,1.6544,9.5361,-0.0298,0.1671,0.1517
1842301.0,3.8714,1.415,9.3111,0.0846,0.1501,0.19
1842311.0,3.9911,1.1492,9.1099,0.1437,0.1538,0.1969
1842321.0,4.0462,1.0558,9.0285,0.1506,0.182,0.1729
1842331.0,4.0558,1.1085,9.165,0.1187,0.2198,0.1341
1842341.0,4.0534,1.1396,9.3853,0.0734,0.2437,0.0958
1842351.0,4.0917,1.2737,9.4116,0.0601,0.2405,0.0729
1842361.0,4.0055,1.3503,9.426,0.0388,0.232,0.0623
1842371.0,3.9361,1.3336,9.5146,0.0074,0.2363,0.0591
1842381.0,3.9648,1.2474,9.7013,0.0271,0.2533,0.0617
1842391.0,3.9504,1.2234,9.6654,0.0665,0.2602,0.0601
1842401.0,3.9863,1.2929,9.56,0.0447,0.2442,0.0452
1842411.0,3.9121,1.2474,9.7396,-0.0303,0.2368,0.025
1842421.0,3.8283,1.2091,9.8497,-0.0654,0.223,0.0112
1842431.0,3.7924,1.1396,9.8258,-0.0431,0.2176,0.0069
1842441.0,3.8068,1.0678,9.7636,-0.008,0.2331,-0.0027
1842451.0,3.7637,1.1779,9.8785,0.0245,0.2735,-0.0266
1842461.0,3.6559,1.4557,10.0413,0.075,0.3161,-0.0452
1842471.0,3.5267,1.798,10.1514,0.0963,0.3171,-0.0463
1842481.0,3.4572,1.8364,10.2855,0.0394,0.2794,-0.0319
1842491.0,3.4572,1.6281,10.4674,-0.0239,0.2309,-0.0122
1842501.0,3.4692,1.4222,10.5249,-0.0213,0.1894,-0.0011
1842511.0,3.4692,1.4222,10.5249,-0.0213,0.1894,-0.0011
1842521.0,3.5051,1.4269,10.2783,0.0059,0.158,-0.0106
1842531.0,3.462,1.6017,10.3094,0.009,0.165,-0.033
1842541.0,3.3639,1.9058,10.3597,-0.0037,0.166,-0.0436
1842551.0,3.2322,2.0375,10.4914,-0.0729,0.1181,-0.0383
1842561.0,3.3184,1.8579,10.5441,-0.1517,0.0378,-0.0208
1842571.0,3.3974,1.6352,10.4507,-0.1559,-0.0176,-0.0005
1842581.0,3.4333,1.4724,10.1897,-0.1038,-0.0346,0.0096
1842591.0,3.5099,1.4365,9.9311,-0.0495,-0.0351,0.0021
1842601.0,3.5769,1.5514,9.8162,-0.0223,-0.0053,-0.0181
1842611.0,3.4812,1.8172,9.7755,-0.0341,0.0277,-0.0335
1842621.0,3.3519,1.8962,9.8569,-0.1187,0.0192,-0.0367
1842631.0,3.4381,1.7957,10.0054,-0.2006,-0.0255,-0.0287
1842641.0,3.5889,1.561,10.0389,-0.1655,-0.033,-0.0106
1842651.0,3.7278,1.5323,9.8665,-0.0192,0.0032,0.0101
1842661.0,3.6009,1.7214,9.5457,0.074,0.0341,0.0176
1842671.0,3.5841,1.8028,9.4906,0.0261,0.042,0.0133
1842681.0,3.6464,1.7693,9.6151,-0.058,0.0516,0.0085
1842691.0,3.5554,1.8004,9.7229,-0.1006,0.0676,0.0074
1842701.0,3.4836,1.8028,9.8976,-0.1517,0.0569,0.0101
1842711.0,3.5817,1.561,10.137,-0.1878,0.0229,0.0133
1842721.0,3.6224,1.4509,10.0365,-0.1256,-0.0069,0.016
1842731.0,3.62,1.5514,9.7707,-0.0367,-0.0037,0.0144
1842741.0,3.6081,1.6376,9.5481,-0.0117,0.008,0.0096
1842751.0,3.6152,1.6879,9.3422,-0.041,0.0101,0.0043
1842761.0,3.6823,1.6257,9.4308,-0.083,0.0314,0.0011
1842771.0,3.6655,1.5467,9.5792,-0.0915,0.0654,-0.0027
1842781.0,3.5937,1.6089,9.7923,-0.0692,0.0899,-0.0106
1842791.0,3.5578,1.7837,9.9,-0.0223,0.1006,-0.0101
1842801.0,3.5267,1.9704,9.8426,0.0128,0.0984,-0.0011
1842811.0,3.4955,2.1093,9.8737,-0.0016,0.0937,0.0133
1842821.0,3.4285,2.1308,9.9671,-0.0378,0.0654,0.0367
1842831.0,3.45,1.9944,9.9527,-0.0761,0.0186,0.067
1842841.0,3.553,1.7214,9.8378,-0.0921,-0.0192,0.0878
1842851.0,3.6224,1.5658,9.6319,-0.0543,-0.0234,0.0947
1842861.0,3.6536,1.5467,9.3254,-0.0176,-0.0048,0.0937
1842871.0,3.6559,1.4988,9.2512,-0.0442,0.0192,0.0803
1842881.0,3.6248,1.4485,9.268,-0.0857,0.0351,0.0617
1842891.0,3.6679,1.3096,9.3446,-0.1107,0.0708,0.0452
1842901.0,3.6057,1.2737,9.5816,-0.0841,0.1325,0.0255
1842911.0,3.5721,1.3982,9.8306,-0.0053,0.1942,0.0112
1842921.0,3.4668,1.6065,10.1011,0.058,0.2309,0.0037
1842931.0,3.3064,1.7957,10.4028,0.0633,0.2086,0.0064
1842941.0,3.3279,1.7262,10.5105,0.0415,0.1431,0.0208
1842951.0,3.4333,1.6568,10.5105,0.0516,0.0825,0.0415
1842961.0,3.462,1.6496,10.2879,0.074,0.0383,0.0516
1842971.0,3.4812,1.6903,10.1059,0.0378,-0.0027,0.0468
1842981.0,3.5458,1.7166,9.8545,-0.0383,-0.0458,0.0404
1842991.0,3.6272,1.7071,9.7181,-0.1235,-0.0665,0.0357
1843001.0,3.5817,1.652,9.7252,-0.199,-0.075,0.0319
1843011.0,3.6847,1.5083,9.7564,-0.2331,-0.0889,0.0367
1843021.0,3.7996,1.3767,9.6391,-0.2075,-0.1054,0.0442
1843031.0,3.8714,1.2953,9.3278,-0.166,-0.1187,0.049
1843041.0,3.9816,1.1349,9.0214,-0.1415,-0.1091,0.049
1843051.0,4.0845,1.0223,8.7245,-0.0878,-0.0809,0.0378
1843061.0,4.0749,1.0942,8.2911,-0.0388,-0.0293,0.0149
1843071.0,4.0582,1.1636,8.1403,-0.0521,0.0479,-0.0165
1843081.0,3.9911,1.2617,8.2169,-0.0921,0.1266,-0.0458
1843091.0,3.9145,1.3767,8.3606,-0.1229,0.1809,-0.0644
1843101.0,3.8475,1.3599,8.5329,-0.1532,0.2081,-0.0734
1843111.0,3.8235,1.2546,8.6287,-0.157,0.2192,-0.0777
1843121.0,3.869,1.0894,8.7005,-0.1144,0.2442,-0.0819
1843131.0,3.814,1.1301,8.6287,-0.0255,0.2932,-0.0974
1843141.0,3.7038,1.4964,8.6024,0.0394,0.3459,-0.1224
1843151.0,3.5602,1.8172,8.8322,0.0383,0.3922,-0.1341
1843161.0,3.4692,2.0973,8.8849,0.0122,0.3943,-0.1288
1843171.0,3.4261,2.2075,8.9016,-0.0495,0.3789,-0.1101
1843181.0,3.462,2.138,8.9998,-0.1256,0.3512,-0.0819
1843191.0,3.5027,2.0638,8.9687,-0.1804,0.3012,-0.0521
1843201.0,3.5458,1.9297,8.6646,-0.2203,0.2379,-0.0245
1843211.0,3.62,1.7142,8.0589,-0.2645,0.1772,0.0005
1843221.0,3.7397,1.3623,7.5417,-0.3187,0.1644,0.0101
1843231.0,3.6703,1.0726,6.9983,-0.3406,0.2054,-0.0027
1843241.0,3.6823,1.0008,6.4739,-0.3278,0.3134,-0.0367
1843251.0,3.6248,1.0678,6.3782,-0.2831,0.4837,-0.0798
1843261.0,3.5219,1.3886,6.3231,-0.2128,0.6635,-0.1187
1843271.0,3.3184,1.889,6.4643,-0.1788,0.8232,-0.1421
1843281.0,3.1173,2.3559,6.7947,-0.1958,0.9328,-0.1325
1843291.0,2.8084,2.5786,7.0102,-0.2522,0.9674,-0.0867
1843301.0,2.6743,2.6432,6.8331,-0.356,0.9269,-0.0218
1843311.0,2.5953,2.3655,6.6032,-0.5444,0.8886,0.0442
1843321.0,2.3152,1.7741,6.7086,-0.7689,0.8828,0.0995
1843331.0,2.1452,0.9577,6.9504,-0.8918,0.903,0.1383
1843341.0,2.1165,0.0742,7.0892,-0.7785,0.9924,0.1564
1843351.0,2.2841,-0.2322,6.7062,-0.4688,1.1371,0.1235
1843361.0,2.1907,0.0503,6.5505,-0.1431,1.3877,0.0506
1843371.0,1.8938,0.8906,6.6702,0.1272,1.6623,-0.0112
1843381.0,1.5514,1.8076,6.9073,0.2139,1.8528,-0.0372
1843391.0,1.0247,2.3894,7.4747,0.0665,1.9406,-0.0218
1843401.0,0.7207,2.15,8.4898,-0.1713,1.939,0.0404
1843411.0,0.3759,1.4892,9.2608,-0.3054,1.8794,0.1197
1843421.0,0.0287,0.6129,9.3925,-0.3017,1.7852,0.1783
1843431.0,0.0551,-0.4788,9.505,-0.223,1.7576,0.1735
1843441.0,-0.0886,-0.8332,9.4786,0.0112,1.8416,0.0846
1843451.0,-0.2131,-0.1508,9.3541,0.3347,2.0119,-0.0495
1843461.0,-0.7446,1.1277,9.4284,0.4938,2.1822,-0.1735
1843471.0,-1.1349,2.1069,10.0437,0.3533,2.2381,-0.2384
1843481.0,-1.4341,2.4612,11.0277,0.0516,2.1801,-0.248
1843491.0,-1.6328,2.5594,11.8585,-0.1852,2.0534,-0.2065
1843501.0,-1.9465,2.399,12.3086,-0.2863,1.9076,-0.1282
1843511.0,-2.0877,2.071,12.5097,-0.2916,1.7597,-0.042
1843521.0,-2.2362,1.5562,12.5001,-0.2187,1.6559,0.0404
1843531.0,-2.2146,1.0678,12.3014,-0.1399,1.5703,0.0851
1843541.0,-2.0183,0.589,12.3804,-0.0937,1.5261,0.0782
1843551.0,-1.9537,0.5459,12.3613,-0.0069,1.5006,0.0367
1843561.0,-1.9585,0.9577,12.2775,0.0399,1.4777,-0.0149
1843571.0,-2.138,1.4126,12.2128,-0.0138,1.4128,-0.0532
1843581.0,-2.2314,1.8172,12.1625,-0.1197,1.3228,-0.0633
1843591.0,-2.3703,1.9848,12.0548,-0.2001,1.2584,-0.0325
1843601.0,-2.5666,1.7645,12.0859,-0.249,1.2223,0.0271
1843611.0,-2.6217,1.3216,12.1625,-0.2565,1.1898,0.0766
1843621.0,-2.5714,0.917,12.2056,-0.1836,1.1696,0.107
1843631.0,-2.66,0.6488,12.1458,-0.0819,1.184,0.1139
1843641.0,-2.8371,0.5938,12.4235,-0.0032,1.2068,0.0905
1843651.0,-2.7725,0.7661,12.5504,0.091,1.201,0.0575
