time_ms,ax,ay,az,gx,gy,gz
1778731.0,4.3072,0.3065,9.6175,-0.1963,0.0899,0.0
1778741.0,4.3263,0.2658,9.6175,-0.2134,0.1,0.0011
1778751.0,4.2138,0.3017,9.6606,-0.2086,0.1032,0.0016
1778761.0,4.2473,0.34,9.6127,-0.1894,0.1107,0.0074
1778771.0,4.2138,0.2945,9.7827,-0.1735,0.1288,0.0154
1778781.0,4.2138,0.3184,9.8282,-0.1368,0.1378,0.0255
1778791.0,4.197,0.2442,10.0006,-0.1096,0.1314,0.0341
1778801.0,4.1827,0.2298,10.0149,-0.0713,0.1091,0.0431
1778811.0,4.2162,0.2705,9.8426,-0.0234,0.0905,0.0527
1778821.0,4.2449,0.2418,9.7181,-0.0016,0.0851,0.0607
1778831.0,4.2665,0.1844,9.6151,0.0011,0.0937,0.0617
1778841.0,4.2856,0.1077,9.6247,0.0053,0.1064,0.0553
1778851.0,4.2497,0.1604,9.6414,0.009,0.1112,0.0436
1778861.0,4.2353,0.1269,9.6414,0.0128,0.1176,0.0372
1778871.0,4.1994,0.1963,9.6055,0.0239,0.1213,0.0346
1778881.0,4.1875,0.2658,9.5984,0.0314,0.1229,0.0309
1778891.0,4.1851,0.3855,9.5241,0.0202,0.124,0.0314
1778901.0,4.142,0.4693,9.517,-0.0021,0.1394,0.0335
1778911.0,4.1061,0.5459,9.5529,-0.0298,0.1538,0.0415
1778921.0,4.0127,0.5052,9.6917,-0.0569,0.1612,0.0543
1778931.0,4.0175,0.4286,9.7827,-0.0617,0.1575,0.0724
1778941.0,4.142,0.1053,9.9551,-0.0463,0.1666,0.0894
1778951.0,4.1156,0.0335,9.9695,-0.0021,0.1639,0.0873
1778961.0,4.0606,0.0862,9.9455,0.0128,0.1415,0.0734
1778971.0,4.0773,0.1676,9.845,0.0059,0.1213,0.0612
1778981.0,4.0366,0.1628,9.8497,-0.0271,0.1096,0.0516
1778991.0,4.0366,0.1652,9.8497,-0.0484,0.0979,0.0458
1779001.0,4.0582,0.1365,9.845,-0.0537,0.0857,0.0452
1779011.0,4.0725,0.1484,9.8713,-0.0261,0.0899,0.0452
1779021.0,4.1084,0.158,9.8641,0.0106,0.0995,0.0463
1779031.0,4.0582,0.1772,9.7875,0.0303,0.0931,0.049
1779041.0,4.051,0.2251,9.7085,0.0293,0.074,0.0442
1779051.0,4.0414,0.2801,9.5672,0.0181,0.0718,0.0399
1779061.0,3.9935,0.2514,9.5696,-0.0096,0.083,0.0394
1779071.0,4.0582,0.1556,9.6247,-0.0277,0.0889,0.0367
1779081.0,4.1204,0.0096,9.7109,-0.0309,0.099,0.0303
1779091.0,4.1108,-0.1077,9.7779,-0.0117,0.1096,0.017
1779101.0,4.0821,-0.1221,9.912,0.0277,0.1123,-0.0048
1779111.0,4.1061,0.012,9.7875,0.0937,0.1038,-0.0229
1779121.0,4.0223,0.2155,9.5936,0.125,0.0857,-0.0367
1779131.0,4.0989,0.4741,9.2919,0.1224,0.0697,-0.0404
1779141.0,4.1108,0.6488,9.0573,0.0681,0.0639,-0.041
1779151.0,4.0654,0.8787,8.8538,0.008,0.0835,-0.0357
1779161.0,3.9265,1.0822,8.7364,-0.0335,0.1442,-0.0117
1779171.0,4.0175,1.0606,8.8992,-0.0654,0.2054,0.0261
1779181.0,3.9887,0.7829,9.098,-0.0559,0.2661,0.0756
1779191.0,3.8571,0.3783,9.3757,0.0367,0.3368,0.1235
1779201.0,3.9456,0.2394,9.1171,0.1554,0.3714,0.149
1779211.0,4.0965,-0.1077,9.2368,0.2176,0.4209,0.1511
1779221.0,3.9241,0.0766,9.1099,0.2953,0.5076,0.1288
1779231.0,3.8834,0.3735,9.4332,0.2794,0.5726,0.0915
1779241.0,3.7661,0.7398,9.5792,0.2049,0.5821,0.074
1779251.0,3.5362,0.8308,9.8258,0.0532,0.5598,0.0639
1779261.0,3.5243,0.9744,9.8162,-0.1362,0.5156,0.0527
1779271.0,3.1651,1.0104,10.6446,-0.3464,0.5183,0.0468
1779281.0,3.0311,1.1277,11.4419,-0.4241,0.5066,0.0708
1779291.0,3.0574,1.0295,12.1817,-0.4667,0.4246,0.1101
1779301.0,2.9305,0.8092,12.6007,-0.5044,0.2841,0.1485
1779311.0,3.0765,0.3687,13.1466,-0.505,0.1437,0.1815
1779321.0,3.1675,-0.2442,13.6877,-0.414,0.0335,0.207
1779331.0,3.1316,-0.6225,14.0588,-0.2496,-0.0968,0.2027
1779341.0,3.1532,-0.8045,14.1689,-0.0851,-0.2501,0.1793
1779351.0,3.158,-0.7207,14.0659,0.0564,-0.3996,0.1442
1779361.0,3.134,-0.2538,13.714,0.1373,-0.5422,0.099
1779371.0,3.0287,0.2921,13.4674,0.0591,-0.68,0.0569
1779381.0,3.0454,0.4501,13.5751,-0.1171,-0.8296,0.0394
1779391.0,3.1436,0.4932,13.3381,-0.2959,-1.0328,0.0319
1779401.0,3.1795,0.5602,12.955,-0.4454,-1.2143,0.0261
1779411.0,3.1173,0.9984,12.6893,-0.5257,-1.3266,0.0394
1779421.0,3.7876,1.1492,12.864,-0.5279,-1.3877,0.0926
1779431.0,3.45,0.9625,13.0699,-0.4347,-1.4261,0.1703
1779441.0,3.292,0.5387,12.7779,-0.3544,-1.5735,0.248
1779451.0,3.7972,0.1173,12.3613,-0.3453,-1.764,0.2799
1779461.0,4.0749,-0.1939,11.6861,-0.3618,-1.897,0.2799
1779471.0,4.2018,-0.6105,11.0157,-0.4784,-2.0337,0.2421
1779481.0,4.561,-0.8308,10.4028,-0.6694,-2.1907,0.1538
1779491.0,4.3455,-0.7638,9.7396,-0.8508,-2.2785,0.0559
1779501.0,4.4676,-0.826,9.426,-0.9966,-2.3227,-0.0282
1779511.0,4.7764,-0.7015,9.1818,-1.0179,-2.3301,-0.0921
1779521.0,4.9895,-0.5363,8.7963,-0.9211,-2.2961,-0.1219
1779531.0,5.047,-0.1101,8.1906,-0.829,-2.2913,-0.1341
1779541.0,5.4731,0.0431,7.4316,-0.7875,-2.311,-0.1266
1779551.0,5.8873,0.0455,6.7181,-0.7189,-2.2487,-0.1
1779561.0,6.1268,-0.1341,6.0908,-0.6268,-2.0859,-0.067
1779571.0,6.4284,-0.6584,5.7628,-0.6039,-1.9284,-0.0559
1779581.0,6.7612,-1.3647,5.5593,-0.6614,-1.7975,-0.0889
1779591.0,6.8761,-1.8842,5.545,-0.7897,-1.6937,-0.1751
1779601.0,7.0509,-2.2051,5.7437,-0.9386,-1.6182,-0.2975
1779611.0,7.1371,-2.229,5.6862,-1.0318,-1.5596,-0.4289
1779621.0,7.2137,-1.9992,5.7437,-1.1196,-1.5234,-0.5566
1779631.0,7.2401,-1.4341,5.679,-1.1557,-1.5128,-0.6625
1779641.0,7.276,-0.7949,5.442,-1.0786,-1.4489,-0.7104
1779651.0,7.0294,-0.2346,5.2505,-0.9429,-1.3335,-0.6987
1779661.0,7.1778,-0.0575,5.5354,-0.7801,-1.2217,-0.6401
1779671.0,7.3957,0.0096,5.5737,-0.5044,-1.1084,-0.5545
1779681.0,7.4053,0.1508,5.2481,-0.2916,-1.0456,-0.4746
1779691.0,7.4484,0.0479,4.9297,-0.2192,-1.0467,-0.406
1779701.0,7.6447,-0.1293,4.3622,-0.1963,-1.0461,-0.3496
1779711.0,7.9368,-0.4429,4.0821,-0.1756,-0.978,-0.3134
1779721.0,7.9679,-0.5028,3.3662,-0.157,-0.9062,-0.3054
1779731.0,8.0732,-0.7111,2.7725,-0.3219,-0.895,-0.3368
1779741.0,8.3199,-0.7925,2.3152,-0.4938,-0.845,-0.3842
1779751.0,8.3127,-0.3519,1.889,-0.5832,-0.7242,-0.4374
1779761.0,8.2169,0.3304,1.5706,-0.6556,-0.5981,-0.4651
1779771.0,8.3031,0.8452,1.2641,-0.7231,-0.4917,-0.4491
1779781.0,8.2744,1.391,0.838,-0.7466,-0.3922,-0.4007
1779791.0,8.2935,1.9225,0.2059,-0.738,-0.2905,-0.3267
1779801.0,8.3294,2.3607,-0.6129,-0.7269,-0.1724,-0.2325
1779811.0,7.7859,2.6671,-1.4102,-0.7077,-0.009,-0.1298
1779821.0,6.9911,2.9401,-2.4565,-0.6944,0.1469,-0.0133
1779831.0,6.3949,2.3415,-3.2609,-0.6146,0.3884,0.1357
1779841.0,6.3351,1.5083,-5.0206,-0.5034,0.622,0.248
1779851.0,6.2872,1.1253,-7.1587,-0.5997,0.7992,0.2448
1779861.0,5.4588,1.4078,-9.3829,-0.8572,0.9557,0.165
1779871.0,4.379,2.9018,-12.0548,-1.1302,1.1233,0.0617
1779881.0,2.8036,5.1332,-14.2551,-1.1962,1.4984,0.0309
1779891.0,0.6752,8.1858,-16.8264,-0.9807,2.0524,0.1256
1779901.0,-1.1061,11.5736,-19.5056,-0.6444,2.7963,0.3677
1779911.0,-3.4189,14.9302,-21.1169,-0.2208,3.9222,0.8046
1779921.0,-6.6966,17.1952,-20.0658,0.1075,5.3009,1.4511
1779931.0,-10.8697,17.6788,-17.2598,0.3592,6.6392,2.2828
1779941.0,-14.7028,16.5224,-13.2495,0.4374,7.6661,3.1815
1779951.0,-17.9757,13.1729,-8.9064,0.5529,8.4856,4.0903
1779961.0,-21.0953,7.5322,-3.881,0.9264,9.3269,4.9146
1779971.0,-24.6459,2.1332,1.7214,1.5277,10.0851,5.4579
1779981.0,-26.6953,-3.0813,6.3015,2.2668,10.6561,5.7229
1779991.0,-27.1119,-9.2632,12.311,2.8165,11.1941,5.6292
1780001.0,-26.7456,-14.2263,18.9262,3.1453,11.5378,5.0646
1780011.0,-26.2476,-17.492,25.8334,2.9474,11.343,4.0856
1780021.0,-25.3714,-18.4593,33.0711,2.5243,10.671,2.8856
1780031.0,-25.7856,-16.666,39.2912,2.3062,9.7206,1.707
1780041.0,-24.8111,-11.7148,42.7126,1.9864,8.2595,0.6455
1780051.0,-23.4584,-6.3015,45.4108,1.4096,6.8839,-0.1314
1780061.0,-22.0386,-2.7054,50.1944,0.3863,5.4456,-0.6013
1780071.0,-20.6165,-0.4573,54.4274,-0.679,3.4513,-0.7811
1780081.0,-18.7945,0.4094,53.8097,-1.1988,1.0429,-0.6353
1780091.0,-16.7642,-0.7446,48.7675,-1.2239,-1.3553,-0.3001
1780101.0,-14.631,-2.5809,39.4804,-0.7306,-3.2241,0.0639
1780111.0,-12.0213,-5.035,29.8988,-0.1272,-4.2697,0.3033
1780121.0,-9.098,-7.0294,21.7489,0.3661,-4.5522,0.3358
1780131.0,-6.6822,-8.1427,16.1513,0.6295,-4.3378,0.1575
1780141.0,-4.6519,-8.0852,12.3804,0.7795,-3.8828,-0.1655
1780151.0,-3.7134,-6.7086,10.4962,0.7758,-3.2778,-0.5369
1780161.0,-2.9449,-4.4628,9.651,0.5635,-2.8005,-0.879
1780171.0,-2.9066,-2.5067,10.3094,0.2038,-2.4882,-1.1164
1780181.0,-3.0119,-0.9649,10.4651,-0.0942,-2.4147,-1.2228
1780191.0,-3.1603,-0.1006,10.3214,-0.3022,-2.4525,-1.2255
1780201.0,-2.8946,0.3448,9.2512,-0.3533,-2.4892,-1.1499
1780211.0,-2.8515,0.3065,8.3462,-0.3852,-2.4663,-1.0546
1780221.0,-2.3511,0.3208,7.2065,-0.3347,-2.3583,-0.9599
1780231.0,-2.1668,0.2634,6.4308,-0.306,-2.162,-0.8822
1780241.0,-1.7406,0.0527,6.3686,-0.3262,-1.9486,-0.8253
1780251.0,-1.4916,0.2298,6.3877,-0.3081,-1.731,-0.7897
1780261.0,-1.4413,0.3783,6.7062,-0.3421,-1.5612,-0.7524
1780271.0,-1.008,0.1724,6.9312,-0.4108,-1.4958,-0.7093
1780281.0,-0.7805,-0.0694,6.9863,-0.4353,-1.4388,-0.6843
1780291.0,-0.6608,-0.2298,7.1802,-0.3868,-1.317,-0.6673
1780301.0,-0.3711,-0.4717,7.2832,-0.2831,-1.185,-0.6513
1780311.0,-0.2394,-0.4908,7.4508,-0.1953,-1.0557,-0.6614
1780321.0,-0.3376,-0.3496,7.7237,-0.1479,-0.9083,-0.6827
1780331.0,-0.1101,-0.395,8.3438,-0.1602,-0.7843,-0.6976
1780341.0,0.0024,-0.3807,8.9423,-0.2416,-0.7354,-0.7258
1780351.0,0.1077,-0.1006,9.2201,-0.3602,-0.7497,-0.7572
1780361.0,0.0024,-0.0479,9.833,-0.5151,-0.7545,-0.7721
1780371.0,-0.1891,0.0886,10.3884,-0.5566,-0.7444,-0.7545
1780381.0,-0.328,0.3567,11.1354,-0.4704,-0.7205,-0.6997
1780391.0,-0.1173,0.3304,11.9064,-0.2097,-0.6997,-0.5832
1780401.0,-0.0311,0.1365,11.995,0.157,-0.7173,-0.4331
1780411.0,0.1508,-0.1867,11.813,0.4975,-0.7375,-0.2985
1780421.0,0.4693,-0.51,11.3557,0.7418,-0.7327,-0.1974
1780431.0,0.4717,-0.7566,11.3988,0.779,-0.7205,-0.1596
1780441.0,0.4741,-1.0151,11.6933,0.6726,-0.7561,-0.1607
1780451.0,0.5842,-1.3527,11.9926,0.5071,-0.8838,-0.1884
1780461.0,0.8787,-1.64,11.7005,0.3512,-1.0743,-0.2384
1780471.0,1.1181,-1.8962,11.3533,0.2123,-1.2361,-0.3145
1780481.0,1.2761,-1.719,10.7356,0.149,-1.3372,-0.4044
1780491.0,1.3072,-1.4222,10.4603,0.1245,-1.3681,-0.4794
1780501.0,1.3958,-0.9816,9.8713,0.1735,-1.3659,-0.5204
1780511.0,1.2809,-0.6297,9.5457,0.2166,-1.3388,-0.5273
1780521.0,1.7047,-0.6033,9.2775,0.2895,-1.2909,-0.497
1780531.0,2.0087,-0.6393,9.1315,0.3858,-1.1999,-0.4667
1780541.0,2.2218,-0.3831,8.7843,0.4422,-1.1414,-0.4592
1780551.0,2.4229,-0.1077,8.5665,0.4081,-1.1036,-0.4704
1780561.0,2.5762,0.2394,8.272,0.3251,-1.0371,-0.4784
1780571.0,2.7677,0.395,8.272,0.1405,-0.9738,-0.481
1780581.0,2.818,0.3448,8.6287,-0.0979,-0.9461,-0.481
1780591.0,2.8611,0.4334,8.8442,-0.2847,-0.9413,-0.4832
1780601.0,2.8802,0.4717,9.3111,-0.4379,-0.9482,-0.4768
1780611.0,2.7916,0.4884,9.6055,-0.4635,-0.9567,-0.4358
1780621.0,2.8994,0.3926,9.6989,-0.39,-0.9807,-0.3757
1780631.0,3.2178,0.1149,9.6726,-0.2469,-1.0009,-0.3187
1780641.0,3.3543,-0.2346,9.7444,0.033,-0.9653,-0.2794
1780651.0,3.6679,0.3448,8.1906,0.3634,-0.9168,-0.2437
1780661.0,3.6152,0.1844,8.3869,0.2708,-0.8493,-0.2341
1780671.0,3.4644,0.2251,8.5473,0.1729,-0.7955,-0.2261
1780681.0,3.4907,-0.1987,9.3302,0.0766,-0.7726,-0.2176
1780691.0,3.8092,-0.3831,9.2967,0.0654,-0.8253,-0.2267
1780701.0,3.9217,-0.3496,9.2512,-0.0043,-0.9057,-0.2682
1780711.0,3.9816,-0.146,8.9352,-0.0639,-0.9668,-0.3092
1780721.0,3.9816,0.0168,8.9016,-0.0803,-0.9764,-0.332
1780731.0,4.1132,0.2322,8.4491,-0.0436,-0.9823,-0.331
1780741.0,4.2641,0.3304,7.9224,-0.0617,-0.9833,-0.3272
1780751.0,4.5083,0.5148,7.3526,-0.1112,-0.9355,-0.3246
1780761.0,4.4125,0.6225,7.4101,-0.1846,-0.8003,-0.3166
1780771.0,4.458,0.6297,7.7069,-0.2703,-0.6896,-0.2964
1780781.0,4.5729,0.3352,8.5138,-0.3725,-0.6476,-0.2762
1780791.0,4.7262,0.0287,9.2943,-0.3022,-0.6135,-0.2474
1780801.0,4.7932,-0.0168,9.56,-0.0942,-0.6141,-0.2166
1780811.0,4.8076,0.0215,9.7947,0.116,-0.6635,-0.1878
1780821.0,4.9105,0.3448,9.2464,0.339,-0.7418,-0.1532
1780831.0,5.1188,0.498,8.5425,0.4672,-0.8083,-0.1187
1780841.0,5.2553,0.6704,7.5776,0.5146,-0.8125,-0.0915
1780851.0,5.4396,0.5602,7.2209,0.448,-0.7705,-0.0782
1780861.0,5.4229,0.6321,6.8929,0.4347,-0.6556,-0.075
1780871.0,5.3439,0.6847,6.7109,0.3677,-0.5428,-0.0761
1780881.0,5.363,0.6464,6.9001,0.2379,-0.4576,-0.0782
1780891.0,5.5498,0.4741,7.0653,0.1208,-0.373,-0.0777
1780901.0,5.6814,0.0694,7.8386,0.017,-0.2826,-0.0921
1780911.0,5.6168,0.0718,8.6239,0.0793,-0.1586,-0.1197
1780921.0,5.4995,0.4142,9.1243,0.1554,-0.1112,-0.1421
1780931.0,5.272,0.565,9.56,0.0952,-0.2027,-0.1591
1780941.0,5.3199,0.7901,9.4116,-0.0202,-0.3698,-0.1607
1780951.0,5.4277,0.7566,9.2536,-0.1623,-0.5098,-0.1527
1780961.0,5.6575,0.6823,8.7556,-0.2613,-0.622,-0.1362
1780971.0,5.8706,0.5124,8.4874,-0.3411,-0.6832,-0.133
1780981.0,5.7461,0.7997,7.9487,-0.3262,-0.6657,-0.133
1780991.0,5.7724,0.6895,8.0996,-0.3395,-0.6071,-0.1091
1781001.0,5.8179,0.4788,8.1331,-0.3028,-0.5763,-0.0782
1781011.0,6.0478,0.4094,7.8362,-0.2501,-0.5683,-0.0612
1781021.0,6.2584,0.2849,7.7931,-0.2357,-0.5188,-0.0559
1781031.0,6.1172,0.1245,8.2145,-0.2251,-0.4454,-0.0617
1781041.0,6.0813,0.237,8.2193,-0.1628,-0.4214,-0.0665
1781051.0,6.1004,0.1963,8.3941,-0.132,-0.4145,-0.066
1781061.0,6.1411,0.2394,8.26,-0.0782,-0.3916,-0.0559
1781071.0,6.0765,0.1772,8.5281,-0.0527,-0.3549,-0.0463
1781081.0,5.9927,0.0694,8.7245,0.0106,-0.3241,-0.0298
1781091.0,6.0047,-0.2322,9.1722,0.0564,-0.3044,-0.0154
1781101.0,6.1627,-0.3807,9.5744,0.0894,-0.3427,-0.0255
1781111.0,6.2991,-0.316,9.5074,0.1165,-0.4358,-0.0527
1781121.0,6.426,-0.0287,9.1937,0.0867,-0.5321,-0.0921
1781131.0,6.5122,0.4501,9.0309,0.0149,-0.5561,-0.1261
1781141.0,6.189,0.8428,9.4786,-0.0857,-0.5454,-0.132
1781151.0,6.043,0.8068,9.8593,-0.1985,-0.6114,-0.1038
1781161.0,6.0645,0.4286,10.2065,-0.2943,-0.7269,-0.0708
1781171.0,6.1387,0.012,10.137,-0.3411,-0.8375,-0.0506
1781181.0,6.4117,-0.5507,10.5249,-0.3826,-0.8902,-0.0633
1781191.0,6.4404,-0.7183,10.8098,-0.398,-0.9674,-0.1139
1781201.0,6.2321,-0.7111,10.9511,-0.4278,-1.1105,-0.1809
1781211.0,6.5625,-0.5267,10.7978,-0.3932,-1.2425,-0.2288
1781221.0,6.541,-0.2777,10.6734,-0.3209,-1.3026,-0.257
1781231.0,6.4117,0.1604,10.0748,-0.2591,-1.3798,-0.2714
1781241.0,6.5817,0.5028,9.6989,-0.2762,-1.4489,-0.2714
1781251.0,6.7397,0.8164,9.1387,-0.3182,-1.4782,-0.2474
1781261.0,6.608,0.7398,9.0932,-0.455,-1.516,-0.2256
1781271.0,6.687,0.5938,8.9064,-0.5209,-1.5618,-0.1942
1781281.0,7.0916,0.261,8.4252,-0.5566,-1.6038,-0.1666
1781291.0,7.1754,-0.2514,7.8602,-0.6391,-1.673,-0.1697
1781301.0,7.5992,-1.0319,7.9272,-0.6455,-1.6565,-0.2022
1781311.0,7.5417,-0.917,7.9703,-0.4411,-1.5367,-0.2613
1781321.0,7.3981,-0.328,8.0924,-0.2778,-1.5176,-0.3257
1781331.0,7.4962,0.3496,7.6279,-0.199,-1.6474,-0.3565
1781341.0,7.3813,0.7901,6.6655,-0.1612,-1.7975,-0.3485
1781351.0,7.4675,0.9697,4.9632,-0.1724,-1.9348,-0.3235
1781361.0,7.5872,0.9505,2.9832,-0.3331,-2.0476,-0.3214
1781371.0,7.5609,1.3431,0.6871,-0.6029,-2.112,-0.3613
1781381.0,7.4891,2.0542,-2.0039,-0.9796,-2.0965,-0.4119
1781391.0,7.2903,2.3439,-3.7948,-1.4255,-1.9321,-0.439
1781401.0,6.9743,2.5666,-5.0661,-1.7778,-1.723,-0.4496
1781411.0,7.039,3.0382,-7.5776,-2.0641,-1.6911,-0.4667
1781421.0,6.6224,3.8427,-11.1426,-2.3067,-1.6911,-0.4997
1781431.0,5.9424,5.6695,-15.3636,-2.3716,-1.4569,-0.5082
1781441.0,4.798,8.2648,-19.1416,-2.2695,-0.9535,-0.439
1781451.0,3.2609,10.5297,-23.0849,-2.0779,-0.3081,-0.2309
1781461.0,0.8284,13.1059,-25.91,-1.7139,0.6045,0.0708
1781471.0,-1.1325,15.7922,-29.7073,-1.1041,1.7235,0.5119
1781481.0,-5.1044,18.1169,-31.4478,-0.5763,3.272,1.0855
1781491.0,-9.2153,20.0227,-31.2563,-0.2277,4.9705,1.8081
1781501.0,-13.5488,19.5008,-27.6554,-0.274,6.5359,2.6712
1781511.0,-18.4425,17.3651,-20.7362,-0.0851,8.0423,3.6322
1781521.0,-22.3666,14.4083,-13.4913,0.638,9.1678,4.5868
1781531.0,-25.5006,11.1115,-9.9599,1.6432,9.7871,5.4233
1781541.0,-27.6435,6.8331,-7.4148,2.4014,10.2969,6.0565
1781551.0,-30.6937,3.0478,-5.4277,3.041,10.9232,6.4173
1781561.0,-36.9521,-0.2394,-2.8467,3.7306,11.8698,6.5535
1781571.0,-41.6807,-6.4476,1.2067,4.6139,13.3124,6.5264
1781581.0,-45.2528,-15.6724,8.7197,5.3334,15.2248,5.9767
1781591.0,-46.6917,-23.3315,23.0322,5.1636,16.778,4.4729
1781601.0,-47.2975,-24.4496,42.9041,4.275,16.8978,2.2445
1781611.0,-45.8059,-16.362,59.2158,3.8094,15.0125,0.1213
1781621.0,-41.1683,-4.6711,65.3426,3.2709,11.3548,-1.3984
1781631.0,-34.9577,5.9065,65.7352,2.502,7.5768,-2.038
1781641.0,-31.0169,15.0547,61.5669,1.6927,4.3378,-1.9135
1781651.0,-26.9707,18.7777,57.8367,0.4816,1.3149,-1.1903
1781661.0,-24.9643,14.9662,51.3867,0.0442,-1.0094,0.0708
1781671.0,-21.7657,6.1076,43.5793,0.1602,-2.9995,1.201
1781681.0,-18.093,-1.4198,32.4271,0.9291,-4.2495,1.8113
1781691.0,-13.9486,-7.2927,22.5965,1.5335,-4.6624,1.8065
1781701.0,-9.6103,-9.5529,14.3724,1.6974,-4.4703,1.2537
1781711.0,-6.5888,-8.7724,10.6159,1.2632,-3.82,0.3954
1781721.0,-5.1763,-5.7102,9.9168,0.6556,-3.0724,-0.4683
1781731.0,-5.4181,-1.4198,10.7548,0.1059,-2.4727,-1.1164
1781741.0,-5.7174,2.3798,12.8976,-0.3714,-2.1854,-1.4404
1781751.0,-6.1675,4.9656,14.4059,-0.5422,-2.1763,-1.4032
1781761.0,-6.3135,5.8634,15.0428,-0.4342,-2.3679,-1.1057
1781771.0,-5.8442,5.861,13.7403,-0.1208,-2.6446,-0.6944
1781781.0,-5.5354,5.1356,11.9973,0.1256,-2.809,-0.2975
1781791.0,-5.3343,3.8571,10.1873,0.2208,-2.8457,0.0218
1781801.0,-4.9153,2.3439,8.7795,0.0984,-2.8276,0.199
1781811.0,-4.0462,0.9409,7.9057,-0.1495,-2.7324,0.2331
1781821.0,-3.4069,0.0407,7.7644,-0.4417,-2.5536,0.1469
1781831.0,-2.8802,-0.3496,8.2552,-0.705,-2.3945,-0.0085
1781841.0,-2.5833,-0.3089,8.9232,-0.8626,-2.2966,-0.1692
1781851.0,-2.4948,-0.17,9.5026,-0.8322,-2.2439,-0.274
1781861.0,-1.9968,-0.0239,9.3877,-0.6188,-2.221,-0.3235
1781871.0,-1.482,0.3687,8.8202,-0.348,-2.1322,-0.3544
1781881.0,-1.7286,0.8523,8.7628,-0.1948,-1.9933,-0.3858
1781891.0,-1.7957,1.2402,8.6479,-0.1431,-1.9129,-0.3922
1781901.0,-1.3216,0.996,8.6886,-0.2139,-1.8565,-0.3932
1781911.0,-1.1013,0.6345,9.3565,-0.3586,-1.782,-0.4315
1781921.0,-0.9744,0.589,9.9192,-0.4842,-1.7687,-0.4991
1781931.0,-0.9625,0.8188,10.2137,-0.6013,-1.8454,-0.572
1781941.0,-0.9457,0.9409,10.2735,-0.6965,-1.9385,-0.6103
1781951.0,-0.7853,0.905,10.2975,-0.7274,-2.0061,-0.6188
1781961.0,-0.4094,0.9697,10.1993,-0.6093,-2.0013,-0.6055
1781971.0,-0.4717,1.2139,10.2807,-0.4198,-1.9401,-0.5694
1781981.0,-0.5315,1.3216,10.4674,-0.2357,-1.9204,-0.5007
1781991.0,-0.2801,0.9361,10.3573,-0.0724,-1.9688,-0.4081
1782001.0,0.2227,0.4501,9.8928,0.0819,-2.0343,-0.3459
1782011.0,0.5219,0.4022,9.0405,0.1788,-2.0428,-0.3406
1782021.0,0.9625,0.4238,8.5042,0.1421,-2.0007,-0.3656
1782031.0,1.3288,0.3926,8.1187,-0.0734,-1.9858,-0.4284
1782041.0,1.4413,0.3663,8.2576,-0.4097,-1.9938,-0.5225
1782051.0,1.3958,0.3974,8.5281,-0.6673,-2.0252,-0.605
1782061.0,1.3838,0.3041,8.7173,-0.7338,-2.0561,-0.6412
1782071.0,1.8196,0.2203,8.4443,-0.5922,-2.0635,-0.6364
1782081.0,1.9656,0.3472,7.8075,-0.3576,-2.0172,-0.6252
1782091.0,2.0997,0.7039,7.1012,-0.1256,-1.9193,-0.6045
1782101.0,2.4948,0.8763,6.6774,0.0266,-1.79,-0.5678
1782111.0,2.7845,1.1085,6.541,0.0958,-1.6714,-0.5358
1782121.0,3.0646,1.3216,6.5553,0.1336,-1.5484,-0.4954
1782131.0,3.4692,1.2665,6.7229,0.1575,-1.4532,-0.4411
1782141.0,3.8283,1.1851,6.6774,0.1729,-1.4053,-0.3948
1782151.0,3.972,1.1253,6.292,0.1527,-1.3697,-0.3693
1782161.0,4.0989,1.0199,5.9185,0.0575,-1.3319,-0.3618
1782171.0,4.2018,0.8068,5.7245,-0.0596,-1.2489,-0.3682
1782181.0,4.4173,0.6201,5.6503,-0.1027,-1.1036,-0.3852
1782191.0,4.5131,0.5124,5.8682,-0.0878,-0.9083,-0.4108
1782201.0,4.5849,0.5938,6.1651,-0.0607,-0.7317,-0.4496
1782211.0,4.5849,0.9529,6.6822,-0.0394,-0.5933,-0.4901
1782221.0,4.4293,1.4222,7.1658,-0.0027,-0.4991,-0.505
1782231.0,4.276,1.8268,7.4723,0.0399,-0.4475,-0.4757
1782241.0,4.2784,2.0279,7.75,0.05,-0.4198,-0.4065
1782251.0,4.4365,1.9225,8.181,0.0106,-0.4395,-0.3262
1782261.0,4.6687,1.7478,8.3055,-0.0213,-0.5018,-0.2613
1782271.0,4.7716,1.5706,8.2193,-0.0383,-0.5534,-0.2144
1782281.0,4.7812,1.4269,8.2241,-0.0537,-0.5954,-0.1793
1782291.0,4.9512,1.2282,8.102,-0.0511,-0.6353,-0.1527
1782301.0,5.1667,1.0726,7.7045,-0.0106,-0.6609,-0.1282
1782311.0,5.4588,0.8595,7.4077,0.0149,-0.6582,-0.1266
1782321.0,5.5785,1.0151,6.9911,0.0958,-0.5752,-0.1437
1782331.0,5.533,1.3934,6.8354,0.1511,-0.4438,-0.1602
1782341.0,5.3846,1.7047,6.8474,0.1293,-0.3437,-0.1623
1782351.0,5.3127,1.8244,7.0533,0.0569,-0.2724,-0.1405
1782361.0,5.3175,1.6735,7.3813,-0.0229,-0.2251,-0.108
1782371.0,5.4995,1.3791,7.6279,-0.0995,-0.2224,-0.0825
1782381.0,5.6719,1.1325,7.9775,-0.1128,-0.2134,-0.0777
1782391.0,5.7293,1.2258,7.774,-0.0346,-0.1948,-0.0803
1782401.0,5.6838,1.3384,7.695,0.0399,-0.1644,-0.0756
1782411.0,5.7293,1.336,7.5944,0.1469,-0.0878,-0.0516
1782421.0,5.7413,1.2306,7.6878,0.2586,0.0096,-0.0223
1782431.0,5.8658,1.1612,7.7812,0.3459,0.0899,-0.0074
1782441.0,5.9065,1.2043,7.9487,0.4007,0.166,-0.0112
1782451.0,5.7341,1.2785,8.2456,0.39,0.2065,-0.0271
1782461.0,5.7245,1.4533,8.4563,0.3139,0.1735,-0.0484
1782471.0,5.7221,1.7358,8.3941,0.207,0.1181,-0.0686
1782481.0,5.6024,1.9872,8.2791,0.0527,0.0623,-0.0766
1782491.0,5.6623,1.98,8.3199,-0.124,0.0138,-0.0697
1782501.0,5.6072,2.0087,8.3007,-0.2187,0.0043,-0.0559
1782511.0,5.5378,1.9896,8.4324,-0.2522,0.0436,-0.0309
1782521.0,5.5929,1.9154,8.5449,-0.2432,0.0803,0.0085
1782531.0,5.5976,1.7597,8.6526,-0.2097,0.0963,0.0495
1782541.0,5.5593,1.4892,8.734,-0.1532,0.1245,0.0894
1782551.0,5.6575,1.2378,8.8298,-0.0569,0.183,0.1176
1782561.0,5.6551,1.1396,9.019,0.0388,0.2501,0.1235
1782571.0,5.5522,1.2139,9.244,0.0484,0.2623,0.107
1782581.0,5.4612,1.3192,9.6007,-0.008,0.2134,0.0873
1782591.0,5.3582,1.391,9.6941,-0.066,0.1405,0.0793
1782601.0,5.3415,1.3216,9.8737,-0.1277,0.0479,0.0835
1782611.0,5.3726,1.1756,9.7851,-0.1447,-0.0495,0.0937
1782621.0,5.5186,1.0918,9.3398,-0.1336,-0.149,0.0974
1782631.0,5.533,1.0415,8.77,-0.1261,-0.1916,0.0899
1782641.0,5.4923,1.0343,8.4491,-0.1192,-0.1618,0.0814
1782651.0,5.5162,0.9481,8.2839,-0.1277,-0.1123,0.0734
1782661.0,5.624,0.7709,8.4204,-0.1144,-0.05,0.0649
1782671.0,5.7485,0.7709,8.4683,-0.0399,0.0255,0.0548
1782681.0,5.7796,0.8667,8.576,0.0325,0.0894,0.0351
1782691.0,5.6695,1.2139,8.6287,0.099,0.1495,0.0176
1782701.0,5.5641,1.549,8.7125,0.0926,0.1809,0.0176
1782711.0,5.5043,1.6209,8.9352,0.0016,0.1501,0.033
1782721.0,5.533,1.5467,8.9974,-0.1038,0.0894,0.0601
1782731.0,5.533,1.3695,8.9878,-0.1889,0.0223,0.0851
1782741.0,5.5976,1.1612,8.8155,-0.2363,-0.0197,0.1059
1782751.0,5.6264,0.972,8.6191,-0.2389,-0.0192,0.1144
1782761.0,5.6719,0.8978,8.4563,-0.2251,0.0138,0.1117
1782771.0,5.6958,0.8164,8.4994,-0.2059,0.0766,0.1016
1782781.0,5.6623,0.7566,8.6383,-0.166,0.1447,0.091
1782791.0,5.7317,0.7254,8.8155,-0.1357,0.1735,0.0756
1782801.0,5.8514,0.8428,8.8178,-0.1235,0.1783,0.0607
1782811.0,5.7269,0.8332,9.1746,-0.1479,0.1857,0.0521
1782821.0,5.679,0.9529,9.2919,-0.116,0.1591,0.0548
1782831.0,5.7341,0.9146,9.1291,-0.099,0.0952,0.066
1782841.0,5.7126,0.7853,8.7676,-0.1203,0.0378,0.0777
1782851.0,5.7604,0.5746,8.5665,-0.1453,0.0287,0.074
1782861.0,5.77,0.5866,8.5808,-0.133,0.0915,0.0516
1782871.0,5.6383,0.7494,8.8729,-0.1038,0.199,0.0229
1782881.0,5.6048,0.8906,9.3398,-0.0984,0.2639,0.0048
1782891.0,5.4995,1.0774,10.0221,-0.1107,0.2756,-0.0096
1782901.0,5.3486,1.3527,10.5249,-0.0926,0.2671,-0.0096
1782911.0,5.3558,1.5802,10.9966,-0.0772,0.2368,0.0037
1782921.0,5.1906,1.8411,11.3365,-0.1101,0.1724,0.0192
1782931.0,4.9871,1.8555,11.9112,-0.1963,0.0782,0.0415
1782941.0,4.9201,1.9632,12.2128,-0.2772,-0.049,0.0713
1782951.0,4.7573,1.822,12.9047,-0.3879,-0.1815,0.0968
1782961.0,4.6088,1.6879,13.3716,-0.4443,-0.3475,0.1288
1782971.0,4.5226,1.5562,13.4841,-0.5071,-0.5875,0.1538
1782981.0,4.6424,1.3575,13.2136,-0.5933,-0.8631,0.1783
1782991.0,4.7022,0.9864,12.7419,-0.6561,-1.0892,0.1979
1783001.0,4.8985,0.419,12.4977,-0.6811,-1.2441,0.2038
1783011.0,4.8602,-0.0072,12.5648,-0.613,-1.3127,0.1894
1783021.0,5.0111,-0.2035,12.785,-0.4661,-1.3516,0.1607
1783031.0,5.0494,-0.1006,13.0652,-0.3719,-1.4665,0.1155
1783041.0,4.9512,0.3926,12.7204,-0.4001,-1.7081,0.0585
1783051.0,5.0278,0.6177,12.1051,-0.5837,-2.0172,0.0192
1783061.0,5.3486,0.5722,11.3749,-0.7854,-2.2727,-0.0069
1783071.0,5.5019,0.4669,10.2903,-0.9807,-2.477,-0.0399
1783081.0,5.5258,0.2873,9.3829,-1.1887,-2.6478,-0.0851
1783091.0,5.8921,0.2921,8.3534,-1.2638,-2.7026,-0.116
1783101.0,6.1842,0.1987,7.8147,-1.2137,-2.6207,-0.1309
1783111.0,6.3303,0.2634,7.5274,-1.0488,-2.486,-0.1309
1783121.0,6.4117,0.2251,7.6614,-0.8152,-2.3546,-0.1086
1783131.0,6.505,0.3926,7.4436,-0.5337,-2.2945,-0.0713
1783141.0,6.7349,0.6464,6.7684,-0.3262,-2.3259,-0.0309
1783151.0,7.1036,0.6488,5.2672,-0.2363,-2.4067,0.009
1783161.0,7.4412,0.2801,3.79,-0.3139,-2.4424,0.0208
1783171.0,7.6614,0.0168,2.4181,-0.422,-2.3956,-0.0117
1783181.0,7.7644,0.0718,1.008,-0.5209,-2.2748,-0.0782
1783191.0,7.7572,0.1628,-0.0503,-0.6572,-2.1258,-0.1623
1783201.0,7.695,0.2825,-1.0654,-0.7758,-1.9635,-0.2474
1783211.0,7.3622,0.826,-2.3439,-0.8546,-1.8039,-0.3331
1783221.0,6.8426,1.3862,-3.5937,-0.9227,-1.6166,-0.4007
1783231.0,6.5864,2.4732,-4.8363,-0.9796,-1.4569,-0.4566
1783241.0,5.8802,3.9409,-5.9376,-1.0227,-1.3053,-0.473
1783251.0,5.4205,5.7078,-7.3119,-0.9786,-1.1712,-0.3991
1783261.0,4.7956,6.6176,-8.8442,-0.8642,-1.0616,-0.2379
1783271.0,3.2537,7.5896,-12.457,-0.4943,-0.9041,-0.0165
1783281.0,3.2537,9.3948,-17.3723,-0.2187,-0.6832,0.2065
1783291.0,2.3056,10.9511,-21.9429,-0.0186,-0.1133,0.4949
1783301.0,0.1269,12.8329,-25.096,0.3517,0.8615,0.8631
1783311.0,-1.6999,14.8584,-29.1542,0.7242,1.8773,1.3324
1783321.0,-4.4604,14.9829,-30.4949,0.9397,3.2363,1.8996
1783331.0,-8.1786,13.8121,-30.3154,1.3031,4.797,2.5084
1783341.0,-12.4451,11.6837,-28.2228,1.8709,6.5338,3.0719
1783351.0,-16.9318,9.414,-24.9691,2.527,8.302,3.5338
1783361.0,-21.2366,7.2329,-19.4984,2.9096,9.7973,3.8387
1783371.0,-24.3203,5.2241,-13.9845,3.2544,10.8492,4.0185
1783381.0,-27.6363,3.7589,-10.343,3.6125,11.5963,4.1047
1783391.0,-32.0057,2.0614,-7.9104,3.6737,12.1827,4.1159
1783401.0,-36.8899,-1.4222,-5.715,3.504,12.9027,4.0643
1783411.0,-41.9512,-7.3263,-0.7518,3.6003,14.5001,3.8243
1783421.0,-48.2192,-13.3501,7.9487,3.4263,16.3965,3.0543
1783431.0,-52.8185,-18.5263,25.4719,2.2886,17.4357,1.6719
1783441.0,-55.4545,-19.2949,49.0093,1.516,17.4357,0.1155
1783451.0,-52.2989,-10.3884,63.9611,2.1258,15.2966,-1.1339
1783461.0,-45.746,0.2251,70.8013,2.5004,11.6463,-1.8533
1783471.0,-38.3838,9.2632,70.2076,2.3365,7.8268,-1.9273
1783481.0,-34.1078,14.4203,67.7679,1.4649,4.0744,-1.5516
1783491.0,-28.0768,14.6765,60.8151,0.8189,0.6944,-0.7833
1783501.0,-25.3594,11.6741,52.2199,0.655,-1.4564,0.0793
1783511.0,-22.6994,6.7133,43.7469,0.3347,-3.1251,0.6784
1783521.0,-19.9748,0.2849,36.5619,-0.0575,-4.4203,0.9168
1783531.0,-16.9222,-4.0917,28.4647,-0.0894,-5.2163,0.7806
1783541.0,-13.0795,-5.8155,21.8854,-0.3246,-5.5771,0.2778
1783551.0,-10.4004,-4.865,18.2414,-0.6002,-5.4903,-0.331
1783561.0,-8.7676,-2.4445,15.0978,-0.7444,-5.3004,-0.8173
1783571.0,-7.7357,0.2945,13.2304,-0.8828,-5.1269,-1.1063
1783581.0,-6.766,2.4517,11.2934,-0.6385,-4.8162,-1.0956
1783591.0,-6.0382,3.0861,9.4427,-0.2267,-4.3718,-0.8572
1783601.0,-5.5162,2.9544,8.3055,0.0708,-3.9339,-0.5811
1783611.0,-4.7238,2.1428,7.7333,0.2123,-3.5061,-0.3326
1783621.0,-4.3694,1.0415,7.8123,0.1724,-3.1698,-0.1692
1783631.0,-4.0175,-0.067,8.1092,0.033,-2.9942,-0.1038
1783641.0,-4.0175,-0.067,8.1092,0.033,-2.9942,-0.1038
1783651.0,-3.1771,-1.3144,8.1954,-0.1368,-2.9064,-0.124
1783661.0,-2.4325,-2.0446,8.4563,-0.3177,-2.8473,-0.2565
1783671.0,-2.4181,-1.8842,8.8849,-0.3927,-2.7952,-0.4417
1783681.0,-2.3463,-1.4293,9.0836,-0.3544,-2.7718,-0.5981
1783691.0,-2.6264,-0.6416,8.9447,-0.2953,-2.7787,-0.7199
1783701.0,-2.4541,0.1149,8.7005,-0.2336,-2.7755,-0.7859
1783711.0,-2.2865,0.735,8.5425,-0.2006,-2.7367,-0.8083
1783721.0,-2.2482,1.0463,8.5832,-0.2166,-2.718,-0.7987
1783731.0,-1.8268,0.8595,8.5186,-0.223,-2.7281,-0.7732
1783741.0,-1.4988,0.8523,8.2648,-0.2054,-2.7085,-0.7737
1783751.0,-1.1301,0.8763,8.3893,-0.2357,-2.6536,-0.8003
1783761.0,-1.1157,0.8571,8.916,-0.3006,-2.6153,-0.829
1783771.0,-1.2019,1.0151,9.5864,-0.3272,-2.652,-0.8588
1783781.0,-0.9888,1.47,9.6031,-0.2826,-2.7574,-0.87
1783791.0,-0.7254,1.7549,9.4284,-0.241,-2.8617,-0.8359
1783801.0,-0.3783,1.8579,9.0932,-0.2049,-2.9633,-0.7678
1783811.0,-0.1101,1.7813,8.4204,-0.2139,-3.1176,-0.6886
1783821.0,0.4764,1.3838,7.4891,-0.2203,-3.2358,-0.6157
1783831.0,1.0942,1.3431,5.8993,-0.1745,-3.2395,-0.563
1783841.0,1.7023,1.0511,5.1068,-0.2426,-3.1251,-0.5401
1783851.0,2.4732,1.008,4.3359,-0.3214,-2.9447,-0.5507
1783861.0,2.7198,1.0271,4.0821,-0.4959,-2.767,-0.589
1783871.0,3.1484,0.9002,4.3431,-0.6864,-2.6249,-0.6268
1783881.0,3.2872,0.984,4.3551,-0.7327,-2.4988,-0.6502
1783891.0,3.5458,0.9816,4.0845,-0.6433,-2.3636,-0.6375
1783901.0,4.0438,0.9266,3.62,-0.4534,-2.1716,-0.5944
1783911.0,4.4915,0.7254,3.3495,-0.2352,-1.9119,-0.5449
1783921.0,4.8459,0.5124,3.1771,-0.0468,-1.6597,-0.5114
1783931.0,5.102,0.589,3.1316,0.074,-1.433,-0.5066
1783941.0,5.2696,0.826,3.2489,0.1117,-1.2398,-0.5135
1783951.0,5.2864,1.0654,3.6775,0.1336,-1.0823,-0.5066
1783961.0,5.4708,1.3192,3.7086,0.2405,-0.9647,-0.4629
1783971.0,5.7078,1.4365,3.2825,0.3225,-0.8801,-0.4081
1783981.0,5.849,1.4724,2.9544,0.3352,-0.7513,-0.3592
1783991.0,6.1148,1.5203,2.9042,0.348,-0.5263,-0.3145
1784001.0,6.3111,1.6113,3.1556,0.3001,-0.2959,-0.2831
1784011.0,6.3805,1.6281,3.4309,0.1038,-0.1666,-0.2677
1784021.0,6.4596,1.4772,3.79,-0.183,-0.074,-0.2682
1784031.0,6.5793,1.324,4.4819,-0.4448,0.0362,-0.2836
1784041.0,6.3877,1.2977,5.2696,-0.6401,0.1325,-0.3012
1784051.0,6.268,1.3072,6.1316,-0.7231,0.1953,-0.2985
1784061.0,6.2369,1.2498,6.8714,-0.647,0.2448,-0.2666
1784071.0,6.2177,1.3264,7.2233,-0.4379,0.3044,-0.2134
1784081.0,6.1148,1.4174,7.4915,-0.2091,0.3746,-0.1532
1784091.0,6.1411,1.5107,7.8817,-0.0181,0.4225,-0.0851
1784101.0,6.0094,1.4485,8.102,0.1091,0.4097,-0.0128
1784111.0,6.1196,1.1612,8.0709,0.19,0.3517,0.0479
1784121.0,6.438,0.9481,7.9128,0.2474,0.3283,0.0729
1784131.0,6.371,1.0702,7.683,0.257,0.3459,0.0623
1784141.0,6.1962,1.2929,7.7357,0.1719,0.3597,0.0426
1784151.0,6.0813,1.3551,7.841,0.0378,0.3581,0.042
1784161.0,6.0861,1.1756,8.1116,-0.1011,0.3453,0.0543
1784171.0,6.0573,0.8595,8.4587,-0.1841,0.3315,0.0713
1784181.0,6.1292,0.498,8.7939,-0.166,0.3225,0.0862
1784191.0,6.2106,0.4214,8.7747,-0.0782,0.3102,0.0835
1784201.0,6.1842,0.4501,8.7436,-0.0059,0.2975,0.0729
1784211.0,6.1459,0.5698,8.7364,0.0745,0.2943,0.0697
1784221.0,6.1052,0.5818,8.6383,0.1485,0.2959,0.0798
1784231.0,6.1316,0.4381,8.5162,0.1783,0.2772,0.0851
1784241.0,6.201,0.2729,8.418,0.2208,0.2831,0.0777
1784251.0,6.4141,0.2251,8.2839,0.3006,0.3586,0.0553
1784261.0,6.1579,0.4166,8.4396,0.2927,0.4273,0.0128
1784271.0,5.9304,0.6584,8.6694,0.1948,0.4129,-0.0319
1784281.0,5.8227,0.589,8.6886,0.0926,0.3501,-0.0484
1784291.0,6.0406,0.2658,8.7652,0.0548,0.3347,-0.0537
1784301.0,6.0454,0.3184,8.8633,0.1149,0.389,-0.0825
1784311.0,5.9616,0.7566,9.074,0.1857,0.4422,-0.1165
1784321.0,5.8873,1.3455,9.1075,0.1905,0.4321,-0.1272
1784331.0,5.6599,1.573,9.2775,0.1282,0.3938,-0.1107
1784341.0,5.6814,1.7334,9.2584,0.0788,0.3565,-0.067
1784351.0,5.6192,1.7166,9.3948,0.0064,0.3278,-0.0255
1784361.0,5.4827,1.6879,9.5648,-0.041,0.3054,0.0176
1784371.0,5.4516,1.6472,9.6103,-0.0628,0.2666,0.0665
1784381.0,5.3678,1.3958,9.6223,-0.1016,0.1894,0.1144
1784391.0,5.5545,0.9337,9.4619,-0.108,0.1282,0.158
1784401.0,5.8107,0.5363,9.335,-0.0692,0.1431,0.1676
1784411.0,5.6814,0.5171,9.3541,-0.0106,0.1921,0.1442
1784421.0,5.5833,0.6081,9.4427,-0.0021,0.2065,0.1117
1784431.0,5.5761,0.7039,9.5816,-0.0511,0.1772,0.0835
1784441.0,5.4444,0.8021,9.7803,-0.1059,0.1336,0.0665
1784451.0,5.4348,0.8068,9.9359,-0.1266,0.0803,0.067
1784461.0,5.4971,0.7207,9.9599,-0.1022,0.0229,0.0788
1784471.0,5.5498,0.7446,9.6343,-0.0564,-0.0436,0.0867
1784481.0,5.6168,0.7709,9.3087,-0.0186,-0.0788,0.0905
1784491.0,5.6647,0.8404,9.0118,0.0117,-0.0649,0.0926
1784501.0,5.5833,0.8404,8.9447,-0.0154,-0.0559,0.0968
1784511.0,5.6623,0.6704,8.8681,-0.0527,-0.0692,0.1016
1784521.0,5.7652,0.498,8.8011,-0.0516,-0.0623,0.1027
1784531.0,5.8227,0.3855,8.7676,-0.0314,-0.0383,0.0947
1784541.0,5.8802,0.4693,8.6359,-0.0069,-0.0223,0.0756
1784551.0,5.8538,0.7087,8.5329,0.0005,-0.0011,0.0559
1784561.0,5.7652,0.9218,8.5712,-0.0223,0.0186,0.05
1784571.0,5.6575,0.9601,8.6119,-0.091,0.0011,0.0601
1784581.0,5.6695,0.7877,8.5784,-0.1735,-0.0468,0.0772
1784591.0,5.7916,0.4669,8.4539,-0.2363,-0.0814,0.0889
1784601.0,5.8538,0.0982,8.4013,-0.2554,-0.0745,0.0814
1784611.0,5.9424,-0.0263,8.3079,-0.2283,-0.0436,0.0548
1784621.0,5.9472,0.0239,8.2959,-0.1916,0.0053,0.0149
1784631.0,5.964,0.1844,8.2361,-0.1554,0.0772,-0.0239
1784641.0,5.8586,0.4142,8.4898,-0.1506,0.1501,-0.0548
1784651.0,5.703,0.6033,8.8418,-0.165,0.1846,-0.0713
1784661.0,5.6551,0.6512,9.2488,-0.1655,0.1783,-0.0734
1784671.0,5.6479,0.8068,9.402,-0.1117,0.157,-0.0596
1784681.0,5.5881,0.9146,9.3925,-0.0479,0.124,-0.033
1784691.0,5.6168,0.9601,9.2608,0.0037,0.0798,-0.0027
1784701.0,5.6743,0.8835,9.0453,0.0186,0.0447,0.0277
1784711.0,5.7197,0.6608,8.9064,-0.009,0.0192,0.0426
1784721.0,5.7485,0.4812,8.8633,-0.0442,0.0,0.0378
1784731.0,5.7748,0.4046,8.6981,-0.0617,-0.0117,0.0218
1784741.0,5.7916,0.4429,8.6239,-0.0772,0.0011,-0.0053
1784751.0,5.7868,0.6249,8.7101,-0.0686,0.0468,-0.025
1784761.0,5.7221,0.7925,8.8801,-0.075,0.0788,-0.0325
1784771.0,5.6982,0.8475,9.0405,-0.0915,0.0585,-0.0271
1784781.0,5.6886,0.8475,9.0381,-0.0809,0.0266,-0.0112
1784791.0,5.7533,0.814,8.8609,-0.0388,0.0117,0.0112
1784801.0,5.7748,0.7087,8.6622,-0.0064,0.0059,0.0287
1784811.0,5.8442,0.5914,8.4587,0.0101,0.0144,0.033
1784821.0,5.9041,0.5387,8.4276,0.0378,0.0718,0.0271
1784831.0,5.8562,0.5938,8.5258,0.0532,0.124,0.0154
1784841.0,5.7988,0.6081,8.6335,0.0314,0.133,-0.0005
1784851.0,5.7868,0.6895,8.6215,0.0064,0.1277,-0.0154
1784861.0,5.7317,0.7422,8.7963,-0.0138,0.1447,-0.025
1784871.0,5.7557,0.8452,9.0309,0.0011,0.1596,-0.0234
1784881.0,5.6886,0.9146,9.1722,-0.0011,0.132,-0.0176
1784891.0,5.6383,0.9337,9.1267,-0.0271,0.0692,-0.0074
1784901.0,5.6743,0.8978,8.9687,-0.0404,0.0239,0.0048
1784911.0,5.703,0.8595,8.7364,-0.049,0.0106,0.0149
1784921.0,5.7652,0.7757,8.588,-0.0692,0.0053,0.0176
1784931.0,5.7461,0.7685,8.521,-0.0825,0.0213,0.0154
1784941.0,5.7509,0.6895,8.6095,-0.0686,0.0591,0.0186
1784951.0,5.7748,0.565,8.7125,-0.0341,0.1022,0.0202
1784961.0,5.794,0.6153,8.7293,0.0021,0.1261,0.0112
1784971.0,5.7485,0.735,8.837,0.0074,0.1405,-0.0064
1784981.0,5.6934,0.9026,8.8657,0.0027,0.1527,-0.016
1784991.0,5.6048,1.0151,9.1243,-0.0314,0.1453,-0.0165
1785001.0,5.5474,1.0534,9.1985,-0.0623,0.1027,-0.0053
1785011.0,5.5689,0.9912,9.1578,-0.0766,0.0521,0.0176
1785021.0,5.6886,0.8859,8.9902,-0.0718,0.0112,0.0357
1785031.0,5.6695,0.8595,8.7269,-0.0628,-0.0043,0.0452
1785041.0,5.7269,0.8068,8.6167,-0.0782,0.0027,0.049
1785051.0,5.7293,0.7518,8.5521,-0.1043,0.0192,0.0468
1785061.0,5.7533,0.6129,8.6239,-0.1336,0.0309,0.0426
1785071.0,5.7628,0.4621,8.6862,-0.1421,0.033,0.0362
1785081.0,5.7916,0.3041,8.7676,-0.1128,0.0458,0.0261
1785091.0,5.8155,0.3639,8.7508,-0.058,0.0628,0.0069
1785101.0,5.7892,0.6201,8.6167,-0.0074,0.0926,-0.0154
1785111.0,5.7126,0.9266,8.6407,0.0059,0.124,-0.0245
1785121.0,5.6479,1.1157,8.7436,-0.0314,0.1293,-0.0154
1785131.0,5.636,1.1157,8.8083,-0.0862,0.1032,0.0064
1785141.0,5.703,0.8499,8.983,-0.1144,0.0761,0.0341
1785151.0,5.8059,0.7374,8.825,-0.0766,0.0591,0.0564
1785161.0,5.7485,0.6752,8.6072,-0.05,0.0431,0.0596
1785171.0,5.8107,0.7135,8.2983,-0.0245,0.0527,0.0569
1785181.0,5.8849,0.7685,8.1666,-0.0362,0.1027,0.0484
1785191.0,5.7916,0.7781,8.2887,-0.0984,0.1442,0.0372
1785201.0,5.7413,0.656,8.497,-0.1431,0.1618,0.033
1785211.0,5.7988,0.5267,8.5186,-0.132,0.1799,0.0362
1785221.0,5.8466,0.3304,8.6383,-0.0942,0.2065,0.0357
1785231.0,5.8849,0.2634,8.5808,-0.0553,0.2182,0.0208
1785241.0,5.9448,0.328,8.509,-0.0303,0.2363,-0.0011
1785251.0,5.8562,0.6153,8.4348,0.0069,0.2841,-0.0213
1785261.0,5.7078,0.9218,8.3941,-0.0011,0.3294,-0.0261
1785271.0,5.77,0.8859,8.43,-0.0628,0.3384,-0.0149
1785281.0,5.8993,0.6656,8.3199,-0.1474,0.3283,-0.009
1785291.0,5.9711,0.4118,8.0685,-0.2304,0.3336,-0.0213
1785301.0,6.177,0.17,7.9033,-0.3054,0.3735,-0.0585
1785311.0,6.1699,0.1437,7.6399,-0.3581,0.4645,-0.108
1785321.0,6.098,0.1628,7.8195,-0.4496,0.6008,-0.1623
1785331.0,5.7557,0.3567,8.3462,-0.5199,0.762,-0.2033
1785341.0,5.1188,0.5267,9.6486,-0.5321,0.9349,-0.2081
1785351.0,4.9728,0.6249,11.2911,-0.3523,1.1009,-0.1612
1785361.0,4.5059,0.9816,12.5289,-0.0825,1.1903,-0.0873
1785371.0,4.0294,1.1349,14.3532,0.0261,1.1164,-0.0138
1785381.0,3.7804,1.3096,15.3301,0.1107,0.8439,0.075
1785391.0,3.8738,0.984,15.9478,0.1453,0.4879,0.1692
1785401.0,3.9672,0.6776,15.8017,0.1261,0.1437,0.2267
1785411.0,3.8331,0.4788,15.9837,-0.0277,-0.1713,0.223
1785421.0,3.5817,0.5219,16.1106,-0.2448,-0.5193,0.1878
1785431.0,3.4022,0.5674,16.1297,-0.5103,-0.912,0.1458
1785441.0,3.5578,0.4453,16.3069,-0.737,-1.2835,0.1171
1785451.0,3.6296,0.3879,16.1058,-0.8966,-1.6538,0.0894
1785461.0,3.6176,0.2705,15.8329,-1.0456,-2.0673,0.0537
1785471.0,3.6272,0.5411,14.7722,-1.0802,-2.444,0.0266
1785481.0,3.723,0.6632,13.9414,-1.0807,-2.6967,0.0208
1785491.0,3.8116,0.7278,12.706,-1.0296,-2.9101,0.0452
1785501.0,4.13,0.2729,11.5688,-1.0206,-3.1139,0.0718
1785511.0,4.719,-0.1389,9.9718,-0.9621,-3.2507,0.0798
1785521.0,5.3079,-0.5076,8.327,-0.9339,-3.2821,0.0532
1785531.0,5.6072,-1.0056,7.2568,-1.0014,-3.2454,-0.0112
1785541.0,6.4045,-1.4557,6.1699,-1.0323,-3.1576,-0.1022
1785551.0,6.9552,-1.5443,5.1619,-1.0605,-3.0197,-0.2235
1785561.0,7.1204,-1.4174,4.5394,-1.1142,-2.8409,-0.3528
1785571.0,7.197,-1.2402,4.0917,-1.1323,-2.6478,-0.4571
1785581.0,7.4196,-1.1037,3.7397,-1.0999,-2.4456,-0.531
1785591.0,7.6543,-0.8906,3.3974,-1.0153,-2.2327,-0.5784
1785601.0,7.8075,-0.6991,3.4644,-0.9301,-2.0183,-0.6103
1785611.0,7.7788,-0.3663,3.8307,-0.7641,-1.8124,-0.6178
1785621.0,7.6902,0.1269,4.0725,-0.4991,-1.6437,-0.5859
1785631.0,7.6447,0.3926,3.9887,-0.2347,-1.541,-0.5135
1785641.0,7.8195,0.419,3.8379,-0.0383,-1.4867,-0.4294
1785651.0,7.8195,0.498,3.4141,0.1144,-1.4468,-0.3555
1785661.0,8.1139,0.4645,2.7701,0.1745,-1.425,-0.2996
1785671.0,8.3534,0.4884,2.1596,0.1394,-1.3824,-0.2735
1785681.0,8.3989,0.6393,1.8028,0.0553,-1.293,-0.2645
1785691.0,8.406,0.8715,1.5826,-0.0021,-1.1813,-0.2501
1785701.0,8.442,1.0774,1.5107,-0.0564,-1.069,-0.2283
1785711.0,8.3414,1.1875,1.3479,-0.0915,-0.969,-0.1932
1785721.0,8.4132,1.0894,1.154,-0.1368,-0.8806,-0.1517
1785731.0,8.4946,0.8428,1.1061,-0.166,-0.7806,-0.1197
1785741.0,8.5329,0.6488,1.0032,-0.1548,-0.6657,-0.1048
1785751.0,8.734,0.5339,0.8715,-0.1133,-0.5465,-0.1059
1785761.0,8.6407,0.5938,0.7302,-0.083,-0.4443,-0.1266
1785771.0,8.6215,0.8188,0.3448,-0.066,-0.3661,-0.1495
1785781.0,8.679,0.9649,-0.1341,-0.0575,-0.2794,-0.1666
1785791.0,8.5114,1.221,-0.6847,-0.1048,-0.1841,-0.1921
1785801.0,8.2456,1.6065,-1.2234,-0.232,-0.1144,-0.2299
1785811.0,7.7476,2.059,-1.9201,-0.4262,-0.0596,-0.2634
1785821.0,6.9863,2.3703,-2.5019,-0.6332,0.0106,-0.2815
1785831.0,6.3901,2.7318,-3.201,-0.7955,0.0702,-0.2895
1785841.0,5.5737,3.3974,-4.2186,-0.8647,0.1607,-0.2932
1785851.0,4.8554,4.8387,-5.703,-0.8892,0.273,-0.2847
1785861.0,3.9289,7.0701,-7.5729,-1.0062,0.3523,-0.2336
1785871.0,2.4732,9.572,-9.9599,-1.2345,0.4007,-0.0756
1785881.0,0.9912,11.71,-13.1897,-1.516,0.4954,0.2166
1785891.0,-0.4525,13.4961,-16.3859,-1.7911,0.7838,0.605
1785901.0,-2.6025,15.3899,-19.1249,-1.9438,1.3441,1.0754
1785911.0,-5.1667,17.4154,-21.0618,-1.8693,2.1614,1.6666
1785921.0,-8.3414,18.9908,-22.0243,-1.5437,3.2086,2.4153
1785931.0,-11.6981,19.6492,-21.9764,-0.9754,4.5065,3.3167
1785941.0,-16.3332,18.2007,-20.3363,-0.3906,5.9144,4.3144
1785951.0,-20.085,15.0523,-17.7626,0.0495,7.1202,5.2695
1785961.0,-23.6691,11.4443,-13.2878,0.4864,8.2488,6.0618
1785971.0,-28.6323,9.2129,-8.3989,1.177,9.2103,6.6849
1785981.0,-32.5492,8.8657,-6.3255,2.0151,9.7754,7.2314
1785991.0,-36.8779,5.533,-5.5641,2.6329,10.3246,7.8699
1786001.0,-40.2058,-1.0989,-3.4309,3.3284,11.3351,8.4132
1786011.0,-45.6933,-7.6926,-0.0814,4.375,12.7734,8.4409
1786021.0,-49.481,-14.631,4.8004,5.4057,14.383,7.8481
1786031.0,-51.6238,-20.9373,14.7698,6.0363,16.0405,6.5492
1786041.0,-54.0659,-20.5231,24.8351,6.2667,17.0702,4.5975
1786051.0,-55.0882,-17.8895,42.0087,5.5611,17.2389,2.4951
1786061.0,-52.6605,-8.2576,55.1672,4.8561,15.6207,0.7237
1786071.0,-47.1562,-0.6967,65.8262,3.1735,12.1614,-0.4507
1786081.0,-40.1627,4.8507,68.6633,1.9906,8.2919,-0.7583
1786091.0,-35.5323,7.8985,66.9658,1.4436,4.7448,-0.4954
1786101.0,-30.8277,10.2687,59.5893,1.1919,1.45,0.0474
1786111.0,-28.6849,8.5425,52.7491,0.6524,-1.1334,0.7263
1786121.0,-26.9252,3.4429,44.6662,0.1985,-3.3683,1.3244
1786131.0,-23.9612,-2.5067,36.672,0.2075,-4.9263,1.6378
1786141.0,-20.7362,-6.1459,26.8055,0.6002,-5.8234,1.6011
1786151.0,-17.0132,-8.2528,19.9174,0.7497,-6.0656,1.2409
1786161.0,-13.2926,-8.0541,14.0372,0.7944,-5.8309,0.6928
1786171.0,-10.2496,-6.4308,10.9822,0.4789,-5.3562,0.0612
1786181.0,-8.7724,-3.8307,9.335,0.0341,-4.8529,-0.4943
1786191.0,-8.0972,-1.0391,8.6479,-0.4156,-4.3947,-0.8583
1786201.0,-7.7093,0.6584,9.2775,-0.7567,-4.0222,-0.9998
1786211.0,-7.4699,1.5586,9.1435,-0.8296,-3.7785,-0.9557
1786221.0,-6.8378,1.5275,9.0285,-0.796,-3.5614,-0.8328
1786231.0,-6.5027,1.2905,8.5186,-0.6433,-3.2863,-0.6987
1786241.0,-6.177,1.154,7.9895,-0.5954,-3.0171,-0.6114
1786251.0,-5.4708,0.6991,8.102,-0.7668,-2.7829,-0.5768
1786261.0,-4.9273,-0.1604,8.8849,-1.0531,-2.5786,-0.5954
1786271.0,-4.4508,-1.0223,10.4124,-1.3297,-2.4626,-0.6747
1786281.0,-4.5442,-1.5874,12.2296,-1.3883,-2.4323,-0.7764
1786291.0,-4.7477,-1.9154,13.3381,-1.1696,-2.543,-0.8445
1786301.0,-4.7022,-2.2601,13.8529,-0.7875,-2.7601,-0.8939
1786311.0,-4.6208,-1.7957,12.9119,-0.2772,-2.9793,-0.9386
1786321.0,-4.8291,-1.1827,11.4515,0.0341,-3.173,-0.9786
1786331.0,-4.4508,-0.7901,9.9647,0.0644,-3.3417,-1.0291
1786341.0,-3.7876,-0.3711,8.7628,-0.1341,-3.3938,-1.1222
1786351.0,-3.565,0.146,8.497,-0.5332,-3.3699,-1.2531
1786361.0,-3.2992,0.565,8.7987,-0.9732,-3.3965,-1.375
1786371.0,-3.134,0.838,8.8729,-1.2829,-3.4864,-1.4543
1786381.0,-2.9305,0.8835,8.8178,-1.3936,-3.5508,-1.4793
1786391.0,-2.1811,0.5914,8.7747,-1.267,-3.5231,-1.4484
1786401.0,-1.7837,0.68,8.1499,-0.9482,-3.4481,-1.3989
1786411.0,-1.3958,0.8667,7.4747,-0.655,-3.3784,-1.3446
1786421.0,-0.7207,1.1875,6.6224,-0.4044,-3.2991,-1.2749
1786431.0,-0.3256,1.506,5.5593,-0.273,-3.2097,-1.1951
1786441.0,0.1101,1.5419,4.7429,-0.2948,-3.1123,-1.1148
1786451.0,0.7614,1.4341,3.9576,-0.3634,-2.9772,-1.0403
1786461.0,1.3336,1.1492,3.6536,-0.4401,-2.7617,-0.9791
1786471.0,1.6448,1.1181,3.4285,-0.4651,-2.5121,-0.9333
1786481.0,2.0782,1.0127,3.5362,-0.4917,-2.2929,-0.8924
1786491.0,2.6839,0.6967,3.5458,-0.4768,-2.0822,-0.8386
1786501.0,2.9353,0.4477,3.5769,-0.456,-1.8725,-0.8003
1786511.0,3.2489,0.1915,3.7996,-0.4608,-1.6937,-0.779
1786521.0,3.6583,-0.0096,3.9911,-0.4305,-1.5341,-0.7652
1786531.0,3.7661,-0.0048,4.391,-0.3544,-1.3569,-0.7609
1786541.0,3.8595,0.2322,4.4676,-0.2634,-1.2196,-0.7466
1786551.0,4.0701,0.3041,4.9488,-0.2075,-1.0946,-0.7199
1786561.0,4.1875,0.6225,4.956,-0.0761,-0.9546,-0.6737
1786571.0,4.3838,0.5459,5.2337,-0.049,-0.8461,-0.6162
1786581.0,4.7333,0.4573,5.442,-0.0314,-0.7684,-0.5699
1786591.0,4.7645,0.5962,5.4803,-0.0021,-0.6758,-0.5332
1786601.0,4.877,0.5746,5.7509,-0.0208,-0.6204,-0.489
1786611.0,5.1978,0.4645,5.624,-0.0378,-0.6114,-0.447
1786621.0,5.3558,0.419,5.284,-0.0213,-0.5539,-0.4108
1786631.0,5.5929,0.3855,5.1978,0.0192,-0.3991,-0.3767
1786641.0,5.4085,0.6081,5.4899,0.0623,-0.1841,-0.3491
1786651.0,5.4995,0.8308,5.9783,0.0564,-0.0133,-0.3139
1786661.0,5.5067,0.9744,6.6128,-0.0255,0.0952,-0.2682
1786671.0,5.3391,0.9385,7.4316,-0.1235,0.1458,-0.2097
1786681.0,5.3079,0.7494,8.0541,-0.1522,0.1421,-0.1357
1786691.0,5.4947,0.407,8.5138,-0.1091,0.116,-0.0623
1786701.0,5.3846,0.2514,8.7245,0.0074,0.1086,-0.0037
1786711.0,5.2936,0.2801,8.7173,0.1224,0.0952,0.0452
1786721.0,5.3343,0.0742,8.6335,0.1495,0.0436,0.0873
1786731.0,5.3917,-0.2897,8.3821,0.133,-0.0027,0.1171
1786741.0,5.4779,-0.7829,8.4659,0.0777,-0.017,0.1181
1786751.0,5.6719,-1.1205,8.521,0.0415,-0.0165,0.0825
1786761.0,5.6838,-1.087,8.4324,-0.0032,-0.0239,0.016
1786771.0,5.7341,-0.8667,8.4803,-0.0713,-0.0388,-0.0516
1786781.0,5.7461,-0.4908,8.3989,-0.1038,-0.0452,-0.0947
1786791.0,5.7317,-0.0694,8.2744,-0.1272,-0.0543,-0.108
1786801.0,5.5689,0.1484,8.1594,-0.1469,-0.0511,-0.0878
1786811.0,5.4444,0.0503,8.0852,-0.1431,-0.0314,-0.0367
1786821.0,5.5665,-0.4453,8.3462,-0.0835,0.0261,0.0197
1786831.0,5.6695,-0.747,8.3653,0.0825,0.0974,0.058
1786841.0,5.7964,-0.9122,8.3414,0.2448,0.1644,0.0644
1786851.0,5.8347,-0.8188,8.2648,0.3448,0.2155,0.0484
1786861.0,5.7269,-0.8068,8.3438,0.3565,0.2538,0.0239
1786871.0,5.928,-0.8882,8.4874,0.3368,0.2708,-0.0021
1786881.0,5.9089,-0.8428,8.6095,0.2916,0.2815,-0.0463
1786891.0,5.7676,-0.6416,8.691,0.2134,0.2703,-0.0958
1786901.0,5.6575,-0.4812,8.8083,0.1054,0.2299,-0.1336
1786911.0,5.636,-0.3759,8.8657,0.0442,0.199,-0.1554
1786921.0,5.5761,-0.1915,8.8609,0.0734,0.2219,-0.157
1786931.0,5.5138,-0.1245,8.9735,0.1245,0.2708,-0.1447
1786941.0,5.5019,-0.1484,9.1985,0.1862,0.3081,-0.1282
1786951.0,5.5115,-0.0431,9.2273,0.2533,0.3262,-0.1192
1786961.0,5.4827,0.2035,9.098,0.2746,0.3304,-0.1149
1786971.0,5.387,0.3543,9.2799,0.2261,0.3347,-0.1075
1786981.0,5.2912,0.4908,9.3853,0.1687,0.3278,-0.0889
1786991.0,5.2481,0.4357,9.7157,0.0937,0.3033,-0.0681
1787001.0,5.2409,0.3783,9.8402,0.0516,0.2538,-0.0452
1787011.0,5.2768,0.1389,9.8689,0.0138,0.2001,-0.025
1787021.0,5.3319,-0.0383,9.8641,-0.0271,0.1405,-0.0208
1787031.0,5.2816,-0.0814,9.845,-0.05,0.083,-0.0314
1787041.0,5.2026,0.0431,9.6079,-0.066,0.0245,-0.0378
1787051.0,5.2792,-0.091,9.4786,-0.1128,-0.0223,-0.0378
1787061.0,5.363,-0.1077,9.2608,-0.1107,-0.0351,-0.041
1787071.0,5.2888,-0.1173,9.268,-0.0984,-0.0149,-0.0458
1787081.0,5.3151,-0.0431,9.2512,-0.0559,0.0154,-0.0458
1787091.0,5.3103,0.1006,9.1459,-0.0149,0.0271,-0.0426
1787101.0,5.3534,0.1915,9.0764,-0.0027,0.0245,-0.0367
1787111.0,5.3798,0.3256,8.9376,0.0032,0.0255,-0.0213
1787121.0,5.3008,0.3831,8.8514,0.0005,0.0346,0.0
1787131.0,5.272,0.3472,8.8801,-0.0059,0.0484,0.0223
1787141.0,5.3319,0.2514,8.8202,-0.0037,0.066,0.0452
1787151.0,5.284,0.1006,8.9735,-0.0239,0.0803,0.0596
1787161.0,5.3654,-0.1101,9.0692,-0.0415,0.083,0.0639
1787171.0,5.4324,-0.3184,9.1985,-0.0223,0.091,0.0553
1787181.0,5.4444,-0.2825,9.2081,0.0277,0.1054,0.0346
1787191.0,5.3822,-0.0958,9.1482,0.0452,0.1075,0.0085
1787201.0,5.3247,0.1556,9.0597,0.0239,0.0958,-0.0096
1787211.0,5.296,0.3328,9.0381,-0.0176,0.0931,-0.0128
1787221.0,5.2577,0.4286,9.0668,-0.0623,0.0974,0.0
1787231.0,5.2026,0.3735,9.1075,-0.1123,0.0729,0.0223
1787241.0,5.3079,0.1173,9.1267,-0.1352,0.042,0.0495
1787251.0,5.387,-0.0766,9.0573,-0.0803,0.0633,0.067
1787261.0,5.351,-0.0551,8.8921,-0.0144,0.1022,0.0713
1787271.0,5.3319,-0.0886,9.1219,0.0016,0.1277,0.067
1787281.0,5.4109,-0.0527,9.098,0.0255,0.1368,0.0665
1787291.0,5.375,-0.1987,9.2416,0.016,0.1389,0.0644
1787301.0,5.4037,-0.3232,9.3063,0.0208,0.1261,0.0532
1787311.0,5.4492,-0.3136,9.2751,0.0559,0.1208,0.0357
1787321.0,5.4013,-0.1676,9.1602,0.0873,0.1203,0.0133
1787331.0,5.3223,0.1748,9.0285,0.0958,0.1181,-0.0064
1787341.0,5.1739,0.407,8.9208,0.0702,0.1187,-0.0074
1787351.0,5.0589,0.4501,8.8729,0.0149,0.1086,0.0112
1787361.0,5.0877,0.2131,8.9567,-0.033,0.1096,0.0394
1787371.0,5.2696,-0.1197,9.0333,-0.0266,0.1405,0.0543
1787381.0,5.2936,-0.2394,9.2368,-0.0011,0.1655,0.0415
1787391.0,5.2768,-0.0359,9.3134,0.0564,0.1889,0.0176
1787401.0,5.1811,0.2538,9.3709,0.0968,0.2112,0.0037
1787411.0,5.0206,0.4741,9.4284,0.0952,0.199,0.008
1787421.0,4.9991,0.4669,9.5792,0.074,0.166,0.0298
1787431.0,5.0063,0.3591,9.4619,0.0788,0.1346,0.0596
1787441.0,5.0661,0.1508,9.4667,0.0692,0.0995,0.0809
1787451.0,5.2457,-0.0359,9.2392,0.0591,0.0686,0.0819
1787461.0,5.2696,-0.0407,9.0285,0.0314,0.0607,0.0612
1787471.0,5.2218,0.1101,8.9615,-0.0309,0.0591,0.033
1787481.0,5.0877,0.1915,9.0692,-0.1149,0.0575,0.0138
1787491.0,5.0781,0.1149,9.256,-0.1442,0.0623,0.0154
1787501.0,5.0901,0.0622,9.3158,-0.1059,0.075,0.0234
1787511.0,5.0781,0.1556,9.2296,-0.0559,0.0788,0.0309
1787521.0,5.138,0.2466,9.1698,-0.0362,0.0878,0.0378
1787531.0,5.193,0.3089,9.1602,-0.0314,0.1117,0.0474
1787541.0,5.114,0.2777,9.2344,-0.05,0.1293,0.0591
1787551.0,5.1188,0.1245,9.3374,-0.0761,0.1197,0.0702
1787561.0,5.1499,-0.0383,9.4523,-0.0788,0.108,0.0756
1787571.0,5.1116,-0.067,9.4499,-0.0548,0.1006,0.074
1787581.0,5.0996,-0.0886,9.4236,-0.042,0.0899,0.0681
1787591.0,5.1547,-0.0694,9.4044,-0.041,0.0734,0.0564
1787601.0,5.1571,0.0359,9.3422,-0.041,0.0649,0.0474
1787611.0,5.1356,0.1484,9.2416,-0.0575,0.0463,0.0431
1787621.0,5.2241,0.1796,9.1722,-0.083,0.0314,0.0447
1787631.0,5.296,0.1963,8.9615,-0.0915,0.0367,0.0495
1787641.0,5.1978,0.2274,8.8657,-0.1224,0.0559,0.0495
1787651.0,5.1404,0.2634,8.8992,-0.1591,0.0809,0.05
1787661.0,5.1547,0.2849,9.0405,-0.174,0.1176,0.0564
1787671.0,5.1188,0.1987,9.1674,-0.1713,0.1437,0.0718
1787681.0,5.1308,0.0886,9.2943,-0.1485,0.1506,0.0899
1787691.0,5.3032,-0.0551,9.3972,-0.0761,0.1772,0.107
1787701.0,5.4157,-0.0192,9.3254,0.0016,0.2219,0.1112
1787711.0,5.3295,0.1269,9.3158,0.008,0.2432,0.1054
1787721.0,5.3941,0.17,9.3781,-0.0436,0.2538,0.1091
1787731.0,5.2768,0.0168,9.7947,-0.1038,0.273,0.1213
1787741.0,5.3151,-0.2107,10.252,-0.1203,0.2708,0.1373
1787751.0,5.3654,-0.395,10.5153,-0.0963,0.2277,0.1474
1787761.0,5.3893,-0.5219,10.5129,-0.0644,0.1506,0.149
1787771.0,5.4324,-0.6393,10.2352,-0.0644,0.0591,0.1341
1787781.0,5.4324,-0.7254,10.0078,-0.1107,0.0043,0.0984
1787791.0,5.2313,-0.6776,9.9311,-0.1697,0.0069,0.0527
1787801.0,5.1332,-0.6488,10.2903,-0.2496,0.0197,0.0069
1787811.0,4.9991,-0.3807,10.568,-0.307,-0.0011,-0.0351
1787821.0,4.7214,-0.0694,10.8984,-0.3528,-0.0314,-0.0516
1787831.0,4.6687,0.1221,11.2647,-0.356,-0.0516,-0.0303
1787841.0,4.8985,0.2083,11.7412,-0.3304,-0.0649,0.0085
1787851.0,4.8985,0.2634,12.1099,-0.2948,-0.1,0.0537
1787861.0,4.7309,0.1915,12.4187,-0.3102,-0.1756,0.1038
1787871.0,4.6352,-0.0886,12.7635,-0.3544,-0.2677,0.1559
1787881.0,4.6352,-0.5938,13.1274,-0.3847,-0.3544,0.2049
1787891.0,4.6064,-1.245,13.635,-0.439,-0.4715,0.2144
1787901.0,4.5657,-1.4964,13.9941,-0.4757,-0.6311,0.1729
1787911.0,4.4819,-1.6185,14.0947,-0.5353,-0.829,0.1075
1787921.0,4.3,-1.6233,14.2311,-0.655,-1.0722,0.0245
1787931.0,4.2306,-1.5874,14.1378,-0.7407,-1.3425,-0.0548
1787941.0,4.1779,-1.573,13.8145,-0.7258,-1.5735,-0.1117
1787951.0,4.2497,-1.3767,13.4291,-0.6364,-1.7288,-0.1559
1787961.0,4.2808,-0.984,13.0556,-0.5752,-1.873,-0.199
1787971.0,4.2473,-0.735,12.7467,-0.58,-2.0582,-0.2192
1787981.0,4.458,-0.589,12.0644,-0.5843,-2.2652,-0.2224
1787991.0,4.6304,-0.5411,11.212,-0.6034,-2.4344,-0.2128
1788001.0,4.8267,-0.589,10.5273,-0.6465,-2.552,-0.2086
1788011.0,4.9512,-0.4693,9.7109,-0.6854,-2.6425,-0.2166
1788021.0,5.0374,-0.3472,9.0022,-0.7689,-2.7345,-0.2336
1788031.0,5.2409,-0.1987,8.09,-0.8567,-2.809,-0.2442
1788041.0,5.4348,-0.1939,7.4867,-0.9546,-2.8378,-0.2421
1788051.0,5.6719,-0.2921,6.9959,-0.9961,-2.8314,-0.2331
1788061.0,6.0669,-0.6297,6.3327,-0.9637,-2.809,-0.2176
1788071.0,6.2608,-0.984,5.8275,-0.8892,-2.7595,-0.216
1788081.0,6.6583,-1.1085,4.9775,-0.7705,-2.6866,-0.232
1788091.0,6.924,-1.2785,4.3766,-0.6939,-2.5887,-0.2618
1788101.0,7.4053,-1.3527,3.8714,-0.5885,-2.4467,-0.3022
1788111.0,7.6614,-1.0702,3.4644,-0.5028,-2.2716,-0.3533
1788121.0,7.8697,-0.7518,3.2465,-0.5124,-2.1391,-0.4028
1788131.0,7.7644,-0.6656,3.0981,-0.6497,-2.0949,-0.4438
1788141.0,7.8362,-0.8715,2.9497,-0.8163,-2.1082,-0.4864
1788151.0,7.8602,-1.0343,2.6935,-0.8961,-2.0816,-0.5284
1788161.0,7.9176,-1.0367,2.4301,-0.8769,-2.021,-0.5763
1788171.0,7.9009,-0.6369,1.8292,-0.8141,-1.9747,-0.6242
1788181.0,7.8841,-0.1245,1.1708,-0.7758,-1.9433,-0.6545
1788191.0,8.2337,0.2634,0.2466,-0.7641,-1.9082,-0.6545
1788201.0,8.2073,0.5387,-0.7159,-0.7646,-1.8358,-0.6417
1788211.0,8.2791,0.8835,-1.9728,-0.7865,-1.7358,-0.629
1788221.0,8.2145,1.3288,-3.1292,-0.8482,-1.5953,-0.6178
1788231.0,8.0613,1.901,-4.5538,-0.9078,-1.4175,-0.5922
1788241.0,7.7859,2.4972,-5.6264,-1.028,-1.1973,-0.5598
1788251.0,7.4412,3.2801,-6.7995,-1.0999,-0.9456,-0.5066
1788261.0,6.8474,3.9576,-7.7716,-1.0797,-0.6486,-0.4241
1788271.0,5.952,5.1739,-9.3518,-0.9094,-0.323,-0.3203
1788281.0,4.8315,6.5242,-10.9295,-0.687,0.0851,-0.183
1788291.0,4.276,8.2217,-13.0173,-0.4459,0.5193,0.0085
1788301.0,3.0119,9.335,-13.8289,-0.3177,0.9913,0.2591
1788311.0,1.3767,10.2113,-15.4402,-0.1368,1.3489,0.563
1788321.0,-0.0239,10.9439,-18.3085,-0.0447,1.5724,0.8615
1788331.0,-2.2841,12.038,-21.8806,-0.0367,1.9199,1.1573
1788341.0,-4.7549,13.362,-25.7999,-0.1612,2.4498,1.4952
1788351.0,-7.4172,14.358,-28.5389,-0.3863,3.2603,1.9092
1788361.0,-11.3413,15.6629,-29.7312,-0.3379,4.5724,2.4445
1788371.0,-15.6677,16.4793,-28.1199,-0.067,6.1496,3.1389
1788381.0,-19.9341,15.4761,-24.5166,0.5992,7.8487,4.0052
1788391.0,-24.3418,13.204,-19.9317,1.6432,9.5434,4.8784
1788401.0,-29.2835,10.5249,-15.2056,2.7542,11.1243,5.6106
1788411.0,-35.3241,7.5298,-10.0987,3.6971,12.5978,6.1214
1788421.0,-43.2872,5.3558,-5.6096,4.6608,14.2787,6.4002
1788431.0,-52.6629,0.0862,1.8555,5.2269,16.2374,6.4912
1788441.0,-57.3555,-10.398,13.975,5.0391,17.4357,6.1257
1788451.0,-56.7306,-19.7929,29.5421,4.5756,17.4357,4.9018
1788461.0,-56.0195,-21.2988,46.5409,4.2356,17.4357,3.0054
1788471.0,-52.5575,-13.6661,57.5686,3.8472,15.9852,1.1052
1788481.0,-46.0046,-6.5266,66.7479,2.4536,12.6909,-0.3028
1788491.0,-38.3503,-0.2586,68.1103,0.8955,8.9555,-1.0328
1788501.0,-34.4526,0.3065,76.2003,-0.5507,5.6883,-1.1648
1788511.0,-29.9132,2.9473,70.4207,-0.2283,1.7368,-0.687
1788521.0,-26.8821,1.075,62.2708,-0.132,-2.1093,-0.083
1788531.0,-24.5789,-1.2881,48.4778,0.6013,-4.8385,0.5513
1788541.0,-21.1169,-4.3096,34.6489,1.1329,-6.5109,0.8854
1788551.0,-16.6684,-6.505,21.6053,1.2611,-7.1707,0.8046
1788561.0,-12.1554,-6.9647,13.204,0.9748,-6.6833,0.3954
1788571.0,-9.165,-6.2632,10.4938,0.332,-5.659,-0.1666
1788581.0,-7.1036,-4.561,10.5824,-0.24,-4.7837,-0.6965
1788591.0,-5.5737,-2.2984,11.0085,-0.5859,-4.2542,-1.0626
1788601.0,-4.7309,-0.747,11.6262,-0.6875,-3.9488,-1.2026
1788611.0,-4.3598,0.2969,10.8649,-0.4475,-3.7642,-1.1398
1788621.0,-3.6775,0.4262,9.7013,-0.1016,-3.5566,-0.9775
1788631.0,-3.2298,0.5578,8.2289,0.2724,-3.2299,-0.8083
1788641.0,-2.66,0.3089,7.6279,0.4901,-2.8127,-0.671
1788651.0,-2.3152,0.3352,7.9152,0.5433,-2.4291,-0.5933
1788661.0,-2.0566,0.4094,8.6766,0.4741,-2.1529,-0.5523
1788671.0,-2.1404,0.2514,9.5577,0.2783,-2.014,-0.5289
1788681.0,-1.968,-0.2921,10.5919,-0.0016,-2.0119,-0.5369
1788691.0,-1.7573,-0.3663,11.2982,-0.2485,-2.1263,-0.5954
1788701.0,-1.7095,-0.0144,11.6957,-0.4129,-2.2769,-0.655
1788711.0,-2.0159,0.1341,12.0021,-0.4369,-2.4115,-0.6582
1788721.0,-1.9345,-0.1508,11.7699,-0.2724,-2.5467,-0.6066
1788731.0,-1.7214,-0.3232,10.9056,0.0043,-2.6345,-0.5529
1788741.0,-0.9529,-0.3759,9.8282,0.2304,-2.6361,-0.5204
1788751.0,-0.4597,-0.3687,9.268,0.2559,-2.5909,-0.538
1788761.0,-0.7494,-0.1915,9.1411,0.1091,-2.593,-0.5986
1788771.0,-0.2705,0.0646,8.4874,-0.0819,-2.6685,-0.6625
1788781.0,0.0239,0.2873,7.8003,-0.3288,-2.6893,-0.721
1788791.0,0.3615,0.4501,7.6638,-0.5928,-2.6324,-0.779
1788801.0,0.3903,1.0056,7.6016,-0.7609,-2.5621,-0.8189
1788811.0,0.8595,1.1923,7.8865,-0.8583,-2.5164,-0.8099
1788821.0,1.0534,1.2689,7.999,-0.8312,-2.494,-0.7615
1788831.0,1.0798,1.1013,7.9942,-0.6822,-2.4908,-0.6737
1788841.0,1.7119,0.577,7.4723,-0.4284,-2.5004,-0.564
1788851.0,2.3487,0.2729,6.3614,-0.157,-2.4701,-0.4885
1788861.0,2.9018,0.1724,5.1475,-0.0053,-2.3769,-0.4629
1788871.0,3.2729,0.3232,4.2545,0.0037,-2.2099,-0.4741
1788881.0,3.4285,0.5195,3.7206,-0.1139,-1.996,-0.4943
1788891.0,3.5745,0.5722,3.8595,-0.332,-1.8081,-0.513
1788901.0,3.8427,0.6512,4.2353,-0.5108,-1.648,-0.5257
1788911.0,4.0701,0.5674,4.6304,-0.5188,-1.4591,-0.5013
1788921.0,4.1755,0.3065,5.3199,-0.3544,-1.2249,-0.4491
1788931.0,4.1228,0.2203,5.8442,-0.1144,-1.0493,-0.3932
1788941.0,4.3096,0.0575,6.3351,0.124,-0.961,-0.3437
1788951.0,4.4987,0.1437,6.3255,0.3884,-0.8897,-0.2959
1788961.0,4.7381,0.1939,6.28,0.5624,-0.82,-0.2581
1788971.0,4.9273,0.328,6.2968,0.5827,-0.7982,-0.2485
1788981.0,5.0877,0.6704,6.1842,0.4805,-0.8274,-0.2597
1788991.0,5.1044,1.0391,5.861,0.2943,-0.8711,-0.265
1789001.0,5.3678,1.1492,5.7221,0.0942,-0.8822,-0.2448
1789011.0,5.3798,1.1492,5.3917,-0.1022,-0.8647,-0.2139
1789021.0,5.5833,0.7661,5.3127,-0.3145,-0.8248,-0.1841
1789031.0,6.0621,0.3208,5.1595,-0.4938,-0.7556,-0.1751
1789041.0,6.1411,0.1317,5.2696,-0.6486,-0.6417,-0.1979
1789051.0,6.2393,0.1987,5.636,-0.7215,-0.5183,-0.2187
1789061.0,6.3446,0.158,6.1627,-0.6811,-0.3975,-0.2081
1789071.0,6.292,0.2538,6.3997,-0.522,-0.2841,-0.174
1789081.0,6.177,0.3496,6.4883,-0.3384,-0.1846,-0.1288
1789091.0,6.1531,0.2083,6.699,-0.1687,-0.0777,-0.0702
1789101.0,6.2393,0.0479,6.9001,0.0069,0.0388,-0.0165
1789111.0,6.177,-0.0599,7.2209,0.1362,0.1341,0.0138
1789121.0,6.1962,-0.0934,7.4915,0.2102,0.1761,0.0271
1789131.0,6.1531,0.0024,7.7716,0.2682,0.2081,0.0271
1789141.0,6.0525,0.3041,7.9679,0.3209,0.241,0.0325
1789151.0,5.7892,0.5028,8.2408,0.2868,0.223,0.0474
1789161.0,5.9065,0.3735,8.3462,0.2054,0.1458,0.0766
1789171.0,5.9616,0.1053,8.3318,0.1463,0.0809,0.1038
1789181.0,6.1004,-0.2658,8.3989,0.1256,0.0367,0.1187
1789191.0,6.2776,-0.5291,8.1044,0.1405,-0.0165,0.1123
1789201.0,6.4691,-0.5291,7.6662,0.1288,-0.0468,0.0708
1789211.0,6.3973,-0.1748,7.288,0.0772,-0.0335,0.0218
1789221.0,6.2058,0.0144,7.2305,-0.0239,-0.0218,-0.0032
1789231.0,6.2513,-0.1437,7.2353,-0.0676,-0.0021,0.0021
1789241.0,6.3901,-0.2873,7.0078,-0.0037,0.0553,0.0181
1789251.0,6.4667,-0.5076,7.082,0.0974,0.166,0.0218
1789261.0,6.5386,-0.3783,7.1204,0.257,0.3086,0.0165
1789271.0,6.4045,-0.0862,7.1802,0.3698,0.4385,0.0048
1789281.0,6.2704,0.2466,7.422,0.3602,0.5092,-0.0043
1789291.0,6.1316,0.4621,7.774,0.2788,0.5401,0.0011
1789301.0,5.9831,0.4788,8.1427,0.2081,0.5571,0.0239
1789311.0,5.8993,0.3735,8.3893,0.1469,0.5444,0.0479
1789321.0,5.7724,0.1963,8.5281,0.0761,0.5087,0.0617
1789331.0,5.8012,-0.0575,8.6431,0.0112,0.4853,0.0617
1789341.0,5.7868,-0.1987,8.8657,-0.0303,0.505,0.0426
1789351.0,5.6407,-0.0886,9.1866,-0.0835,0.5119,0.0106
1789361.0,5.5713,-0.0742,9.5577,-0.1602,0.4502,-0.0128
1789371.0,5.6431,-0.1269,9.5457,-0.1809,0.3682,-0.0186
1789381.0,5.7006,-0.2562,9.6199,-0.1357,0.3358,-0.0181
1789391.0,5.636,-0.2514,9.6295,-0.0287,0.3469,-0.0186
1789401.0,5.6455,-0.091,9.6223,0.0782,0.3464,-0.0208
1789411.0,5.5258,0.17,9.3326,0.1383,0.3171,-0.0186
1789421.0,5.5929,0.2107,9.1243,0.1272,0.2836,-0.0069
1789431.0,5.7078,0.1389,8.9783,0.1091,0.2889,0.0085
1789441.0,5.6695,0.1245,8.9112,0.0952,0.3182,0.0122
1789451.0,5.6264,0.1652,9.0764,0.0681,0.3437,0.0085
1789461.0,5.5617,0.1939,9.2153,0.0681,0.3645,0.0117
1789471.0,5.4755,0.0838,9.4284,0.0617,0.3576,0.0208
1789481.0,5.5258,-0.1796,9.6151,0.0532,0.3076,0.0271
1789491.0,5.5833,-0.3855,9.4906,0.0729,0.2554,0.016
1789501.0,5.6144,-0.3783,9.2967,0.1059,0.2192,-0.0101
1789511.0,5.6407,-0.2777,9.0309,0.1133,0.1932,-0.0452
1789521.0,5.7078,-0.0551,8.7556,0.0968,0.1948,-0.0772
1789531.0,5.5761,0.1341,8.8394,0.0718,0.2426,-0.099
1789541.0,5.4564,0.3472,8.8729,0.0591,0.2724,-0.1038
1789551.0,5.3965,0.4022,8.8202,0.0399,0.2719,-0.0937
1789561.0,5.5258,0.3903,8.7269,0.0303,0.2804,-0.0803
1789571.0,5.4971,0.4405,8.8657,0.0458,0.3539,-0.0729
1789581.0,5.2744,0.6345,9.1698,0.0612,0.422,-0.0633
1789591.0,5.1619,0.656,9.5241,0.0266,0.4156,-0.0468
1789601.0,5.1188,0.5459,9.6941,0.0037,0.3688,-0.0213
1789611.0,5.193,0.3783,9.742,0.0117,0.3459,0.0027
1789621.0,5.2026,0.2155,9.7731,0.0229,0.323,0.0138
1789631.0,5.1906,0.1652,9.6822,0.0138,0.2794,0.0096
1789641.0,5.1858,0.1772,9.5936,-0.0122,0.2485,-0.0032
1789651.0,5.1332,0.2969,9.596,-0.0234,0.2687,-0.0138
1789661.0,4.9416,0.3017,9.8617,-0.0697,0.2623,-0.0165
1789671.0,4.9967,0.1724,9.8809,-0.1293,0.1841,-0.016
1789681.0,5.0398,-0.0239,9.9144,-0.1564,0.1197,-0.0229
1789691.0,5.0637,-0.0239,9.7252,-0.1277,0.0862,-0.0372
1789701.0,4.9704,0.1389,9.7324,-0.0873,0.0649,-0.0564
