time_ms,ax,ay,az,gx,gy,gz
1754111.0,1.0175,0.814,10.3286,-0.0628,0.1245,-0.0053
1754121.0,0.9577,0.8739,10.4746,-0.0596,0.1336,0.0
1754131.0,0.9242,0.8667,10.5345,-0.0527,0.1277,0.0096
1754141.0,0.984,0.8404,10.5273,-0.0346,0.1224,0.0213
1754151.0,0.9242,0.8116,10.5441,-0.0213,0.1224,0.0303
1754161.0,0.9529,0.7422,10.5273,-0.0277,0.1107,0.0346
1754171.0,0.972,0.644,10.6207,-0.0357,0.1048,0.0319
1754181.0,0.9098,0.6464,10.6757,-0.0378,0.1006,0.0239
1754191.0,0.917,0.6393,10.6805,-0.042,0.0867,0.0176
1754201.0,0.8882,0.644,10.659,-0.0511,0.0718,0.0096
1754211.0,0.8882,0.644,10.659,-0.0511,0.0718,0.0096
1754221.0,0.8835,0.7877,10.6757,-0.0537,0.0649,0.0053
1754231.0,0.893,0.8284,10.7571,-0.0639,0.0559,0.0074
1754241.0,0.8906,0.8452,10.7093,-0.075,0.0346,0.0144
1754251.0,0.9361,0.8164,10.659,-0.0825,0.017,0.025
1754261.0,0.9768,0.7398,10.635,-0.0809,0.0048,0.0367
1754271.0,0.9984,0.5842,10.5034,-0.0931,-0.0176,0.0399
1754281.0,1.0487,0.407,10.4387,-0.0995,-0.0261,0.0341
1754291.0,1.0511,0.3687,10.2855,-0.0798,-0.0069,0.0229
1754301.0,1.0463,0.3591,10.2592,-0.0686,0.016,0.0074
1754311.0,1.0295,0.4429,10.2424,-0.0548,0.0436,-0.0069
1754321.0,1.0199,0.5626,10.3046,-0.0399,0.0745,-0.0165
1754331.0,0.984,0.6608,10.4244,-0.0255,0.0979,-0.0197
1754341.0,0.9816,0.7159,10.5321,-0.0255,0.0984,-0.0154
1754351.0,0.9984,0.7278,10.6111,-0.0287,0.0851,-0.0085
1754361.0,1.0056,0.735,10.6015,-0.0335,0.0654,-0.0027
1754371.0,1.0151,0.7207,10.4962,-0.0479,0.0426,0.0
1754381.0,0.9984,0.7278,10.4339,-0.0713,0.0266,-0.0021
1754391.0,0.9744,0.7973,10.4459,-0.1006,0.0186,-0.0048
1754401.0,0.9218,0.8068,10.5345,-0.1282,0.0096,-0.0043
1754411.0,0.9457,0.723,10.5752,-0.1293,-0.0096,0.0059
1754421.0,0.9625,0.5555,10.4986,-0.0974,-0.0202,0.0165
1754431.0,0.996,0.4956,10.2017,-0.0644,-0.016,0.0133
1754441.0,1.0487,0.4429,10.1035,-0.0628,-0.0053,0.0005
1754451.0,1.0319,0.4788,10.1035,-0.0708,0.016,-0.0192
1754461.0,1.0295,0.5387,10.1682,-0.0803,0.0271,-0.0372
1754471.0,0.972,0.735,10.1562,-0.0734,0.0367,-0.0468
1754481.0,0.9457,0.9313,10.1299,-0.0692,0.0458,-0.0452
1754491.0,0.9649,0.9744,10.1682,-0.0734,0.0537,-0.0325
1754501.0,0.9505,0.9553,10.1897,-0.0761,0.0644,-0.0154
1754511.0,0.9313,0.8691,10.1514,-0.0692,0.0713,0.0021
1754521.0,0.9266,0.7254,10.1634,-0.0543,0.0793,0.0133
1754531.0,0.9601,0.759,10.0676,-0.0378,0.099,0.0154
1754541.0,0.9457,0.8595,10.1586,-0.0506,0.1181,0.0085
1754551.0,0.9337,0.8835,10.3573,-0.0889,0.1213,0.0048
1754561.0,0.9098,0.8954,10.4363,-0.1101,0.1048,0.0144
1754571.0,0.9673,0.8308,10.3741,-0.1,0.0862,0.0293
1754581.0,1.0032,0.7781,10.2208,-0.0835,0.0766,0.0394
1754591.0,1.0223,0.6823,10.07,-0.0968,0.0686,0.0442
1754601.0,1.0846,0.4956,10.0963,-0.1112,0.0825,0.0474
1754611.0,1.0774,0.4453,9.9144,-0.0915,0.1133,0.0426
1754621.0,1.087,0.4381,9.9,-0.0883,0.1469,0.0303
1754631.0,1.0463,0.5626,10.0173,-0.0889,0.1958,0.0165
1754641.0,1.0127,0.735,10.2065,-0.0857,0.2373,0.0133
1754651.0,0.8547,0.7733,10.3118,-0.0926,0.2384,0.0218
1754661.0,0.9313,0.5315,10.4339,-0.0841,0.2389,0.0415
1754671.0,0.8188,0.2825,10.6303,0.0053,0.3086,0.0564
1754681.0,0.7063,0.2394,10.8601,0.0607,0.3283,0.0426
1754691.0,0.6536,0.4166,11.0301,0.0676,0.3108,0.0176
1754701.0,0.6105,0.4884,11.2767,0.0463,0.3017,-0.0005
1754711.0,0.4334,0.5794,11.7148,0.0133,0.265,-0.017
1754721.0,0.4094,0.668,11.8657,-0.0133,0.1889,-0.0277
1754731.0,0.3519,0.7494,11.734,-0.049,0.1059,-0.0319
1754741.0,0.3615,0.826,11.9016,-0.1309,0.0601,-0.0468
1754751.0,0.2538,0.929,12.2128,-0.2251,-0.0154,-0.058
1754761.0,0.2849,0.996,12.2679,-0.2889,-0.133,-0.0569
1754771.0,0.2562,0.9577,12.1434,-0.3161,-0.2166,-0.041
1754781.0,0.2729,0.9816,12.1362,-0.3331,-0.2788,-0.0277
1754791.0,0.2873,1.0151,12.208,-0.34,-0.3374,-0.0128
1754801.0,0.3304,0.9026,12.4259,-0.3544,-0.4044,0.009
1754811.0,0.3903,0.8236,12.3804,-0.3555,-0.5103,0.0298
1754821.0,0.5483,0.7566,12.2368,-0.3336,-0.6119,0.0495
1754831.0,0.5986,0.668,11.8705,-0.3028,-0.7013,0.074
1754841.0,0.8547,0.3974,11.5664,-0.2847,-0.7774,0.091
1754851.0,1.0032,0.3256,11.2097,-0.2166,-0.7934,0.0984
1754861.0,1.1325,0.3472,10.975,-0.1623,-0.7902,0.1
1754871.0,1.3503,0.3304,10.6326,-0.1341,-0.8019,0.1075
1754881.0,1.482,0.1508,10.4315,-0.0968,-0.7998,0.1176
1754891.0,1.5419,0.0024,10.1658,-0.0277,-0.7524,0.1197
1754901.0,1.719,-0.0646,10.0317,0.0436,-0.6896,0.1107
1754911.0,1.6568,-0.0455,10.1897,0.0952,-0.6167,0.091
1754921.0,1.7047,0.0503,10.5489,0.158,-0.5587,0.0734
1754931.0,1.8172,0.2825,10.659,0.2192,-0.547,0.0633
1754941.0,1.8148,0.3879,10.7595,0.2198,-0.5731,0.0553
1754951.0,1.7789,0.5171,10.6015,0.1501,-0.6284,0.041
1754961.0,1.7071,0.4525,10.7859,0.0282,-0.6811,0.0208
1754971.0,1.8603,0.237,11.2408,-0.0186,-0.6886,0.0059
1754981.0,1.7214,0.34,11.3533,-0.0069,-0.7253,-0.0149
1754991.0,1.7238,0.419,11.4084,-0.0474,-0.8253,-0.0388
1755001.0,1.8818,0.4573,11.5975,-0.0803,-0.8987,-0.0564
1755011.0,1.9082,0.6512,11.643,-0.0436,-0.9429,-0.0628
1755021.0,1.9178,0.9864,11.3868,-0.0415,-1.0339,-0.0644
1755031.0,2.1739,1.1564,11.145,-0.1128,-1.1393,-0.0543
1755041.0,2.3703,0.9098,11.0085,-0.1846,-1.2143,-0.0282
1755051.0,2.5546,0.7063,10.5369,-0.2107,-1.2765,-0.0138
1755061.0,2.8347,0.4286,10.1323,-0.248,-1.3154,-0.017
1755071.0,3.0478,0.4812,9.6989,-0.2522,-1.3047,-0.0357
1755081.0,3.2058,0.6488,9.0261,-0.2943,-1.2829,-0.058
1755091.0,3.4309,0.7877,8.7556,-0.3938,-1.2265,-0.0841
1755101.0,3.4907,0.9912,8.8609,-0.4704,-1.135,-0.0947
1755111.0,3.565,1.0487,8.9376,-0.5273,-1.0935,-0.0782
1755121.0,3.7709,0.747,9.1722,-0.5146,-1.0589,-0.0372
1755131.0,3.7924,0.4956,8.9328,-0.4273,-1.0408,0.0059
1755141.0,4.1372,-0.0144,8.7436,-0.3443,-1.0302,0.0378
1755151.0,4.3574,-0.3089,8.2839,-0.2325,-1.0089,0.042
1755161.0,4.4197,-0.3591,7.6207,-0.1623,-0.9945,0.0229
1755171.0,4.5633,-0.5531,6.8067,-0.1373,-0.9684,-0.0027
1755181.0,4.7812,-0.7781,6.1914,-0.107,-0.8423,-0.0383
1755191.0,4.9225,-0.6632,5.7892,-0.0708,-0.6364,-0.1006
1755201.0,4.9368,-0.237,5.5522,-0.1517,-0.481,-0.1799
1755211.0,4.8794,0.2825,5.5617,-0.3203,-0.3767,-0.2442
1755221.0,4.7429,0.759,5.5593,-0.4709,-0.2948,-0.2692
1755231.0,4.4819,1.1157,5.8012,-0.5438,-0.2496,-0.2496
1755241.0,4.3431,1.6281,4.9321,-0.4629,-0.2554,-0.1809
1755251.0,4.47,2.2027,3.237,-0.4097,-0.281,-0.0937
1755261.0,4.8195,2.8084,0.9673,-0.4895,-0.2474,-0.0016
1755271.0,5.0973,3.4285,-2.2434,-0.861,-0.1761,0.0756
1755281.0,5.1882,3.4812,-4.6112,-1.6714,-0.0479,0.1277
1755291.0,4.9416,3.3208,-5.8682,-2.4999,0.2783,0.1942
1755301.0,4.1013,3.2825,-7.2903,-3.0974,0.7109,0.2948
1755311.0,3.2489,3.1532,-8.4659,-3.595,1.1898,0.4225
1755321.0,1.8627,3.4979,-8.5641,-3.7876,1.9672,0.6242
1755331.0,-0.2107,3.4189,-6.5769,-3.6333,2.8761,0.9695
1755341.0,-1.4317,1.8555,-3.9073,-2.9405,3.7594,1.4777
1755351.0,-2.7414,0.1269,-1.6424,-1.6788,4.6959,1.9757
1755361.0,-4.1922,-0.9744,0.1532,-0.2144,5.6298,2.3424
1755371.0,-5.6144,-2.1835,2.5546,1.1483,6.5732,2.5813
1755381.0,-6.8043,-3.3878,5.5282,2.2024,7.398,2.6616
1755391.0,-8.2863,-4.5035,10.386,2.8271,7.9609,2.5488
1755401.0,-9.4403,-4.8866,15.3085,3.1953,8.0801,2.2993
1755411.0,-9.8497,-4.8961,19.7498,3.2459,7.6906,1.9635
1755421.0,-9.6462,-5.0039,23.7936,3.0644,6.9771,1.6038
1755431.0,-9.5002,-5.1691,27.1694,2.7718,6.0512,1.226
1755441.0,-9.323,-4.5945,28.491,2.3684,4.8726,0.7992
1755451.0,-8.8873,-3.7326,28.9363,1.7171,3.6322,0.3464
1755461.0,-8.7077,-2.5809,29.0872,0.8812,2.4738,-0.0803
1755471.0,-8.8969,-1.8268,29.5875,0.017,1.326,-0.423
1755481.0,-8.7125,-1.8052,28.6969,-0.5715,0.1378,-0.6385
1755491.0,-8.2217,-1.743,26.4727,-0.8189,-0.8594,-0.787
1755501.0,-7.9009,-1.0247,23.6403,-0.8397,-1.5495,-0.8924
1755511.0,-7.5154,-0.34,20.7649,-0.845,-2.055,-0.9418
1755521.0,-6.8714,0.1484,18.3803,-0.8391,-2.3626,-0.9285
1755531.0,-6.2896,0.3017,17.0108,-0.7567,-2.4424,-0.8626
1755541.0,-5.7293,0.395,16.3668,-0.5279,-2.4147,-0.7599
1755551.0,-5.2601,0.8332,15.3157,-0.2315,-2.4099,-0.6343
1755561.0,-4.6448,0.9337,14.2216,-0.125,-2.4887,-0.4991
1755571.0,-4.1108,0.5866,13.046,-0.157,-2.5797,-0.3677
1755581.0,-3.6057,-0.1293,12.3253,-0.2001,-2.585,-0.2591
1755591.0,-2.9473,-0.7661,12.0261,-0.1064,-2.4717,-0.1846
1755601.0,-2.0925,-1.1181,11.631,0.0378,-2.3775,-0.1586
1755611.0,-1.5443,-0.972,10.8816,0.0511,-2.3738,-0.191
1755621.0,-1.5012,-0.6847,10.6829,-0.041,-2.3663,-0.2416
1755631.0,-1.415,-0.237,10.2472,-0.058,-2.3333,-0.2559
1755641.0,-1.1253,-0.1724,10.1754,-0.0458,-2.286,-0.2256
1755651.0,-0.8236,-0.5962,10.3214,0.0468,-2.2013,-0.1703
1755661.0,-0.7542,-0.7374,10.1227,0.1958,-2.1545,-0.1346
1755671.0,-0.5578,-0.9792,10.1706,0.3656,-2.1215,-0.1117
1755681.0,-0.5124,-0.893,10.2855,0.6566,-2.0156,-0.0697
1755691.0,0.7326,-0.6345,8.6814,0.9509,-1.9662,-0.0128
1755701.0,1.3264,-0.9385,8.6814,0.8892,-1.8752,-0.0266
1755711.0,1.3934,-1.0822,8.9112,0.8008,-1.7038,-0.058
1755721.0,1.5706,-1.5275,9.1363,0.5795,-1.715,-0.1336
1755731.0,1.8483,-1.47,8.758,0.3081,-1.8129,-0.2634
1755741.0,0.3998,0.1173,8.6095,0.0623,-1.7496,-0.4033
1755751.0,0.4166,0.1628,10.0293,-0.174,-1.7299,-0.4209
1755761.0,2.2721,0.2969,9.4379,-0.265,-1.9486,-0.4156
1755771.0,2.7557,0.237,9.5672,-0.1777,-1.8337,-0.4055
1755781.0,1.5586,0.1221,10.8577,0.0772,-1.5234,-0.3528
1755791.0,1.8387,-0.4022,12.1673,0.249,-1.5543,-0.3198
1755801.0,2.1668,-0.5986,13.5608,0.4651,-1.7081,-0.3794
1755811.0,2.0518,-0.1844,11.8345,0.7178,-1.9741,-0.4092
1755821.0,1.7861,-0.5291,11.4802,0.6119,-2.1875,-0.4784
1755831.0,0.9816,0.8763,8.6862,0.2543,-2.4238,-0.5949
1755841.0,2.2745,1.3958,6.699,-0.6784,-2.7691,-0.7082
1755851.0,3.4692,1.6592,6.3997,-1.6256,-2.6765,-0.7641
1755861.0,4.3862,0.7949,7.2281,-2.4935,-2.7111,-0.7891
1755871.0,6.9456,-2.2434,7.8314,-2.767,-2.692,-0.8226
1755881.0,4.4652,-3.2777,6.7062,-2.4844,-2.5137,-0.9642
1755891.0,5.2122,-3.62,3.3639,-2.0263,-2.204,-1.1536
1755901.0,6.1938,-5.2361,4.6448,-2.3179,-1.9044,-1.4686
1755911.0,6.1076,-4.9081,5.4085,-2.1912,-1.4771,-1.8113
1755921.0,5.8131,-4.7118,7.0605,-1.6958,-1.1467,-2.0258
1755931.0,5.5737,-4.118,6.5912,-0.7865,-0.8657,-2.0774
1755941.0,4.81,-2.7054,5.6336,0.0564,-0.638,-2.1024
1755951.0,4.8578,-0.1796,3.2729,0.589,-0.5289,-2.0545
1755961.0,4.786,1.9489,2.2338,0.6822,-0.2309,-1.8571
1755971.0,4.968,3.0143,3.7086,0.6508,0.199,-1.6224
1755981.0,4.8578,4.3862,3.383,0.9504,0.4624,-1.3718
1755991.0,5.6767,5.8155,0.4669,1.1675,0.6949,-1.0328
1756001.0,6.0214,6.4165,-0.9553,0.8051,1.2425,-0.6806
1756011.0,5.023,5.3774,0.6488,0.0351,1.757,-0.3677
1756021.0,4.4748,5.3678,-2.0877,-0.8328,1.8507,-0.1325
1756031.0,3.3591,0.8092,7.9487,-1.7405,2.3195,-0.0218
1756041.0,4.6088,4.4819,6.9528,-0.3379,2.9341,0.1644
1756051.0,3.9073,2.332,12.4211,0.5151,3.074,0.5002
1756061.0,3.7206,3.0239,9.3613,1.5511,2.7031,0.8141
1756071.0,2.5426,1.008,10.5824,1.6639,2.5621,1.019
1756081.0,2.0997,-1.1253,12.3206,1.7948,2.3956,1.094
1756091.0,2.5546,-1.4389,12.0859,1.9662,2.112,0.9684
1756101.0,2.4924,-0.7159,12.0428,1.9316,1.9507,0.7301
1756111.0,1.6927,0.3974,12.9814,1.5442,1.789,0.5092
1756121.0,1.3384,0.7709,14.8105,0.8886,1.3638,0.3427
1756131.0,1.2474,0.8954,15.6413,0.456,0.9009,0.2655
1756141.0,1.2234,0.5866,15.7538,0.0851,0.4448,0.224
1756151.0,1.3551,0.0383,16.1465,-0.3182,-0.0144,0.1474
1756161.0,1.3384,0.2921,16.0651,-0.4986,-0.3257,0.0585
1756171.0,1.1013,1.0104,16.5152,-0.5949,-0.5231,-0.0144
1756181.0,1.3575,1.3719,16.939,-0.6151,-0.7146,-0.0218
1756191.0,1.5179,1.47,17.4011,-0.6167,-0.9312,-0.0133
1756201.0,1.6352,1.5658,17.6596,-0.5646,-1.1701,0.0037
1756211.0,1.9848,1.6424,17.2119,-0.4746,-1.4367,0.042
1756221.0,2.4134,1.5227,16.168,-0.4832,-1.7453,0.0761
1756231.0,2.5091,1.1157,15.0763,-0.6199,-2.0375,0.0889
1756241.0,3.2801,0.158,13.9893,-0.7732,-2.2727,0.0777
1756251.0,3.6272,-0.2442,12.7922,-0.7726,-2.3424,0.0064
1756261.0,3.8954,0.2346,11.631,-0.6859,-2.2641,-0.0798
1756271.0,4.2832,0.8739,10.9391,-0.6385,-2.1332,-0.1304
1756281.0,4.3838,1.5778,10.2615,-0.6556,-2.0337,-0.1352
1756291.0,4.537,1.5347,10.5393,-0.7412,-1.9646,-0.0905
1756301.0,4.719,1.3168,9.8976,-0.6678,-1.9513,-0.0021
1756311.0,5.205,0.5626,9.0142,-0.5593,-1.9571,0.0819
1756321.0,5.6575,-0.2131,7.8314,-0.3767,-1.8491,0.1277
1756331.0,5.7174,-0.9218,7.4077,-0.2469,-1.6815,0.1054
1756341.0,5.928,-1.3695,7.0318,-0.1745,-1.5958,0.0309
1756351.0,6.0693,-1.2282,5.9328,-0.1948,-1.6501,-0.0899
1756361.0,6.0837,-0.905,4.9656,-0.3193,-1.7379,-0.2304
1756371.0,5.7317,0.237,3.1891,-0.3315,-1.7996,-0.3416
1756381.0,5.8227,1.8603,1.0199,-0.3432,-1.8619,-0.3996
1756391.0,5.8849,3.6009,-1.6161,-0.2969,-1.8507,-0.3634
1756401.0,5.9328,5.193,-5.5091,-0.1974,-1.7086,-0.2097
1756411.0,6.1028,5.6048,-9.0956,-0.2011,-1.3431,0.0261
1756421.0,5.3199,5.7772,-12.4953,-0.3257,-0.7726,0.2714
1756431.0,5.454,4.209,-13.7762,-0.5667,-0.0388,0.522
1756441.0,5.0925,2.4062,-13.8433,-0.4715,0.9674,0.7199
1756451.0,4.1204,1.0511,-12.3038,-0.0952,2.0651,0.8205
1756461.0,3.3495,0.2466,-10.6039,0.4848,3.0687,0.8583
1756471.0,2.6456,0.3017,-8.928,1.0695,3.9871,0.8434
1756481.0,1.4772,1.1827,-6.3279,1.4234,4.7949,0.7913
1756491.0,0.4836,2.7677,-3.4165,1.5676,5.3477,0.7593
1756501.0,-0.7566,4.7453,-1.3192,1.5926,5.6675,0.8163
1756511.0,-2.308,6.3351,0.1939,1.4032,5.8389,0.9919
1756521.0,-3.79,5.7652,1.8579,1.0546,5.9809,1.3037
1756531.0,-5.5593,3.0981,3.9504,0.7242,6.2007,1.6538
1756541.0,-5.9137,-1.2354,7.1778,0.513,6.4982,1.8826
1756551.0,-7.1658,-4.9273,11.0588,0.4395,6.7456,1.8395
1756561.0,-7.446,-8.0852,16.1465,0.5204,6.8573,1.5591
1756571.0,-7.8985,-8.746,21.1767,0.895,6.8403,1.0664
1756581.0,-8.181,-7.1419,25.8239,1.2212,6.504,0.4959
1756591.0,-8.2169,-4.446,29.8892,1.1488,5.7378,-0.016
1756601.0,-7.9775,-2.0494,32.9706,0.6806,4.607,-0.3922
1756611.0,-7.9727,-0.9146,34.589,0.0298,3.2773,-0.621
1756621.0,-7.9823,0.0718,34.9889,-0.4858,2.0827,-0.7551
1756631.0,-8.691,1.0463,35.5419,-0.862,1.1111,-0.8104
1756641.0,-8.679,1.5251,35.8005,-1.0419,0.1708,-0.7482
1756651.0,-8.2624,1.482,35.1684,-1.0626,-0.7231,-0.6167
1756661.0,-7.7093,1.0295,34.9122,-0.9908,-1.55,-0.4805
1756671.0,-6.9264,1.3168,32.803,-0.7279,-2.337,-0.3469
1756681.0,-6.5529,0.9888,30.3609,-0.7375,-3.1443,-0.2421
1756691.0,-6.1052,0.5124,27.1263,-0.9333,-3.9515,-0.1932
1756701.0,-5.8203,-0.2921,24.0737,-1.1792,-4.5416,-0.1963
1756711.0,-5.3127,-1.1827,20.99,-1.3973,-4.9391,-0.2522
1756721.0,-4.6543,-1.8076,19.0914,-1.6911,-5.1817,-0.4055
1756731.0,-4.4149,-1.889,18.0786,-1.8826,-5.3084,-0.6029
1756741.0,-4.2329,-1.3958,17.1497,-1.8789,-5.4877,-0.7742
1756751.0,-3.9959,-0.3903,15.5432,-1.6602,-5.7686,-0.8748
1756761.0,-3.4812,0.723,11.3988,-1.2781,-6.0879,-0.8647
1756771.0,-2.4517,1.2546,6.2968,-1.1254,-6.2694,-0.8173
1756781.0,-1.6065,1.7406,1.2522,-1.184,-6.1565,-0.7913
1756791.0,-0.0335,2.4062,-3.5626,-1.3941,-5.8075,-0.7774
1756801.0,1.2809,2.5809,-5.8083,-1.7256,-5.1721,-0.7668
1756811.0,1.7933,2.0997,-6.0693,-1.8347,-4.4713,-0.7327
1756821.0,2.6121,1.6017,-6.7157,-1.5479,-3.8945,-0.6753
1756831.0,2.5642,1.494,-8.0158,-1.0307,-3.3566,-0.6194
1756841.0,3.1603,1.9465,-9.7276,-0.4214,-2.8399,-0.5656
1756851.0,3.6464,3.1149,-11.9806,0.2011,-2.2519,-0.4986
1756861.0,3.7158,4.5729,-13.9654,0.7072,-1.5149,-0.3906
1756871.0,3.5721,5.8778,-15.524,1.0099,-0.7056,-0.2198
1756881.0,3.62,6.5505,-16.5846,1.0882,0.1618,0.0074
1756891.0,3.3399,6.2872,-16.2471,0.9945,1.1063,0.2528
1756901.0,2.545,5.6647,-14.9925,0.8886,2.0513,0.4842
1756911.0,1.9225,4.7022,-12.797,0.8503,2.9681,0.6987
1756921.0,1.3886,3.6176,-9.6678,0.9562,3.8243,0.8854
1756931.0,0.2179,2.909,-6.7373,1.2781,4.5373,1.0515
1756941.0,-0.1197,1.8316,-4.1827,1.6586,5.0636,1.2004
1756951.0,-0.9457,1.0822,-2.0303,2.0715,5.5388,1.2909
1756961.0,-1.8172,0.723,-0.1891,2.3509,5.8931,1.2957
1756971.0,-2.466,0.5746,1.142,2.3578,6.1055,1.2372
1756981.0,-3.6871,0.7302,2.6887,2.0422,6.313,1.1377
1756991.0,-5.0637,0.0551,6.0908,1.4984,6.5391,1.0515
1757001.0,-6.2225,-1.2905,9.821,1.1009,6.7046,0.9924
1757011.0,-7.2353,-2.8108,14.5903,0.8657,6.8334,0.8817
1757021.0,-8.1139,-3.6105,19.8503,0.7833,6.8345,0.6965
1757031.0,-8.7364,-3.4524,25.2014,0.6619,6.5014,0.4401
1757041.0,-9.2296,-1.9321,29.7527,0.4975,5.8703,0.1995
1757051.0,-9.6726,-0.8595,34.9099,0.2783,5.0508,0.0708
1757061.0,-9.5098,-0.8188,38.3623,0.2251,3.8967,0.0883
1757071.0,-8.6526,-1.4245,38.4892,0.3475,2.5435,0.1501
1757081.0,-8.2815,-1.0894,36.2195,0.4746,1.3372,0.1325
1757091.0,-7.8314,0.2753,33.514,0.4613,0.5151,0.0649
1757101.0,-7.9368,1.2713,32.8724,0.1985,0.0059,0.0202
1757111.0,-7.5824,1.6783,33.0807,-0.0958,-0.571,0.0357
1757121.0,-7.0294,1.0391,33.356,-0.1591,-1.202,0.1394
1757131.0,-6.2584,-0.17,31.7256,-0.0074,-1.9587,0.2549
1757141.0,-5.2433,-0.9122,28.6083,0.0772,-2.701,0.2714
1757151.0,-5.1236,-1.5155,25.7089,-0.0862,-3.2363,0.1825
1757161.0,-4.9297,-1.8364,23.4009,-0.5342,-3.7753,-0.0064
1757171.0,-4.7022,-1.7933,21.6196,-1.0259,-4.2393,-0.2448
1757181.0,-4.6615,-1.3767,20.1975,-1.4282,-4.6416,-0.4699
1757191.0,-4.8794,-0.4501,19.0962,-1.6554,-5.0971,-0.646
1757201.0,-4.616,0.5363,16.1585,-1.5495,-5.6042,-0.688
1757211.0,-3.9911,0.7925,11.7723,-1.3415,-6.0251,-0.6332
1757221.0,-3.5267,0.7015,6.8043,-1.1584,-6.1906,-0.5646
1757231.0,-2.4924,0.4669,1.9417,-1.0903,-6.0799,-0.5284
1757241.0,-1.0223,0.0287,-1.494,-1.1488,-5.6878,-0.547
1757251.0,-0.0527,-0.0982,-3.5745,-1.2297,-5.1705,-0.6146
1757261.0,0.7542,0.1844,-5.4947,-1.2478,-4.7257,-0.6992
1757271.0,1.968,0.5004,-7.2425,-1.1228,-4.2335,-0.7609
1757281.0,2.229,1.1708,-8.7963,-0.7987,-3.5896,-0.7806
1757291.0,2.6097,2.0925,-9.9479,-0.4033,-2.9351,-0.763
1757301.0,3.158,3.2585,-11.7388,0.0208,-2.2966,-0.688
1757311.0,3.2801,4.1396,-13.0005,0.3453,-1.5405,-0.5534
1757321.0,3.2825,4.6926,-13.5392,0.5002,-0.7694,-0.3932
1757331.0,3.4931,5.126,-13.8481,0.4842,-0.058,-0.24
1757341.0,2.8683,5.4779,-13.5512,0.299,0.6321,-0.0958
1757351.0,2.6097,5.4516,-12.2655,0.0106,1.2473,0.0543
1757361.0,2.0566,4.8626,-10.726,-0.1623,1.815,0.2357
1757371.0,1.5299,4.197,-9.4332,-0.1932,2.3067,0.414
1757381.0,1.0511,3.6512,-8.5425,-0.0974,2.7665,0.5811
1757391.0,0.6297,3.292,-8.1116,0.0569,3.2038,0.7391
1757401.0,-0.1413,2.9592,-8.4156,0.1937,3.6812,0.8961
1757411.0,-0.6009,2.4995,-8.5449,0.1612,4.2393,1.019
1757421.0,-1.6472,2.5786,-7.6854,0.0043,4.9375,1.0962
1757431.0,-3.7038,3.4117,-5.6623,-0.2613,5.6319,1.1824
1757441.0,-5.5713,3.7565,-2.0207,-0.4927,6.2278,1.3755
1757451.0,-8.1427,2.557,1.6424,-0.257,6.9196,1.7448
1757461.0,-9.8162,-1.3743,6.4596,0.1282,7.5576,2.0992
1757471.0,-11.7819,-5.5929,12.0835,0.6279,8.1099,2.2093
1757482.0,-12.967,-10.2208,19.3284,1.1813,8.5032,2.046
1757491.0,-14.3556,-12.8257,25.855,1.7373,8.5127,1.5495
1757501.0,-15.0619,-11.5879,31.6633,1.8055,8.0067,0.7556
1757511.0,-16.338,-7.5393,37.9265,1.4096,7.1702,-0.0287
1757521.0,-17.8847,-1.9561,43.4931,1.0844,6.1949,-0.5082
1757531.0,-18.1576,2.7557,48.5065,0.8056,4.9455,-0.5848
1757541.0,-17.8679,4.8339,52.1649,0.5896,3.4247,-0.3139
1757551.0,-17.5471,4.3934,54.2861,0.4704,1.7719,0.1187
1757561.0,-17.188,1.6544,53.5535,0.3054,-0.1868,0.513
1757571.0,-16.7738,-2.083,49.0668,0.0218,-2.3461,0.6965
1757581.0,-15.263,-4.7429,41.9368,-0.3193,-4.1813,0.5789
1757591.0,-14.5424,-6.201,35.2714,-0.8673,-5.4126,0.1969
1757601.0,-13.6661,-6.2776,30.8206,-1.4697,-6.2023,-0.3358
1757611.0,-13.2782,-4.4987,27.9427,-1.7863,-6.7387,-0.8514
1757621.0,-13.4099,-1.9872,25.0362,-1.7671,-7.2479,-1.1802
1757631.0,-12.8042,-0.4477,20.2741,-1.4686,-7.8141,-1.2632
1757641.0,-11.6861,0.9242,14.5759,-1.0483,-8.1509,-1.2143
1757651.0,-10.568,2.1548,8.746,-0.7066,-8.1722,-1.1015
1757661.0,-9.4882,2.8276,3.8403,-0.687,-8.0322,-0.9817
1757671.0,-7.7093,3.0095,-0.4094,-0.837,-7.7821,-0.8854
1757681.0,-6.4021,3.043,-4.1683,-0.9897,-7.3549,-0.8035
1757691.0,-5.0518,2.5762,-7.1611,-1.1988,-6.9116,-0.7471
1757701.0,-3.3591,1.9992,-10.4291,-1.4175,-6.4928,-0.7391
1757711.0,-1.913,1.0965,-12.7802,-1.5852,-5.9054,-0.7785
1757721.0,-0.2203,0.589,-14.4466,-1.5554,-5.2211,-0.8822
1757731.0,0.395,1.0798,-15.038,-1.1733,-4.3511,-1.0004
1757741.0,0.8236,2.3415,-16.1944,-0.4981,-3.5018,-1.0366
1757751.0,1.391,3.6033,-17.9589,0.0623,-2.7654,-1.0014
1757761.0,1.6328,4.7453,-19.4673,0.5034,-1.8879,-0.9083
1757771.0,1.64,5.9304,-20.0634,0.7295,-0.9184,-0.7934
1757781.0,1.3958,7.1515,-20.5806,0.7168,-0.0468,-0.6667
1757791.0,0.9936,8.2528,-20.6045,0.4704,0.8136,-0.5076
1757801.0,0.6967,8.6886,-19.077,0.1149,1.6533,-0.3081
1757811.0,-0.1891,8.9328,-17.413,-0.0037,2.4945,-0.0357
1757821.0,-0.8859,8.3031,-15.1673,-0.0186,3.2379,0.2698
1757831.0,-1.7071,7.9464,-13.216,0.1421,3.8669,0.563
1757841.0,-3.1987,8.0517,-11.71,0.3241,4.3463,0.837
1757851.0,-4.0606,7.9655,-11.2192,0.4198,4.7017,1.1377
1757861.0,-4.853,6.6511,-10.4962,0.2847,5.0732,1.4457
1757871.0,-6.5529,5.0613,-9.0932,0.0878,5.5393,1.7209
1757881.0,-7.9607,2.9281,-7.4531,-0.1442,6.0054,1.9688
1757891.0,-9.6223,0.1197,-5.2696,-0.3959,6.5445,2.1598
1757901.0,-11.1498,-3.3662,-2.2865,-0.5699,7.274,2.2721
1757911.0,-12.3062,-7.2975,4.4963,-0.6763,8.1786,2.2045
1757921.0,-14.3173,-9.0621,12.9694,-0.4879,8.8991,1.9427
1757931.0,-15.8233,-10.228,22.1535,-0.2879,8.9943,1.6182
1757941.0,-16.3931,-9.8976,28.3665,0.0372,8.5675,1.293
1757951.0,-17.7075,-8.5952,33.8468,0.0383,8.0227,0.9578
1757961.0,-18.2031,-8.1068,41.5897,-0.3608,7.2069,0.6933
1757971.0,-18.1911,-6.7876,47.5872,-0.1644,6.2401,0.6162
1757981.0,-17.4729,-6.9121,50.69,0.2975,4.938,0.7019
1757991.0,-15.5025,-7.616,50.0747,0.6188,3.289,0.7604
1758001.0,-13.544,-8.0613,47.2903,0.7402,1.9161,0.6795
1758011.0,-13.0532,-7.4316,46.2679,0.5422,0.9796,0.4496
1758021.0,-12.5049,-6.517,46.2799,0.1421,-0.0857,0.2182
1758031.0,-11.6669,-7.2449,45.248,-0.0921,-1.4633,0.1011
1758041.0,-10.6829,-7.8266,39.1979,0.1437,-2.867,0.033
1758051.0,-9.3039,-7.6878,31.4957,0.1676,-3.96,-0.1655
1758061.0,-8.5545,-5.8658,26.1016,-0.2703,-4.4852,-0.5087
1758071.0,-9.4427,-4.4652,24.9787,-0.7098,-4.6219,-0.7838
1758081.0,-9.1482,-2.9592,22.3068,-0.6157,-4.9295,-0.8657
1758091.0,-7.6207,-2.3128,18.9405,-0.2948,-5.1014,-0.8131
1758101.0,-6.9336,-1.2665,15.9717,0.0399,-4.9859,-0.7354
1758111.0,-6.3159,-0.7326,13.8983,0.0894,-4.9486,-0.6721
1758121.0,-5.6144,-0.4334,11.5975,-0.0394,-5.0705,-0.6327
1758131.0,-5.4133,-0.5435,9.4451,-0.1815,-5.1535,-0.6098
1758141.0,-4.7764,-1.0654,6.7373,-0.2256,-5.2179,-0.5933
1758151.0,-4.2234,-1.3623,3.7278,-0.2831,-5.2104,-0.6369
1758161.0,-3.5769,-0.8715,0.3783,-0.4071,-5.1365,-0.7407
1758171.0,-2.8802,-0.0527,-2.1835,-0.6689,-4.9369,-0.862
1758181.0,-2.6073,0.6345,-3.5003,-0.8775,-4.6576,-0.9514
1758191.0,-1.8004,1.4964,-5.94,-0.8269,-4.4144,-0.9738
1758201.0,-0.9936,2.1165,-8.8729,-0.7205,-4.0983,-0.9482
1758211.0,-0.2466,2.6264,-11.7029,-0.6465,-3.6471,-0.9019
1758221.0,1.0032,2.9185,-13.6446,-0.4794,-3.0165,-0.8455
1758231.0,1.6664,3.4046,-15.5072,-0.2091,-2.2599,-0.7748
1758241.0,1.9441,3.3495,-15.8975,0.0154,-1.4931,-0.7035
1758251.0,1.8699,3.5482,-16.8719,0.3847,-0.7311,-0.613
1758261.0,1.6592,4.1946,-17.7434,0.646,0.0117,-0.5486
1758271.0,1.1732,5.1427,-18.6413,0.7641,0.7657,-0.4624
1758281.0,0.5602,6.3925,-19.1249,0.6247,1.5032,-0.3555
1758291.0,-0.1484,7.4603,-18.7011,0.3757,2.3104,-0.1772
1758301.0,-1.6305,8.1187,-17.243,0.1596,3.1815,0.0937
1758311.0,-2.964,7.9152,-15.0236,-0.0192,3.9743,0.4411
1758321.0,-4.1994,6.7277,-12.5624,-0.133,4.6597,0.8237
1758331.0,-4.6615,4.2737,-9.9168,-0.1995,5.2583,1.1765
1758341.0,-5.8873,1.5179,-6.8331,-0.2671,5.7591,1.4
1758351.0,-8.1858,-1.2977,-2.4373,-0.7082,6.2731,1.4745
1758361.0,-7.3334,-4.8818,-0.5411,-1.06,6.0884,1.4803
1758371.0,-9.1339,-8.4946,2.4421,-0.9605,6.5163,1.3776
1758381.0,-12.2487,-9.9766,6.869,-0.5837,7.1702,1.144
1758391.0,-13.1681,-10.3046,11.6334,-0.1022,7.6912,0.8556
1758401.0,-16.4099,-9.7564,19.7498,0.5082,8.451,0.5896
1758411.0,-19.3164,-7.1275,27.8661,1.3516,8.8501,0.357
1758421.0,-20.5614,-3.1867,36.095,1.989,8.8373,0.2038
1758431.0,-21.5191,0.2035,44.3885,2.0774,8.2217,0.166
1758441.0,-20.2262,1.5754,51.3628,1.6724,6.7339,0.241
1758451.0,-18.579,0.7422,55.7993,1.2382,4.7613,0.3991
1758461.0,-17.2047,-0.6393,55.7897,0.9243,2.3386,0.5279
1758471.0,-15.0428,-2.6983,50.8313,0.6997,-0.1676,0.5922
1758481.0,-13.2902,-4.4796,43.1675,0.4241,-2.2636,0.5098
1758491.0,-15.773,-4.0294,40.5697,0.0585,-3.7769,0.274
1758501.0,-5.6695,-5.1212,14.1306,0.8046,-5.6665,0.2384
1758511.0,-6.7612,-7.5274,14.3197,-1.4548,-5.0998,-0.5507
1758521.0,-7.106,-4.1492,14.7411,-2.4514,-4.5767,-1.2707
1758531.0,-5.6767,-0.3615,13.9247,-2.602,-4.4825,-1.6054
1758541.0,-5.3223,1.1372,13.7954,-2.1269,-4.3096,-1.5298
1758551.0,-4.4819,3.3495,9.4451,-0.8684,-4.019,-1.1712
1758561.0,-2.8395,3.4165,6.7157,-0.2128,-3.6482,-0.7795
1758571.0,-2.1931,3.2561,3.9552,0.1793,-3.0554,-0.4209
1758581.0,-1.5634,1.4509,4.8507,0.0862,-2.4126,-0.1761
1758591.0,-1.2833,0.2107,5.1691,0.0133,-1.9571,-0.0553
1758601.0,-1.1157,-1.3695,7.118,-0.2261,-1.6634,-0.0484
1758611.0,-1.2857,-1.9561,8.3606,-0.307,-1.5463,-0.116
1758621.0,-1.2258,-2.1189,9.7444,-0.2256,-1.4958,-0.1958
1758631.0,-1.6831,-1.5993,9.8665,0.0532,-1.5059,-0.2336
1758641.0,-1.5921,-1.585,9.7157,0.2453,-1.5713,-0.2395
1758651.0,-1.5012,-0.9888,8.9687,0.4837,-1.4974,-0.2384
1758661.0,-1.3575,-0.5339,8.9663,0.6157,-1.2377,-0.2166
1758671.0,-1.2881,0.2227,10.5943,0.6476,-0.8897,-0.2017
1758681.0,-1.7454,0.6129,12.2823,0.6109,-0.6923,-0.1352
1758691.0,-1.7645,-0.0287,14.868,0.4257,-0.7567,-0.0654
1758701.0,-2.1093,-0.4238,15.4761,0.4523,-0.9594,0.009
1758711.0,-2.059,-1.494,16.2878,0.3427,-1.2217,0.0325
1758721.0,-2.411,-2.0183,16.8456,0.315,-1.4234,-0.0074
1758731.0,-2.2098,-2.241,18.0116,0.3778,-1.558,-0.0777
1758741.0,-3.1005,-1.1923,18.6221,0.489,-1.7554,-0.158
1758751.0,-3.1077,-0.4334,18.816,0.4209,-2.1838,-0.1937
1758761.0,-3.1292,0.103,18.4928,0.323,-2.6574,-0.1857
1758771.0,-2.9401,0.0048,16.8887,0.2607,-3.0953,-0.1357
1758781.0,-2.2817,-0.3783,15.0308,0.0074,-3.5657,-0.1405
1758791.0,-1.9609,-0.2322,12.627,-0.3624,-3.9829,-0.2118
1758801.0,-1.5993,-0.5626,10.7715,-0.7923,-4.2984,-0.2985
1758811.0,-0.9792,-0.8212,8.351,-1.069,-4.5469,-0.3863
1758821.0,-0.5052,-1.0726,6.1603,-1.2616,-4.6938,-0.4869
1758831.0,-0.0958,-0.8811,3.0406,-1.2978,-4.7922,-0.5763
1758841.0,0.5986,-0.5483,-0.3136,-1.2622,-4.7858,-0.6465
1758851.0,1.3144,0.079,-4.051,-1.044,-4.5235,-0.6694
1758861.0,1.7214,1.1756,-7.5681,-0.754,-4.0222,-0.6449
1758871.0,2.4134,2.0782,-10.2903,-0.6518,-3.4758,-0.5944
1758881.0,3.2872,2.6073,-11.8992,-0.588,-2.8271,-0.5146
1758891.0,3.055,3.055,-12.8401,-0.4033,-2.0896,-0.4033
1758901.0,3.4572,2.964,-13.6302,-0.1155,-1.4074,-0.2751
1758911.0,3.6009,3.0239,-14.9398,0.2464,-0.7077,-0.1692
1758921.0,2.6911,3.5099,-15.4833,0.4683,0.0724,-0.1117
1758931.0,2.229,4.2353,-15.694,0.5545,0.7966,-0.0692
1758941.0,1.7693,5.3606,-15.7203,0.5135,1.5091,-0.0165
1758951.0,0.996,6.4739,-14.4466,0.3602,2.2594,0.0889
1758961.0,-0.1963,7.3598,-12.7683,0.2256,2.9383,0.2847
1758971.0,-0.7949,7.7692,-11.1259,0.0734,3.4534,0.5545
1758981.0,-1.5251,7.6591,-9.9335,-0.0357,3.9052,0.8849
1758991.0,-2.4972,6.7876,-8.351,-0.1123,4.3245,1.2489
1759001.0,-3.1196,5.0518,-7.4436,-0.1373,4.6081,1.6054
1759011.0,-3.8882,3.1915,-7.3119,-0.1309,4.9114,1.8805
1759021.0,-5.0566,1.4437,-7.5465,-0.1676,5.3743,2.063
1759031.0,-6.4308,-0.5578,-6.6463,-0.3586,6.0751,2.1689
1759041.0,-8.8897,-2.5618,-2.4612,-0.6316,7.0021,2.1854
1759051.0,-10.908,-6.0837,4.7309,-0.6306,7.945,2.2136
1759061.0,-12.0548,-10.1754,12.876,-0.3757,8.5324,2.1162
1759071.0,-13.8145,-12.0979,21.5502,-0.009,8.5787,1.782
1759081.0,-15.0907,-12.4044,28.9507,0.6423,8.1743,1.4154
1759091.0,-14.5113,-10.2065,32.6665,1.6304,7.6172,1.0658
1759101.0,-15.0164,-5.4851,34.6776,1.8863,6.9983,0.6651
1759111.0,-15.9526,-2.387,40.3279,0.8828,6.015,0.3331
1759121.0,-15.5384,-1.2594,45.1714,-0.0447,4.7076,0.2591
1759131.0,-14.8991,-2.715,48.8321,-0.5582,3.2581,0.3794
1759141.0,-14.0013,-5.442,49.0716,-0.7466,1.4559,0.5066
1759151.0,-12.4738,-8.6072,45.9782,-0.6784,-0.3656,0.5231
1759161.0,-10.8745,-10.6159,40.2848,-0.4438,-1.8193,0.3501
1759171.0,-9.4523,-10.805,34.4262,-0.2645,-2.8159,0.0016
1759181.0,-8.181,-8.8418,29.2188,-0.0623,-3.372,-0.3938
1759191.0,-7.5944,-5.3965,24.7824,0.1687,-3.5902,-0.6774
1759201.0,-6.4835,-2.6025,21.1695,0.2246,-3.7509,-0.7886
1759211.0,-5.4324,-1.2785,18.172,0.1107,-3.8381,-0.7662
1759221.0,-4.9177,-1.3288,16.7307,-0.0346,-3.736,-0.6811
1759231.0,-4.9153,-2.3511,16.3356,0.0208,-3.5753,-0.5646
1759241.0,-4.5083,-3.1795,15.1912,0.3746,-3.48,-0.4629
1759251.0,-3.6152,-3.3471,13.0652,0.8567,-3.2634,-0.4039
1759261.0,-3.0119,-2.8204,12.1171,1.052,-2.8803,-0.4379
1759271.0,-3.5554,-2.2122,13.1944,0.8216,-2.585,-0.5433
1759281.0,-3.948,-1.5443,14.6812,0.431,-2.6084,-0.6641
1759291.0,-4.1731,-1.2115,15.8712,0.1219,-2.8154,-0.7439
1759301.0,-4.7956,-0.8835,16.1776,-0.016,-3.1272,-0.7758
1759311.0,-4.889,-0.9457,15.3301,-0.0165,-3.5167,-0.7657
1759321.0,-4.3215,-0.9337,13.69,0.0761,-3.7998,-0.7588
1759331.0,-4.1899,-0.7302,12.5887,0.0841,-3.9344,-0.787
1759342.0,-4.2377,-0.431,11.552,-0.0639,-4.1861,-0.8445
1759351.0,-3.9169,0.0359,9.8426,-0.2847,-4.5948,-0.9142
1759361.0,-3.5937,0.3232,7.2808,-0.4252,-4.9258,-0.9535
1759371.0,-2.976,0.4525,4.1013,-0.48,-5.0795,-0.9711
1759381.0,-2.1787,0.5148,0.8859,-0.5763,-5.0822,-1.0126
1759391.0,-1.5658,1.0606,-2.4948,-0.6566,-4.9268,-1.0759
1759401.0,-0.6823,1.9225,-5.2337,-0.6774,-4.5352,-1.127
1759411.0,-0.1724,3.1316,-6.9719,-0.6194,-3.9914,-1.1318
1759421.0,-0.0958,4.142,-8.3127,-0.5433,-3.5066,-1.0754
1759431.0,0.5124,4.9536,-9.8282,-0.3331,-3.0442,-0.9509
1759441.0,0.7063,5.8562,-11.9016,0.0165,-2.4977,-0.7764
1759451.0,1.2258,6.2896,-13.7714,0.2671,-1.9225,-0.5816
1759461.0,1.7238,6.4883,-15.4234,0.4337,-1.3042,-0.3954
1759471.0,1.3048,6.8187,-16.7738,0.5082,-0.6093,-0.2357
1759481.0,1.166,7.3191,-18.1672,0.3986,0.083,-0.0963
1759491.0,1.1612,8.0397,-18.1361,0.0564,0.82,0.0234
1759501.0,-0.498,9.2632,-17.0611,-0.2911,1.6187,0.2022
1759511.0,-1.0678,10.0149,-15.3253,-0.6284,2.2221,0.4911
1759521.0,-2.0686,10.5656,-14.7267,-0.7785,2.7154,0.9003
1759531.0,-3.0718,9.924,-14.6836,-0.9009,3.1964,1.4042
1759541.0,-3.8068,7.8362,-14.3365,-1.0355,3.7253,1.905
1759551.0,-5.1188,5.9304,-13.7571,-1.0445,4.3851,2.3189
1759561.0,-6.1316,3.7373,-12.0045,-1.1254,5.0285,2.6403
1759571.0,-7.4196,1.2594,-8.983,-0.9998,5.7032,2.9165
1759581.0,-8.9328,-1.142,-7.1371,-0.4422,6.4066,3.1469
1759591.0,-11.2384,-3.8092,-6.0166,0.1564,7.2777,3.2661
1759601.0,-13.2208,-8.5665,-1.9752,0.4683,8.5707,3.2235
1759611.0,-17.0826,-12.5025,7.4531,0.4103,9.9356,2.8303
1759621.0,-19.5774,-14.8512,20.1568,0.2751,10.597,2.2343
1759631.0,-20.231,-14.042,32.5109,0.5247,10.4672,1.6394
1759641.0,-21.1887,-10.24,41.5753,1.0828,9.6201,1.2042
1759651.0,-20.152,-6.268,45.1139,1.3452,8.0269,0.9951
1759661.0,-18.8184,-5.0709,48.327,0.8945,6.3428,0.8987
1759671.0,-17.9948,-4.7812,50.5727,0.4629,4.7613,0.8711
1759681.0,-15.6006,-4.4221,51.1162,0.0649,2.9665,0.8312
1759691.0,-13.5177,-6.3422,49.3852,-0.3145,1.0733,0.8221
1759701.0,-12.0572,-8.6335,45.1594,-0.4784,-0.7019,0.7333
1759711.0,-10.07,-10.7619,38.6041,-0.4885,-2.286,0.5103
1759721.0,-8.2145,-11.6502,30.4159,-0.3948,-3.4385,0.1426
1759731.0,-6.5386,-10.2352,22.4911,-0.4566,-4.084,-0.3677
1759741.0,-5.5665,-7.5369,16.7905,-0.6657,-4.2372,-0.8631
1759751.0,-4.8339,-4.5633,13.0173,-0.7327,-4.0808,-1.1877
1759761.0,-3.6631,-1.7717,9.9096,-0.5161,-3.7514,-1.2984
1759771.0,-3.2753,0.3711,7.4388,-0.1064,-3.214,-1.209
1759781.0,-2.5211,2.0806,5.4755,0.1857,-2.7031,-1.0115
1759791.0,-1.6496,3.2058,4.1468,0.2565,-2.2264,-0.7694
1759801.0,-1.4724,3.3686,4.0294,0.2288,-1.6543,-0.4842
1759811.0,-1.6257,2.2458,4.8267,0.0851,-1.1978,-0.2134
1759821.0,-1.221,0.5219,5.9927,-0.1288,-0.9722,-0.0442
1759831.0,-0.9816,-1.0487,7.2209,-0.2224,-0.8205,0.0208
1759841.0,-1.0343,-2.229,8.3917,-0.1697,-0.7673,0.0043
1759851.0,-1.0104,-2.4373,8.3175,-0.0154,-0.8652,-0.0665
1759861.0,-0.7925,-2.1261,7.3861,0.1022,-0.9796,-0.1532
1759871.0,-0.8715,-1.4198,6.2584,0.0931,-0.9961,-0.2373
1759881.0,-0.7877,-0.9313,5.7509,-0.0255,-0.8897,-0.2969
1759891.0,-0.8164,-0.5555,5.8754,-0.1362,-0.7146,-0.331
1759901.0,-0.9146,-0.4932,6.675,-0.1884,-0.5305,-0.3352
1759911.0,-0.9026,-0.6752,7.3694,-0.0851,-0.3874,-0.3113
1759921.0,-0.6297,-0.3328,7.5585,0.1368,-0.2714,-0.3001
1759931.0,-0.905,0.2969,7.9535,0.3129,-0.1522,-0.2682
1759941.0,-0.7925,0.5866,7.501,0.4262,-0.1107,-0.2054
1759951.0,-0.5267,1.2091,7.5537,0.2996,-0.0548,-0.1799
1759961.0,-0.8404,1.2426,8.7053,0.1479,0.058,-0.1101
1759971.0,-0.6728,0.9313,9.3087,0.1314,0.0559,-0.009
1759981.0,-0.5507,0.4334,9.4571,0.1543,0.0074,0.0761
1759991.0,-0.4334,-0.2155,9.4379,0.1926,-0.0314,0.1373
1760001.0,-0.2466,-0.7183,9.1435,0.2256,-0.0569,0.157
1760011.0,-0.103,-1.0223,8.9064,0.241,-0.0229,0.1415
1760021.0,-0.0263,-1.1013,8.7101,0.1942,0.0367,0.1022
1760031.0,0.0527,-1.1061,9.1387,0.0756,0.0798,0.05
1760041.0,-0.0335,-0.9457,9.4762,0.0346,0.108,0.0202
1760051.0,-0.1221,-0.9146,9.8258,0.0271,0.1128,0.0176
1760061.0,0.0982,-0.9792,9.809,0.0681,0.0979,0.0282
1760071.0,0.0575,-0.9146,9.7205,0.0878,0.1117,0.0346
1760081.0,-0.0239,-0.7685,9.7731,0.0484,0.1112,0.033
1760091.0,0.0,-0.8188,9.7181,-0.0027,0.0937,0.0474
1760101.0,0.0407,-1.2091,9.7779,-0.0447,0.1032,0.0686
1760111.0,0.1101,-1.6879,10.0533,-0.0271,0.133,0.0761
1760121.0,0.1341,-2.0279,10.1778,0.066,0.1564,0.0692
1760131.0,0.2107,-2.0638,9.8881,0.1745,0.1538,0.0394
1760141.0,0.3089,-1.8507,9.7061,0.2272,0.1713,-0.0032
1760151.0,0.2753,-1.482,9.4858,0.2549,0.2267,-0.0335
1760161.0,0.1939,-1.1636,9.3111,0.2453,0.2932,-0.0484
1760171.0,0.1532,-1.0056,9.3111,0.2043,0.4113,-0.0553
1760181.0,-0.0862,-0.7063,9.991,0.1463,0.5965,-0.0612
1760191.0,-0.2801,-0.5507,11.3198,0.141,0.7939,-0.0362
1760201.0,-0.4046,-0.6895,13.0029,0.2325,0.9727,0.0186
1760211.0,-1.2091,-0.3903,14.3556,0.3837,1.0977,0.0745
1760221.0,-1.4365,-0.5818,15.9669,0.3821,1.144,0.1352
1760231.0,-1.7861,-1.1684,18.2127,0.265,1.1472,0.1703
1760241.0,-2.6552,-1.889,20.5039,0.0921,0.9833,0.158
1760251.0,-3.2322,-2.3343,22.8335,-0.0686,0.6465,0.0937
1760261.0,-4.197,-1.7861,24.7704,-0.0122,0.3139,0.041
1760271.0,-4.7118,-1.1899,26.2117,0.1687,-0.1048,0.0521
1760281.0,-5.0781,-0.4693,26.7815,0.3421,-0.6194,0.1048
1760291.0,-5.1739,0.1676,26.8989,0.3751,-1.1935,0.1745
1760301.0,-5.4899,0.2107,26.5613,0.2639,-1.8299,0.2538
1760311.0,-5.7533,-0.5291,25.448,0.0282,-2.5722,0.3118
1760321.0,-5.2577,-2.0446,23.7218,-0.1921,-3.2725,0.3171
1760331.0,-5.0589,-3.1149,21.2366,-0.3092,-3.7961,0.2315
1760341.0,-4.6759,-3.8211,19.0052,-0.5247,-4.2399,0.0452
1760351.0,-4.1707,-4.1108,17.0802,-0.7801,-4.6294,-0.1942
1760361.0,-4.0127,-3.8068,15.354,-0.8817,-4.9258,-0.4278
1760371.0,-3.7924,-3.1723,13.2471,-0.7811,-5.1753,-0.597
1760381.0,-3.134,-2.2362,10.4052,-0.514,-5.3334,-0.688
1760391.0,-2.5738,-1.3623,7.367,-0.2629,-5.3483,-0.7088
1760401.0,-1.7071,-0.9098,4.6807,-0.1341,-5.2897,-0.6912
1760411.0,-0.7973,-0.1245,1.5395,-0.107,-5.186,-0.6737
1760421.0,0.328,0.0527,-1.1827,-0.2565,-4.9332,-0.6444
1760431.0,1.494,-0.3232,-3.0718,-0.4794,-4.5277,-0.6236
1760441.0,2.3942,-0.735,-3.7014,-0.7019,-4.0494,-0.6556
1760451.0,2.9281,-0.6369,-4.1827,-0.7913,-3.5923,-0.712
1760461.0,3.4907,-0.5818,-4.4245,-0.7609,-3.149,-0.7492
1760471.0,3.9935,-0.3448,-4.6519,-0.5922,-2.6574,-0.7615
1760481.0,4.4819,-0.0287,-4.2928,-0.3656,-2.1162,-0.7487
1760491.0,4.9273,0.1269,-3.3591,-0.0958,-1.5766,-0.7104
1760501.0,5.0566,0.2586,-2.4014,0.165,-1.127,-0.6582
1760511.0,5.4636,0.2083,-1.7286,0.3129,-0.8067,-0.6151
1760521.0,5.5689,-0.0215,-0.589,0.3379,-0.506,-0.6039
1760531.0,5.4277,0.1508,0.6369,0.3576,-0.2421,-0.6188
1760541.0,5.4037,0.5626,1.9537,0.3555,-0.0697,-0.6353
1760551.0,5.4037,1.0104,3.0885,0.3517,0.0537,-0.621
1760561.0,5.2289,1.1133,4.3958,0.332,0.1469,-0.5773
1760571.0,5.3343,1.0726,5.4444,0.306,0.1634,-0.5321
1760581.0,5.2457,1.2833,6.28,0.249,0.1368,-0.5013
1760591.0,5.1978,1.4748,7.0294,0.1426,0.0399,-0.4677
1760601.0,5.4564,1.3815,7.3167,0.0665,-0.0814,-0.4071
1760611.0,5.8107,1.1468,7.252,0.0458,-0.1442,-0.3459
1760621.0,6.0645,1.0846,7.0773,0.0202,-0.1596,-0.306
1760631.0,6.2273,1.0295,7.0701,-0.0575,-0.1729,-0.2778
1760641.0,6.5146,0.9361,7.1898,-0.1107,-0.1378,-0.2533
1760651.0,6.4404,0.9433,7.5154,-0.124,-0.0639,-0.2251
1760661.0,6.5218,0.7183,7.7381,-0.1288,-0.0548,-0.1873
1760671.0,6.7612,0.5722,7.7859,-0.1208,-0.0734,-0.1559
1760681.0,6.8307,0.4357,7.8266,-0.0516,-0.0357,-0.1245
1760691.0,7.0318,0.2993,7.7021,0.0181,0.0016,-0.0958
1760701.0,7.0629,0.1556,7.8602,0.0521,0.0266,-0.0809
1760711.0,7.1204,0.1389,7.6088,0.1096,0.0564,-0.0697
1760721.0,7.2089,-0.1173,7.7668,0.1006,0.1086,-0.0681
1760731.0,7.1539,-0.2179,7.9416,0.067,0.1261,-0.0899
1760741.0,7.1132,-0.2514,8.0541,-0.0053,0.0793,-0.1219
1760751.0,7.0653,-0.1293,8.0014,-0.0793,0.017,-0.1559
1760761.0,7.027,0.0,7.8338,-0.1517,-0.0431,-0.183
1760771.0,7.0174,0.261,7.4364,-0.2065,-0.1054,-0.1953
1760781.0,7.0581,0.3424,7.2329,-0.2458,-0.1155,-0.1868
1760791.0,7.1826,0.4597,6.8594,-0.2331,-0.0867,-0.1628
1760801.0,7.2281,0.4334,6.7157,-0.2038,-0.0229,-0.1346
1760811.0,7.1611,0.5363,6.5625,-0.1463,0.0782,-0.1059
1760821.0,7.118,0.6177,6.7804,-0.0968,0.2049,-0.074
1760831.0,7.0054,0.4956,7.3119,-0.0623,0.3166,-0.0399
1760841.0,6.9791,0.0814,7.8745,-0.058,0.3597,-0.0133
1760851.0,6.8929,-0.2634,8.4084,-0.0458,0.3427,-0.016
1760861.0,6.8522,-0.4741,8.509,-0.0197,0.2778,-0.0372
1760871.0,6.6774,-0.5962,8.5066,-0.0266,0.2059,-0.083
1760881.0,6.5721,-0.2011,8.2887,-0.0277,0.1453,-0.1421
1760891.0,6.5074,0.3831,7.9152,-0.0585,0.1054,-0.1809
1760901.0,6.5721,0.6704,7.8961,-0.1245,0.108,-0.1878
1760911.0,6.5098,0.8954,8.0493,-0.1213,0.1538,-0.1639
1760921.0,6.5242,0.8715,8.2624,-0.0639,0.1979,-0.1208
1760931.0,6.5984,0.9385,8.3318,-0.0106,0.2341,-0.0841
1760941.0,6.4787,0.8595,8.6263,-0.0106,0.2565,-0.0537
1760951.0,6.5146,0.6584,8.9016,-0.016,0.2379,-0.0261
1760961.0,6.4931,0.3591,9.0908,0.0032,0.2081,-0.0059
1760971.0,6.5625,-0.0886,9.2105,0.041,0.166,0.0059
1760981.0,6.5936,-0.4046,9.3326,0.0809,0.1144,-0.0122
1760991.0,6.6487,-0.3352,9.0357,0.1469,0.0591,-0.0516
1761001.0,6.6942,0.1748,8.5593,0.1485,0.0069,-0.1016
1761011.0,6.6272,0.8428,8.4108,0.0564,-0.0138,-0.1389
1761021.0,6.5673,1.3431,8.5521,-0.0511,-0.0239,-0.1346
1761031.0,6.4691,1.5586,8.6311,-0.1362,-0.0628,-0.091
1761041.0,6.62,1.2426,8.6287,-0.1517,-0.0968,-0.0197
1761051.0,6.6032,0.9122,8.3486,-0.1219,-0.1112,0.0399
1761061.0,6.6966,0.4669,8.3486,-0.0873,-0.1032,0.0756
1761071.0,6.7469,0.4788,8.0541,-0.0101,-0.0692,0.0846
1761081.0,6.6966,0.6416,8.0876,0.016,-0.0122,0.0825
1761091.0,6.7086,0.814,8.3965,0.0112,0.0282,0.0926
1761101.0,6.6798,0.7853,8.5186,0.0005,0.0325,0.1165
1761111.0,6.8043,0.3448,8.8059,-0.0303,0.008,0.1426
1761121.0,6.7995,-0.0096,8.8585,-0.0144,-0.0314,0.1479
1761131.0,6.9121,-0.1963,8.7412,0.0319,-0.0612,0.1352
1761141.0,6.9121,0.0287,8.4276,0.0772,-0.0591,0.1054
1761151.0,6.8474,0.2298,8.6742,0.0399,-0.0468,0.0798
1761161.0,6.7181,0.3711,8.8681,-0.0021,-0.0654,0.0724
1761171.0,6.7684,0.2586,9.1004,-0.0021,-0.0931,0.0841
1761181.0,6.7995,0.1269,9.1075,0.0325,-0.1229,0.0926
1761191.0,6.845,-0.1772,9.1291,0.0325,-0.1671,0.0894
1761201.0,6.7804,-0.0766,9.2033,0.0154,-0.223,0.0639
1761211.0,6.7493,0.2251,8.9088,-0.0144,-0.3006,0.0431
1761221.0,6.778,0.3232,8.8538,-0.0708,-0.373,0.042
1761231.0,6.8283,0.4429,8.4204,-0.0548,-0.4108,0.0612
1761241.0,6.8809,0.2035,8.1977,-0.0506,-0.4252,0.0899
1761251.0,6.9576,-0.0024,7.9128,-0.0346,-0.4241,0.1048
1761261.0,7.0653,-0.4046,7.6279,-0.0309,-0.406,0.108
1761271.0,7.0677,-0.7733,7.6567,-0.074,-0.3778,0.0766
1761281.0,7.0701,-1.0032,7.8099,-0.1139,-0.3661,0.0239
1761291.0,7.1251,-1.1301,7.9847,-0.1133,-0.3618,-0.0346
1761301.0,7.0964,-0.7901,7.8745,-0.0745,-0.3661,-0.0958
1761311.0,7.1658,-0.34,7.7931,-0.0718,-0.3783,-0.141
1761321.0,7.1419,0.0551,7.8458,-0.0905,-0.3751,-0.1618
1761331.0,7.2161,0.4142,7.8123,-0.0788,-0.3826,-0.1532
1761341.0,7.1299,0.5531,7.9176,-0.0766,-0.3996,-0.1277
1761351.0,7.2137,0.4812,7.7524,-0.0516,-0.4337,-0.0862
1761361.0,7.2616,0.4046,7.4915,-0.0122,-0.4342,-0.0559
1761371.0,7.2664,0.4405,7.3861,-0.0069,-0.3959,-0.0447
1761381.0,7.2927,0.3926,7.5848,-0.0766,-0.3868,-0.0447
1761391.0,7.3694,0.2705,7.8338,-0.1548,-0.4049,-0.0532
1761401.0,7.3574,0.2777,7.9703,-0.2128,-0.4427,-0.0692
1761411.0,7.3622,0.2203,8.0325,-0.2485,-0.4965,-0.0841
1761421.0,7.3454,0.4381,8.0254,-0.2283,-0.5396,-0.0974
1761431.0,7.3119,0.6129,7.9057,-0.1591,-0.5561,-0.0862
1761441.0,7.4172,0.6249,7.6974,-0.0724,-0.5763,-0.0591
1761451.0,7.616,0.5818,7.2927,-0.0117,-0.5922,-0.0335
1761461.0,7.7069,0.407,7.1515,0.0122,-0.5678,-0.0181
1761471.0,7.7381,0.1413,7.1778,0.0287,-0.5513,-0.0138
1761481.0,7.9487,-0.0551,7.1012,0.0899,-0.5406,-0.0197
1761491.0,7.8482,0.1221,6.8378,0.1618,-0.5146,-0.041
1761501.0,7.8697,0.1221,6.8163,0.1644,-0.5071,-0.0585
1761511.0,7.9057,0.1341,6.608,0.1618,-0.5156,-0.0788
1761521.0,7.8554,0.3232,6.3303,0.1261,-0.5337,-0.1144
1761531.0,7.8338,0.735,5.9065,0.0585,-0.5704,-0.1517
1761541.0,7.671,1.2186,5.5402,0.0059,-0.5795,-0.1676
1761551.0,7.4986,1.7717,4.8746,-0.0325,-0.6029,-0.1634
1761561.0,7.3813,2.557,3.6823,-0.0729,-0.6428,-0.1378
1761571.0,7.3478,2.9664,2.7246,-0.1415,-0.6061,-0.0772
1761581.0,7.1108,3.4093,1.3072,-0.199,-0.5523,-0.0016
1761591.0,6.5745,3.7469,0.2083,-0.2559,-0.4512,0.0724
1761601.0,5.9161,4.5011,-1.3934,-0.2331,-0.2964,0.1713
1761611.0,5.2074,4.9991,-2.5881,-0.273,-0.1304,0.2975
1761621.0,4.9129,4.9752,-3.948,-0.398,-0.0527,0.4417
1761631.0,4.549,4.312,-5.5115,-0.5875,-0.0766,0.5656
1761641.0,4.1922,3.8068,-8.4084,-0.6753,-0.125,0.646
1761651.0,3.5386,3.972,-12.311,-0.6428,-0.0069,0.679
1761661.0,3.0047,5.1164,-16.8887,-0.5055,0.447,0.7173
1761671.0,2.2458,6.5841,-20.0419,-0.4204,1.2702,0.8083
1761681.0,0.8667,7.5776,-21.1216,-0.2538,2.3998,1.0099
1761691.0,-1.0032,7.3789,-21.0402,0.0218,3.6024,1.3234
1761701.0,-3.3902,5.6886,-18.9238,0.306,4.8305,1.6543
1761711.0,-5.8682,4.1061,-16.3356,0.7114,5.9533,1.9071
1761721.0,-7.9751,2.9664,-13.7978,0.9892,6.7866,2.0385
1761731.0,-10.1849,2.0255,-12.5193,1.0366,7.3863,2.1061
1761741.0,-11.7076,0.668,-10.6015,0.7428,7.954,2.1205
1761751.0,-14.619,0.5962,-7.7093,0.4895,8.6676,2.0923
1761761.0,-17.3747,-0.1365,-4.5514,0.3272,9.4673,2.1545
1761771.0,-20.626,-2.9473,1.324,0.0053,10.2676,2.2232
1761781.0,-22.9125,-6.177,8.1642,-0.1921,10.9668,2.1801
1761791.0,-26.0274,-9.9383,17.3795,-0.5438,11.4367,1.9598
1761801.0,-27.0305,-14.5472,26.7384,-0.9684,11.3484,1.5745
1761811.0,-27.1,-17.4992,37.893,-1.3787,10.8562,0.9615
1761821.0,-27.6339,-16.5439,48.4682,-1.2239,9.8249,0.3331
1761831.0,-25.9292,-13.5775,55.8567,-0.5651,8.0232,-0.0756
1761841.0,-22.4648,-9.5457,58.5837,0.5193,5.7835,-0.2097
1761851.0,-19.2398,-5.1236,55.737,1.6176,3.5231,-0.1506
1761861.0,-16.4362,-2.059,49.2032,1.9268,1.3713,-0.0681
1761871.0,-14.0157,-0.103,42.5498,1.3271,-0.3358,-0.0702
1761881.0,-12.3828,-0.1844,37.6632,0.2772,-1.6256,-0.1128
1761891.0,-11.1091,-1.2234,33.3704,-0.6321,-2.6409,-0.1554
1761901.0,-9.3709,-3.3351,28.9267,-1.1643,-3.4992,-0.1953
1761911.0,-7.197,-4.8291,23.5996,-1.2882,-4.1335,-0.2884
1761921.0,-5.6288,-5.5785,18.9525,-1.1616,-4.4309,-0.4353
1761931.0,-3.9409,-5.2194,13.7834,-0.7093,-4.4527,-0.5672
1761941.0,-2.5355,-4.4484,9.0836,-0.2416,-4.1728,-0.6747
1761951.0,-1.4269,-2.909,5.2385,0.0431,-3.6641,-0.7758
1761961.0,-0.4166,-1.2378,3.5027,0.1101,-2.9729,-0.8423
1761971.0,-0.3759,0.3112,3.3112,0.0931,-2.2407,-0.82
1761981.0,-0.3639,1.2713,4.1755,-0.0266,-1.7129,-0.7173
1761991.0,-0.1317,1.5083,5.1739,-0.0915,-1.3803,-0.5444
1762001.0,-0.1844,1.0702,5.7269,-0.0298,-1.1105,-0.3304
1762011.0,-0.17,-0.0383,6.4691,0.0341,-0.9099,-0.1458
1762021.0,0.0048,-1.2857,6.8235,0.1517,-0.7529,-0.033
1762031.0,0.0742,-2.296,7.3263,0.2581,-0.5566,-0.0181
1762041.0,0.0287,-2.7653,8.3414,0.3017,-0.3613,-0.0841
1762051.0,-0.0407,-2.6001,9.3158,0.2799,-0.2905,-0.1963
1762061.0,-0.3974,-2.2482,10.3358,0.2166,-0.306,-0.3054
1762071.0,-0.419,-1.8675,11.0301,0.2368,-0.3714,-0.3735
1762081.0,-0.668,-1.6975,11.3461,0.3257,-0.4443,-0.4049
1762091.0,-0.5339,-1.506,11.461,0.4315,-0.4874,-0.4268
1762102.0,-0.5339,-0.996,11.4443,0.5241,-0.4794,-0.4507
1762111.0,-0.498,-0.2921,11.6741,0.4874,-0.4677,-0.4762
1762121.0,-0.735,0.3663,12.6558,0.3342,-0.4789,-0.4794
1762131.0,-0.735,0.5626,13.6446,0.2097,-0.5986,-0.4353
1762141.0,-0.7111,0.6225,13.7906,0.141,-0.8248,-0.365
1762151.0,-0.5004,0.1604,13.5632,0.0644,-1.0807,-0.2905
1762161.0,-0.2203,-0.3639,12.8281,0.0415,-1.2856,-0.2363
1762171.0,-0.1891,-0.5531,11.7579,0.0388,-1.3909,-0.2182
1762181.0,0.17,-0.7925,11.224,0.0059,-1.3979,-0.2171
1762191.0,0.3472,-0.8978,10.7356,0.0016,-1.3164,-0.2219
1762201.0,0.4836,-1.0678,11.2456,-0.0404,-1.1983,-0.24
1762211.0,0.6153,-1.1157,11.7388,-0.017,-1.1244,-0.2543
1762221.0,0.5459,-1.0606,12.4283,0.0293,-1.1073,-0.2645
1762231.0,0.6991,-0.9864,12.8329,0.1399,-1.1659,-0.2522
1762241.0,0.8643,-0.8859,12.6103,0.2591,-1.2739,-0.2315
1762251.0,0.7997,-1.0104,12.1913,0.2639,-1.4085,-0.223
1762261.0,1.0774,-1.221,11.8896,0.2607,-1.4995,-0.2283
1762271.0,1.2354,-1.3934,11.4395,0.273,-1.5389,-0.2453
1762281.0,1.3479,-1.7214,11.2934,0.2395,-1.5814,-0.2794
1762291.0,1.3695,-1.3886,10.4172,0.2065,-1.6575,-0.3384
1762301.0,1.5586,-1.154,10.0652,0.0724,-1.6905,-0.4033
1762311.0,1.5203,-0.7446,9.8617,-0.0282,-1.6501,-0.4464
1762321.0,1.4772,-0.3519,10.3166,-0.0958,-1.5825,-0.4576
1762331.0,2.0183,-0.2394,10.7739,-0.0798,-1.5788,-0.4273
1762341.0,2.2553,-0.2586,10.8769,-0.0287,-1.6607,-0.381
1762351.0,2.6049,-0.4357,10.5201,0.0761,-1.7645,-0.3304
1762361.0,2.8084,-0.6393,9.7468,0.1772,-1.8411,-0.2959
1762371.0,3.055,-0.8452,8.9471,0.19,-1.8784,-0.2985
1762381.0,3.3136,-0.9744,8.2289,0.1027,-1.8874,-0.3411
1762391.0,3.3854,-0.9649,7.7788,-0.0527,-1.8826,-0.414
1762401.0,3.3878,-0.8236,7.7141,-0.1719,-1.8267,-0.4911
1762411.0,3.3136,-0.5363,7.7931,-0.1948,-1.7235,-0.5433
1762421.0,3.4884,-0.4549,8.0254,-0.1681,-1.6437,-0.5635
1762431.0,3.7062,-0.1867,7.9823,-0.0442,-1.5777,-0.5651
1762441.0,3.6871,0.2035,7.9152,0.0681,-1.5224,-0.5491
1762451.0,4.0199,0.3256,7.7069,0.1208,-1.5048,-0.5066
1762461.0,4.3263,0.3735,7.4651,0.165,-1.475,-0.4555
1762471.0,4.4341,0.498,7.082,0.1735,-1.4314,-0.4198
1762481.0,4.5514,0.6369,6.8211,0.1011,-1.3963,-0.397
1762491.0,4.5394,0.7183,6.6918,-0.0053,-1.3686,-0.3778
1762501.0,4.6663,0.6225,6.6415,-0.0548,-1.317,-0.3453
1762511.0,4.8004,0.4621,6.7301,0.0303,-1.1738,-0.2953
1762521.0,4.8602,0.2897,6.7397,0.1282,-1.0403,-0.248
1762531.0,5.2002,-0.2586,6.857,0.1016,-1.0147,-0.2325
1762541.0,5.5186,-0.5986,6.7086,0.0415,-1.0084,-0.265
1762551.0,5.5426,-0.7039,6.6439,-0.0553,-0.9791,-0.3437
1762561.0,5.6383,-0.4477,6.5027,-0.1687,-0.9727,-0.4438
1762571.0,5.6072,-0.0551,6.4356,-0.3257,-0.9663,-0.5364
1762581.0,5.6048,0.158,6.541,-0.4768,-0.9535,-0.597
1762591.0,5.5186,0.4166,6.7947,-0.5279,-0.903,-0.6274
1762601.0,5.6862,0.419,6.9576,-0.4762,-0.8668,-0.6199
1762611.0,5.9472,0.3543,7.0701,-0.3257,-0.8248,-0.5928
1762621.0,6.0717,0.5148,6.7732,-0.1181,-0.7482,-0.5646
1762631.0,6.1076,0.656,6.5936,-0.017,-0.7024,-0.5486
1762641.0,6.1004,0.8763,6.3614,0.0,-0.6737,-0.5369
1762651.0,6.0597,1.1085,6.1363,-0.0404,-0.6359,-0.513
1762661.0,5.9592,1.1947,6.0023,-0.1383,-0.5976,-0.473
1762671.0,6.3063,1.1301,5.782,-0.2597,-0.5454,-0.4289
1762681.0,6.5936,0.8164,6.2177,-0.3916,-0.4576,-0.4039
1762691.0,6.6798,0.6584,6.4093,-0.3964,-0.348,-0.3911
1762701.0,6.6655,0.4477,7.0485,-0.3656,-0.2304,-0.3911
1762711.0,6.778,0.3304,7.6591,-0.2724,-0.1415,-0.3932
1762721.0,6.7205,0.2729,8.339,-0.1511,-0.1054,-0.3943
1762731.0,6.5338,0.4166,8.6335,-0.0213,-0.1532,-0.3895
1762741.0,6.5793,0.9218,8.3629,0.067,-0.2389,-0.3831
1762751.0,6.4907,1.3575,8.2049,0.0484,-0.3081,-0.357
1762761.0,6.4859,1.6855,7.9583,0.0,-0.3352,-0.3054
1762771.0,6.5314,1.7238,8.1068,-0.0777,-0.3214,-0.2389
1762781.0,6.438,1.6065,8.3797,-0.1607,-0.3129,-0.1708
1762791.0,6.3829,1.2737,8.8777,-0.2309,-0.3507,-0.1101
1762801.0,6.4955,1.0558,8.8681,-0.2118,-0.3922,-0.0612
1762811.0,6.596,0.9768,9.1842,-0.215,-0.3837,-0.0452
1762821.0,6.4404,0.9002,10.1299,-0.2581,-0.373,-0.0495
1762831.0,6.4332,0.9481,10.9918,-0.2937,-0.4603,-0.0559
1762841.0,6.3039,0.7398,12.0213,-0.3491,-0.6619,-0.0543
1762851.0,6.3997,0.2969,12.3469,-0.2597,-0.9104,-0.0325
1762861.0,6.3758,-0.3017,11.8034,-0.1128,-1.1659,-0.0197
1762871.0,6.6679,-1.1899,11.1929,-0.0362,-1.3862,-0.0617
1762881.0,7.1467,-1.7789,10.4267,0.0298,-1.5309,-0.1788
1762891.0,7.1826,-1.6688,10.0245,0.0521,-1.6128,-0.3741
1762901.0,7.0629,-0.2107,9.0214,0.0479,-1.7214,-0.5789
1762911.0,7.0653,1.0582,8.4036,-0.0883,-1.8496,-0.7152
1762921.0,7.0557,2.5283,7.0078,-0.1479,-1.9364,-0.7577
1762931.0,6.6463,3.699,5.8849,-0.2405,-1.9486,-0.7221
1762941.0,6.5194,4.6232,4.4436,-0.323,-1.9502,-0.6061
1762951.0,6.7373,5.4205,2.9592,-0.4044,-1.8831,-0.4438
1762961.0,6.6152,6.0358,1.6616,-0.4544,-1.7123,-0.2437
1762971.0,6.438,6.2465,0.3352,-0.4927,-1.5059,-0.016
1762981.0,6.4596,6.1483,-0.7494,-0.6439,-1.35,0.1979
1762991.0,6.505,5.4253,-1.2426,-0.8913,-1.2803,0.3842
1763001.0,6.7133,4.4269,-2.296,-1.0568,-1.3308,0.5289
1763011.0,6.8977,3.6105,-4.6256,-1.0584,-1.3782,0.6263
1763021.0,6.6702,2.8084,-7.2281,-1.0344,-1.3324,0.6737
1763031.0,5.8395,2.8084,-10.5872,-0.9982,-1.2478,0.6635
1763041.0,5.3271,3.6799,-14.358,-0.9152,-1.0429,0.6433
1763051.0,4.6615,4.8147,-18.6389,-0.705,-0.622,0.6939
1763061.0,3.8547,5.8299,-22.5821,-0.3491,0.1235,0.8386
1763071.0,1.9058,6.9767,-26.523,0.1133,1.1334,1.028
1763081.0,0.2155,8.1427,-30.0161,0.5007,2.3871,1.2451
1763091.0,-2.2314,8.6167,-31.5675,0.6577,3.9105,1.491
1763101.0,-5.6072,8.4372,-30.7439,0.5422,5.5175,1.7666
1763111.0,-10.5417,7.1682,-27.7919,0.19,6.9042,2.0662
1763121.0,-12.9861,5.1691,-24.021,0.1511,8.1445,2.3695
1763131.0,-16.9414,4.2952,-18.8017,0.7029,9.6547,2.6201
1763141.0,-21.883,3.9456,-12.7467,1.3659,10.8264,2.8282
1763151.0,-24.1096,4.0318,-8.7915,1.9741,11.4984,3.0038
1763161.0,-29.5373,5.5905,-5.6072,2.4089,12.2785,3.1512
1763171.0,-32.8604,3.2082,-2.1739,2.1311,12.7643,3.3906
1763181.0,-37.1796,-2.8659,1.7262,1.1563,13.0235,3.5183
1763191.0,-39.7533,-13.0556,7.4484,-0.0862,13.3252,3.3454
1763201.0,-41.8267,-22.7904,18.2151,-1.0823,13.819,2.6089
1763211.0,-45.0301,-26.3434,32.0296,-1.2036,14.0893,1.4122
1763221.0,-45.3462,-21.3946,46.3326,-0.4874,13.5125,0.0974
1763231.0,-42.4229,-9.8043,55.172,0.6008,11.7836,-0.8482
1763241.0,-38.3024,0.7518,60.2166,0.9099,9.114,-1.1685
1763251.0,-32.5779,6.6846,63.3075,0.8769,6.1294,-0.8631
1763261.0,-27.9451,10.5752,59.4217,1.185,3.3949,-0.1447
1763271.0,-25.3785,9.2081,55.3492,0.9158,0.9253,0.6715
1763281.0,-22.8958,3.8786,48.8154,0.7364,-1.3031,1.4138
1763291.0,-19.5965,-2.8204,41.2353,0.8168,-2.9559,1.8337
1763301.0,-18.5263,-6.0645,34.4095,0.9397,-4.0914,1.7975
1763311.0,-13.86,-10.0556,23.2214,0.8998,-5.1136,1.4362
1763321.0,-10.2376,-10.4459,17.6117,0.1841,-5.4244,0.6657
1763331.0,-8.7795,-8.327,12.7228,-0.4603,-5.3711,-0.1282
1763341.0,-6.9839,-5.4133,10.5872,-1.0946,-5.0827,-0.8003
1763351.0,-5.6599,-2.0159,9.0357,-1.3739,-4.6911,-1.1988
1763361.0,-4.7764,0.0144,9.3853,-1.3702,-4.2542,-1.3037
1763371.0,-4.1587,1.6352,8.6957,-0.9206,-3.9078,-1.1696
1763381.0,-3.5434,2.7102,7.4986,-0.3225,-3.5636,-0.8886
1763391.0,-2.8419,3.0311,6.0023,0.133,-3.2358,-0.5438
1763401.0,-2.5259,2.806,4.9752,0.298,-2.908,-0.2283
1763411.0,-1.8747,1.7286,4.039,0.2368,-2.6084,0.0357
1763421.0,-1.3384,0.2514,3.1819,-0.0341,-2.3211,0.1793
1763431.0,-0.8188,-1.3144,3.6847,-0.423,-1.9635,0.1815
1763441.0,-0.5291,-2.4684,4.9057,-0.6263,-1.541,0.091
1763451.0,-0.5052,-2.8994,6.5362,-0.7019,-1.1935,-0.067
1763461.0,-0.7781,-2.7246,8.4156,-0.6721,-1.0179,-0.2368
1763471.0,-0.8332,-2.229,9.6007,-0.4278,-0.9222,-0.34
1763481.0,-1.2474,-1.7047,10.5273,-0.0814,-0.8604,-0.3799
1763491.0,-1.3455,-1.3551,10.8745,0.249,-0.8934,-0.3778
1763501.0,-1.3838,-1.142,10.6566,0.4752,-0.9647,-0.3645
1763511.0,-1.2115,-0.984,10.398,0.5587,-1.0115,-0.3757
1763521.0,-0.9673,-0.7781,10.2783,0.5071,-0.9956,-0.4129
1763531.0,-1.2067,-0.4836,10.75,0.3097,-0.9615,-0.4741
1763541.0,-1.2857,0.0503,11.3318,0.0298,-0.9919,-0.5364
1763551.0,-1.4748,0.5076,12.4929,-0.24,-1.0366,-0.5635
1763561.0,-1.4868,0.6321,13.5919,-0.3464,-1.0993,-0.5252
1763571.0,-1.5706,0.3687,14.4442,-0.3517,-1.2388,-0.4448
1763581.0,-1.3958,-0.2969,15.0667,-0.274,-1.4356,-0.356
1763591.0,-1.3384,-0.9002,15.196,-0.0851,-1.6315,-0.2895
1763601.0,-1.2905,-0.9266,14.88,0.1575,-1.7959,-0.2618
1763611.0,-1.1468,-0.6488,13.9821,0.3491,-1.9358,-0.2395
1763621.0,-0.9984,-0.6201,13.1394,0.3193,-2.063,-0.2251
1763631.0,-0.735,-1.1684,12.7779,0.1133,-2.1598,-0.2357
1763641.0,-0.3543,-2.1644,12.7994,-0.1229,-2.2413,-0.2937
1763651.0,-0.2298,-2.5331,12.6988,-0.3155,-2.3349,-0.4294
1763661.0,-0.3184,-2.3439,13.0245,-0.4794,-2.4099,-0.5997
1763671.0,-0.4094,-1.6927,13.4171,-0.514,-2.4887,-0.7269
1763681.0,-0.3663,-1.0798,13.5392,-0.4837,-2.6579,-0.7854
1763691.0,-0.1796,-0.7781,13.2711,-0.4166,-2.9101,-0.7838
1763701.0,0.2274,-0.6704,11.8489,-0.2464,-3.1453,-0.7348
1763711.0,0.565,-1.0343,10.3669,-0.1373,-3.2901,-0.6827
1763721.0,0.929,-1.3408,8.7724,-0.1107,-3.3635,-0.671
1763731.0,1.5706,-1.7358,7.2903,-0.1389,-3.3422,-0.7045
1763741.0,2.2003,-1.8579,6.5697,-0.1501,-3.1453,-0.7806
1763751.0,2.4038,-1.4102,6.4763,-0.1485,-2.8723,-0.8759
1763761.0,2.624,-1.0798,6.9743,-0.2448,-2.7452,-0.9626
1763771.0,2.8611,-0.668,7.4148,-0.3251,-2.7585,-1.0248
1763781.0,2.9736,-0.1173,7.2664,-0.3092,-2.8457,-1.0461
1763791.0,3.134,0.17,6.7229,-0.216,-2.9543,-1.0147
1763801.0,3.4764,0.5794,5.3415,-0.0506,-3.0389,-0.9525
1763811.0,3.8355,0.7111,3.8714,0.0255,-3.0602,-0.8828
1763821.0,4.6902,0.8547,1.98,-0.0112,-3.0394,-0.8322
1763831.0,5.0446,0.7733,0.6057,-0.1974,-2.9192,-0.8216
1763841.0,5.5354,0.7278,-0.6991,-0.3714,-2.6515,-0.8338
1763851.0,5.9879,0.8164,-1.3503,-0.5571,-2.27,-0.8673
1763861.0,6.1435,1.0127,-1.0894,-0.729,-1.8587,-0.9051
1763871.0,6.505,1.142,-0.3663,-0.7354,-1.4404,-0.8998
1763881.0,6.4979,1.1947,0.5315,-0.5523,-1.0355,-0.8471
1763891.0,6.5984,1.1612,1.2019,-0.2251,-0.6902,-0.7556
1763901.0,6.7564,1.221,1.7119,0.1394,-0.3906,-0.6561
1763911.0,6.9528,1.2258,2.2673,0.4778,-0.1064,-0.5502
1763921.0,7.2018,0.9433,2.8132,0.7215,0.1213,-0.4544
1763931.0,7.3694,0.6464,3.2537,0.8237,0.2405,-0.4145
1763941.0,7.4364,0.4381,3.6512,0.8407,0.332,-0.4246
1763951.0,7.3406,0.644,4.3958,0.8072,0.4555,-0.4832
1763961.0,6.9599,1.3503,5.3989,0.7178,0.5678,-0.5438
1763971.0,6.5338,1.8196,6.2393,0.4369,0.4848,-0.5667
1763981.0,6.3734,2.0686,7.1012,0.0404,0.2932,-0.5635
1763991.0,6.4739,1.6089,7.9655,-0.2911,0.0819,-0.5241
1764001.0,6.3925,0.8906,8.4132,-0.4071,-0.1176,-0.48
1764011.0,6.8714,0.4453,8.2408,-0.3134,-0.2533,-0.4805
1764021.0,7.0701,0.9816,7.9487,-0.2033,-0.2783,-0.5364
1764031.0,6.9073,1.3599,8.4827,-0.265,-0.3464,-0.5869
1764041.0,7.1036,1.9106,8.0014,-0.298,-0.4789,-0.5901
1764051.0,7.1347,1.8148,8.0325,-0.4236,-0.5715,-0.5571
1764061.0,7.3119,1.482,8.0637,-0.4353,-0.6039,-0.5028
1764071.0,7.7428,1.2809,7.5513,-0.3443,-0.6039,-0.4608
1764081.0,7.9942,1.1923,7.2113,-0.3725,-0.6146,-0.4677
1764091.0,7.6926,2.1787,5.6144,-0.4821,-0.6604,-0.5018
1764101.0,8.4084,2.2889,6.1579,-0.8498,-0.5225,-0.5199
1764111.0,7.2305,2.1907,8.4252,-0.9993,-0.3246,-0.489
1764121.0,6.5673,3.1987,7.604,-0.7604,-0.4592,-0.3815
1764131.0,8.6143,3.7373,6.4955,-0.6758,-0.5316,-0.2208
1764141.0,7.6638,2.7031,8.6311,-0.6242,-0.2751,-0.008
1764151.0,7.4005,1.743,7.9033,-0.2442,-0.4076,0.1926
1764161.0,8.5353,1.391,5.9161,0.1022,-0.423,0.3038
1764171.0,8.3749,1.1971,6.529,0.1942,-0.0181,0.3406
1764181.0,7.7309,1.1612,8.3414,0.099,0.1724,0.3358
1764191.0,7.8362,1.3815,9.2153,-0.0027,0.0463,0.3326
1764201.0,7.7309,1.5107,9.2225,-0.0777,-0.0873,0.3645
1764211.0,7.1395,0.7709,10.0149,-0.2224,-0.1894,0.4049
1764221.0,7.1515,-0.1413,10.4938,-0.2267,-0.3411,0.4294
1764231.0,7.5585,-0.7446,9.9766,-0.1655,-0.5103,0.3986
1764241.0,7.58,-1.2833,10.2352,-0.2187,-0.6353,0.2985
1764251.0,7.3622,-1.5419,10.8433,-0.1932,-0.7269,0.1735
1764261.0,7.695,-1.2234,10.3908,-0.066,-0.8775,0.0617
1764271.0,7.8961,-1.0415,10.149,-0.1383,-1.085,-0.0553
1764281.0,7.9248,-0.6752,9.8162,-0.2144,-1.2808,-0.1639
1764291.0,8.0517,0.0096,9.0046,-0.2261,-1.4346,-0.241
1764301.0,8.0397,0.6393,8.0421,-0.2969,-1.5724,-0.2751
1764311.0,8.2169,0.5339,7.6662,-0.356,-1.6384,-0.2645
1764321.0,8.2935,0.5243,6.9408,-0.1953,-1.6011,-0.2304
1764331.0,8.2624,0.4501,6.0142,-0.0415,-1.5735,-0.2049
1764341.0,8.418,0.2203,4.9488,0.0394,-1.558,-0.1889
1764351.0,8.4372,0.0718,4.0055,0.0883,-1.474,-0.1995
1764361.0,8.4874,-0.1317,3.3974,0.0761,-1.3681,-0.2363
1764371.0,8.4539,-0.0958,3.134,0.0511,-1.2696,-0.3076
1764381.0,8.1139,0.3903,3.0502,0.0814,-1.1781,-0.3932
1764391.0,7.2257,1.2067,2.8611,0.1362,-1.1925,-0.4624
1764401.0,7.0198,2.4086,1.5371,0.2453,-1.3361,-0.4837
1764411.0,6.9001,3.553,-0.4094,0.4284,-1.3835,-0.4305
1764421.0,7.1323,4.1659,-2.9137,0.6604,-1.301,-0.3209
1764431.0,7.015,4.5801,-5.3726,0.9456,-1.1105,-0.1873
1764441.0,6.2441,4.9344,-8.6694,1.2441,-0.9328,-0.0383
1764451.0,6.1483,5.1308,-13.4841,1.3782,-0.7928,0.1112
1764461.0,6.4763,5.2146,-19.0219,1.2643,-0.4172,0.2176
1764471.0,5.8897,5.2218,-23.0562,0.9429,0.4299,0.2788
1764481.0,4.7884,4.5873,-24.1192,0.4236,1.5064,0.3145
1764491.0,2.5905,4.4173,-23.3842,0.0064,2.5898,0.3198
1764501.0,-0.5626,5.6072,-22.7976,-0.0963,3.6157,0.3592
1764511.0,-1.6448,7.4484,-22.0817,-0.1133,4.5416,0.4959
1764521.0,-3.9289,9.7516,-20.7529,-0.0431,5.5191,0.77
1764531.0,-7.1778,12.0787,-20.0586,-0.0442,6.3407,1.2164
1764541.0,-10.4842,12.287,-18.4521,-0.3932,6.926,1.8145
1764551.0,-13.4099,10.6829,-17.9805,-0.6194,7.5188,2.5355
1764561.0,-15.931,6.4308,-16.8839,-0.9897,8.2116,3.2187
1764571.0,-18.7729,1.1061,-13.8481,-1.4958,8.9198,3.7008
1764581.0,-21.3491,-4.6615,-9.8952,-1.6341,9.6802,3.9696
1764591.0,-24.3945,-9.651,-3.9433,-1.0131,10.8939,3.9743
1764601.0,-28.7208,-12.6198,4.7692,0.232,12.3461,3.6785
1764611.0,-31.388,-13.9319,14.2287,1.5676,13.4523,3.1086
1764621.0,-33.8157,-13.3309,25.5342,2.4009,14.0228,2.2764
1764631.0,-35.0511,-8.9495,35.8795,2.5174,13.6301,1.3191
1764641.0,-35.19,-3.8283,46.596,1.864,12.2801,0.5587
1764651.0,-32.6378,-0.2753,53.5607,1.1206,10.1101,0.2128
1764661.0,-29.0129,0.091,57.82,0.3437,7.6465,0.1522
1764671.0,-24.5406,-1.5395,60.5925,-0.1655,5.1977,0.1687
1764681.0,-20.911,-1.5299,59.6611,-0.3507,2.7132,0.1304
1764691.0,-17.9828,-2.6552,56.065,-0.6071,0.1453,0.0958
1764701.0,-15.263,-4.6184,48.6885,-0.6242,-2.2562,0.075
1764711.0,-12.9526,-5.612,38.2306,-0.4049,-4.0834,-0.0229
1764721.0,-11.248,-5.533,26.8582,-0.2767,-5.1689,-0.2102
1764731.0,-7.7452,-5.3965,17.8847,-0.4757,-5.4616,-0.4746
1764741.0,-5.1691,-5.272,13.1226,-0.7678,-5.0391,-0.7801
1764751.0,-3.1484,-4.0869,10.5848,-0.6577,-4.2287,-1.036
1764761.0,-2.66,-1.5682,9.596,-0.3326,-3.3252,-1.1749
1764771.0,-1.7262,0.3879,10.094,-0.1272,-2.6909,-1.143
1764781.0,-1.1492,1.2737,10.3573,-0.0048,-2.3668,-0.9812
1764791.0,-0.7949,1.4198,10.1394,0.1245,-2.1253,-0.7646
1764801.0,-0.838,0.8547,10.2352,0.1543,-1.8964,-0.5619
1764811.0,-1.2594,-0.3567,10.7811,0.1266,-1.7432,-0.4108
1764821.0,-1.142,-1.2115,10.2831,0.1532,-1.7075,-0.3326
1764831.0,-1.0199,-1.6855,10.2448,0.1368,-1.5777,-0.3395
1764841.0,-0.9481,-1.5826,10.8409,0.1314,-1.3095,-0.3831
1764851.0,-1.0965,-1.3192,12.9119,0.0303,-1.1185,-0.4443
1764861.0,-1.6568,-0.9385,14.7459,-0.0495,-1.1696,-0.4778
1764871.0,-1.6879,-1.1277,16.259,-0.0921,-1.458,-0.4677
1764881.0,-1.585,-1.47,16.5224,0.0234,-1.8518,-0.4395
1764891.0,-1.8938,-1.7286,15.4953,0.166,-2.2785,-0.4326
1764901.0,-1.573,-2.0303,13.7882,0.2373,-2.6531,-0.4667
1764911.0,-1.1732,-2.1069,11.7579,0.2857,-2.8106,-0.5364
1764921.0,-0.838,-1.6233,10.4124,0.2373,-2.7649,-0.6588
1764931.0,-0.644,-0.3208,9.9383,0.1101,-2.6079,-0.796
1764941.0,-0.7638,1.0894,10.386,-0.1059,-2.4642,-0.8743
1764951.0,-0.4453,2.2051,10.9942,-0.3735,-2.4812,-0.8732
1764961.0,-0.5171,2.5163,12.0309,-0.6082,-2.6164,-0.7854
1764971.0,-0.2394,2.0877,12.1745,-0.5837,-2.8383,-0.6204
1764981.0,0.0742,1.6759,10.8194,-0.3852,-3.0863,-0.455
1764991.0,0.4477,1.0343,8.8633,-0.2325,-3.2475,-0.3161
1765001.0,1.2163,0.0766,7.0533,-0.1511,-3.2443,-0.232
1765011.0,1.7621,-0.2442,5.545,-0.1788,-3.1065,-0.2517
1765021.0,2.1213,-0.182,5.1787,-0.2996,-2.8612,-0.3272
1765031.0,2.2721,0.0455,5.4037,-0.3613,-2.6052,-0.3837
1765041.0,2.6911,0.0192,5.3558,-0.3794,-2.46,-0.4007
1765051.0,3.3303,-0.2346,5.3151,-0.3698,-2.3647,-0.4092
1765061.0,3.6607,-0.2251,4.8507,-0.3411,-2.2748,-0.4321
1765071.0,3.6607,-0.2753,4.6017,-0.3688,-2.2173,-0.464
1765081.0,4.1108,-0.2179,3.9648,-0.3597,-2.1588,-0.489
1765091.0,4.6998,-0.1724,3.5865,-0.3182,-2.0071,-0.5215
1765101.0,4.7669,0.2466,3.4069,-0.3113,-1.8427,-0.5651
1765111.0,4.6735,0.5004,3.6033,-0.3837,-1.7379,-0.5938
1765121.0,4.8387,0.4621,3.5434,-0.3751,-1.6559,-0.5773
1765131.0,5.1571,-0.0599,3.3734,-0.2932,-1.541,-0.5422
1765141.0,5.4947,-0.6081,3.1771,-0.1421,-1.3798,-0.5337
1765151.0,5.7652,-0.6919,3.0167,0.0287,-1.1834,-0.58
1765161.0,5.964,-0.3041,2.8515,0.1325,-0.9908,-0.6577
1765171.0,5.7868,0.419,2.9329,0.1282,-0.8216,-0.7242
1765181.0,5.8107,1.0247,3.201,0.0372,-0.7029,-0.7482
1765191.0,6.0454,1.4868,3.5961,-0.0388,-0.6077,-0.7258
1765201.0,6.1794,1.8531,3.6751,-0.0772,-0.513,-0.6657
1765211.0,6.462,1.8603,3.814,-0.1213,-0.4113,-0.5859
1765221.0,6.8378,1.9058,3.9337,-0.1623,-0.2927,-0.5172
1765231.0,6.699,1.9321,4.3239,-0.2038,-0.1474,-0.4539
1765241.0,6.6367,1.98,4.8004,-0.1974,0.0048,-0.3762
1765251.0,6.7157,1.7741,5.363,-0.1713,0.1325,-0.2852
1765261.0,6.8809,1.2689,5.9209,-0.1341,0.2081,-0.1969
1765271.0,6.9528,0.8092,6.0741,-0.0814,0.2405,-0.1453
1765281.0,7.0725,0.5914,6.0549,-0.0325,0.2852,-0.132
1765291.0,6.9647,0.6512,6.3901,-0.0266,0.3677,-0.1474
1765301.0,6.7301,0.7638,6.9049,-0.0298,0.4347,-0.1527
1765311.0,6.7038,0.8715,7.094,-0.0245,0.4454,-0.1394
1765321.0,6.9073,0.6776,7.4627,-0.0612,0.4608,-0.1197
1765331.0,6.7014,0.4764,8.0709,-0.0537,0.5098,-0.0915
1765341.0,6.6248,0.1173,8.8107,-0.0282,0.4874,-0.0676
1765351.0,6.7564,-0.0646,9.0333,0.0415,0.398,-0.0596
1765361.0,6.8881,-0.0239,8.916,0.1208,0.2969,-0.0654
1765371.0,6.9504,0.079,8.5688,0.1767,0.2224,-0.0745
1765381.0,6.9168,0.2107,8.2289,0.1884,0.1932,-0.0873
1765391.0,6.9384,0.2322,8.3055,0.1527,0.1948,-0.0958
1765401.0,6.9288,0.2705,8.1738,0.116,0.1719,-0.107
1765411.0,6.9599,0.3998,8.1954,0.0452,0.1378,-0.1362
1765421.0,6.9025,0.8045,8.2576,-0.0069,0.1389,-0.1612
1765431.0,6.6702,1.1971,8.3127,-0.0436,0.1474,-0.1548
1765441.0,6.6367,1.3001,8.4228,-0.0819,0.1282,-0.1128
1765451.0,6.6104,1.0702,8.4922,-0.0654,0.1325,-0.0458
1765461.0,6.6343,0.6632,8.3989,0.0016,0.1506,0.0181
1765471.0,6.8211,0.3687,8.3629,0.0681,0.183,0.0436
1765481.0,6.7469,0.4669,8.2576,0.1117,0.2448,0.0335
1765491.0,6.6798,0.4908,8.4611,0.0495,0.274,0.0149
1765501.0,6.6846,0.3376,8.8131,-0.0367,0.2698,-0.0005
1765511.0,6.7157,0.0359,9.2632,-0.0788,0.2581,-0.0154
1765521.0,6.8259,-0.4381,9.414,-0.0681,0.2261,-0.0357
1765531.0,6.7493,-0.6512,9.5816,-0.1011,0.1575,-0.1096
1765541.0,7.0461,-0.6488,9.7037,-0.1666,0.0777,-0.2038
1765551.0,6.3925,-0.5866,10.1849,-0.2677,0.0096,-0.299
1765561.0,5.952,-0.2227,9.9647,-0.3991,-0.1788,-0.3714
1765571.0,5.6671,0.0814,9.8785,-0.5475,-0.3767,-0.4124
1765581.0,6.1842,0.5914,9.3134,-0.5694,-0.5039,-0.4108
1765591.0,6.5098,0.8188,8.9854,-0.5428,-0.5268,-0.3746
1765601.0,6.5841,0.8452,8.8011,-0.4363,-0.4709,-0.3113
1765611.0,6.5434,0.8308,8.8418,-0.3108,-0.4135,-0.2448
1765621.0,6.6104,0.8236,8.9902,-0.1916,-0.3959,-0.1836
1765631.0,6.6367,0.6871,9.4332,-0.0117,-0.3496,-0.1139
1765641.0,6.505,1.0127,9.177,0.2384,-0.3257,-0.0474
1765651.0,6.3734,1.2977,8.8609,0.2964,-0.3911,0.0064
1765661.0,6.3829,1.6544,8.0373,0.2219,-0.4746,0.0633
1765671.0,6.6846,1.5874,7.6183,0.0271,-0.4895,0.1229
1765681.0,6.8402,1.3671,7.3574,-0.132,-0.3938,0.1809
1765691.0,6.8642,0.9337,7.7668,-0.2698,-0.2176,0.2187
1765701.0,6.857,0.4405,8.9112,-0.365,-0.0788,0.2293
1765711.0,6.6702,0.1772,9.6558,-0.3847,-0.0176,0.2192
1765721.0,6.3159,-0.2011,10.9391,-0.422,-0.0122,0.1937
1765731.0,5.8778,-0.2274,12.0931,-0.3672,-0.0506,0.1687
1765741.0,5.8251,-0.3543,13.8145,-0.2176,-0.1213,0.1639
1765751.0,5.6288,-0.2059,14.8632,0.0623,-0.2756,0.1868
1765761.0,5.5545,-0.34,15.6796,0.1995,-0.6279,0.2059
1765771.0,5.6216,-0.7183,15.9645,0.2384,-1.127,0.2027
1765781.0,5.7533,-0.9768,15.3277,0.3352,-1.5889,0.1767
1765791.0,5.7676,-1.0175,14.2048,0.3225,-2.022,0.1043
1765801.0,5.8658,-0.7781,12.9933,0.1458,-2.4259,-0.0213
1765811.0,6.1914,-0.3328,11.4347,-0.1043,-2.7712,-0.1543
1765821.0,6.4308,-0.0599,10.4124,-0.4597,-3.0527,-0.2889
1765831.0,6.5362,0.3903,8.8657,-0.7173,-3.3028,-0.4017
1765841.0,6.2824,0.7494,7.2353,-0.9307,-3.4997,-0.473
1765851.0,6.6008,0.8691,5.5162,-1.0068,-3.5875,-0.4874
1765861.0,6.7253,0.8763,4.1444,-0.9535,-3.5737,-0.4741
1765871.0,6.6415,1.4341,1.8914,-0.7753,-3.5263,-0.431
1765881.0,7.0581,1.7526,0.6153,-0.7391,-3.4534,-0.3714
1765891.0,7.2832,1.64,-0.4908,-0.6087,-3.3055,-0.2778
1765901.0,7.0653,1.7813,-2.7869,-0.4076,-3.1799,-0.1979
1765911.0,7.6327,1.64,-4.9201,-0.3374,-3.0666,-0.1751
1765921.0,7.094,2.1644,-7.5968,-0.1378,-2.7297,-0.1761
1765931.0,6.8115,3.1747,-10.5321,-0.0915,-2.3471,-0.2054
1765941.0,6.1316,4.7788,-13.5799,-0.2373,-1.9917,-0.2357
1765951.0,5.5162,7.0366,-17.504,-0.5114,-1.6315,-0.182
1765961.0,5.1332,8.8418,-21.488,-0.9764,-1.2079,-0.0309
1765971.0,4.1444,10.0963,-24.6052,-1.2579,-0.4331,0.2373
1765981.0,2.9305,10.7619,-25.8454,-1.1946,0.646,0.588
1765991.0,0.2274,11.3653,-26.7744,-0.7045,1.831,0.9956
1766001.0,-1.5036,11.2863,-28.005,-0.0458,2.9713,1.4266
1766011.0,-4.312,11.1713,-29.906,0.721,4.3516,1.8502
1766021.0,-8.0828,11.4179,-30.6123,1.1579,5.9277,2.1971
1766031.0,-12.0931,11.8298,-28.4431,1.1318,7.5193,2.5004
1766041.0,-16.9031,12.6797,-24.7441,1.0366,9.081,2.8936
1766051.0,-22.2541,11.4203,-18.3037,0.8413,10.3783,3.4359
1766061.0,-26.1231,8.4156,-14.0372,0.9067,11.2478,4.0685
1766071.0,-29.0943,4.7166,-9.0453,1.0626,12.063,4.5336
1766081.0,-33.2363,2.4517,-4.6687,1.549,12.925,4.7975
1766091.0,-37.2203,-0.4118,0.9074,1.9231,13.6694,4.9066
1766101.0,-39.8419,-5.5378,8.509,2.2748,14.2665,4.8608
1766111.0,-41.2138,-11.7053,16.7905,2.8926,14.7161,4.483
1766121.0,-39.7868,-15.4402,26.0106,3.3183,14.6586,3.5375
1766131.0,-38.4461,-13.149,34.3065,3.3991,14.0403,2.1939
1766141.0,-39.3607,-7.4316,40.9456,2.7148,12.6919,0.8966
1766151.0,-37.3567,-2.3846,46.6055,1.0898,10.4017,-0.0841
1766161.0,-35.1445,1.3001,52.5527,-0.1506,8.4595,-0.5055
1766171.0,-32.7,2.885,58.4951,-0.654,6.6147,-0.4592
1766181.0,-29.1303,2.5881,62.9914,-0.7971,4.1468,-0.1618
1766191.0,-25.8837,1.8771,61.045,-0.4225,1.251,0.2911
1766201.0,-22.4097,0.0311,55.3563,0.2086,-1.4293,0.763
1766211.0,-19.9054,-1.5562,44.999,1.0807,-3.4396,1.1722
1766221.0,-16.9893,-4.3981,34.0288,1.2914,-5.0194,1.3292
1766231.0,-12.8473,-7.0797,22.4289,1.085,-5.9091,1.1568
1766241.0,-9.596,-8.3462,14.6765,0.4922,-5.6936,0.6518
1766251.0,-7.6423,-8.0349,12.4427,-0.4688,-4.9572,-0.0452
1766261.0,-6.3734,-6.5553,13.1705,-1.425,-4.4825,-0.7391
1766271.0,-5.5282,-4.64,14.4993,-1.9161,-4.3601,-1.2372
1766281.0,-4.9416,-2.3727,14.382,-1.5735,-4.3101,-1.4138
1766291.0,-4.4221,-0.3184,12.1266,-0.7758,-4.2697,-1.3218
1766301.0,-3.5745,1.0678,8.4874,-0.0809,-4.1606,-1.0786
1766311.0,-2.6001,1.3216,5.4851,0.2341,-3.803,-0.8046
1766321.0,-1.6855,0.7685,4.2665,0.2559,-3.1799,-0.5949
1766331.0,-1.2234,-0.0072,4.9225,0.0974,-2.4844,-0.5007
1766341.0,-1.4653,-0.3352,7.0605,-0.2155,-1.9773,-0.5124
1766351.0,-1.6305,-0.6129,9.5553,-0.5146,-1.815,-0.5459
1766361.0,-1.5036,-0.8954,11.2719,-0.6428,-1.9172,-0.5587
1766371.0,-1.1253,-1.482,12.3517,-0.6066,-2.1029,-0.5603
1766381.0,-1.6664,-1.4293,12.4211,-0.4342,-2.336,-0.5869
1766391.0,-1.6281,-1.4413,11.7388,-0.2661,-2.6207,-0.6039
1766401.0,-1.3719,-1.3048,10.9223,-0.0639,-2.775,-0.6183
1766411.0,-1.233,-1.0798,10.2663,0.2144,-2.7297,-0.6188
1766421.0,-1.0223,-1.0056,9.6989,0.3831,-2.6797,-0.6268
1766431.0,-0.7326,-0.7542,9.1961,0.3379,-2.726,-0.6784
1766441.0,-0.3472,-0.5004,8.5425,0.1756,-2.7569,-0.7402
1766451.0,0.1245,-0.3424,8.6263,-0.0053,-2.6904,-0.8003
1766461.0,0.3783,0.0,8.6933,-0.1298,-2.6207,-0.8487
1766471.0,0.3807,0.5291,8.758,-0.3161,-2.6462,-0.8998
1766481.0,0.6249,1.1253,8.9112,-0.4342,-2.6707,-0.9078
1766491.0,0.7997,1.47,8.9016,-0.3688,-2.6132,-0.8264
1766501.0,1.1372,1.5586,8.6335,-0.232,-2.5403,-0.6981
1766511.0,1.6688,1.6257,8.2648,-0.1634,-2.4977,-0.572
1766521.0,2.2865,1.4533,8.0397,-0.1894,-2.477,-0.4587
1766531.0,3.1029,1.1803,7.3861,-0.2533,-2.4935,-0.3672
1766541.0,3.644,0.9625,6.8594,-0.3634,-2.4733,-0.3342
1766551.0,3.6176,1.1133,6.1387,-0.4576,-2.3791,-0.3267
1766561.0,3.5626,1.1708,6.0861,-0.6385,-2.2705,-0.3187
1766571.0,3.644,1.0319,6.2968,-0.8003,-2.1785,-0.2857
1766581.0,3.7469,0.5267,6.6319,-0.8721,-2.1205,-0.2368
1766591.0,4.0989,-0.0646,6.5434,-0.7955,-2.0891,-0.182
1766601.0,4.4508,-0.6416,6.0525,-0.6337,-2.0646,-0.1479
1766611.0,4.7046,-1.0822,5.466,-0.4315,-1.9981,-0.1405
1766621.0,4.8195,-1.3623,5.1475,-0.1836,-1.8384,-0.158
1766631.0,5.0135,-1.415,4.9033,0.0873,-1.6378,-0.199
1766641.0,5.679,-1.9776,5.0973,0.281,-1.4681,-0.2687
1766651.0,4.6017,-1.5969,7.3454,0.6476,-1.2856,-0.4699
1766661.0,5.0326,0.7422,3.9313,1.3675,-1.3207,-0.4768
1766671.0,6.0956,0.6632,2.794,1.0765,-1.4213,-0.3735
1766681.0,7.0006,0.5866,1.4078,0.6167,-1.2728,-0.2682
1766691.0,6.2656,-0.2634,3.2968,0.0133,-0.9871,-0.2778
1766701.0,6.3231,-0.4046,3.6536,-0.3459,-1.0174,-0.3453
1766711.0,6.754,-0.7614,4.039,-0.5316,-1.0429,-0.4209
1766721.0,7.3861,-0.6895,3.5745,-0.4608,-0.9349,-0.481
1766731.0,6.3207,-0.2538,3.5937,-0.4225,-0.7482,-0.5428
1766741.0,5.7341,0.4334,3.0598,-0.5843,-0.7705,-0.58
1766751.0,7.501,0.1173,2.8898,-0.9035,-0.8556,-0.5805
1766761.0,8.0038,-0.2682,3.1939,-0.8929,-0.5513,-0.5534
1766771.0,8.1235,-0.3448,3.6344,-0.754,-0.2315,-0.5603
1766781.0,8.3127,-0.9577,5.114,-0.6263,0.0037,-0.596
1766791.0,7.7045,-0.7207,5.9089,-0.3145,0.1453,-0.6428
1766801.0,7.3406,-0.0144,5.2792,-0.0048,0.191,-0.6534
1766811.0,7.2089,-0.0239,5.8227,0.0351,0.2719,-0.6252
1766821.0,7.434,-0.0168,6.517,0.1165,0.3762,-0.6029
1766831.0,7.4244,0.2346,7.106,0.2277,0.4486,-0.613
1766841.0,7.4388,0.498,7.7644,0.2347,0.4039,-0.6476
1766851.0,6.9887,0.9792,8.1547,0.2868,0.3938,-0.655
1766861.0,6.1292,1.3479,8.6191,0.2985,0.3751,-0.6045
1766871.0,5.9113,1.0343,9.2871,0.2102,0.2155,-0.5321
1766881.0,6.4715,1.1109,8.7005,0.2379,0.0415,-0.4757
1766891.0,7.0988,1.0894,8.0469,0.1857,-0.0229,-0.4528
1766901.0,7.1754,1.2737,7.6279,0.0537,0.0138,-0.4667
1766911.0,6.8331,1.4389,8.1044,-0.1666,0.0846,-0.4917
1766921.0,6.8378,1.3288,8.9926,-0.2703,0.1628,-0.4715
1766931.0,6.7995,1.1803,10.082,-0.2655,0.1703,-0.4273
1766941.0,6.8139,0.9146,10.6135,-0.1708,0.0378,-0.3757
1766951.0,6.8163,0.9074,10.2376,0.0043,-0.1261,-0.3262
1766961.0,6.857,0.9864,9.5768,0.1479,-0.2309,-0.2879
1766971.0,6.9121,1.2019,8.7412,0.1687,-0.3134,-0.2698
1766981.0,7.0318,1.336,8.3534,0.0649,-0.3624,-0.2687
1766991.0,7.1108,1.4964,8.0469,-0.0234,-0.3624,-0.2634
1767001.0,7.1395,1.7837,7.8841,-0.1016,-0.3411,-0.2559
1767011.0,7.094,2.1261,7.9033,-0.1963,-0.3294,-0.2299
1767021.0,6.9671,2.1907,8.0948,-0.2341,-0.3203,-0.1687
1767031.0,7.1156,2.2242,7.5729,-0.2214,-0.3326,-0.0777
1767041.0,7.1204,1.8292,7.75,-0.2911,-0.3012,0.0032
1767051.0,7.3215,1.5993,7.9727,-0.2836,-0.2496,0.0729
1767061.0,7.2353,1.4078,7.9871,-0.2591,-0.241,0.125
1767071.0,7.185,1.3791,7.9033,-0.2687,-0.2661,0.1591
1767081.0,7.331,1.4365,7.8961,-0.2964,-0.265,0.1894
1767091.0,7.2209,1.3144,8.078,-0.339,-0.2613,0.2293
1767101.0,7.2233,0.9505,8.2408,-0.3656,-0.2937,0.2767
1767111.0,7.3287,0.4956,8.0325,-0.3789,-0.3602,0.3097
1767121.0,7.4723,-0.1053,7.9679,-0.4363,-0.4262,0.3118
1767131.0,7.774,-0.5842,7.9176,-0.4475,-0.4571,0.2751
1767141.0,7.8027,-0.5531,7.9368,-0.4268,-0.4608,0.2027
1767151.0,7.6854,-0.3112,8.0014,-0.4326,-0.4927,0.1261
1767161.0,7.5226,-0.091,7.9464,-0.4262,-0.5475,0.0835
1767171.0,7.4939,0.0048,7.7859,-0.4028,-0.5997,0.0724
1767181.0,7.671,0.0455,7.7069,-0.3906,-0.6513,0.0702
1767191.0,7.6231,0.0646,7.695,-0.3464,-0.6838,0.0777
1767201.0,7.6495,-0.0575,7.3789,-0.2373,-0.7072,0.1096
1767211.0,8.011,-0.1341,6.7684,-0.1804,-0.7364,0.1288
1767221.0,8.418,-0.3831,6.4476,-0.249,-0.7524,0.1187
1767231.0,8.5114,-0.6081,6.1723,-0.339,-0.7386,0.0734
1767241.0,8.2791,-0.3711,5.8921,-0.4246,-0.7269,0.0037
1767251.0,8.1977,0.0144,5.8155,-0.5007,-0.6891,-0.0484
1767261.0,8.0325,0.565,5.4564,-0.5209,-0.6215,-0.0591
1767271.0,8.1427,0.8571,5.0398,-0.6008,-0.5752,-0.0298
1767281.0,8.1451,0.7997,4.7645,-0.7758,-0.5364,0.0064
1767291.0,8.1355,0.6105,4.8507,-0.9243,-0.4284,0.0388
1767301.0,8.1116,0.1963,5.5354,-1.011,-0.2772,0.0788
1767311.0,8.1714,-0.577,6.5697,-1.0158,-0.2022,0.1112
1767321.0,8.0517,-1.0726,7.0413,-0.903,-0.24,0.1117
1767331.0,8.2552,-1.3551,7.2712,-0.6747,-0.2682,0.0963
1767341.0,8.0876,-1.1229,7.0964,-0.4039,-0.2767,0.0686
1767351.0,8.0302,-0.8212,7.1347,-0.2171,-0.3076,0.0362
1767361.0,8.2121,-0.4764,6.8546,-0.0011,-0.3203,0.0314
1767371.0,7.9703,-0.1532,6.438,0.1517,-0.3352,0.0341
1767381.0,7.9392,0.0,5.8131,0.1607,-0.4039,0.0277
1767391.0,8.0828,-0.0096,5.1188,0.0952,-0.4507,0.0112
1767401.0,8.0397,0.1006,4.3646,-0.0282,-0.4784,-0.0319
1767411.0,7.6255,0.5267,3.383,-0.223,-0.5385,-0.0995
1767421.0,7.0485,0.9768,2.4157,-0.472,-0.6109,-0.1618
1767431.0,6.7421,1.3743,0.9122,-0.6657,-0.6944,-0.2059
1767441.0,6.4452,2.1476,-0.9433,-0.9445,-0.8514,-0.281
1767451.0,5.612,3.7469,-3.3375,-1.367,-1.1669,-0.3815
1767461.0,5.114,5.4755,-6.0645,-1.7113,-1.5128,-0.4129
1767471.0,4.13,7.3694,-9.4762,-1.5953,-1.6309,-0.3182
