time_ms,ax,ay,az,gx,gy,gz
1805301.0,2.6193,0.1676,10.3669,-0.0569,0.0654,-0.0239
1805311.0,2.6097,0.2083,10.3837,-0.0506,0.067,-0.0335
1805321.0,2.6145,0.2634,10.4028,-0.0463,0.0575,-0.0404
1805331.0,2.6025,0.3352,10.3765,-0.0527,0.0388,-0.0452
1805341.0,2.6169,0.4381,10.2807,-0.0644,0.0208,-0.0452
1805351.0,2.6432,0.4884,10.2376,-0.0841,0.0064,-0.042
1805361.0,2.6552,0.5076,10.1586,-0.1027,-0.0011,-0.0346
1805371.0,2.66,0.4741,10.1442,-0.1139,0.0,-0.0255
1805381.0,2.6863,0.4357,10.1035,-0.1107,0.0059,-0.0165
1805391.0,2.6624,0.3615,10.0772,-0.1032,0.0074,-0.0074
1805401.0,2.6983,0.2825,9.9886,-0.0857,0.0138,-0.0005
1805411.0,2.7653,0.1508,9.9431,-0.0623,0.0309,0.0005
1805421.0,2.7677,0.182,9.8378,-0.0383,0.0612,-0.0101
1805431.0,2.7414,0.2753,9.9096,-0.0458,0.099,-0.0229
1805441.0,2.6647,0.3184,10.1993,-0.066,0.1282,-0.0303
1805451.0,2.6312,0.3065,10.4196,-0.074,0.1293,-0.0309
1805461.0,2.6408,0.3208,10.5704,-0.0575,0.1048,-0.0255
1805471.0,2.6576,0.3232,10.4986,-0.0314,0.0724,-0.0192
1805481.0,2.6911,0.2538,10.3597,-0.0255,0.0415,-0.0144
1805491.0,2.7581,0.2634,10.1873,-0.0287,0.0266,-0.0192
1805501.0,2.7294,0.3352,10.0461,-0.0607,0.0303,-0.0298
1805511.0,2.6839,0.3184,10.1921,-0.108,0.0394,-0.0399
1805521.0,2.6288,0.3041,10.3717,-0.1245,0.041,-0.0436
1805531.0,2.6145,0.2562,10.4459,-0.1016,0.0261,-0.042
1805541.0,2.6959,0.2394,10.3238,-0.0521,0.0085,-0.0362
1805551.0,2.6959,0.2873,10.1083,-0.0117,0.0059,-0.0346
1805561.0,2.7366,0.4142,9.9503,-0.0144,0.0133,-0.0388
1805571.0,2.7438,0.5028,9.9527,-0.0527,0.033,-0.0431
1805581.0,2.6695,0.5722,10.0868,-0.0952,0.0521,-0.0404
1805591.0,2.6288,0.5195,10.24,-0.1144,0.0553,-0.0298
1805601.0,2.6097,0.4094,10.3932,-0.1075,0.0463,-0.016
1805611.0,2.6743,0.3304,10.2663,-0.0665,0.0367,-0.0027
1805621.0,2.7246,0.2705,10.1299,-0.0484,0.0378,-0.0011
1805631.0,2.7031,0.3017,10.1179,-0.0548,0.0447,-0.0064
1805641.0,2.7222,0.3424,10.1945,-0.0862,0.05,-0.0154
1805651.0,2.6528,0.3352,10.3669,-0.1224,0.0367,-0.0197
1805661.0,2.6743,0.2586,10.3789,-0.1266,0.0021,-0.0192
1805671.0,2.7007,0.2227,10.2017,-0.1054,-0.0245,-0.0144
1805681.0,2.7916,0.1963,9.9982,-0.0814,-0.0341,-0.0133
1805691.0,2.873,0.1508,9.8545,-0.0798,-0.0261,-0.0165
1805701.0,2.9425,0.0982,9.7396,-0.0846,-0.008,-0.0218
1805711.0,2.9592,0.0694,9.9264,-0.0734,0.0192,-0.0293
1805721.0,3.0765,0.1556,9.8426,-0.0106,0.0378,-0.0287
1805731.0,2.9353,0.2083,9.4715,0.0474,0.058,-0.0197
1805741.0,2.9951,0.1867,9.2703,0.0537,0.0942,-0.0229
1805751.0,2.909,0.2682,9.2871,0.0495,0.1756,-0.033
1805761.0,2.8754,0.2394,9.6079,0.009,0.2496,-0.0452
1805771.0,2.7701,0.2849,10.003,-0.0362,0.2708,-0.0612
1805781.0,2.739,0.3256,10.2807,-0.0777,0.2522,-0.0713
1805791.0,2.739,0.3496,10.4339,-0.0921,0.2208,-0.074
1805801.0,2.6312,0.6919,10.2089,-0.0979,0.1756,-0.0756
1805811.0,2.6647,0.9649,9.9503,-0.165,0.1378,-0.0649
1805821.0,2.7605,0.9744,9.4475,-0.2559,0.1235,-0.0362
1805831.0,2.8395,0.5507,9.6414,-0.3523,0.1889,-0.0133
1805841.0,2.8371,0.3304,9.7803,-0.3065,0.3214,0.008
1805851.0,2.6719,-0.0239,10.6207,-0.2469,0.4374,0.0122
1805861.0,2.624,-0.0599,10.9439,-0.1442,0.4661,0.0096
1805871.0,2.4397,-0.0838,11.2671,-0.099,0.4534,-0.0021
1805881.0,2.4157,-0.0622,11.5089,-0.1415,0.3927,-0.0229
1805891.0,2.162,-0.1437,11.9997,-0.2171,0.3432,-0.0458
1805901.0,2.3367,-0.2298,12.3565,-0.2528,0.2826,-0.0633
1805911.0,2.1452,-0.3519,12.8832,-0.3432,0.1948,-0.1054
1805921.0,2.0087,-0.1652,13.0604,-0.4507,0.0559,-0.1591
1805931.0,2.0111,0.0263,13.1657,-0.6423,-0.108,-0.2123
1805941.0,1.8459,0.0742,13.4123,-0.9025,-0.2687,-0.2565
1805951.0,1.7813,-0.0455,13.8552,-1.1616,-0.4454,-0.2873
1805961.0,1.8579,-0.1676,14.1354,-1.3611,-0.6423,-0.3102
1805971.0,2.0279,-0.3831,14.2647,-1.4851,-0.7992,-0.3251
1805981.0,1.913,-0.6584,14.8201,-1.5234,-0.8806,-0.3299
1805991.0,1.7621,-0.7254,15.3468,-1.4293,-0.9716,-0.3166
1806001.0,1.6975,-0.6656,15.4306,-1.2861,-1.126,-0.2857
1806011.0,1.6879,-0.8092,15.5719,-1.1446,-1.2829,-0.2384
1806021.0,1.6927,-1.0008,15.591,-0.9913,-1.4229,-0.1836
1806031.0,1.5658,-1.4054,15.9143,-0.861,-1.5692,-0.1341
1806041.0,1.6209,-1.992,16.2686,-0.7104,-1.7443,-0.0931
1806051.0,1.5706,-2.8754,16.9007,-0.5103,-1.9278,-0.0681
1806061.0,1.6831,-3.486,16.9102,-0.232,-2.1567,-0.0819
1806071.0,1.7358,-3.8307,16.6996,-0.0468,-2.4504,-0.1543
1806081.0,1.8076,-3.5554,16.0364,0.0128,-2.775,-0.2778
1806091.0,1.6496,-2.8635,15.1361,-0.099,-3.1171,-0.4214
1806101.0,1.7286,-2.1428,13.8624,-0.3448,-3.5093,-0.5459
1806111.0,1.9273,-1.81,12.3732,-0.6619,-3.8562,-0.6455
1806121.0,2.308,-1.7358,10.9535,-0.945,-4.0797,-0.7333
1806131.0,2.6504,-1.4964,9.4284,-1.1233,-4.1893,-0.821
1806141.0,2.9401,-1.221,8.1068,-1.2473,-4.2122,-0.8955
1806151.0,3.4716,-1.075,7.1084,-1.2792,-4.1228,-0.9424
1806161.0,3.8954,-0.8021,6.3375,-1.2302,-3.9712,-0.9679
1806171.0,4.2952,-0.4381,5.8251,-1.1542,-3.836,-0.9786
1806181.0,4.8147,-0.1484,5.217,-0.9977,-3.7083,-0.9583
1806191.0,5.3223,0.1484,4.4005,-0.8099,-3.5699,-0.9126
1806201.0,5.5857,0.3615,3.4596,-0.6822,-3.4151,-0.8567
1806211.0,5.8275,0.3687,2.7366,-0.6093,-3.2438,-0.7971
1806221.0,6.3375,0.1293,1.9585,-0.5225,-3.0362,-0.7317
1806231.0,6.8378,-0.4741,1.8579,-0.4486,-2.7686,-0.6843
1806241.0,7.1371,-0.6656,1.8316,-0.3347,-2.527,-0.679
1806251.0,7.3215,-0.8452,1.8747,-0.2538,-2.3466,-0.6944
1806261.0,7.5537,-0.8978,2.1524,-0.1309,-2.1636,-0.7152
1806271.0,7.4723,-0.4118,2.0303,0.033,-2.0093,-0.7386
1806281.0,7.58,-0.237,2.1979,0.099,-1.9257,-0.7466
1806291.0,7.6902,0.0479,1.822,0.1937,-1.8682,-0.737
1806301.0,7.9368,0.1317,1.1708,0.2421,-1.8028,-0.7168
1806311.0,8.169,0.1484,0.7829,0.2214,-1.7155,-0.7082
1806321.0,8.2744,0.3879,0.4118,0.2033,-1.591,-0.712
1806331.0,8.2863,0.747,0.2274,0.1655,-1.458,-0.7146
1806341.0,8.406,1.2665,0.2011,0.1325,-1.3223,-0.6965
1806351.0,8.3917,1.9417,0.3184,0.1133,-1.1893,-0.6534
1806361.0,8.4036,2.569,0.4357,0.0958,-1.1025,-0.5688
1806371.0,8.2696,2.8228,0.3136,0.0947,-1.0711,-0.4438
1806381.0,8.4755,2.4876,-0.3472,0.1091,-1.069,-0.2921
1806391.0,8.6981,1.8292,-0.9936,0.1346,-1.0126,-0.1666
1806401.0,8.837,1.4748,-1.4868,0.2315,-0.862,-0.0894
1806411.0,8.8681,1.5012,-1.7765,0.3512,-0.687,-0.0495
1806421.0,8.8394,1.7382,-2.5211,0.3858,-0.5981,-0.0319
1806431.0,8.8849,1.9896,-3.2801,0.2964,-0.5481,-0.0255
1806441.0,8.691,2.2505,-4.5011,0.1953,-0.4581,-0.0096
1806451.0,8.6119,2.332,-5.794,0.0341,-0.3304,0.0085
1806461.0,8.442,2.3176,-6.936,-0.1293,-0.141,0.0192
1806471.0,7.853,2.2314,-7.6686,-0.1884,0.1352,0.0096
1806481.0,7.2592,2.988,-9.2943,-0.1112,0.3826,-0.0309
1806491.0,5.6192,4.3646,-11.0253,-0.0809,0.5997,-0.0777
1806501.0,4.0701,6.7205,-13.7284,-0.0708,0.7673,-0.0596
1806511.0,1.9297,9.3805,-17.1161,-0.1368,0.9871,0.0788
1806521.0,0.3639,12.074,-20.65,-0.1772,1.4223,0.3496
1806531.0,-2.2051,14.1904,-22.9628,-0.0633,2.22,0.7588
1806541.0,-5.0829,15.1266,-24.5406,0.3304,3.2608,1.3085
1806551.0,-8.6024,15.3397,-26.116,0.8583,4.4511,1.9018
1806561.0,-12.5049,14.5496,-26.6882,1.2505,5.7351,2.4589
1806571.0,-17.3556,14.0683,-26.3219,1.466,7.1165,2.9543
1806581.0,-21.9165,14.0157,-23.5446,1.5234,8.5819,3.4321
1806591.0,-27.1574,13.0723,-19.3595,1.3574,9.9042,3.9818
1806601.0,-31.5795,9.7324,-13.3285,0.8599,10.8147,4.5836
1806611.0,-34.1557,4.549,-7.762,0.4337,11.2616,5.1455
1806621.0,-35.7382,-0.3903,-3.5003,0.4113,11.5931,5.5345
1806631.0,-38.6185,-4.9632,-1.6065,0.6721,11.9656,5.6755
1806641.0,-41.2952,-10.635,-0.7925,0.953,12.7984,5.5207
1806651.0,-45.9902,-17.1161,5.035,0.7215,14.4203,4.9098
1806661.0,-51.4658,-24.2796,18.3875,-0.2895,16.0129,3.8498
1806671.0,-53.4577,-31.7112,38.8914,-1.6304,16.6338,2.4903
1806681.0,-52.4378,-31.2635,61.4041,-1.6852,15.7708,1.1451
1806691.0,-48.2839,-23.0873,75.2114,-0.4832,12.8633,0.2176
1806701.0,-38.8172,-11.6095,75.549,1.0302,8.8783,-0.0309
1806711.0,-32.6617,-4.3048,71.7159,1.5798,5.1897,0.1756
1806721.0,-27.6842,-1.6855,65.4742,1.516,1.939,0.6476
1806731.0,-23.5326,-3.1484,57.808,1.3968,-0.7471,1.177
1806741.0,-21.148,-6.7612,47.6805,1.4442,-2.8622,1.5628
1806751.0,-18.2702,-11.71,37.3831,1.4755,-4.3165,1.6144
1806761.0,-14.4346,-14.3149,28.3809,1.4309,-4.9588,1.2164
1806771.0,-11.5329,-14.4777,22.9772,1.1291,-5.0327,0.5076
1806781.0,-9.5864,-12.3972,19.156,0.7764,-5.0221,-0.2756
1806791.0,-7.9871,-9.3494,16.1944,0.4603,-5.0705,-0.945
1806801.0,-6.6822,-6.2968,12.7563,0.3852,-5.0364,-1.3707
1806811.0,-5.6623,-3.6703,9.1147,0.4927,-4.7911,-1.5687
1806821.0,-4.8866,-1.5921,6.6439,0.5491,-4.3607,-1.6245
1806831.0,-4.4508,0.0168,5.2912,0.5906,-3.8323,-1.5671
1806841.0,-3.8595,0.9266,4.7597,0.6082,-3.3145,-1.4298
1806851.0,-3.723,1.4557,4.628,0.5944,-2.8915,-1.2606
1806861.0,-3.2777,1.7454,4.367,0.5316,-2.5834,-1.0823
1806871.0,-2.4828,1.5658,4.2377,0.365,-2.337,-0.9285
1806881.0,-1.9082,1.2881,4.3407,0.149,-2.0907,-0.828
1806891.0,-1.5131,0.9385,5.035,-0.0293,-1.8262,-0.7668
1806901.0,-1.3551,0.7614,6.0166,-0.132,-1.6033,-0.7253
1806911.0,-1.2234,0.3783,7.106,-0.1447,-1.4532,-0.6731
1806921.0,-1.2354,-0.3974,8.2791,-0.066,-1.3915,-0.6226
1806931.0,-1.1995,-0.893,8.7436,0.1437,-1.4069,-0.6077
1806941.0,-1.0032,-0.9816,8.4898,0.3922,-1.4356,-0.6263
1806951.0,-0.8092,-0.7254,8.0206,0.5342,-1.4309,-0.6811
1806961.0,-0.5842,-0.0646,7.6614,0.5177,-1.3729,-0.7609
1806971.0,-0.3783,0.4381,8.0014,0.3166,-1.3021,-0.8285
1806981.0,-0.5315,1.0032,8.7652,0.0633,-1.2808,-0.8673
1806991.0,-0.2514,1.166,9.1411,-0.1352,-1.3266,-0.8477
1807001.0,-0.0599,0.9074,9.232,-0.2778,-1.3862,-0.796
1807011.0,0.2418,0.6009,9.2632,-0.3304,-1.3872,-0.7497
1807021.0,0.3615,0.6249,9.2344,-0.3177,-1.3122,-0.7199
1807031.0,0.2634,0.498,9.8641,-0.3129,-1.185,-0.6811
1807041.0,0.0766,-0.0383,10.9894,-0.2703,-1.0866,-0.6215
1807051.0,0.1556,-0.6345,11.7771,-0.1336,-1.0908,-0.5651
1807061.0,0.4764,-1.0798,12.1961,0.0277,-1.152,-0.5337
1807071.0,0.5962,-1.1684,12.5791,0.1862,-1.1999,-0.531
1807081.0,0.6249,-0.9984,12.7443,0.3443,-1.267,-0.5273
1807091.0,0.5052,-0.6009,12.5935,0.4033,-1.4074,-0.5193
1807101.0,0.6776,-0.6057,12.4379,0.3496,-1.582,-0.4997
1807111.0,0.6225,-0.6536,12.0979,0.3033,-1.7288,-0.4757
1807121.0,0.8859,-0.8667,11.8226,0.2272,-1.8837,-0.4629
1807131.0,1.2498,-1.1468,11.576,0.183,-2.0204,-0.4635
1807141.0,1.6664,-1.3001,10.9152,0.1868,-2.1104,-0.4773
1807151.0,1.8771,-1.4174,10.5177,0.1511,-2.1769,-0.513
1807161.0,2.1356,-1.3671,9.6893,0.0889,-2.2721,-0.5561
1807171.0,2.4062,-1.7023,9.1171,-0.041,-2.3466,-0.6109
1807181.0,2.8012,-1.7741,8.6024,-0.116,-2.3546,-0.6843
1807191.0,3.1173,-1.494,8.1882,-0.1437,-2.3014,-0.7662
1807201.0,3.2585,-1.0726,7.8171,-0.1501,-2.2429,-0.8322
1807211.0,3.486,-0.6249,7.6064,-0.132,-2.1721,-0.8716
1807221.0,3.8595,-0.1053,7.1515,-0.0521,-2.0502,-0.8737
1807231.0,3.881,0.4884,7.0892,-0.0372,-1.9007,-0.8562
1807241.0,3.9576,0.8811,7.2042,-0.1176,-1.823,-0.8136
1807251.0,4.0486,0.826,7.3741,-0.2384,-1.8102,-0.7519
1807261.0,4.3215,0.5004,7.4412,-0.3304,-1.8278,-0.696
1807271.0,4.5226,0.103,7.434,-0.3815,-1.8438,-0.6683
1807281.0,4.628,-0.1915,7.501,-0.3581,-1.8714,-0.6641
1807291.0,4.7836,-0.2466,7.2712,-0.2075,-1.8874,-0.6689
1807301.0,4.8842,0.0144,6.5745,0.0234,-1.8736,-0.6689
1807311.0,5.2218,0.2993,6.0238,0.224,-1.8225,-0.6641
1807321.0,5.4396,0.8499,5.1858,0.3693,-1.7453,-0.6593
1807331.0,5.4851,1.2929,4.4891,0.3384,-1.6852,-0.6534
1807341.0,5.7892,1.4006,4.0941,0.1793,-1.6432,-0.6407
1807351.0,6.1411,1.5155,3.5769,0.0468,-1.5649,-0.6306
1807361.0,6.3327,1.549,3.1819,-0.0681,-1.4245,-0.6215
1807371.0,6.5003,1.549,3.3136,-0.1554,-1.2345,-0.6146
1807381.0,6.6224,1.6903,3.541,-0.1532,-1.0286,-0.6018
1807391.0,6.4931,1.8244,3.9145,-0.1426,-0.8626,-0.5789
1807401.0,6.6367,1.7549,4.2976,-0.1171,-0.7567,-0.5374
1807411.0,6.8522,1.6448,4.3359,-0.0378,-0.6715,-0.4885
1807421.0,6.9863,1.585,4.379,0.042,-0.5688,-0.4528
1807431.0,7.082,1.6735,4.5083,0.0995,-0.4619,-0.4289
1807441.0,7.1778,1.7957,4.81,0.1229,-0.3719,-0.4044
1807451.0,7.2089,1.9489,4.9919,0.1543,-0.3219,-0.3672
1807461.0,7.3239,1.9992,5.0518,0.1894,-0.2996,-0.3209
1807471.0,7.422,2.0111,4.8602,0.2277,-0.2613,-0.2698
1807481.0,7.501,2.083,4.6424,0.2442,-0.2049,-0.2256
1807491.0,7.5441,2.1452,4.3551,0.2139,-0.1357,-0.1884
1807501.0,7.5561,2.1069,4.3694,0.1501,-0.0287,-0.157
1807511.0,7.4579,2.1428,4.561,0.1064,0.1181,-0.1235
1807521.0,7.4388,1.9561,5.1404,0.075,0.2703,-0.0809
1807531.0,7.501,1.6831,5.8035,0.0825,0.3837,-0.0388
1807541.0,7.3909,1.5347,6.3446,0.1032,0.4422,-0.0112
1807551.0,7.4364,1.3695,6.7947,0.1469,0.4672,0.0165
1807561.0,7.6088,1.2881,7.106,0.2022,0.4853,0.0357
1807571.0,7.501,1.3647,7.4627,0.2107,0.4906,0.0372
1807581.0,7.355,1.5155,7.762,0.1756,0.4693,0.0357
1807591.0,7.2018,1.6041,7.9823,0.0867,0.4113,0.0447
1807601.0,7.0581,1.5443,8.2648,-0.0484,0.3198,0.0601
1807611.0,7.0174,1.2163,8.5234,-0.1644,0.2176,0.0841
1807621.0,7.185,0.8811,8.6359,-0.1815,0.1469,0.1027
1807631.0,7.276,0.8068,8.4898,-0.1415,0.1165,0.1032
1807641.0,7.2425,0.7973,8.5545,-0.133,0.1059,0.0921
1807651.0,7.1108,0.8619,8.6,-0.1357,0.0867,0.0825
1807661.0,7.1539,0.7518,8.837,-0.1628,0.0458,0.0798
1807671.0,7.1658,0.5866,8.9088,-0.157,-0.0074,0.0798
1807681.0,7.2329,0.5507,8.9256,-0.1208,-0.0713,0.0718
1807691.0,7.3167,0.7278,8.6838,-0.0777,-0.1373,0.0623
1807701.0,7.3047,0.9242,8.3989,-0.0495,-0.1756,0.058
1807711.0,7.3071,0.9768,8.1977,-0.074,-0.2065,0.0633
1807721.0,7.288,0.8787,8.0302,-0.1192,-0.2458,0.0718
1807731.0,7.4531,0.6823,7.8985,-0.1171,-0.2474,0.0793
1807741.0,7.4436,0.6847,7.8147,-0.066,-0.1979,0.0793
1807751.0,7.4124,0.8021,7.9607,-0.0282,-0.1437,0.0756
1807761.0,7.3789,0.8499,8.0756,-0.0309,-0.1298,0.075
1807771.0,7.355,0.7901,8.3414,-0.0819,-0.1628,0.0745
1807781.0,7.3933,0.723,8.3342,-0.1229,-0.2166,0.0729
1807791.0,7.4101,0.6704,8.3175,-0.1618,-0.2634,0.067
1807801.0,7.3885,0.6752,8.4132,-0.1921,-0.2836,0.0548
1807811.0,7.3694,0.6991,8.5042,-0.1979,-0.2804,0.0479
1807821.0,7.2161,0.8308,8.6526,-0.2363,-0.2943,0.0372
1807831.0,7.3095,0.7422,9.0812,-0.3177,-0.3523,0.0314
1807841.0,7.3598,0.6393,9.268,-0.3624,-0.4252,0.0282
1807851.0,7.2281,0.5866,9.7013,-0.365,-0.4816,0.0223
1807861.0,7.1012,0.6847,10.2879,-0.3049,-0.5465,0.0218
1807871.0,6.9336,0.9361,10.5943,-0.1878,-0.6518,0.0415
1807881.0,6.8498,1.0558,10.884,-0.067,-0.795,0.0862
1807891.0,6.9049,0.9888,11.0133,0.0644,-0.9658,0.1479
1807901.0,6.8139,0.7661,10.6087,0.182,-1.1728,0.207
1807911.0,7.0102,0.2179,10.2831,0.2368,-1.375,0.241
1807921.0,7.6088,-0.2346,9.5696,0.3331,-1.5085,0.2421
1807931.0,7.4101,-0.2227,8.9232,0.3241,-1.6219,0.1788
1807941.0,7.5848,-0.012,8.1738,0.182,-1.7879,0.0846
1807951.0,7.5968,0.0934,7.331,-0.0085,-1.9364,-0.0043
1807961.0,7.8266,0.146,6.6846,-0.2081,-2.0401,-0.0937
1807971.0,7.8075,0.4908,5.8706,-0.356,-2.1226,-0.1809
1807981.0,7.7596,0.9074,4.6304,-0.5103,-2.2327,-0.2543
1807991.0,7.5346,1.2546,3.4213,-0.7226,-2.3748,-0.3166
1808001.0,7.3646,1.6472,2.0231,-0.8519,-2.5094,-0.3672
1808011.0,7.2161,2.818,-0.3519,-0.8535,-2.6606,-0.4028
1808021.0,6.7325,4.2042,-3.8211,-0.9285,-2.8617,-0.406
1808031.0,5.8802,5.1787,-8.9399,-1.168,-3.0378,-0.3597
1808041.0,5.6958,5.5737,-14.4993,-1.4489,-2.9931,-0.2959
1808051.0,5.0542,6.5841,-20.049,-1.5788,-2.5254,-0.2703
1808061.0,3.4405,8.7987,-24.5238,-1.4612,-1.6086,-0.2554
1808071.0,1.6807,11.8489,-27.7823,-1.0754,-0.4071,-0.157
1808081.0,-0.7638,15.1816,-30.6578,-0.506,0.9738,0.1144
1808091.0,-3.6081,17.9709,-31.8668,0.0516,2.5121,0.5816
1808101.0,-7.0485,20.2741,-31.6226,0.655,4.1468,1.2318
1808111.0,-11.1474,20.4465,-30.1334,1.1696,5.7223,2.0396
1808121.0,-15.7155,18.2606,-27.2436,1.5543,7.1628,2.8723
1808131.0,-20.3962,15.4881,-25.4384,1.765,8.3105,3.5997
1808141.0,-25.1391,12.651,-22.2493,1.5053,9.2928,4.1702
1808151.0,-28.9411,9.7636,-17.9517,1.1744,10.1229,4.6735
1808161.0,-33.2818,5.8682,-13.6685,0.9583,10.7849,5.161
1808171.0,-35.2594,0.6728,-10.4866,0.7886,11.1313,5.5473
1808181.0,-38.3431,-5.0949,-9.2488,0.7753,11.4894,5.7016
1808191.0,-41.549,-12.0045,-6.845,1.3622,12.6238,5.5542
1808201.0,-46.7779,-17.6141,-2.7222,2.4286,14.6799,4.8731
1808211.0,-54.7003,-19.6684,5.6719,2.7234,16.8201,3.5348
1808221.0,-61.7201,-21.5311,20.2382,1.5782,17.4357,1.8885
1808231.0,-67.2364,-22.235,46.3134,-0.3608,17.4357,0.2575
1808241.0,-63.9252,-15.4546,65.8238,-0.8998,16.8924,-0.8051
1808251.0,-64.665,-11.497,76.4014,-1.1499,14.0584,-1.0999
1808261.0,-52.5862,0.905,78.4508,1.1882,11.0137,-0.5459
1808271.0,-37.7685,2.3966,78.4508,0.9312,5.2275,0.0005
1808281.0,-33.6409,0.6512,73.5618,0.8886,0.795,0.8519
1808291.0,-31.2228,-3.7541,64.3274,1.1935,-2.212,1.5378
1808301.0,-27.234,-9.9527,54.3627,1.3925,-4.9949,1.7953
1808311.0,-23.2669,-12.5863,38.2953,1.9656,-6.9936,1.6634
1808321.0,-19.8096,-14.4777,26.08,1.3675,-8.2243,0.9754
1808331.0,-15.6509,-11.6693,15.2175,0.5965,-8.5154,0.0234
1808341.0,-13.2256,-8.6095,10.6518,-0.4268,-8.036,-0.8812
1808351.0,-11.1187,-4.4867,7.2377,-0.9519,-7.4251,-1.532
1808361.0,-9.4164,-0.9601,4.7549,-1.1047,-6.7647,-1.8459
1808371.0,-7.1658,1.7142,2.715,-0.8381,-6.0459,-1.8337
1808381.0,-5.351,3.6344,0.4357,-0.2097,-5.1477,-1.5761
1808391.0,-3.7733,4.5107,-0.7326,0.4193,-4.0744,-1.1877
1808401.0,-3.1508,4.81,-0.759,0.8035,-3.0511,-0.7881
1808411.0,-2.1165,4.2641,0.2705,0.8051,-2.3078,-0.4539
1808421.0,-1.4341,3.1675,1.4222,0.5518,-1.7794,-0.2155
1808431.0,-1.2474,1.9896,3.2657,0.0878,-1.4367,-0.1091
1808441.0,-1.1277,0.7566,5.1954,-0.3831,-1.2749,-0.0963
1808451.0,-1.0391,-0.4357,6.9432,-0.7237,-1.2132,-0.1485
1808461.0,-1.1851,-1.5083,8.4922,-0.903,-1.2361,-0.2517
1808471.0,-0.9481,-2.4134,9.6175,-0.8865,-1.3457,-0.3911
1808481.0,-0.9625,-2.5355,9.9934,-0.6486,-1.4511,-0.5571
1808491.0,-1.1253,-1.8794,9.7037,-0.3283,-1.5149,-0.7125
1808501.0,-1.1133,-1.0702,9.6103,-0.083,-1.5426,-0.8359
1808511.0,-0.8284,-0.0431,9.1698,0.0686,-1.5586,-0.928
1808521.0,-1.075,0.8954,9.7109,0.1123,-1.5027,-0.9716
1808531.0,-1.1516,1.6209,9.3278,0.157,-1.5133,-0.9418
1808541.0,-0.8021,1.3264,9.5648,0.0197,-1.5298,-0.887
1808551.0,-0.486,0.9744,9.5553,-0.1038,-1.483,-0.8503
1808561.0,-0.3328,1.1396,10.2999,-0.3044,-1.3968,-0.8711
1808571.0,-0.5459,1.5778,11.6119,-0.4933,-1.3718,-0.8743
1808581.0,-0.5722,1.5682,12.5983,-0.571,-1.4761,-0.8056
1808591.0,-0.5674,1.1732,13.1274,-0.5396,-1.6863,-0.6976
1808601.0,-0.2586,0.3807,12.6605,-0.3586,-1.9193,-0.5678
1808611.0,0.3376,-0.6656,11.5903,-0.1123,-2.1034,-0.4725
1808621.0,0.7901,-1.4581,10.1394,0.149,-2.1359,-0.4438
1808631.0,1.3719,-2.15,9.1866,0.3533,-2.0034,-0.4789
1808641.0,1.5323,-2.1883,9.0118,0.4401,-1.8129,-0.5859
1808651.0,1.4006,-1.3958,8.8897,0.3858,-1.7182,-0.729
1808661.0,1.4437,-0.8021,9.3015,0.1697,-1.7235,-0.8439
1808671.0,1.4892,-0.1484,9.4882,0.0112,-1.7789,-0.9046
1808681.0,1.5419,0.2969,9.572,-0.0958,-1.8645,-0.912
1808691.0,1.8124,0.4262,9.2608,-0.1575,-2.0007,-0.8759
1808701.0,2.0638,0.2753,8.6119,-0.1538,-2.1104,-0.8179
1808711.0,2.4828,0.0144,7.8793,-0.0575,-2.1433,-0.7519
1808721.0,2.9377,-0.249,6.9839,0.124,-2.0869,-0.6912
1808731.0,3.2825,-0.3543,5.9065,0.2826,-1.9789,-0.6582
1808741.0,3.7014,-0.1628,5.0661,0.3528,-1.8198,-0.654
1808751.0,4.312,0.1006,4.6256,0.2927,-1.6288,-0.6694
1808761.0,4.3551,0.5387,4.4556,0.091,-1.4777,-0.7024
1808771.0,4.6184,0.6871,4.5562,-0.1889,-1.3803,-0.7237
1808781.0,5.0566,0.7254,4.5586,-0.4188,-1.2797,-0.7338
1808791.0,4.9344,0.8619,4.8602,-0.5843,-1.126,-0.7418
1808801.0,4.9991,1.0367,5.1667,-0.6337,-0.977,-0.7168
1808811.0,5.2457,0.7925,5.6934,-0.5896,-0.8226,-0.6619
1808821.0,5.272,0.7853,6.1316,-0.3996,-0.6417,-0.6013
1808831.0,5.3199,1.0367,6.4141,-0.1862,-0.4917,-0.5417
1808841.0,5.1667,1.0654,6.8259,-0.074,-0.4225,-0.4773
1808851.0,5.3798,0.984,6.8139,0.0186,-0.423,-0.4081
1808861.0,5.4492,0.8356,6.5721,0.0431,-0.4342,-0.3618
1808871.0,5.6599,0.7135,6.3949,0.0165,-0.4166,-0.3437
1808881.0,5.5545,0.9098,6.3662,-0.0442,-0.3693,-0.3475
1808891.0,5.4947,1.2546,6.3805,-0.1256,-0.3288,-0.3459
1808901.0,5.5833,1.4437,6.2489,-0.2065,-0.2847,-0.3134
1808911.0,5.6527,1.245,6.4715,-0.3092,-0.2155,-0.2655
1808921.0,5.6647,0.9385,6.845,-0.3618,-0.1352,-0.2251
1808931.0,5.8131,0.7446,7.0006,-0.3209,-0.0458,-0.1921
1808941.0,5.7365,0.6632,7.6088,-0.2661,0.0447,-0.1767
1808951.0,5.6192,0.8499,7.9559,-0.1559,0.1059,-0.157
1808961.0,5.5138,0.9697,8.327,-0.0314,0.1389,-0.1192
1808971.0,5.5905,0.9385,8.3677,0.1096,0.1495,-0.0617
1808981.0,5.624,0.814,8.2911,0.1772,0.1325,-0.0181
1808991.0,5.6575,0.7063,8.2097,0.1618,0.1038,0.0027
1809001.0,5.7269,0.6369,8.0756,0.1272,0.0825,0.0144
1809011.0,5.6814,0.4741,8.2121,0.0724,0.0756,0.0181
1809021.0,5.7413,0.3807,8.0852,0.0543,0.0537,0.0234
1809031.0,5.7365,0.0479,7.9871,0.0484,0.0458,0.0271
1809041.0,5.9041,-0.1604,7.8458,0.0894,0.0793,0.0133
1809051.0,5.8419,-0.0814,7.7285,0.1506,0.1511,-0.0213
1809061.0,5.8658,0.0646,7.7309,0.166,0.2075,-0.058
1809071.0,5.928,0.1772,7.8314,0.1469,0.249,-0.0921
1809081.0,5.8826,0.3208,7.9104,0.1511,0.3038,-0.1213
1809091.0,5.7724,0.6201,7.9847,0.1745,0.3789,-0.1437
1809101.0,5.6934,1.008,8.1475,0.1884,0.4571,-0.1485
1809111.0,5.6407,1.0534,8.5114,0.1506,0.5114,-0.1304
1809121.0,5.3678,0.8284,9.0214,0.0921,0.5358,-0.1064
1809131.0,5.4564,0.3112,9.6079,0.0984,0.5316,-0.0814
1809141.0,5.5019,-0.0168,9.9958,0.1517,0.5002,-0.0867
1809151.0,5.3367,0.2394,10.149,0.1894,0.4246,-0.1256
1809161.0,5.205,0.7542,10.0197,0.1878,0.331,-0.1538
1809171.0,4.9752,1.0104,9.9144,0.0841,0.224,-0.1522
1809181.0,4.8507,1.008,9.6822,-0.0639,0.0947,-0.1325
1809191.0,5.0278,0.7087,9.5553,-0.1724,0.0128,-0.1043
1809201.0,5.3822,0.3663,9.2895,-0.165,0.0149,-0.0814
1809211.0,5.3439,0.4956,9.1411,-0.0995,0.083,-0.0894
1809221.0,5.1739,1.0343,9.3015,-0.0319,0.1687,-0.0942
1809231.0,5.0781,1.3312,9.6558,-0.0138,0.2214,-0.0612
1809241.0,5.0159,1.2833,9.9623,-0.0229,0.1932,-0.0053
1809251.0,5.1284,1.0582,9.9383,-0.0037,0.1245,0.0521
1809261.0,5.2433,0.7159,9.7803,0.0154,0.075,0.0894
1809271.0,5.2433,0.5962,9.4739,0.0101,0.042,0.0942
1809281.0,5.2553,0.5962,9.3613,-0.0388,0.0144,0.0814
1809291.0,5.1787,0.5794,9.3709,-0.0979,-0.0048,0.0681
1809301.0,5.1044,0.51,9.335,-0.1309,-0.0357,0.0665
1809311.0,5.2864,0.3256,9.2153,-0.1453,-0.0692,0.0697
1809321.0,5.4923,0.1987,8.9543,-0.1245,-0.0825,0.0617
1809331.0,5.5234,0.2658,8.6215,-0.1016,-0.067,0.0415
1809341.0,5.4516,0.5171,8.4276,-0.1022,-0.0261,0.017
1809351.0,5.4779,0.9194,8.4132,-0.1181,0.0287,0.008
1809361.0,5.3199,1.1253,8.5712,-0.1405,0.0761,0.0277
1809371.0,5.1858,1.0151,8.8585,-0.1522,0.0926,0.0702
1809381.0,5.3199,0.668,8.9376,-0.0947,0.1022,0.1224
1809391.0,5.4396,0.316,8.8394,-0.0245,0.1282,0.1527
1809401.0,5.5186,0.079,8.8801,0.0032,0.1431,0.1479
1809411.0,5.5234,0.091,8.837,-0.0032,0.1495,0.1144
1809421.0,5.4779,0.2298,8.8418,-0.0585,0.1575,0.0713
1809431.0,5.3582,0.4429,8.9878,-0.1261,0.1522,0.0378
1809441.0,5.3271,0.5962,9.086,-0.1761,0.1336,0.0261
1809451.0,5.3127,0.5459,9.2057,-0.1873,0.125,0.0335
1809461.0,5.2577,0.486,9.1913,-0.1485,0.125,0.049
1809471.0,5.2984,0.4525,9.1195,-0.0809,0.1362,0.0628
1809481.0,5.3798,0.486,9.019,-0.0202,0.174,0.0734
1809491.0,5.363,0.6345,9.086,0.0053,0.2187,0.0777
1809501.0,5.351,0.7542,9.2416,-0.009,0.2352,0.0825
1809511.0,5.1906,0.8045,9.3877,-0.0341,0.2261,0.099
1809521.0,5.2098,0.7709,9.4427,-0.0154,0.2075,0.1277
1809531.0,5.3056,0.589,9.3781,0.0229,0.2203,0.1607
1809541.0,5.4492,0.5028,9.347,0.0495,0.2591,0.1745
1809551.0,5.4061,0.6105,9.5648,0.0303,0.3262,0.1713
1809561.0,5.3391,0.7997,10.0054,-0.0314,0.3975,0.1708
1809571.0,5.1691,1.0415,10.6853,-0.1325,0.456,0.1788
1809581.0,4.9823,1.1109,11.7747,-0.2421,0.4933,0.2075
1809591.0,4.5514,1.1779,12.8593,-0.3113,0.4885,0.2522
1809601.0,4.379,1.0989,14.2503,-0.3496,0.4619,0.3118
1809611.0,3.9145,0.9697,15.591,-0.3549,0.4055,0.3789
1809621.0,3.4381,0.5411,17.2622,-0.4156,0.2384,0.431
1809631.0,3.1292,-0.0024,18.761,-0.506,-0.0495,0.4709
1809641.0,3.067,-1.1253,20.3531,-0.6173,-0.4278,0.4858
1809651.0,2.8802,-2.1691,21.4233,-0.6753,-0.9142,0.4369
1809661.0,2.6193,-2.8635,21.8926,-0.7199,-1.5038,0.3187
1809671.0,2.4134,-3.1005,21.7513,-0.7199,-2.1274,0.1692
1809681.0,2.2817,-2.4541,20.6955,-0.6737,-2.718,0.0128
1809691.0,2.1859,-1.6568,19.4481,-0.7205,-3.2821,-0.1187
1809701.0,2.0686,-1.0223,17.5902,-0.854,-3.861,-0.2081
1809711.0,2.1835,-0.3831,14.8464,-1.0461,-4.4155,-0.2772
1809721.0,2.715,0.0383,11.8992,-1.2233,-4.7879,-0.3118
1809731.0,3.1508,0.2346,9.2105,-1.3665,-4.9359,-0.3257
1809741.0,3.6368,0.1245,7.003,-1.5186,-4.9923,-0.339
1809751.0,4.1922,-0.1484,4.5203,-1.5607,-4.9859,-0.3427
1809761.0,5.0925,-0.723,2.3703,-1.4713,-4.8023,-0.3464
1809771.0,5.7557,-1.1109,0.4477,-1.2441,-4.466,-0.3725
1809781.0,6.1387,-1.3503,-1.0846,-1.028,-4.076,-0.4315
1809791.0,6.8354,-1.5945,-2.3152,-0.8109,-3.6934,-0.5108
1809801.0,7.6207,-1.3599,-3.7445,-0.5827,-3.2783,-0.6146
1809811.0,7.6998,-0.8428,-4.3024,-0.4821,-2.8239,-0.7359
1809821.0,7.7021,-0.1939,-4.3527,-0.3948,-2.3887,-0.8264
1809831.0,7.8003,0.2562,-4.0366,-0.2533,-1.9757,-0.8647
1809841.0,7.6638,0.6488,-3.5626,-0.0639,-1.6001,-0.8657
1809851.0,7.5681,1.1253,-3.3064,0.125,-1.318,-0.8386
1809861.0,7.6016,1.3551,-2.8491,0.2496,-1.1201,-0.7987
1809871.0,7.5824,1.6688,-3.1508,0.4124,-0.9684,-0.7439
1809881.0,7.5585,1.9058,-3.7613,0.4651,-0.8663,-0.6981
1809891.0,7.4555,2.071,-4.6136,0.4289,-0.7838,-0.6705
1809901.0,7.2377,2.3774,-5.8634,0.3443,-0.6651,-0.6588
1809911.0,6.5817,2.8946,-7.4124,0.1187,-0.5688,-0.6784
1809921.0,5.2864,3.9887,-8.9998,-0.2144,-0.4981,-0.7098
1809931.0,3.8547,5.5426,-11.3342,-0.5608,-0.4587,-0.7024
1809941.0,2.7653,7.3191,-14.4131,-0.9615,-0.4794,-0.6417
1809951.0,0.1772,9.5505,-16.5391,-1.0738,-0.2682,-0.4832
1809961.0,-1.3599,12.2751,-21.3802,-0.4406,0.158,-0.1352
1809971.0,-2.4062,14.6956,-27.7512,0.1602,0.7753,0.2799
1809981.0,-4.3024,16.3644,-33.1525,0.6082,1.9417,0.7609
1809991.0,-7.2808,16.5655,-36.6672,0.8934,3.6077,1.3175
1810001.0,-11.461,15.4641,-36.5092,0.887,5.5547,1.8736
1810011.0,-17.4058,13.8576,-32.7287,0.7795,7.5592,2.4067
1810021.0,-22.3235,12.0021,-26.4344,0.8077,9.271,2.9293
1810031.0,-27.1814,9.9551,-20.4082,1.1744,10.6965,3.4726
1810041.0,-31.0312,7.4412,-12.3277,1.7453,11.9848,3.9786
1810051.0,-33.9905,4.9991,-4.9105,2.6792,12.95,4.3942
1810061.0,-37.419,2.162,0.6919,3.6849,13.6301,4.6597
1810071.0,-40.0837,-2.2721,3.9648,4.2872,14.0627,4.6783
1810081.0,-42.035,-9.4978,7.1323,4.1249,14.5251,4.2723
1810091.0,-43.8881,-16.2638,13.7954,3.5306,15.4845,3.2576
1810101.0,-47.0724,-17.4058,24.5286,2.5536,16.4859,1.6639
1810111.0,-50.805,-14.9829,43.5625,1.0983,16.6445,0.0
1810121.0,-49.5695,-8.5904,58.0809,-0.0835,14.6985,-1.2079
1810131.0,-28.8429,-1.5275,57.4632,-1.2074,11.0376,-1.7326
1810141.0,-37.759,0.1628,74.8044,-1.1637,10.1197,-1.5527
1810151.0,-37.3974,6.2201,70.6505,-0.2363,5.6979,-0.9615
1810161.0,-31.1869,2.624,70.0903,-0.357,1.5442,-0.2118
1810171.0,-25.8693,2.3272,57.7122,1.425,-1.0073,0.6577
1810181.0,-22.144,-1.7789,49.2248,2.1753,-2.9468,1.1158
1810191.0,-17.6548,-2.3152,33.2603,2.6079,-4.4027,1.127
1810201.0,-15.0595,-3.814,26.7959,1.2499,-4.9657,0.5757
1810211.0,-12.4642,-2.557,21.701,0.0011,-5.1253,-0.1117
1810221.0,-11.2791,-1.2689,20.3938,-1.0765,-5.0599,-0.6902
1810231.0,-9.8809,0.182,19.8695,-1.5101,-5.1535,-1.019
1810241.0,-8.4779,2.0853,16.3452,-1.1605,-5.2371,-1.0323
1810251.0,-7.9511,2.7773,13.951,-0.8269,-5.153,-0.862
1810261.0,-6.7014,2.8659,10.8793,-0.2889,-4.8938,-0.5529
1810271.0,-5.6168,1.8459,8.6622,0.0612,-4.4681,-0.2405
1810281.0,-4.5059,0.6345,7.5776,0.1607,-4.0196,-0.0452
1810291.0,-3.5506,-0.3448,6.8618,0.1469,-3.5609,0.0325
1810301.0,-2.9521,-1.4245,7.2137,-0.0293,-3.1373,0.0112
1810311.0,-2.5738,-2.0686,8.2289,-0.2171,-2.809,-0.0937
1810321.0,-2.4636,-2.0686,9.1578,-0.3326,-2.5877,-0.24
1810331.0,-2.5331,-1.9537,10.3334,-0.4624,-2.4733,-0.3831
1810341.0,-2.5714,-1.6544,11.7436,-0.5614,-2.4743,-0.5209
1810351.0,-2.8108,-1.142,13.0939,-0.5188,-2.5643,-0.6236
1810361.0,-3.213,-0.6752,13.7619,-0.3272,-2.7622,-0.6657
1810371.0,-3.4141,-0.1341,13.6541,-0.0777,-3.0671,-0.6689
1810381.0,-2.8946,0.6823,12.1793,0.1846,-3.3747,-0.6439
1810391.0,-2.8443,1.3767,10.477,0.2357,-3.5705,-0.6045
1810401.0,-2.3511,1.2426,9.2656,0.016,-3.7099,-0.5704
1810411.0,-1.6376,0.9744,8.2935,-0.3187,-3.8009,-0.5896
1810421.0,-1.2234,1.0511,7.4508,-0.6923,-3.8248,-0.663
1810431.0,-0.814,0.9744,7.6279,-1.0834,-3.8184,-0.7535
1810441.0,-0.6416,1.1732,7.8051,-1.2611,-3.811,-0.8189
1810451.0,-0.4238,1.5251,7.6255,-1.1946,-3.8051,-0.8301
1810461.0,-0.0527,1.6568,7.0892,-1.0195,-3.8025,-0.7795
1810471.0,0.3879,1.6376,6.1555,-0.8195,-3.827,-0.6981
1810481.0,0.7877,1.7166,4.6304,-0.6204,-3.8105,-0.6098
1810491.0,1.6209,1.5682,3.1939,-0.4885,-3.6652,-0.513
1810501.0,2.3272,0.9098,2.5307,-0.4874,-3.4231,-0.4443
1810511.0,2.8539,0.3926,2.138,-0.5459,-3.2172,-0.4411
1810521.0,3.4572,0.1939,1.6185,-0.6066,-3.0639,-0.4842
1810531.0,4.4269,0.0287,1.0846,-0.6449,-2.8888,-0.5406
1810541.0,4.7166,0.249,0.8188,-0.5976,-2.6233,-0.6093
1810551.0,4.8387,0.826,0.2059,-0.4874,-2.3338,-0.6492
1810561.0,5.2505,1.2498,-0.0766,-0.4661,-2.0566,-0.655
1810571.0,5.5067,1.5706,-0.3065,-0.4528,-1.7453,-0.6188
1810581.0,5.6455,1.5036,0.3352,-0.4411,-1.3909,-0.547
1810591.0,5.9017,1.1732,1.2186,-0.2964,-1.0531,-0.447
1810601.0,6.2608,0.7135,1.8651,-0.0362,-0.7881,-0.339
1810611.0,6.5338,0.407,2.4852,0.2501,-0.5667,-0.2618
1810621.0,6.6918,0.5387,2.5474,0.5316,-0.3991,-0.2038
1810631.0,6.9288,0.7183,2.2003,0.6258,-0.2943,-0.158
1810641.0,7.2856,0.8164,1.9154,0.5018,-0.1916,-0.1288
1810651.0,7.4891,0.8068,2.2075,0.2336,-0.0372,-0.1224
1810661.0,7.5106,0.735,2.9616,-0.0873,0.1219,-0.1277
1810671.0,7.4747,0.7111,3.6224,-0.4087,0.2027,-0.1352
1810681.0,7.4675,0.4956,4.4077,-0.7088,0.249,-0.1346
1810691.0,7.4316,0.2993,5.3702,-0.8775,0.3006,-0.1187
1810701.0,7.3933,0.1221,6.2848,-0.9094,0.3315,-0.0867
1810711.0,7.3263,0.0551,7.0581,-0.7742,0.3517,-0.033
1810721.0,7.2257,0.0,7.422,-0.514,0.364,0.0452
1810731.0,7.3526,-0.1341,7.2113,-0.2389,0.3528,0.133
1810741.0,7.5417,-0.3998,6.699,-0.0851,0.3336,0.199
1810751.0,7.6638,-0.972,6.6319,-0.0724,0.3549,0.223
1810761.0,7.6471,-1.3719,6.5481,-0.0894,0.415,0.2011
1810771.0,7.6088,-1.7621,7.1012,-0.1415,0.4959,0.1373
1810781.0,7.5417,-1.7526,7.525,-0.1421,0.555,0.05
1810791.0,7.4148,-1.415,7.9104,-0.19,0.5555,-0.0468
1810801.0,7.2185,-1.0798,8.5497,-0.2863,0.505,-0.1261
1810811.0,7.0246,-0.7422,8.9184,-0.332,0.4113,-0.1623
1810821.0,6.9983,-0.7638,9.2703,-0.3262,0.3001,-0.1607
1810831.0,7.0222,-0.814,9.3039,-0.2208,0.1916,-0.1437
1810841.0,6.9839,-0.7614,8.9926,-0.0575,0.0921,-0.1266
1810851.0,7.0844,-0.5339,8.2121,0.1235,0.0229,-0.1117
1810861.0,7.1347,-0.3783,7.5178,0.2017,0.0176,-0.1038
1810871.0,6.9983,-0.3663,7.0437,0.1729,0.0351,-0.1091
1810881.0,7.0557,-0.4788,6.7588,0.0851,0.067,-0.1293
1810891.0,7.1898,-0.6081,6.7373,0.0011,0.1368,-0.1644
1810901.0,7.1347,-0.4621,6.9097,-0.0479,0.2283,-0.2118
1810911.0,6.9623,-0.1389,7.331,-0.0835,0.3012,-0.2528
1810921.0,6.857,0.2897,7.6902,-0.0729,0.3427,-0.2623
1810931.0,6.7612,0.6249,8.0493,-0.0383,0.3618,-0.2363
1810941.0,6.5721,0.8691,8.1594,-0.0117,0.3586,-0.183
1810951.0,6.6726,0.7374,8.3989,-0.0128,0.3416,-0.1144
1810961.0,6.7062,0.5004,8.5353,-0.0112,0.3086,-0.0532
1810971.0,6.6439,0.1867,8.521,-0.0234,0.265,-0.017
1810981.0,6.7038,-0.067,8.655,-0.0149,0.2469,0.0027
1810991.0,6.754,-0.1748,8.7005,0.0399,0.2661,0.0053
1811001.0,6.6439,-0.0742,8.7245,0.0447,0.2677,-0.0112
1811011.0,6.6391,0.0096,9.0118,-0.0048,0.2299,-0.0234
1811021.0,6.5338,0.0359,9.0812,-0.0404,0.1724,-0.0239
1811031.0,6.5649,0.0622,9.1459,-0.0585,0.1176,-0.0154
1811041.0,6.5577,0.1628,9.0309,-0.0575,0.0511,-0.0027
1811051.0,6.4811,0.1293,8.8825,-0.0633,-0.0186,0.0208
1811061.0,6.608,-0.0551,8.6646,-0.0436,-0.0718,0.0548
1811071.0,6.6798,-0.261,8.1858,-0.0149,-0.1027,0.0825
1811081.0,6.8043,-0.5028,7.9847,-0.017,-0.1075,0.0878
1811091.0,6.8594,-0.5746,7.6614,-0.0037,-0.0857,0.0761
1811101.0,6.8498,-0.4764,7.5202,-0.0043,-0.0463,0.058
1811111.0,6.936,-0.5028,7.5178,-0.0106,0.0011,0.05
1811121.0,6.9839,-0.5267,7.4412,0.0032,0.0484,0.0458
1811131.0,6.9312,-0.6153,7.513,-0.0059,0.0788,0.0357
1811141.0,6.9384,-0.7494,7.5441,0.0005,0.1101,0.0245
1811151.0,6.7947,-0.7446,7.5896,0.0122,0.1485,0.0069
1811161.0,6.7995,-0.8332,7.8099,0.0027,0.1708,-0.0106
1811171.0,6.8594,-0.7757,7.9033,0.0048,0.1607,-0.033
1811181.0,6.8091,-0.577,7.8985,-0.0085,0.1336,-0.0585
1811191.0,6.8618,-0.3304,7.6998,-0.0239,0.1197,-0.0729
1811201.0,6.7732,-0.2921,7.8338,-0.0516,0.1383,-0.0756
1811211.0,6.6439,-0.1149,7.841,-0.0399,0.157,-0.0702
1811221.0,6.6248,-0.0048,7.7524,-0.0319,0.1634,-0.0506
1811231.0,6.5984,-0.1365,7.9895,-0.0506,0.1846,-0.0282
1811241.0,6.7062,-0.2346,7.9966,-0.0165,0.2182,-0.0069
1811251.0,6.7804,-0.4046,8.2001,-0.0085,0.241,-0.0011
1811261.0,6.6774,-0.4046,8.4755,0.0005,0.2464,-0.0128
1811271.0,6.608,-0.2658,8.5377,0.0069,0.224,-0.0234
1811281.0,6.5481,-0.2777,8.6574,-0.0484,0.1607,-0.0271
1811291.0,6.5457,-0.3783,8.6383,-0.0729,0.0937,-0.0239
1811301.0,6.6487,-0.5052,8.576,-0.0335,0.0681,-0.0176
1811311.0,6.7421,-0.6273,8.3749,0.0404,0.0692,-0.0165
1811321.0,6.8354,-0.6512,8.0349,0.0857,0.0596,-0.033
1811331.0,6.778,-0.5052,7.829,0.0974,0.0761,-0.0601
1811341.0,6.754,-0.3496,7.7859,0.0915,0.1235,-0.0825
1811351.0,6.5697,-0.1556,7.9966,0.0644,0.166,-0.1011
1811361.0,6.5721,0.0335,8.09,0.0506,0.1799,-0.1048
1811371.0,6.529,0.1197,8.3486,0.0463,0.191,-0.0915
1811381.0,6.505,0.067,8.5688,0.083,0.1916,-0.0644
1811391.0,6.5721,-0.0096,8.6191,0.1235,0.1623,-0.042
1811401.0,6.62,0.0814,8.3582,0.1506,0.1304,-0.0341
1811411.0,6.6319,0.158,8.1475,0.107,0.1038,-0.0346
1811421.0,6.5362,0.182,8.1163,0.0085,0.0718,-0.0378
1811431.0,6.596,0.0742,7.9751,-0.0777,0.0447,-0.0394
1811441.0,6.6679,-0.0599,7.9871,-0.1458,0.0516,-0.0458
1811451.0,6.6367,-0.0862,8.1618,-0.1596,0.0883,-0.0543
1811461.0,6.5697,0.0072,8.2384,-0.1197,0.1197,-0.0564
1811471.0,6.5338,0.1413,8.2959,-0.0772,0.1373,-0.0506
1811481.0,6.4739,0.3136,8.3055,-0.0436,0.149,-0.0319
1811491.0,6.4691,0.2059,8.3582,-0.0463,0.1463,-0.0043
1811501.0,6.4907,-0.0072,8.4348,-0.0532,0.1352,0.0197
1811511.0,6.62,-0.2562,8.4731,-0.0378,0.1272,0.033
1811521.0,6.6032,-0.4214,8.4539,-0.0239,0.1176,0.0282
1811531.0,6.6942,-0.4884,8.4443,-0.0255,0.0979,0.0064
1811541.0,6.6822,-0.3926,8.4539,-0.0357,0.091,-0.0239
1811551.0,6.529,-0.1604,8.5425,-0.0537,0.0772,-0.0474
1811561.0,6.4979,-0.0024,8.5545,-0.0899,0.0335,-0.0564
1811571.0,6.596,0.0503,8.3653,-0.1096,-0.0181,-0.05
1811581.0,6.6319,0.1053,8.1211,-0.1075,-0.0319,-0.0357
1811591.0,6.6966,0.1197,7.8817,-0.099,-0.0133,-0.0181
1811601.0,6.8283,0.0742,7.7716,-0.1197,0.016,-0.0037
1811611.0,6.8809,-0.1245,7.8626,-0.1671,0.0442,0.009
1811621.0,6.9192,-0.3376,8.0996,-0.1767,0.0899,0.0149
1811631.0,6.9791,-0.3304,8.3438,-0.1133,0.1575,0.0192
1811641.0,6.9576,-0.261,8.5545,-0.0426,0.2251,0.0277
1811651.0,6.9791,-0.237,8.8969,-0.0314,0.2794,0.0293
1811661.0,6.9384,-0.1437,9.4308,-0.0756,0.3304,0.0282
1811671.0,6.7445,-0.0215,10.2999,-0.1309,0.3789,0.0341
1811681.0,6.7062,0.0383,11.2623,-0.1926,0.3693,0.0559
1811691.0,6.3782,-0.1939,12.3206,-0.2863,0.2921,0.0841
1811701.0,6.3207,-0.5746,13.3932,-0.3406,0.1495,0.1043
1811711.0,6.2728,-1.3503,14.3844,-0.3235,0.0122,0.1165
1811721.0,6.0382,-1.7382,15.0619,-0.3006,-0.1687,0.0718
1811731.0,5.9113,-1.7669,15.7969,-0.4087,-0.4651,-0.0351
1811741.0,5.6312,-1.6472,16.0268,-0.613,-0.8642,-0.1612
1811751.0,5.2744,-1.7645,16.5032,-0.8354,-1.2739,-0.282
1811761.0,5.1475,-1.743,16.3644,-0.9131,-1.6942,-0.3826
1811771.0,4.9704,-1.7957,15.9645,-0.895,-2.1146,-0.4661
1811781.0,4.9847,-1.8675,15.1266,-0.7348,-2.4775,-0.5215
1811791.0,4.9728,-1.7549,13.6206,-0.5295,-2.7845,-0.5688
1811801.0,5.0182,-1.664,12.0907,-0.4385,-3.1118,-0.6231
1811811.0,5.3989,-1.2594,9.8282,-0.3916,-3.3991,-0.6848
1811821.0,5.7652,-0.8595,7.671,-0.4278,-3.5678,-0.7418
1811831.0,6.0885,-0.5004,5.6671,-0.4917,-3.6146,-0.7928
1811841.0,6.4093,0.1197,3.8188,-0.572,-3.588,-0.8434
1811851.0,6.8259,0.7111,2.0351,-0.613,-3.4401,-0.8657
1811861.0,7.2065,1.1061,0.8284,-0.6226,-3.1581,-0.8524
1811871.0,7.4579,1.312,0.1891,-0.6114,-2.8415,-0.8232
1811881.0,7.6303,1.561,-0.4549,-0.5784,-2.5701,-0.787
1811891.0,7.8003,1.5467,-0.6991,-0.5183,-2.2838,-0.7412
1811901.0,7.829,1.4868,-0.7398,-0.365,-1.9576,-0.6864
1811911.0,7.9176,1.6568,-0.7877,-0.232,-1.7123,-0.6481
1811921.0,7.8769,1.9609,-0.6943,-0.1655,-1.5559,-0.6263
1811931.0,7.7548,2.6049,-1.0918,-0.0394,-1.4144,-0.5869
1811941.0,7.6519,3.1412,-1.7023,0.0287,-1.2861,-0.5209
1811951.0,7.4651,3.4931,-2.5546,-0.0064,-1.1919,-0.4369
1811961.0,7.5058,3.6129,-3.632,-0.1362,-1.0967,-0.357
1811971.0,7.5369,4.0342,-5.1523,-0.339,-0.9647,-0.2959
1811981.0,7.2425,4.2856,-6.1363,-0.6486,-0.7636,-0.2395
1811991.0,6.7924,4.4365,-6.778,-0.9541,-0.5279,-0.1729
1812001.0,6.0286,4.8052,-7.4172,-1.2632,-0.3432,-0.1101
1812011.0,5.4827,5.5067,-8.169,-1.5165,-0.2086,-0.0277
1812021.0,5.4085,6.6798,-9.8497,-1.6549,-0.0702,0.0857
1812031.0,4.4005,8.2313,-11.4706,-1.8369,0.1235,0.224
1812041.0,3.201,10.0054,-12.8473,-1.9076,0.4113,0.4411
1812051.0,2.2003,11.3557,-14.3077,-1.7475,0.7928,0.7843
1812061.0,0.7278,11.904,-15.761,-1.3266,1.3574,1.2388
1812071.0,-1.2833,12.1841,-17.2263,-0.7082,2.054,1.7358
1812081.0,-3.0502,12.5408,-18.8232,0.0218,2.8644,2.253
1812091.0,-6.2321,12.9311,-19.9892,0.7854,3.8791,2.7904
1812101.0,-8.6598,13.0604,-20.8224,1.4505,4.9204,3.3374
1812111.0,-12.6318,12.5887,-20.5327,2.0992,6.1533,3.8988
1812121.0,-16.0388,11.6095,-19.3643,2.7138,7.4155,4.458
1812131.0,-19.5175,9.4858,-16.6158,3.3097,8.7235,4.9795
1812141.0,-23.0202,6.9073,-14.3365,3.9669,9.9755,5.3914
1812151.0,-26.6642,3.7182,-11.801,4.2947,11.0701,5.6
1812161.0,-30.2699,-0.4453,-10.1538,4.4123,12.179,5.5702
1812171.0,-35.1158,-4.9105,-5.2433,4.3442,13.6636,5.1477
1812181.0,-42.2289,-6.9863,2.8659,4.367,15.3924,4.3612
1812191.0,-48.394,-9.2991,16.0172,4.0978,16.7913,3.3821
1812201.0,-51.4634,-10.3382,31.5652,3.7094,17.3431,2.253
1812211.0,-53.7762,-7.501,48.9399,3.7062,16.9212,1.1265
1812221.0,-51.0635,0.2227,56.2063,3.5923,14.5527,0.207
1812231.0,-56.9748,0.589,65.2228,1.8704,12.005,-0.3799
1812241.0,-41.4149,10.4244,66.499,2.2099,9.0576,-0.3906
1812251.0,-28.9507,8.406,71.1796,0.1123,4.1787,-0.398
1812261.0,-27.5381,6.2393,64.6267,-0.423,0.6843,0.1043
1812271.0,-27.3442,2.3631,57.5303,-0.5342,-2.0242,0.5444
1812281.0,-23.8415,-1.8172,48.3102,-0.5906,-4.581,0.7189
1812291.0,-19.8551,-5.3127,35.6784,-0.332,-6.14,0.7013
1812301.0,-16.3476,-8.6024,28.7615,-0.5624,-6.8664,0.3124
1812311.0,-12.1889,-7.5753,19.1033,-0.2421,-7.0627,-0.1937
1812321.0,-9.7444,-6.292,14.9087,-0.3608,-6.7238,-0.7301
1812331.0,-7.7644,-3.6224,10.7931,-0.1181,-6.1576,-1.0977
1812341.0,-6.6439,-1.0175,7.7428,0.0325,-5.5026,-1.2702
1812351.0,-5.5737,0.5004,6.6152,-0.0165,-4.9337,-1.2989
1812361.0,-4.2018,1.7837,4.3527,0.1149,-4.3553,-1.1925
1812371.0,-3.4668,1.8028,4.0893,0.0239,-3.6503,-1.0642
1812381.0,-3.0023,1.9249,4.3766,-0.0447,-2.9367,-0.9562
1812391.0,-2.5283,1.7238,5.6216,-0.2485,-2.3376,-0.887
1812401.0,-2.5163,1.3096,7.616,-0.5561,-1.9305,-0.8711
1812411.0,-2.6839,1.1205,9.7923,-0.8237,-1.6911,-0.8796
1812421.0,-2.6815,0.1963,12.73,-0.9961,-1.6309,-0.8711
1812431.0,-2.9161,-0.3256,14.5041,-0.92,-1.8033,-0.8684
1812441.0,-2.9688,-0.5171,16.0555,-0.7152,-2.1258,-0.8684
1812451.0,-3.371,-0.6895,16.3285,-0.2794,-2.5031,-0.8141
1812461.0,-3.5099,-0.5578,15.0907,0.1995,-2.9005,-0.7434
1812471.0,-3.1484,-0.2514,13.0699,0.4528,-3.2384,-0.7157
1812481.0,-2.8778,0.2753,11.0875,0.4198,-3.3959,-0.7343
1812491.0,-2.5115,0.5962,10.4339,0.0575,-3.4486,-0.7897
1812501.0,-2.2314,0.4501,10.8912,-0.3948,-3.5215,-0.8583
1812511.0,-2.1332,0.5195,10.7452,-0.6816,-3.6673,-0.9232
1812521.0,-1.6472,0.4741,10.1251,-0.8663,-3.844,-0.9653
1812531.0,-1.245,0.4046,9.8306,-0.9216,-3.9222,-0.9961
1812541.0,-0.6847,0.7685,8.837,-0.7412,-3.9057,-0.9881
1812551.0,-0.3089,1.1109,8.3007,-0.6082,-3.8695,-0.9658
1812561.0,0.1724,1.6975,7.4244,-0.5055,-3.8876,-0.9222
1812571.0,0.7326,1.9896,6.4356,-0.4613,-3.9148,-0.8434
1812581.0,1.0654,2.0039,5.1044,-0.4571,-3.927,-0.7428
1812591.0,1.8052,1.4844,3.9528,-0.4587,-3.8488,-0.6407
1812601.0,2.6863,0.7685,2.8395,-0.4028,-3.6412,-0.5646
1812611.0,3.2681,0.2083,2.1548,-0.3799,-3.3667,-0.5497
1812621.0,3.8475,-0.158,1.8675,-0.4363,-3.1357,-0.5965
1812631.0,4.288,0.0886,1.4317,-0.4959,-2.9378,-0.6774
1812641.0,4.6112,0.7614,1.1229,-0.5332,-2.6999,-0.745
1812651.0,4.9368,1.2713,0.8978,-0.5699,-2.4387,-0.7599
1812661.0,4.9081,1.2115,1.2881,-0.6635,-2.2152,-0.7338
1812671.0,5.2026,0.9074,1.5323,-0.6572,-2.0545,-0.688
1812681.0,5.6192,0.6608,1.403,-0.5406,-1.9204,-0.6449
1812691.0,6.1292,0.4453,1.482,-0.3762,-1.7416,-0.621
1812701.0,6.438,0.6847,1.0606,-0.0974,-1.5096,-0.597
1812711.0,6.4715,0.917,0.9577,0.0607,-1.2866,-0.5752
1812721.0,6.7852,1.1061,0.6728,0.0899,-1.1302,-0.5491
1812731.0,7.2616,1.1013,0.4693,0.0149,-0.9626,-0.5321
1812741.0,7.3837,1.0487,0.5315,-0.1054,-0.7503,-0.5337
1812751.0,7.446,1.1827,0.8523,-0.224,-0.5236,-0.5518
1812761.0,7.5417,1.3479,1.5969,-0.3097,-0.29,-0.564
1812771.0,7.3717,1.6041,2.2458,-0.3565,-0.0772,-0.5545
1812781.0,7.2233,1.6975,3.5865,-0.3682,0.1091,-0.5161
1812791.0,7.3167,1.9752,4.367,-0.2395,0.2112,-0.4385
1812801.0,7.3885,1.9369,4.9225,-0.0979,0.2607,-0.3416
1812811.0,7.4436,1.9249,5.0518,0.042,0.2804,-0.2421
1812821.0,7.5944,1.7142,5.2792,0.1431,0.3139,-0.1543
1812831.0,7.9296,1.64,5.43,0.2389,0.3523,-0.0937
1812841.0,7.6399,2.1476,5.5258,0.3086,0.3996,-0.0686
1812851.0,7.2089,2.8826,5.5569,0.3421,0.4464,-0.0154
1812861.0,7.106,2.9999,5.4803,0.2847,0.4757,0.1016
1812871.0,7.3694,2.0925,5.7796,0.1378,0.505,0.2357
1812881.0,7.6471,1.0295,6.0885,-0.0037,0.5337,0.3044
1812891.0,7.7812,0.0694,6.5745,-0.1314,0.5683,0.2831
1812901.0,7.865,-0.4836,7.343,-0.1921,0.6194,0.2022
1812911.0,7.4579,-0.4357,8.2408,-0.1591,0.6635,0.0974
1812921.0,6.9791,0.0551,9.0549,-0.074,0.6316,0.0234
1812931.0,6.9025,0.4884,9.6175,-0.0016,0.4826,0.0069
1812941.0,6.7828,0.7757,9.7731,0.1016,0.2911,0.0367
1812951.0,6.8474,0.9337,8.9759,0.2389,0.1277,0.1112
1812961.0,6.9839,0.3639,8.5928,0.2357,0.0144,0.1905
1812971.0,7.4005,-0.4334,7.9966,0.1878,-0.1075,0.2283
1812981.0,7.8266,-1.1708,7.343,0.166,-0.1687,0.1995
1812991.0,8.1906,-1.3384,6.5266,0.2347,-0.1038,0.1208
1813001.0,8.2073,-1.0846,6.2944,0.2943,0.075,0.016
1813011.0,8.0206,-0.5028,6.3997,0.2852,0.2315,-0.083
1813021.0,7.7572,0.146,6.8498,0.1873,0.3081,-0.1532
1813031.0,7.6591,0.5578,7.3981,0.0692,0.3437,-0.1713
1813041.0,7.4843,0.9266,7.8434,0.0021,0.3602,-0.1447
1813051.0,7.2664,0.9601,8.4659,-0.05,0.3539,-0.091
1813061.0,7.2496,0.7302,8.8585,-0.0399,0.3076,-0.0192
1813071.0,7.2712,0.3567,9.0237,0.008,0.2336,0.0436
1813081.0,7.3047,0.0311,9.0429,0.0772,0.1628,0.0793
1813091.0,7.3047,0.0311,9.0429,0.0772,0.1628,0.0793
1813101.0,7.3574,-0.2514,8.7915,0.0984,0.0309,0.067
1813111.0,7.2903,-0.3496,8.6359,0.0431,-0.0617,0.033
1813121.0,7.2903,-0.3496,8.6359,0.0431,-0.0617,0.033
1813131.0,7.3406,-0.316,8.3151,-0.0122,-0.1522,-0.0096
1813141.0,7.2951,-0.2658,8.1762,-0.0654,-0.2102,-0.0521
1813151.0,7.3358,-0.1915,7.9775,-0.0474,-0.2325,-0.0803
1813161.0,7.3622,0.0215,7.7812,0.0,-0.2293,-0.1022
1813171.0,7.4196,0.2658,7.4388,0.0208,-0.2341,-0.1181
1813181.0,7.434,0.6177,7.106,0.0617,-0.2059,-0.1128
1813191.0,7.434,0.6177,7.106,0.0617,-0.2059,-0.1128
1813201.0,7.3454,0.7063,6.9935,0.0878,-0.1719,-0.0921
1813211.0,7.2353,0.6776,6.8378,0.0984,-0.1559,-0.0596
1813221.0,7.4029,0.3543,6.699,0.108,-0.141,-0.0277
1813231.0,7.4484,0.1484,6.5984,0.1304,-0.1086,-0.017
1813241.0,7.5681,0.0,6.6774,0.1687,-0.0553,-0.0277
1813251.0,7.5681,0.1437,6.5841,0.2373,-0.0101,-0.0532
1813261.0,7.5178,0.4956,6.4955,0.2708,0.0229,-0.0862
1813271.0,7.5417,1.0008,6.1794,0.2426,0.042,-0.1027
1813281.0,7.3622,1.1444,6.4428,0.1117,0.0681,-0.0937
1813291.0,7.5106,1.0391,6.5936,0.0059,0.0553,-0.0702
1813301.0,7.6638,0.8475,6.7109,-0.0511,0.0474,-0.058
1813311.0,7.6734,0.7805,6.6966,-0.0213,0.0809,-0.0511
1813321.0,7.5537,0.826,6.7636,0.0511,0.1474,-0.0479
1813331.0,7.4891,1.0199,6.7756,0.125,0.2144,-0.0442
1813341.0,7.5346,1.0894,6.8714,0.1474,0.2703,-0.0282
1813351.0,7.525,1.0151,7.2209,0.1277,0.3033,-0.0165
1813361.0,7.4795,0.9242,7.6902,0.1203,0.3092,-0.0128
1813371.0,7.4124,0.9337,7.9942,0.1458,0.2751,-0.017
1813381.0,7.4699,0.9218,7.9152,0.1607,0.2027,-0.0218
1813391.0,7.4436,0.8811,7.829,0.1336,0.1293,-0.041
1813401.0,7.3837,1.0056,7.5681,0.1224,0.0835,-0.0644
1813411.0,7.3143,1.0247,7.4939,0.107,0.0713,-0.0803
1813421.0,7.3741,1.0056,7.446,0.1219,0.0777,-0.0819
1813431.0,7.5633,0.9936,7.2233,0.1506,0.0803,-0.0803
1813441.0,7.6327,0.9744,7.094,0.1309,0.0905,-0.0915
1813451.0,7.6543,1.0654,7.0725,0.0857,0.0984,-0.1107
1813461.0,7.6016,1.1205,7.2712,0.041,0.1086,-0.1256
1813471.0,7.6447,1.2665,7.2856,0.0282,0.0968,-0.1277
1813481.0,7.5202,1.3192,7.434,-0.0085,0.058,-0.1181
1813491.0,7.501,1.3623,7.2712,-0.0197,-0.0069,-0.0979
1813501.0,7.6088,1.2809,7.0102,-0.0372,-0.0607,-0.0772
1813511.0,7.7835,1.2857,6.3518,-0.0612,-0.1064,-0.0644
1813521.0,8.0014,1.2402,5.7557,-0.1469,-0.1176,-0.0729
1813531.0,8.1499,1.3192,5.1044,-0.2698,-0.0756,-0.1038
1813541.0,8.0541,1.4605,4.6711,-0.4289,0.0144,-0.1431
1813551.0,7.7237,1.6257,4.4005,-0.5992,0.1346,-0.1692
1813561.0,7.3454,1.6855,4.2377,-0.7529,0.307,-0.1612
1813571.0,7.276,1.5107,4.7094,-0.8727,0.5396,-0.1256
1813581.0,7.2377,1.1301,5.7844,-0.9381,0.7652,-0.0883
1813591.0,7.1826,0.838,6.9192,-0.9557,0.8785,-0.0697
1813601.0,7.1754,0.723,7.8434,-0.9131,0.8716,-0.0617
1813611.0,5.3726,1.5586,8.327,-0.7806,0.8418,-0.0415
1813621.0,6.8139,2.4995,8.6143,-0.638,0.7487,0.049
1813631.0,7.1658,1.6089,9.8354,-0.5396,0.6992,0.2086
1813641.0,6.7588,1.2737,9.0022,-0.2565,0.5704,0.3326
1813651.0,6.3829,0.6895,9.0094,-0.1415,0.5071,0.3911
1813661.0,6.7349,0.4717,8.3725,-0.0192,0.464,0.4262
1813671.0,6.9312,0.0551,8.4731,-0.0511,0.4858,0.415
1813681.0,6.8115,-0.091,8.916,-0.1011,0.5257,0.3698
1813691.0,6.5721,-0.1915,9.7372,-0.1703,0.513,0.3118
1813701.0,6.5122,-0.1628,10.1418,-0.1974,0.3948,0.265
1813711.0,6.5912,-0.1676,10.2592,-0.1942,0.2437,0.2357
1813721.0,6.7301,-0.2921,10.2448,-0.1272,0.1495,0.2304
1813731.0,6.7277,-0.3831,10.228,-0.0005,0.116,0.2309
1813741.0,6.8259,-0.5315,10.3501,0.0718,0.0575,0.2171
1813751.0,6.9911,-0.6273,10.3813,0.0713,-0.0527,0.1735
1813761.0,6.9623,-0.4717,10.2615,0.0793,-0.1538,0.1176
1813771.0,6.8307,-0.1484,10.0006,0.0718,-0.2352,0.0756
1813781.0,6.6248,-0.0192,10.2975,0.0048,-0.3049,0.0548
1813791.0,6.6679,0.1221,10.3956,0.0032,-0.3831,0.0506
1813801.0,6.7349,0.2753,10.6877,0.0367,-0.4597,0.0506
1813811.0,6.7636,0.5028,10.7691,0.1405,-0.5215,0.0692
1813821.0,6.7732,0.4549,11.0564,0.2836,-0.5577,0.108
1813831.0,6.6774,0.6009,10.7524,0.3533,-0.6907,0.1442
1813841.0,6.687,0.3879,10.5943,0.2011,-0.9344,0.1506
1813851.0,6.8618,0.1891,10.1586,0.0617,-1.1478,0.1394
1813861.0,6.924,0.0263,10.0461,0.0101,-1.1994,0.1229
1813871.0,7.0054,-0.2705,10.4794,-0.0112,-1.2042,0.1022
1813881.0,7.0222,-0.395,10.7188,-0.0708,-1.3409,0.0575
1813891.0,7.1467,-0.3998,10.5082,-0.2043,-1.6043,-0.0112
1813901.0,7.4579,-0.3687,9.6869,-0.3187,-1.8443,-0.083
1813911.0,7.1204,-0.067,8.7676,-0.4081,-1.9507,-0.1575
1813921.0,7.0509,0.3663,8.2361,-0.4975,-1.9757,-0.2182
1813931.0,7.252,0.9242,7.6758,-0.6199,-2.0194,-0.2485
1813941.0,7.4508,1.0223,7.2951,-0.7859,-2.0853,-0.2474
1813951.0,7.9009,0.8811,6.5242,-0.8897,-2.1423,-0.2293
1813961.0,8.26,0.4549,5.8993,-0.9551,-2.1396,-0.2224
1813971.0,8.5018,0.237,5.0111,-1.0036,-2.1391,-0.2517
1813981.0,8.521,0.1891,4.3981,-1.1153,-2.1598,-0.323
1813991.0,8.4348,0.5555,3.3519,-1.1706,-2.2088,-0.3922
1814001.0,7.7357,1.2617,2.4301,-1.1573,-2.2088,-0.4326
1814011.0,7.1084,2.3703,0.7207,-0.9919,-2.1944,-0.4071
1814021.0,6.3734,3.213,-1.3408,-0.77,-2.1455,-0.323
1814031.0,5.3989,3.9863,-4.4652,-0.6316,-2.1354,-0.2027
1814041.0,6.359,4.3431,-9.1171,-0.7657,-2.2008,-0.0878
1814051.0,5.6743,4.7118,-13.8098,-1.085,-2.0598,-0.0255
1814061.0,5.533,6.2177,-18.3851,-1.491,-1.773,-0.0021
1814071.0,4.3383,7.422,-20.2909,-1.5969,-1.0892,0.0984
1814081.0,2.8276,8.8274,-22.5917,-0.8556,-0.1378,0.3395
1814091.0,1.731,10.2017,-25.7161,0.1421,0.8594,0.6204
1814101.0,-0.17,10.9247,-27.7847,1.209,2.1588,0.9349
1814111.0,-3.2346,11.5281,-29.1398,2.2333,3.6269,1.2606
1814121.0,-6.7325,11.9375,-29.2117,2.9181,5.0497,1.5538
1814131.0,-9.9264,13.1298,-29.6115,3.421,6.5141,1.8486
1814141.0,-14.6381,13.9989,-29.2524,3.4289,8.0945,2.1801
1814151.0,-20.4824,14.3054,-26.6307,2.5579,9.5477,2.5376
1814161.0,-25.9077,13.2615,-21.6603,0.9168,10.6646,2.9889
1814171.0,-30.0448,9.5529,-13.9821,-1.0584,11.3473,3.5944
1814181.0,-33.2531,2.6312,-4.6495,-2.5914,11.3563,4.316
1814191.0,-32.8365,-5.2122,0.0694,-2.5185,10.9163,4.996
1814201.0,-35.1684,-10.7093,1.4724,-0.6721,11.1776,5.3115
1814211.0,-38.8699,-12.967,-1.1636,2.13,12.3397,5.103
1814221.0,-43.6511,-13.6422,1.8196,4.4059,14.7592,4.2718
1814231.0,-51.686,-10.4244,10.6255,5.3525,17.2218,2.8755
1814241.0,-57.0155,-8.8945,25.3378,3.7557,17.4357,1.2318
1814251.0,-61.1814,-5.9256,47.2927,1.3638,17.3596,-0.1692
1814261.0,-49.6246,2.0877,49.074,-0.2219,14.258,-0.9073
1814271.0,-48.2144,0.5291,78.4508,-1.3989,13.5146,-0.9972
1814281.0,-47.2328,10.817,78.4508,-0.4512,8.5761,-0.4895
1814291.0,-44.9823,5.1044,78.4508,-1.7326,2.5706,0.2852
1814301.0,-39.6528,4.7932,74.0766,0.2474,-2.013,1.55
1814311.0,-35.3049,-2.9975,62.436,0.7492,-5.733,2.3243
1814321.0,-28.8358,-7.8147,40.1316,1.4527,-8.6596,2.5722
1814331.0,-21.6603,-11.5209,22.5773,1.0238,-9.6036,2.1359
1814341.0,-14.9326,-12.4953,12.0692,-0.2267,-9.0874,1.1733
1814351.0,-10.5489,-10.7595,8.0254,-1.6474,-7.887,0.091
1814361.0,-9.0214,-8.3318,9.4906,-2.9601,-6.9238,-0.8822
1814371.0,-8.0661,-5.1643,10.3789,-3.165,-6.3343,-1.4324
1814381.0,-7.2832,-3.7972,10.4124,-2.4467,-5.8516,-1.5144
1814391.0,-6.043,-2.6887,7.92,-1.1318,-5.368,-1.3351
1814401.0,-4.6424,-2.4181,4.5394,-0.0149,-4.7582,-1.0669
1814411.0,-3.2322,-2.9975,3.1627,0.4427,-4.0435,-0.9041
1814421.0,-2.1859,-2.7869,2.7054,0.5177,-3.3087,-0.886
1814431.0,-2.1883,-2.5618,4.0486,0.1479,-2.6845,-0.9732
1814441.0,-2.3631,-2.4852,6.5888,-0.4842,-2.3706,-1.1323
1814451.0,-2.5905,-2.0518,8.837,-1.0839,-2.3578,-1.3133
1814461.0,-2.8754,-1.8986,11.2288,-1.5979,-2.5632,-1.4654
1814471.0,-3.3926,-1.8124,12.5552,-1.7847,-2.941,-1.5532
1814481.0,-3.5075,-1.9465,12.2392,-1.6368,-3.3693,-1.5692
1814491.0,-2.9137,-2.5307,11.5831,-1.2361,-3.6381,-1.5447
1814501.0,-2.5881,-2.6025,10.307,-0.5864,-3.6886,-1.5202
1814511.0,-2.3894,-1.834,9.0237,-0.0106,-3.6796,-1.5202
1814521.0,-1.8435,-0.8595,7.288,0.3799,-3.6843,-1.4974
1814531.0,-1.0008,0.0048,5.4516,0.4385,-3.6402,-1.4724
1814541.0,-0.51,0.5866,4.6663,0.1564,-3.5066,-1.474
1814551.0,0.0,0.9792,4.209,-0.2921,-3.3763,-1.4883
1814561.0,0.6225,0.9313,4.7094,-0.7902,-3.2587,-1.5155
1814571.0,0.8452,1.1564,5.1906,-1.0749,-3.1395,-1.5282
1814581.0,0.9864,1.4964,5.8802,-1.1595,-3.0506,-1.5053
1814591.0,1.2833,1.8196,6.0023,-1.0052,-3.0128,-1.4154
1814601.0,1.6424,1.9992,5.363,-0.7285,-2.9852,-1.268
1814611.0,2.1644,1.9225,4.2329,-0.4672,-2.9287,-1.1009
1814621.0,3.0239,1.5323,3.0023,-0.3086,-2.8053,-0.944
1814631.0,3.8858,0.8499,2.1117,-0.2379,-2.5733,-0.8312
1814641.0,4.5681,0.3496,1.652,-0.1979,-2.2562,-0.7774
1814651.0,4.9225,0.261,1.6975,-0.1671,-1.8975,-0.7726
1814661.0,4.9608,0.3472,1.8603,-0.1788,-1.5671,-0.7721
1814671.0,5.2002,0.1484,2.4948,-0.2857,-1.3186,-0.7694
1814681.0,5.3079,-0.2179,3.2968,-0.3693,-1.119,-0.7732
1814691.0,5.4157,-0.3089,4.0534,-0.3161,-0.9216,-0.787
1814701.0,5.2385,0.1652,4.6088,-0.2272,-0.7811,-0.8067
1814711.0,5.1691,0.6057,5.4947,-0.1916,-0.7157,-0.7902
1814721.0,5.3726,0.6321,6.1651,-0.0218,-0.6806,-0.6992
1814731.0,5.4755,0.5028,6.4117,0.2192,-0.6896,-0.5827
1814741.0,5.6958,0.2993,6.1507,0.4236,-0.7822,-0.4757
1814751.0,6.1052,-0.0718,5.1954,0.5688,-0.879,-0.3927
1814761.0,6.675,-0.3998,3.8499,0.597,-0.8854,-0.3608
1814771.0,6.9456,-0.5578,3.2561,0.4667,-0.7551,-0.3932
1814781.0,6.9671,-0.4884,3.0598,0.2597,-0.5949,-0.4566
1814791.0,7.0174,-0.3017,3.5219,-0.0192,-0.4911,-0.538
1814801.0,7.1994,0.2538,3.7781,-0.1979,-0.4411,-0.6002
1814811.0,7.3765,0.9816,3.4524,-0.2724,-0.3602,-0.6114
1814821.0,7.2568,1.5227,3.486,-0.3145,-0.1783,-0.571
1814831.0,7.331,1.9154,3.6655,-0.2841,0.0846,-0.4816
1814841.0,7.2353,1.9968,4.1204,-0.3076,0.3352,-0.3688
1814851.0,7.1515,1.6305,5.1164,-0.4177,0.5124,-0.2607
1814861.0,7.0749,1.2258,6.0813,-0.4709,0.6279,-0.1634
1814871.0,7.1251,0.9697,6.7014,-0.4432,0.7237,-0.0905
1814881.0,7.0318,0.8404,7.4316,-0.4507,0.7928,-0.0362
1814891.0,6.8809,0.6464,8.3318,-0.5736,0.7524,-0.0027
1814901.0,6.7253,0.2993,9.0668,-0.7455,0.5821,0.0234
1814911.0,6.6535,-0.2322,9.3877,-0.8615,0.3672,0.0511
1814921.0,7.0294,-0.9768,9.4188,-0.8626,0.1825,0.0788
1814931.0,7.0294,-1.549,9.4164,-0.7875,0.0548,0.0665
1814941.0,6.8738,-1.5251,8.9256,-0.6428,-0.0458,0.017
1814951.0,6.9145,-1.0726,7.8697,-0.5938,-0.1272,-0.0484
1814961.0,6.8426,-0.6752,7.4939,-0.7764,-0.1543,-0.1192
1814971.0,6.7876,-0.3807,7.7476,-0.9849,-0.1373,-0.1511
1814981.0,6.7038,-0.4166,8.3582,-1.0951,-0.1266,-0.1314
1814991.0,6.845,-0.7518,8.8753,-1.0366,-0.1591,-0.0702
1815001.0,7.1084,-1.1588,8.9064,-0.7849,-0.2123,0.0043
1815011.0,7.1563,-1.3647,8.3294,-0.4422,-0.241,0.0628
1815021.0,7.1539,-1.4892,7.4962,-0.1575,-0.24,0.1048
1815031.0,7.3095,-1.8531,6.9336,0.0043,-0.2091,0.1272
1815041.0,7.5585,-2.2673,6.3494,0.116,-0.1474,0.1245
1815051.0,7.774,-2.648,6.1052,0.2097,-0.0223,0.0835
1815061.0,7.9176,-2.7318,5.9759,0.3219,0.1485,0.0133
1815071.0,7.7476,-2.4301,6.1986,0.3709,0.315,-0.0835
1815081.0,7.4124,-1.7765,6.6319,0.3555,0.422,-0.1735
1815091.0,7.173,-1.1947,7.0485,0.2857,0.4635,-0.2224
1815101.0,7.1491,-0.9361,7.4196,0.2006,0.4699,-0.2246
1815111.0,7.1994,-0.9002,8.0541,0.1219,0.4715,-0.2065
1815121.0,7.1156,-0.9625,8.7652,0.0894,0.4454,-0.182
1815131.0,7.1323,-0.8021,8.7843,0.0772,0.3347,-0.1676
1815141.0,7.1443,-0.7039,8.6718,-0.0325,0.1777,-0.1708
1815151.0,6.9504,-0.5339,8.5569,-0.165,0.0681,-0.1671
1815161.0,7.0318,-0.5243,8.4108,-0.2735,0.0048,-0.1479
1815171.0,6.857,-0.7566,8.667,-0.3938,-0.0367,-0.1288
1815181.0,6.8283,-0.9888,8.8681,-0.4411,-0.0931,-0.1123
1815191.0,6.8019,-1.3001,8.6957,-0.4496,-0.1671,-0.1022
1815201.0,6.845,-1.6161,8.7843,-0.4198,-0.2059,-0.1107
1815211.0,6.9384,-1.5754,8.4276,-0.2943,-0.2006,-0.1282
1815221.0,6.8378,-1.4006,8.351,-0.2219,-0.183,-0.1554
1815231.0,6.9001,-1.1732,8.1738,-0.1713,-0.1745,-0.1671
1815241.0,6.8785,-1.0606,8.2337,-0.1309,-0.157,-0.1575
1815251.0,6.8833,-1.0463,8.2432,-0.0862,-0.1554,-0.1362
1815261.0,6.9408,-1.1756,8.3294,-0.0245,-0.1942,-0.1086
1815271.0,7.0437,-1.1516,7.8003,0.0692,-0.2528,-0.0894
1815281.0,7.1658,-1.0415,7.3478,0.1394,-0.2671,-0.0825
1815291.0,7.2161,-0.8404,6.8187,0.2027,-0.2256,-0.0713
1815301.0,7.2185,-0.7302,6.3997,0.1745,-0.1671,-0.0596
1815311.0,7.2616,-0.8021,6.3518,0.0548,-0.1197,-0.0564
1815321.0,7.4244,-0.9481,6.5266,-0.025,-0.0564,-0.0548
1815331.0,7.4675,-1.008,6.596,-0.0506,0.0037,-0.0585
1815341.0,7.2927,-0.972,6.8785,-0.0772,0.0399,-0.075
1815351.0,7.2999,-0.8571,7.0653,-0.0649,0.0612,-0.0772
1815361.0,7.1898,-0.7542,7.0509,-0.0133,0.091,-0.0623
1815371.0,7.1515,-0.6656,7.0868,0.016,0.1038,-0.041
1815381.0,7.1347,-0.6393,7.0892,0.0144,0.1059,-0.0181
1815391.0,7.2496,-0.7614,7.0964,0.0165,0.1219,0.009
1815401.0,7.4364,-0.9074,7.0437,0.016,0.1495,0.0223
1815411.0,7.367,-1.0511,7.1036,-0.0192,0.174,0.0117
1815421.0,7.3789,-1.0558,7.1994,-0.0532,0.1878,-0.0096
1815431.0,7.3622,-0.972,7.3191,-0.0878,0.1969,-0.0325
1815441.0,7.3622,-0.9505,7.4843,-0.1059,0.2038,-0.0436
1815451.0,7.2736,-0.893,7.592,-0.0761,0.2128,-0.042
1815461.0,7.2065,-0.9194,7.6902,-0.041,0.2033,-0.0319
1815471.0,7.3478,-0.9673,7.6806,-0.0021,0.1841,-0.0293
1815481.0,7.3334,-0.893,7.6902,0.0303,0.1953,-0.0372
1815491.0,7.0964,-0.8284,7.7955,0.0165,0.2001,-0.0479
1815501.0,6.9983,-0.8763,7.9942,-0.0234,0.1767,-0.0511
1815511.0,7.0222,-0.9074,8.1331,-0.0197,0.1463,-0.05
1815521.0,6.9959,-0.8284,8.272,0.0404,0.1415,-0.0431
1815531.0,7.0174,-0.6895,8.1427,0.1378,0.1458,-0.0202
1815541.0,7.1036,-0.7805,8.102,0.183,0.1304,0.0064
1815551.0,7.2089,-0.9625,7.9847,0.2134,0.1043,0.0234
1815561.0,7.2377,-1.0343,7.7381,0.2549,0.1086,0.0261
1815571.0,7.2568,-1.1085,7.4795,0.2847,0.1495,0.0229
1815581.0,7.3933,-1.2594,7.5705,0.2724,0.2065,0.0048
1815591.0,7.4148,-1.1468,7.7572,0.2453,0.2591,-0.0282
1815601.0,7.3957,-1.1085,8.1427,0.199,0.282,-0.0543
1815611.0,7.355,-1.1301,8.3941,0.1836,0.282,-0.0633
1815621.0,7.4172,-1.1684,8.5593,0.1836,0.2666,-0.066
1815631.0,7.3406,-1.3982,8.9376,0.1719,0.2559,-0.0665
1815641.0,7.2616,-1.6855,9.2632,0.1804,0.2379,-0.074
1815651.0,7.1515,-2.0494,9.8761,0.2065,0.2097,-0.1
1815661.0,7.1395,-2.0638,10.3046,0.2772,0.1463,-0.1463
1815671.0,7.185,-1.8579,10.4986,0.3076,0.0229,-0.2033
1815681.0,6.9599,-1.5347,10.6374,0.2756,-0.1144,-0.2538
1815691.0,6.4691,-1.1396,10.9367,0.2256,-0.2549,-0.2921
1815701.0,5.782,-0.5626,11.3916,0.2448,-0.3922,-0.2948
1815711.0,6.9432,-0.1269,11.2384,0.3469,-0.5369,-0.2432
1815721.0,6.8977,-0.3974,11.078,0.2607,-0.7077,-0.1932
1815731.0,6.6152,-1.2617,11.3844,0.1293,-0.8854,-0.1857
1815741.0,7.0222,-1.6065,10.9654,0.1479,-1.0546,-0.2331
1815751.0,6.9528,-1.4892,10.5919,0.1341,-1.1861,-0.3331
1815761.0,6.7684,-0.7422,9.8402,0.0862,-1.2936,-0.4379
1815771.0,6.8259,-0.3017,9.4834,-0.108,-1.3899,-0.5151
1815781.0,6.9145,0.1317,9.0644,-0.3235,-1.4968,-0.5646
1815791.0,6.7349,0.4166,8.9687,-0.5268,-1.5687,-0.5901
1815801.0,6.9216,0.4046,9.3039,-0.5741,-1.5697,-0.572
1815811.0,6.8881,0.5195,9.4188,-0.4683,-1.5772,-0.5289
1815821.0,6.7397,0.6728,9.6893,-0.3852,-1.665,-0.4906
1815831.0,6.8666,0.8332,9.5146,-0.2708,-1.8225,-0.4326
1815841.0,7.0653,0.9361,8.7173,-0.1506,-1.9885,-0.3602
1815851.0,7.1658,1.1301,7.513,-0.1139,-2.1476,-0.3076
1815861.0,7.2377,1.2857,6.292,-0.1873,-2.2583,-0.2671
1815871.0,7.5561,1.257,5.2361,-0.306,-2.2689,-0.2288
1815881.0,7.683,1.142,4.4915,-0.4757,-2.2285,-0.2097
1815891.0,7.7931,0.8332,4.3263,-0.6593,-2.1907,-0.2059
1815901.0,7.8099,0.6823,4.2042,-0.7114,-2.162,-0.2054
1815911.0,7.9727,0.7278,3.62,-0.5715,-2.1162,-0.1868
1815921.0,8.1044,0.9337,2.3152,-0.4236,-2.0875,-0.1628
1815931.0,8.3127,0.8835,1.2737,-0.4081,-2.0449,-0.1575
1815941.0,8.9854,1.1516,0.0982,-0.3932,-1.9427,-0.1681
1815951.0,8.8657,1.6879,-1.0175,-0.4805,-1.8241,-0.2022
1815961.0,8.734,2.1548,-1.9106,-0.6529,-1.7203,-0.2246
1815971.0,8.3749,2.8084,-3.3734,-0.8524,-1.6559,-0.2309
1815981.0,7.5202,3.4884,-4.7333,-1.1297,-1.5681,-0.2251
1815991.0,6.6966,4.5346,-6.6918,-1.3239,-1.4074,-0.1724
1816001.0,5.9376,5.7772,-9.3565,-1.6256,-1.2372,-0.0889
1816011.0,4.6567,6.8761,-10.9439,-2.1359,-1.0413,-0.0021
1816021.0,4.0127,8.4587,-12.8784,-2.4451,-0.8195,0.1357
1816031.0,2.8611,10.1682,-14.6908,-2.3887,-0.505,0.3443
1816041.0,1.2977,12.6797,-17.8392,-1.8613,-0.0878,0.655
1816051.0,-0.4932,15.0476,-22.0386,-1.1664,0.4757,1.0802
1816061.0,-2.8108,16.7714,-25.6371,-0.5209,1.3133,1.6017
1816071.0,-5.8323,18.2869,-28.1319,0.1368,2.4073,2.1971
1816081.0,-9.8881,19.9796,-29.6809,0.9977,3.7844,2.8516
1816091.0,-15.2343,21.069,-31.3664,1.9491,5.4377,3.6269
1816101.0,-20.5662,19.5463,-31.4023,2.4823,7.2543,4.4767
1816111.0,-26.0968,16.9916,-27.4854,2.5009,9.1151,5.1801
1816121.0,-33.0113,14.8441,-19.8264,2.6765,10.8876,5.7569
1816131.0,-38.6975,11.6191,-13.6039,3.4167,12.2785,6.3518
1816141.0,-42.9448,7.3837,-9.7109,4.1819,13.3816,6.7658
1816151.0,-49.2176,3.6464,-5.7174,4.6938,14.6336,6.827
1816161.0,-56.326,0.17,-1.1636,5.0934,16.1821,6.5913
1816171.0,-61.9165,-5.5402,8.0254,5.1407,17.4357,6.0677
1816181.0,-65.4431,-13.8912,24.9835,4.5905,17.4357,5.0907
1816191.0,-62.9053,-20.6428,48.9638,4.0903,17.4357,3.5731
1816201.0,-67.5189,-12.3493,50.5967,4.5623,16.902,1.9124
1816211.0,-65.2779,-10.0916,67.4231,3.5348,14.6177,0.5763
1816221.0,-47.3358,6.0717,66.0704,4.1063,11.5229,-0.0474
1816231.0,-37.0479,5.2768,75.0319,0.6955,6.3018,-0.6274
1816241.0,-35.1948,8.4156,69.19,-0.5752,2.3344,-0.4454
1816251.0,-35.2666,3.6488,65.9148,-1.6793,-0.5827,-0.0309
1816261.0,-32.4654,-5.1092,62.5222,-2.5217,-3.8871,0.2309
1816271.0,-28.1175,-8.8514,48.8561,-1.9337,-6.7663,0.2655
1816281.0,-24.2365,-11.7938,36.9401,-1.5862,-8.6261,-0.0553
1816291.0,-18.2151,-10.6853,20.7338,-0.6423,-9.2705,-0.4975
1816301.0,-13.1298,-7.7907,11.9183,-0.4667,-8.4861,-1.0323
1816311.0,-9.7875,-4.0462,7.4915,-0.5901,-7.1974,-1.4777
1816321.0,-8.3965,-1.1732,7.2401,-0.8216,-5.9011,-1.7022
1816331.0,-7.5872,0.2921,8.1858,-0.8301,-4.905,-1.657
1816341.0,-6.5769,0.3615,8.7891,-0.588,-4.1728,-1.4367
1816351.0,-5.6814,-0.8643,9.505,-0.3246,-3.588,-1.2079
1816361.0,-5.114,-1.6616,10.1682,-0.1309,-3.1134,-1.0956
1816371.0,-5.3223,-2.2122,11.5879,-0.108,-2.8159,-1.0924
1816381.0,-5.1475,-2.3583,12.8497,-0.0952,-2.7494,-1.1424
1816391.0,-5.3391,-1.9728,13.6733,-0.0617,-2.8362,-1.2079
1816401.0,-5.4181,-1.7933,14.2982,0.008,-2.999,-1.2435
1816411.0,-5.9544,-1.2809,14.7339,0.1075,-3.2193,-1.268
1816421.0,-6.1914,-0.8452,14.6693,0.2506,-3.5008,-1.2568
1816431.0,-6.0621,-0.5818,14.0061,0.3884,-3.7839,-1.2122
1816441.0,-5.928,-0.3711,13.3692,0.3523,-4.0749,-1.1941
1816451.0,-6.0094,0.1604,12.6103,0.2054,-4.4171,-1.2074
1816461.0,-5.8634,0.5626,11.2815,0.0298,-4.8007,-1.2132
1816471.0,-5.7437,0.6201,9.8067,-0.1703,-5.145,-1.2079
1816481.0,-4.8937,0.1125,7.8003,-0.2315,-5.3738,-1.1845
1816491.0,-3.6751,-0.2634,5.715,-0.1985,-5.3988,-1.1994
1816501.0,-2.3248,-0.1963,4.2832,-0.1511,-5.2477,-1.2749
1816511.0,-1.7717,0.8835,3.0215,-0.1165,-5.0301,-1.375
1816521.0,-1.3408,1.9537,2.4708,-0.2176,-4.8619,-1.4271
1816531.0,-0.8619,2.5139,1.9201,-0.2469,-4.7459,-1.3808
1816541.0,-0.4405,2.7821,0.4238,-0.1054,-4.5975,-1.2425
1816551.0,1.4174,2.9425,-2.1931,-0.0357,-4.408,-1.0946
1816561.0,2.6121,3.0263,-3.4572,-0.1868,-3.969,-1.0073
1816571.0,3.2729,3.2944,-3.5578,-0.3501,-3.3667,-0.9333
1816581.0,3.8068,3.4907,-2.818,-0.5119,-2.8154,-0.8402
1816591.0,4.3048,3.4022,-2.0542,-0.5922,-2.3674,-0.7061
1816601.0,4.9273,2.9209,-1.5347,-0.5619,-1.9449,-0.5444
1816611.0,5.3774,2.138,-0.8715,-0.5034,-1.5197,-0.406
1816621.0,5.5833,1.3647,-0.0694,-0.4597,-1.1483,-0.3209
1816631.0,5.7868,0.6321,1.087,-0.4475,-0.8562,-0.2948
1816641.0,5.8227,0.2634,2.2051,-0.3735,-0.6449,-0.3076
1816651.0,5.9256,0.1221,3.2705,-0.2309,-0.497,-0.3294
1816661.0,5.8227,0.3136,3.7733,-0.041,-0.4305,-0.3406
1816671.0,5.9903,0.6057,3.6895,0.0617,-0.4624,-0.3374
1816681.0,6.2728,0.5602,3.8044,0.058,-0.4864,-0.3241
1816691.0,6.45,0.7135,3.5267,0.0623,-0.4943,-0.306
1816701.0,6.8331,0.4357,3.7781,0.0372,-0.4688,-0.2847
1816711.0,7.0581,0.4405,3.486,0.107,-0.4347,-0.265
1816721.0,7.3023,0.5291,3.1819,0.1532,-0.3773,-0.2565
1816731.0,7.5346,0.7302,2.7366,0.1607,-0.2943,-0.248
1816741.0,7.6471,0.8045,2.6887,0.0984,-0.1719,-0.2347
1816751.0,7.8985,0.9242,2.5905,0.0282,-0.0399,-0.215
1816761.0,7.9057,1.1444,2.5714,-0.0516,0.1405,-0.1937
1816771.0,7.944,1.2785,2.9233,-0.1628,0.3688,-0.1564
1816781.0,7.92,1.1013,3.9552,-0.3235,0.5864,-0.108
1816791.0,7.8027,0.9098,5.1571,-0.4496,0.7317,-0.0644
1816801.0,7.4579,0.905,6.2656,-0.5135,0.8014,-0.0181
1816811.0,7.4986,0.5339,7.501,-0.4911,0.8184,0.0601
1816821.0,7.3885,0.0599,8.1307,-0.3672,0.7684,0.1431
1816831.0,7.4723,-0.7422,8.7101,-0.241,0.6784,0.1942
1816841.0,7.7452,-1.1468,8.667,-0.1022,0.5662,0.1873
1816851.0,7.6926,-1.233,8.8226,-0.0431,0.4762,0.1266
1816861.0,7.4986,-0.8739,8.6335,-0.0372,0.3613,0.0537
1816871.0,7.3933,-0.5555,8.43,-0.124,0.2373,-0.0053
1816881.0,7.2856,-0.3232,8.0852,-0.2352,0.1208,-0.0341
1816891.0,7.3358,-0.3998,7.944,-0.3459,0.0564,-0.0436
1816901.0,7.4316,-0.5028,8.0469,-0.3704,0.042,-0.0506
1816911.0,7.4795,-0.4405,8.2025,-0.2501,0.0873,-0.0474
1816921.0,7.367,-0.2107,8.1738,-0.05,0.1298,-0.0255
1816931.0,7.4101,-0.0551,7.8147,0.1043,0.1213,0.009
1816941.0,7.5346,-0.1867,7.3454,0.149,0.0995,0.0372
1816951.0,7.6399,-0.4645,7.1251,0.1346,0.1192,0.042
1816961.0,7.5872,-0.5602,7.0916,0.1341,0.183,0.0229
1816971.0,7.4699,-0.486,6.9384,0.1341,0.2331,-0.0059
1816981.0,7.4939,-0.5842,7.5202,0.0963,0.3086,-0.0394
1816991.0,7.3526,-0.2753,7.8865,0.1554,0.3778,-0.0708
1817001.0,7.039,0.146,8.169,0.166,0.3565,-0.0937
1817011.0,6.869,0.431,8.1475,0.1261,0.2373,-0.0851
1817021.0,7.2281,0.2825,7.762,0.107,0.149,-0.0484
1817031.0,7.4148,0.2059,7.8147,0.1149,0.1815,-0.0298
1817041.0,7.0413,0.5483,8.1451,0.1511,0.2549,-0.0261
1817051.0,6.9192,0.9385,8.2265,0.1059,0.2011,-0.0059
1817061.0,6.845,1.0127,8.2887,-0.049,0.0623,0.0303
1817071.0,6.8307,0.6967,7.8937,-0.1394,-0.041,0.0931
1817081.0,7.0557,-0.0168,7.6926,-0.1346,-0.016,0.149
