time_ms,ax,ay,az,gx,gy,gz
2530481.0,-3.4548,2.545,9.5026,-0.1373,0.0527,0.0431
2530491.0,-3.3686,2.4349,9.4116,-0.1203,0.0623,0.0452
2530501.0,-3.3064,2.5091,9.2656,-0.0931,0.0851,0.0378
2530511.0,-3.2609,2.7294,9.1099,-0.1117,0.1054,0.0245
2530521.0,-3.2705,2.9042,9.2225,-0.1889,0.1293,0.0154
2530531.0,-3.3184,3.0406,9.4547,-0.2687,0.1399,0.0186
2530541.0,-3.1675,3.1532,9.4691,-0.3203,0.1171,0.0309
2530551.0,-3.1699,3.2944,9.3541,-0.3523,0.1032,0.0527
2530561.0,-3.0885,3.3136,9.1315,-0.381,0.1133,0.0851
2530571.0,-3.0287,3.237,9.1794,-0.4246,0.1272,0.1181
2530581.0,-3.0239,3.1268,9.1028,-0.4651,0.1298,0.149
2530591.0,-3.0335,2.8826,9.1794,-0.4911,0.1336,0.174
2530601.0,-2.9808,2.6528,9.1123,-0.4693,0.149,0.1916
2530611.0,-2.988,2.5666,8.9998,-0.4225,0.1751,0.1958
2530621.0,-3.0454,2.5546,9.007,-0.3741,0.2128,0.1969
2530631.0,-3.1364,2.5833,9.2177,-0.3092,0.2586,0.2059
2530641.0,-3.2226,2.6528,9.3374,-0.2421,0.2762,0.2224
2530651.0,-3.2274,2.7485,9.3039,-0.1729,0.2772,0.249
2530661.0,-3.292,2.7054,9.2153,-0.116,0.2778,0.2836
2530671.0,-3.383,2.5762,9.1123,-0.0851,0.2772,0.3166
2530681.0,-3.3878,2.3583,8.9376,-0.0708,0.2868,0.3347
2530691.0,-3.45,2.229,8.8657,-0.0399,0.3379,0.3395
2530701.0,-3.4668,2.2386,9.074,0.033,0.4432,0.3416
2530711.0,-3.6176,2.3367,9.4954,0.1165,0.5624,0.3528
2530721.0,-3.79,2.6049,9.9311,0.1447,0.6401,0.3634
2530731.0,-4.1084,2.9161,10.477,0.0591,0.6561,0.3778
2530741.0,-4.2617,3.0358,10.8505,-0.1479,0.5832,0.3991
2530751.0,-4.3239,2.7438,11.4371,-0.4135,0.4677,0.4236
2530761.0,-4.3167,2.2098,11.8417,-0.6109,0.3496,0.4411
2530771.0,-4.2856,1.5969,12.378,-0.6806,0.2506,0.4475
2530781.0,-4.1492,1.1612,12.8018,-0.5811,0.1708,0.4417
2530791.0,-4.0558,0.9026,13.1633,-0.3948,0.1075,0.4209
2530801.0,-4.1635,1.1181,13.0843,-0.2017,0.0229,0.3868
2530811.0,-4.2066,1.4341,12.7563,-0.1687,-0.1357,0.3406
2530821.0,-4.0701,1.7645,12.2248,-0.2943,-0.3262,0.2905
2530831.0,-4.0151,2.1452,11.6981,-0.4864,-0.4587,0.2426
2530841.0,-3.9576,2.5762,10.9918,-0.712,-0.5624,0.207
2530851.0,-3.9145,2.9592,10.4124,-1.0243,-0.6619,0.1857
2530861.0,-3.8259,3.2394,9.9407,-1.301,-0.6875,0.1995
2530871.0,-3.7589,3.0885,10.149,-1.4601,-0.6284,0.2501
2530881.0,-3.7206,2.7054,10.3765,-1.4681,-0.5635,0.3214
2530891.0,-3.7014,2.1069,10.7284,-1.3931,-0.5284,0.389
2530901.0,-3.5674,1.3599,11.0899,-1.2563,-0.5295,0.4395
2530911.0,-3.395,0.4669,11.6574,-1.0397,-0.563,0.4603
2530921.0,-3.2633,-0.1293,11.8848,-0.6524,-0.6157,0.447
2530931.0,-2.9521,-0.146,11.5281,-0.1415,-0.6673,0.4103
2530941.0,-2.9233,0.4334,10.6662,0.3448,-0.6449,0.3608
2530951.0,-3.2346,1.2617,10.1897,0.6157,-0.5587,0.3134
2530961.0,-3.3351,2.0399,9.8665,0.5326,-0.6018,0.2623
2530971.0,-3.3615,2.6336,9.5361,0.2437,-0.704,0.2272
2530981.0,-3.2753,2.6528,9.4475,-0.0857,-0.7306,0.2176
2530991.0,-3.2753,2.2841,9.6486,-0.3634,-0.7274,0.2059
2531001.0,-3.2106,1.7023,9.8426,-0.5938,-0.7609,0.1783
2531011.0,-3.0598,1.1301,9.6941,-0.7753,-0.8168,0.124
2531021.0,-2.873,0.6345,9.6438,-0.8913,-0.8312,0.0468
2531031.0,-2.8036,0.4046,9.8497,-0.8849,-0.7716,-0.0335
2531041.0,-3.0574,0.328,10.331,-0.7779,-0.6907,-0.1075
2531051.0,-3.122,0.2825,10.6853,-0.6327,-0.6715,-0.1719
2531061.0,-3.1412,0.3879,10.7715,-0.4959,-0.7061,-0.2325
2531071.0,-3.1939,0.7446,10.5872,-0.39,-0.7348,-0.2873
2531081.0,-3.2441,1.1396,10.7811,-0.3666,-0.7439,-0.3363
2531091.0,-3.3567,1.549,11.0061,-0.34,-0.7466,-0.3565
2531101.0,-3.4261,1.889,11.2192,-0.3336,-0.7849,-0.348
2531111.0,-5.3415,2.0806,10.8362,-0.3507,-0.8519,-0.3155
2531121.0,-1.889,0.4597,8.2624,-0.456,-1.1244,-0.3065
2531131.0,-0.7398,-0.3567,8.3031,-0.572,-1.086,-0.4246
2531141.0,-3.0861,2.5379,7.2257,0.0788,-0.1346,-0.4555
2531151.0,-4.2856,0.9385,13.5608,-0.339,-0.0261,-0.4299
2531161.0,-3.2441,2.3607,11.1642,-0.3118,-0.7168,-0.4236
2531171.0,-3.0789,1.8794,11.1642,-0.4406,-0.9551,-0.3735
2531181.0,-2.5307,2.3655,9.4475,-0.2932,-0.8455,-0.2692
2531191.0,-3.0071,1.6089,11.2671,-0.4044,-0.7412,-0.199
2531201.0,-2.8204,2.0207,10.4076,-0.3815,-0.8705,-0.1389
2531211.0,-2.6217,1.4485,10.5632,-0.5662,-1.0371,-0.0984
2531221.0,-2.1715,1.5347,9.4547,-0.629,-1.1393,-0.0654
2531231.0,-1.9752,1.1061,9.347,-0.7024,-1.1158,-0.0399
2531241.0,-1.7741,0.9409,9.1243,-0.6327,-1.036,-0.0229
2531251.0,-1.7693,0.5962,9.2919,-0.5539,-0.9823,-0.0154
2531261.0,-1.5155,0.7254,8.6263,-0.4534,-1.0099,-0.0128
2531271.0,-1.3503,1.0367,7.9033,-0.4113,-0.9961,0.0085
2531281.0,-1.2067,0.7566,8.1977,-0.3682,-0.861,0.0681
2531291.0,-1.0798,0.0742,8.8322,-0.1979,-0.7279,0.1314
2531301.0,-0.9673,-0.5914,9.2057,0.0814,-0.6832,0.1671
2531311.0,-0.5962,-1.1947,8.9615,0.3789,-0.6625,0.1681
2531321.0,-0.316,-1.47,8.8107,0.5678,-0.6204,0.1038
2531331.0,-0.2155,-1.2306,8.4874,0.6258,-0.5741,-0.0197
2531341.0,-0.2538,-0.6369,8.5162,0.4938,-0.555,-0.1729
2531351.0,-0.2873,-0.0048,8.5473,0.2022,-0.5981,-0.3129
2531361.0,-0.2418,0.4645,8.6598,-0.1538,-0.6742,-0.4209
2531371.0,-0.1939,0.7111,8.837,-0.439,-0.745,-0.4789
2531381.0,-0.2322,0.7015,9.1123,-0.5577,-0.7843,-0.4869
2531391.0,-0.1365,0.7087,8.758,-0.5188,-0.8498,-0.464
2531401.0,0.1867,0.8643,7.6734,-0.4438,-0.9307,-0.4385
2531411.0,0.4717,0.9026,6.6631,-0.4315,-0.9168,-0.4124
2531421.0,0.7063,0.7542,6.122,-0.4432,-0.8195,-0.3868
2531431.0,0.9337,0.6057,5.8706,-0.4065,-0.6971,-0.3565
2531441.0,1.0726,0.5219,5.7413,-0.2666,-0.5326,-0.3097
2531451.0,1.1803,0.5866,5.7988,-0.0149,-0.3214,-0.2437
2531461.0,1.2258,0.735,5.9352,0.2597,-0.1229,-0.1607
2531471.0,1.3408,0.565,6.3518,0.4879,0.0431,-0.0617
2531481.0,1.4533,0.2682,6.517,0.6242,0.125,0.0133
2531491.0,1.7071,-0.1006,6.4596,0.5827,0.1075,0.0388
2531501.0,1.7214,-0.5004,6.687,0.4997,0.1245,0.0298
2531511.0,1.6783,-0.6584,6.9336,0.5215,0.1357,-0.0043
2531521.0,1.6472,-0.1676,6.0118,0.6396,0.0958,-0.0553
2531531.0,1.6089,0.668,4.0917,0.6928,0.1038,-0.0942
2531541.0,1.7334,1.3168,2.5474,0.6029,0.257,-0.0974
2531551.0,1.7023,1.822,1.7454,0.589,0.6678,-0.05
2531561.0,1.2881,2.1739,2.4349,0.6822,1.2414,0.0378
2531571.0,0.747,2.0901,4.5945,0.8546,1.8486,0.1538
2531581.0,0.1987,1.9297,7.4819,0.9913,2.2136,0.2512
2531591.0,-0.1484,1.7909,9.9838,0.9908,2.1646,0.3139
2531601.0,-0.2107,1.8771,10.908,0.9243,1.8156,0.3688
2531611.0,-0.5148,1.4653,10.4387,0.8508,1.318,0.4491
2531621.0,-0.1844,0.893,6.213,0.7412,0.5944,0.5071
2531631.0,0.5124,0.7829,-1.9609,0.3161,-0.1219,0.4528
2531641.0,2.0135,1.5921,-12.4403,-0.6093,-0.3453,0.3044
2531651.0,1.1157,2.8323,-17.334,-1.5985,0.5832,0.1644
2531661.0,-3.1173,4.8866,-17.4657,-1.9076,2.1513,0.2496
2531671.0,-4.2018,4.5705,-14.5567,-1.2968,3.5519,0.5779
2531681.0,-8.6479,4.5873,-10.0149,0.5177,5.4552,1.0397
2531691.0,-12.5073,1.719,0.1365,2.4765,7.1894,1.4495
2531701.0,-14.2718,-0.2131,8.1786,4.2463,7.9013,1.5447
2531711.0,-18.0212,-0.5818,14.5807,5.4712,8.1568,1.3143
2531721.0,-13.9678,-1.8842,20.0107,5.8426,8.0418,0.8093
2531731.0,-16.3859,0.9649,26.3697,4.8954,7.5262,0.0559
2531741.0,-17.0371,3.1173,33.957,2.8958,6.1102,-0.6524
2531751.0,-17.9158,5.545,35.4007,1.1004,4.1042,-1.1355
2531761.0,-13.805,6.4524,33.6457,-0.299,2.1678,-1.384
2531771.0,-14.0061,7.7668,29.7982,-0.9312,1.028,-1.3766
2531781.0,-13.1514,7.2856,28.0098,-0.9711,0.3698,-1.1962
2531791.0,-11.8992,7.0054,23.9324,-0.3815,-0.0559,-0.9456
2531801.0,-10.9439,6.0789,21.9213,0.1623,-0.1431,-0.7263
2531811.0,-10.0604,5.4803,20.7218,0.6784,-0.1048,-0.5699
2531821.0,-9.6223,4.9201,21.0355,1.0605,-0.1469,-0.4917
2531831.0,-8.9471,5.8012,19.4242,1.2542,-0.422,-0.4784
2531841.0,-8.6263,6.4667,18.3252,0.912,-0.7944,-0.4938
2531851.0,-8.0804,7.197,16.3213,0.2985,-1.2244,-0.5087
2531861.0,-7.7357,7.7237,14.6118,-0.4486,-1.5841,-0.5044
2531871.0,-7.5776,7.6136,12.8617,-1.0791,-1.7767,-0.4347
2531881.0,-7.0964,6.3638,11.7986,-1.5213,-1.8672,-0.3326
2531891.0,-6.5027,5.0206,10.6446,-1.7038,-1.8624,-0.2517
2531901.0,-6.0501,4.1348,10.003,-1.756,-1.765,-0.2182
2531911.0,-5.9233,3.5721,10.1825,-1.6682,-1.6187,-0.1974
2531921.0,-5.9711,2.8371,10.7404,-1.4165,-1.5107,-0.1639
2531931.0,-5.7437,2.1356,10.8218,-1.0483,-1.5197,-0.1357
2531941.0,-5.5737,2.229,10.003,-0.7029,-1.6139,-0.1341
2531951.0,-5.2648,2.6767,9.5313,-0.4326,-1.624,-0.1261
2531961.0,-5.2241,3.62,9.1626,-0.1197,-1.4947,-0.0825
2531971.0,-5.2337,4.1803,9.4643,0.0968,-1.3446,0.0032
2531981.0,-5.2074,4.4412,9.7252,0.1027,-1.2957,0.0894
2531991.0,-5.1643,4.1946,10.161,-0.2182,-1.4144,0.1399
2532001.0,-4.9991,3.5913,10.2448,-0.6641,-1.6698,0.1554
2532011.0,-4.6711,2.8228,9.7971,-1.0089,-1.9294,0.1447
2532021.0,-4.276,2.296,8.6383,-1.1669,-2.079,0.1139
2532031.0,-3.9935,2.0782,7.4436,-1.235,-2.129,0.0697
2532041.0,-3.5698,1.8818,6.9528,-1.1632,-2.0422,0.0474
2532051.0,-3.5698,1.8818,6.9528,-1.1632,-2.0422,0.0474
2532061.0,-3.2274,1.9058,6.7205,-0.8493,-1.8081,0.0628
2532071.0,-3.1556,2.0518,6.7086,-0.4736,-1.5495,0.0921
2532081.0,-2.9473,2.1261,7.0485,-0.2049,-1.3441,0.1197
2532091.0,-2.8156,2.4517,7.4962,-0.1368,-1.2382,0.1176
2532101.0,-2.8515,3.0023,7.8865,-0.2288,-1.2207,0.1101
2532111.0,-2.9592,3.462,7.9583,-0.423,-1.293,0.1266
2532121.0,-2.7605,3.3351,7.853,-0.6162,-1.3713,0.1857
2532131.0,-2.4277,2.7342,7.5585,-0.7242,-1.3792,0.2559
2532141.0,-2.3152,2.0734,7.6638,-0.771,-1.3292,0.3049
2532151.0,-2.229,1.2833,8.0541,-0.7184,-1.2638,0.3352
2532161.0,-2.0662,0.5531,8.2456,-0.5539,-1.2404,0.3411
2532171.0,-1.7286,0.103,7.9655,-0.3097,-1.2334,0.3166
2532181.0,-1.3503,0.1317,7.343,-0.0527,-1.1664,0.2677
2532191.0,-1.1277,0.4764,6.8235,0.1016,-1.0264,0.2033
2532201.0,-1.0774,0.996,6.7684,0.1006,-0.8716,0.1399
2532211.0,-1.0606,1.4868,7.0222,-0.0367,-0.7609,0.0889
2532221.0,-0.8882,1.7813,7.2688,-0.2512,-0.6944,0.0559
2532231.0,-0.8882,1.8579,7.8219,-0.4879,-0.6492,0.0388
2532241.0,-0.8452,1.7597,8.3007,-0.6396,-0.6199,0.0436
2532251.0,-0.8045,1.6281,8.6143,-0.6896,-0.6103,0.0607
2532261.0,-0.7638,1.8244,8.6766,-0.6391,-0.597,0.0963
2532271.0,-0.7709,1.549,9.1147,-0.5028,-0.5252,0.1729
2532281.0,-0.6752,0.8092,9.6989,-0.2352,-0.4236,0.2591
2532291.0,-0.68,0.3304,9.8737,0.0633,-0.3837,0.3044
2532301.0,-0.5124,-0.2562,10.137,0.2762,-0.3618,0.3033
2532311.0,-0.2969,-0.2394,10.1418,0.381,-0.3751,0.2363
2532321.0,-0.4118,0.656,9.5457,0.3012,-0.4427,0.1282
2532331.0,-0.486,1.4844,9.2943,0.0005,-0.5098,0.0394
2532341.0,-0.5674,1.8651,9.3134,-0.3485,-0.5566,-0.0043
2532351.0,-0.5507,1.9417,9.5696,-0.5444,-0.5475,0.0021
2532361.0,-0.6129,1.6999,9.9479,-0.538,-0.4741,0.0463
2532371.0,-0.5363,1.1947,10.3693,-0.4214,-0.4273,0.099
2532381.0,-0.3663,0.7925,10.2639,-0.3139,-0.4715,0.1229
2532391.0,-0.1125,0.6943,9.7947,-0.2623,-0.5353,0.1139
2532401.0,-0.079,0.7614,9.5696,-0.2496,-0.5475,0.0958
2532411.0,-0.0742,0.9625,9.2871,-0.2027,-0.5172,0.0867
2532421.0,0.0718,1.1229,8.9232,-0.1676,-0.4853,0.0873
2532431.0,0.1389,1.221,8.6718,-0.1809,-0.4209,0.0931
2532441.0,0.2035,0.9505,9.0836,-0.2214,-0.3251,0.1016
2532451.0,0.17,0.6512,9.5122,-0.2192,-0.2815,0.099
2532461.0,0.316,0.3472,9.7276,-0.1942,-0.3092,0.0835
2532471.0,0.4166,0.4597,9.3661,-0.158,-0.3597,0.0474
2532481.0,0.5602,0.6656,8.8897,-0.1628,-0.3868,0.0117
2532491.0,0.7183,0.8116,8.5521,-0.1926,-0.3613,-0.0133
2532501.0,0.7278,1.0032,8.2025,-0.2059,-0.2879,-0.0282
2532511.0,0.7111,1.0558,8.2241,-0.2405,-0.1963,-0.0346
2532521.0,0.6321,1.1636,8.2887,-0.2794,-0.1346,-0.0367
2532531.0,0.5794,0.996,8.6335,-0.2969,-0.0681,-0.0282
2532541.0,0.5794,0.6704,9.1004,-0.2288,0.0085,-0.0133
2532551.0,0.5339,0.4334,9.5098,-0.1016,0.0559,-0.0101
2532561.0,0.4812,0.3304,9.8354,0.0372,0.0921,-0.0144
2532571.0,0.4932,0.4262,10.0628,0.1453,0.1,-0.0239
2532581.0,0.4908,0.6464,10.1155,0.1937,0.0766,-0.0383
2532591.0,0.5435,0.9577,10.0604,0.1799,0.058,-0.0521
2532601.0,0.5124,1.2546,9.991,0.0825,0.0309,-0.0623
2532611.0,0.4094,1.4269,10.0317,-0.0708,-0.017,-0.0628
2532621.0,0.3974,1.3431,10.1538,-0.1761,-0.0591,-0.0404
2532631.0,0.4573,1.0056,10.1706,-0.1554,-0.0495,-0.0048
2532641.0,0.4381,0.7135,10.2065,-0.0803,-0.017,0.0165
2532651.0,0.4405,0.395,10.3406,-0.0117,0.0181,0.0208
2532661.0,0.4908,0.1053,10.4531,0.0314,0.0277,-0.0032
2532671.0,0.5411,0.2011,10.3837,0.0607,0.0287,-0.0516
2532681.0,0.498,0.4836,10.3621,0.041,0.033,-0.1054
2532691.0,0.4142,0.8667,10.3884,-0.0192,0.0192,-0.149
2532701.0,0.4669,1.3024,10.3453,-0.0692,-0.0005,-0.166
2532711.0,0.4166,1.6568,10.0844,-0.099,0.0011,-0.1517
2532721.0,0.3855,1.743,10.1873,-0.1426,0.0239,-0.1133
2532731.0,0.2753,1.5682,10.556,-0.149,0.0559,-0.0564
2532741.0,0.2634,1.008,11.0875,-0.0867,0.0734,0.0021
2532751.0,0.2562,0.6512,11.2168,0.0314,0.041,0.0293
2532761.0,0.3065,0.4764,11.0684,0.1054,-0.017,0.0229
2532771.0,0.4477,0.4166,10.6422,0.1054,-0.0952,-0.0112
2532781.0,0.6321,0.6776,9.9982,0.0458,-0.1479,-0.0617
2532791.0,0.7302,1.0151,9.5624,-0.0303,-0.1277,-0.1054
2532801.0,0.7278,1.415,9.335,-0.0963,-0.0436,-0.125
2532811.0,0.6129,1.7286,9.4954,-0.1554,0.0612,-0.1149
2532821.0,0.4166,1.7166,10.0796,-0.2027,0.1389,-0.0788
2532831.0,0.3519,1.2857,10.5943,-0.2309,0.1612,-0.033
2532841.0,0.4525,0.7494,10.8912,-0.2591,0.1075,-0.0165
2532851.0,0.431,0.5195,10.975,-0.29,0.0229,-0.0341
2532861.0,0.4741,0.2514,11.1402,-0.2698,-0.0261,-0.0564
2532871.0,0.5698,0.1963,11.1522,-0.1612,-0.067,-0.083
2532881.0,0.5914,0.5842,10.8146,-0.0027,-0.0915,-0.1064
2532891.0,0.6225,1.0582,10.4124,0.0995,-0.0921,-0.1144
2532901.0,0.565,1.6065,10.0724,0.0899,-0.1107,-0.1059
2532911.0,0.5483,1.8268,9.9288,0.0085,-0.1298,-0.0734
2532921.0,0.668,1.585,9.8545,-0.0644,-0.1298,-0.0223
2532931.0,0.7374,1.0942,9.6438,-0.1038,-0.124,0.0154
2532941.0,0.7829,0.6345,9.4858,-0.1346,-0.1038,0.0245
2532951.0,0.8452,0.0287,9.6822,-0.1474,-0.0633,0.008
2532961.0,0.8811,-0.2251,9.8737,-0.1048,-0.0335,-0.0399
2532971.0,0.8523,-0.0287,9.8162,-0.0394,-0.0229,-0.1
2532981.0,0.826,0.4166,9.6774,0.0053,-0.017,-0.1517
2532991.0,0.8021,0.838,9.7923,0.017,0.0064,-0.1783
2533001.0,0.7638,1.1061,9.9,0.0112,0.0213,-0.1862
2533011.0,0.7207,1.324,9.7636,-0.0559,-0.017,-0.1889
2533021.0,0.6512,1.494,9.4762,-0.1948,-0.0878,-0.1873
2533031.0,0.6536,1.2953,9.2799,-0.3421,-0.1362,-0.1756
2533041.0,0.814,0.9409,9.0692,-0.4017,-0.1437,-0.1634
2533051.0,0.9146,0.5435,8.8514,-0.3831,-0.1032,-0.165
2533061.0,0.8691,0.1676,8.928,-0.3219,-0.0117,-0.1862
2533071.0,0.8356,0.1149,9.4044,-0.2272,0.067,-0.2309
2533081.0,0.6919,0.4477,9.8402,-0.1117,0.1054,-0.2804
2533091.0,0.5076,1.0104,10.0509,-0.0351,0.0676,-0.3155
2533101.0,0.4501,1.506,9.6845,-0.0404,-0.066,-0.3267
2533111.0,0.6369,1.8962,8.6622,-0.1415,-0.2373,-0.3214
2533121.0,0.9816,2.2075,7.2688,-0.2937,-0.3326,-0.3038
2533131.0,1.3192,2.6504,5.8203,-0.4571,-0.3113,-0.2682
2533141.0,1.4269,3.0119,4.7597,-0.5875,-0.1378,-0.1921
2533151.0,1.2785,2.8994,4.4724,-0.721,0.099,-0.0782
2533161.0,1.2809,2.0614,4.8363,-0.8333,0.2778,0.0521
2533171.0,1.0199,1.2139,5.2194,-0.8312,0.3581,0.165
2533181.0,0.7518,0.8404,4.4556,-0.7136,0.224,0.2528
2533191.0,1.4365,1.1827,1.2498,-0.497,-0.0803,0.3203
2533201.0,1.9728,2.3152,-3.292,-0.24,-0.166,0.3805
2533211.0,0.182,3.9313,-8.7077,-0.1059,0.0617,0.5167
2533221.0,0.9984,4.3407,-14.3508,-0.1517,0.34,0.6705
2533231.0,-0.1532,4.9225,-20.3076,-0.2565,1.102,0.8179
2533241.0,-2.0973,5.4468,-22.1559,-0.5034,2.3982,0.9956
2533251.0,-5.2313,5.5952,-19.1249,-0.4135,3.9318,1.2537
2533261.0,-8.7747,4.5825,-12.4786,0.5215,5.468,1.632
2533271.0,-12.129,2.3272,-5.3391,2.444,6.9483,2.0087
2533281.0,-14.6573,-0.0934,2.2865,4.3793,7.9758,2.1295
2533291.0,-15.8137,-1.2689,9.2464,5.8639,8.5181,1.9034
2533301.0,-16.271,-0.7997,15.0404,6.586,8.6968,1.3877
2533311.0,-17.0778,1.3216,21.4161,6.0554,8.3648,0.6715
2533321.0,-18.0786,4.1396,26.4416,4.3543,7.3596,-0.0532
2533331.0,-19.0818,5.6862,31.1725,2.005,5.8644,-0.6242
2533341.0,-17.2263,5.1236,34.3688,0.2661,4.3075,-0.9206
2533351.0,-17.0778,7.7548,34.8715,-0.1442,3.1086,-0.9722
2533361.0,-16.6014,6.6391,33.5667,0.4518,2.3349,-0.7407
2533371.0,-14.0779,4.9297,30.0353,1.1919,1.5554,-0.5635
2533381.0,-12.9526,3.5458,28.0912,1.6123,1.1914,-0.5949
2533391.0,-12.4403,4.2186,27.5142,1.707,0.8711,-0.7694
2533401.0,-12.05,6.3494,26.2859,1.6644,0.3735,-0.9365
2533411.0,-11.6957,7.9775,24.4711,1.4351,-0.2496,-0.9812
2533421.0,-10.8481,9.165,21.6963,1.1515,-0.8535,-0.8913
2533431.0,-9.8378,9.5912,17.686,0.8205,-1.3521,-0.7226
2533441.0,-8.4611,8.8729,13.6374,0.3012,-1.6703,-0.5603
2533451.0,-7.4268,7.908,9.9144,-0.3102,-1.6921,-0.455
2533461.0,-6.8019,6.5314,9.1363,-0.9583,-1.4612,-0.4055
2533471.0,-6.4811,5.6671,9.6007,-1.2781,-1.2196,-0.3661
2533481.0,-6.3422,4.6998,10.4651,-1.1882,-1.0685,-0.2905
2533491.0,-6.0549,4.0318,10.3908,-0.7944,-1.0695,-0.2017
2533501.0,-5.8179,3.7613,9.347,-0.34,-1.1318,-0.1235
2533511.0,-5.4708,3.5123,8.0373,-0.0383,-1.1701,-0.0639
2533521.0,-5.2194,3.3327,6.7133,0.0474,-1.1749,-0.0415
2533531.0,-4.8746,2.9664,5.7916,-0.0106,-1.1164,-0.0527
2533541.0,-4.6088,2.8467,5.2457,-0.1479,-1.0046,-0.0995
2533551.0,-4.5298,2.8012,5.126,-0.3613,-0.8673,-0.1644
2533561.0,-4.525,2.7414,5.2816,-0.6066,-0.746,-0.2325
2533571.0,-4.4843,2.5139,5.7269,-0.8556,-0.6588,-0.298
2533581.0,-4.5203,2.2913,6.1387,-1.0195,-0.5779,-0.3624
2533591.0,-4.5801,2.1284,6.62,-1.126,-0.5305,-0.4241
2533601.0,-4.6352,2.2338,6.8498,-1.1494,-0.5161,-0.4736
2533611.0,-4.6112,2.2218,7.3071,-1.0828,-0.4762,-0.4943
2533621.0,-4.5945,2.5163,7.8673,-0.878,-0.3884,-0.4864
2533631.0,-4.944,2.7869,8.8777,-0.5965,-0.2937,-0.4427
2533641.0,-5.0302,3.2777,9.5792,-0.2932,-0.306,-0.3709
2533651.0,-5.1763,3.7804,9.7229,-0.0612,-0.4156,-0.2778
2533661.0,-5.1284,4.0677,9.1913,0.0458,-0.5704,-0.166
2533671.0,-4.9105,3.8331,8.3653,0.0245,-0.7003,-0.0569
2533681.0,-4.6471,3.5171,7.4962,-0.0468,-0.7311,0.0239
2533691.0,-4.5226,3.1101,7.2472,-0.1219,-0.6279,0.0793
2533701.0,-4.4915,2.6911,7.5417,-0.1501,-0.4699,0.1155
2533711.0,-4.5298,2.3583,7.8673,-0.1884,-0.3688,0.124
2533721.0,-4.4149,2.2266,8.1068,-0.29,-0.3427,0.1006
2533731.0,-4.3431,1.9297,8.5281,-0.4225,-0.315,0.0633
2533741.0,-4.367,1.7837,9.0549,-0.5326,-0.3161,0.0138
2533751.0,-4.3551,1.7717,9.2799,-0.6087,-0.3645,-0.0404
2533761.0,-4.3144,1.9465,9.0788,-0.6391,-0.4214,-0.0798
2533771.0,-4.1851,2.3559,8.5138,-0.6678,-0.4438,-0.1032
2533781.0,-4.1563,2.6121,8.169,-0.7524,-0.3954,-0.1022
2533791.0,-4.027,2.6624,8.0182,-0.9206,-0.3342,-0.0899
2533801.0,-4.2473,2.5786,8.5617,-1.1153,-0.2554,-0.0761
2533811.0,-4.3048,2.0135,9.6079,-1.2244,-0.2001,-0.0479
2533821.0,-4.3622,1.3288,10.3477,-1.1877,-0.2336,-0.0314
2533831.0,-4.3455,0.7494,10.6135,-1.0413,-0.3214,-0.0319
2533841.0,-4.2401,0.3304,10.5967,-0.8115,-0.3874,-0.0516
2533851.0,-4.1851,0.4908,10.41,-0.522,-0.4193,-0.0862
2533861.0,-4.3215,1.1229,9.9527,-0.2352,-0.422,-0.1112
2533871.0,-4.3287,1.6855,9.6391,-0.0569,-0.3959,-0.1112
2533881.0,-4.2808,2.1428,9.3685,-0.0154,-0.3837,-0.0968
2533891.0,-4.3096,2.2889,9.4332,-0.1011,-0.3757,-0.0761
2533901.0,-4.2401,2.1691,9.481,-0.2214,-0.3874,-0.0585
2533911.0,-4.1444,1.8794,9.5648,-0.3501,-0.4156,-0.0548
2533921.0,-4.0486,1.5897,9.5217,-0.4448,-0.4331,-0.0676
2533931.0,-3.9576,1.549,9.5098,-0.4954,-0.4204,-0.0931
2533941.0,-4.0151,1.6328,9.7037,-0.4997,-0.3677,-0.1139
2533951.0,-4.0965,1.7597,10.0676,-0.4858,-0.331,-0.1224
2533961.0,-4.197,2.0087,10.2089,-0.4933,-0.3618,-0.1181
2533971.0,-4.1587,2.0806,10.4579,-0.538,-0.414,-0.0947
2533981.0,-4.1013,1.98,10.7907,-0.5412,-0.4746,-0.0532
2533991.0,-3.8954,1.8459,10.6877,-0.4991,-0.5678,-0.0085
2534001.0,-3.7062,1.81,10.1107,-0.4741,-0.6737,0.0266
2534011.0,-3.5027,1.7669,9.3757,-0.5215,-0.7497,0.0495
2534021.0,-3.3375,1.6544,8.8729,-0.6045,-0.7742,0.0628
2534031.0,-3.3279,1.4054,8.7747,-0.6321,-0.738,0.0761
2534041.0,-3.2561,1.1301,8.7484,-0.5236,-0.6417,0.0968
2534051.0,-3.213,0.7278,9.1243,-0.3342,-0.506,0.1155
2534061.0,-3.2633,0.4621,9.5936,-0.1266,-0.3964,0.1197
2534071.0,-3.1077,0.3759,9.7827,-0.0069,-0.3874,0.0926
2534081.0,-2.9544,0.4932,9.5888,-0.0607,-0.4651,0.0303
2534091.0,-2.8683,0.8452,9.3087,-0.2496,-0.538,-0.049
2534101.0,-2.9904,1.154,9.3541,-0.4704,-0.5715,-0.1107
2534111.0,-3.0646,1.561,9.3158,-0.6109,-0.5795,-0.141
2534121.0,-3.1891,1.7478,9.5888,-0.6449,-0.5374,-0.124
2534131.0,-3.292,1.5275,10.3717,-0.5342,-0.4523,-0.0628
2534141.0,-3.3016,1.1971,11.0636,-0.323,-0.4076,0.008
2534151.0,-3.2537,0.8619,11.5233,-0.1181,-0.456,0.0596
2534161.0,-3.0694,0.5842,11.631,-0.0202,-0.5821,0.0772
2534171.0,-2.9592,0.498,11.4323,0.0011,-0.7386,0.0633
2534181.0,-2.8491,0.6153,10.7859,-0.0197,-0.912,0.0351
2534191.0,-2.6049,0.9577,9.4451,-0.075,-1.0605,0.0
2534201.0,-2.2936,1.2665,8.2552,-0.1804,-1.0738,-0.0266
2534211.0,-2.2625,1.5036,7.7165,-0.2863,-0.9402,-0.0362
2534221.0,-2.2529,1.4892,8.1116,-0.3735,-0.7641,-0.0266
2534231.0,-2.2913,1.2426,8.9663,-0.3533,-0.6034,0.0027
2534241.0,-2.2817,0.8643,9.9192,-0.2533,-0.5092,0.033
2534251.0,-2.1787,0.6608,10.5297,-0.1357,-0.5183,0.0495
2534261.0,-2.1308,0.5866,10.6279,-0.0931,-0.6332,0.0436
2534271.0,-1.9728,0.5794,10.2735,-0.1011,-0.7811,0.0271
2534281.0,-1.7119,0.6752,9.5816,-0.1266,-0.8955,0.0037
2534291.0,-1.5443,1.0343,8.7125,-0.1346,-0.9104,-0.0154
2534301.0,-1.5562,1.2474,8.4731,-0.1362,-0.8024,-0.0149
2534311.0,-1.6017,1.2522,8.7364,-0.1219,-0.6582,0.0027
2534321.0,-1.5562,0.9744,9.4715,-0.1101,-0.5486,0.0223
2534331.0,-1.5682,0.7997,9.9551,-0.1139,-0.5257,0.0282
2534341.0,-1.5419,0.7159,10.3813,-0.1836,-0.588,0.0176
2534351.0,-1.3599,0.8523,10.3118,-0.2559,-0.704,0.0021
2534361.0,-1.2091,1.0534,9.9814,-0.2969,-0.7982,0.0005
2534371.0,-1.1085,1.4222,9.4739,-0.2634,-0.795,0.0229
2534381.0,-1.2019,1.5347,9.3925,-0.2251,-0.7279,0.0697
2534391.0,-1.1732,1.2019,9.6534,-0.1724,-0.6513,0.1282
2534401.0,-1.1013,0.6895,10.0868,-0.1048,-0.6039,0.1666
2534411.0,-1.0678,0.4166,10.4076,-0.0442,-0.6061,0.1671
2534421.0,-1.0175,0.3017,10.6901,-0.025,-0.6444,0.1437
2534431.0,-1.0271,0.4932,10.6279,-0.0298,-0.7317,0.1123
2534441.0,-0.9912,0.8164,10.3549,-0.0676,-0.837,0.0846
2534451.0,-0.8691,0.9218,10.1442,-0.1075,-0.887,0.0681
2534461.0,-0.9912,1.0487,10.0628,-0.1176,-0.8748,0.05
2534471.0,-1.0343,0.9984,9.9623,-0.207,-0.903,0.0176
2534481.0,-0.7709,1.0654,9.2727,-0.4656,-1.0419,-0.0452
2534491.0,-0.4836,1.2833,8.1427,-0.8886,-1.2212,-0.1288
2534501.0,-0.1772,1.561,7.1706,-1.2749,-1.2664,-0.182
2534511.0,0.0838,1.3647,7.0078,-1.4266,-1.1222,-0.165
2534521.0,0.2849,0.929,7.4843,-1.2308,-0.8636,-0.0809
2534531.0,0.3759,0.3591,8.3773,-0.7838,-0.5992,0.0351
2534541.0,0.4573,-0.0575,8.9998,-0.2788,-0.4406,0.1511
2534551.0,0.5028,-0.6895,9.6558,0.0889,-0.4193,0.2347
2534561.0,0.565,-1.075,9.6582,0.3028,-0.522,0.2671
2534571.0,0.656,-1.5658,9.7707,0.422,-0.6524,0.2586
2534581.0,0.8475,-1.8627,9.1937,0.5843,-0.7657,0.215
2534591.0,1.2234,-1.8699,8.0182,0.6832,-0.8695,0.1282
2534601.0,1.7071,-1.5562,6.28,0.597,-0.9583,-0.0021
2534611.0,2.1237,-0.8452,4.525,0.323,-0.9924,-0.1543
2534621.0,2.3272,-0.0096,3.2729,0.0197,-0.8769,-0.2783
2534631.0,2.399,0.8404,2.5307,-0.182,-0.6375,-0.3437
2534641.0,2.2865,1.47,2.2865,-0.2506,-0.3257,-0.3384
2534651.0,1.9896,1.9513,2.4301,-0.2208,-0.0245,-0.274
2534661.0,1.6664,2.296,2.5714,-0.1586,0.1793,-0.1724
2534671.0,1.336,2.8587,2.1739,-0.074,0.2927,-0.0479
2534681.0,0.9625,3.96,-0.4094,-0.0899,0.2591,0.1064
2534691.0,2.1021,4.0749,-4.4556,-0.5156,0.1235,0.249
2534701.0,1.7813,4.4676,-7.8458,-1.1797,0.2969,0.3427
2534711.0,2.0399,3.9049,-7.2353,-1.5889,0.8461,0.4337
2534721.0,0.8715,3.7397,-7.1539,-1.3228,1.2531,0.5305
2534731.0,0.2921,5.3367,-10.7308,-0.771,1.2739,0.6662
2534741.0,-0.6177,8.0325,-16.5535,-0.0926,1.6405,0.9365
2534751.0,-4.3862,9.6845,-19.8144,0.5087,2.7228,1.408
2534761.0,-6.9576,11.6765,-21.2485,0.8881,3.8328,2.021
2534771.0,-12.6845,8.8466,-19.4409,1.5117,5.443,2.7814
2534781.0,-16.3285,5.6192,-10.738,2.5329,7.3171,3.3853
2534791.0,-20.8798,3.6703,0.7039,4.3937,9.1949,3.7237
2534801.0,-25.0314,1.9465,10.1011,6.338,10.5576,3.7588
2534811.0,-21.9931,-4.7573,18.1457,6.5168,10.82,3.1985
2534821.0,-22.1344,-2.5857,26.4416,4.4506,10.2921,2.0268
2534831.0,-29.7934,-2.9832,47.216,1.3957,8.9666,0.9174
2534841.0,-22.9724,-2.1404,47.6422,0.6646,5.8612,0.323
2534851.0,-21.986,-1.4868,42.6072,0.7098,3.6593,-0.033
2534861.0,-20.4776,1.9106,38.1899,0.9429,2.9351,-0.2932
2534871.0,-19.8527,3.383,41.1539,0.7242,2.4552,-0.4986
2534881.0,-18.3659,4.3958,40.7804,0.7354,1.5543,-0.6029
2534891.0,-17.9852,4.446,41.9608,0.6188,0.6529,-0.6689
2534901.0,-17.6596,5.4277,41.2377,0.7253,-0.4305,-0.6657
2534911.0,-17.6141,5.9448,38.2809,1.0371,-1.7246,-0.5582
2534921.0,-16.3955,7.3334,30.9858,1.5782,-2.8218,-0.3549
2534931.0,-14.8057,7.8865,23.6978,1.6762,-3.4385,-0.1586
2534941.0,-13.1418,7.3813,18.0044,1.2531,-3.6146,-0.0388
2534951.0,-11.6143,5.8083,15.287,0.4603,-3.5556,-0.0511
2534961.0,-10.6518,4.8147,14.6238,-0.2384,-3.4039,-0.1708
2534971.0,-9.6079,4.4436,14.0204,-0.6284,-3.3342,-0.307
2534981.0,-8.7747,4.8291,12.323,-0.8588,-3.3683,-0.4331
2534991.0,-7.9559,4.774,10.7356,-1.1978,-3.4114,-0.5337
2535001.0,-7.5633,4.2617,9.8019,-1.6006,-3.4359,-0.6295
2535011.0,-7.2784,3.3926,9.4571,-1.8768,-3.5141,-0.7205
2535021.0,-6.8977,2.3128,8.7005,-1.7751,-3.5896,-0.7833
2535031.0,-6.4141,1.3192,7.4603,-1.3138,-3.5625,-0.8338
2535041.0,-5.7724,2.1332,5.8371,-0.7088,-3.4539,-0.9057
2535051.0,-5.2002,4.1707,4.0438,-0.2182,-3.2746,-0.9381
2535061.0,-4.9919,6.7086,2.4612,-0.0857,-3.073,-0.8908
2535071.0,-4.4796,7.3885,1.5514,-0.4411,-2.9351,-0.7561
2535081.0,-3.6583,7.1204,1.901,-1.0153,-2.8005,-0.6034
2535091.0,-3.7206,6.4093,3.0646,-1.367,-2.5845,-0.4331
2535101.0,-3.5961,4.4963,3.711,-1.4372,-2.4765,-0.2623
2535111.0,-2.32,2.5905,3.1987,-1.3723,-2.4876,-0.1729
2535121.0,-1.4892,1.4916,2.3391,-1.2377,-2.3594,-0.183
2535131.0,-0.9673,0.8188,2.5929,-1.0573,-2.0646,-0.2458
2535141.0,-0.6632,1.3599,2.8515,-0.7732,-1.7618,-0.3246
2535151.0,-0.6776,2.794,3.0023,-0.5342,-1.492,-0.364
2535161.0,-0.8643,3.7469,3.8571,-0.4491,-1.1824,-0.3241
2535171.0,-1.087,3.6895,5.703,-0.5662,-0.9951,-0.2373
2535181.0,-1.1301,2.9616,7.3478,-0.7311,-1.0201,-0.1506
2535191.0,-1.008,1.9824,8.09,-0.7971,-1.1605,-0.0905
2535201.0,-0.7039,1.1325,8.1092,-0.746,-1.2962,-0.066
2535211.0,-0.3639,0.4142,7.8506,-0.6199,-1.3643,-0.0766
2535221.0,-0.0934,0.0144,7.3454,-0.4587,-1.3819,-0.1203
2535231.0,0.1676,0.1987,6.936,-0.3092,-1.3356,-0.1841
2535241.0,0.158,0.9505,6.8331,-0.1841,-1.2169,-0.2363
2535251.0,-0.1245,1.6328,7.1323,-0.1325,-1.1036,-0.2522
2535261.0,-0.2394,1.9656,7.7476,-0.1203,-1.0392,-0.2304
2535271.0,-0.3663,2.0758,8.5473,-0.0782,-1.0004,-0.1815
2535281.0,-0.5962,1.9201,9.0932,-0.0218,-1.0397,-0.1192
2535291.0,-0.3519,1.312,9.1243,0.0021,-1.1935,-0.0633
2535301.0,0.3208,0.5794,8.2672,0.0085,-1.3744,-0.0436
2535311.0,0.7518,0.3855,7.3191,0.0059,-1.4601,-0.0708
2535321.0,0.9218,0.5818,6.5864,0.05,-1.4388,-0.1038
2535331.0,1.0918,0.9146,5.6312,0.1341,-1.4069,-0.1176
2535341.0,1.4222,1.1779,4.0701,0.1862,-1.3755,-0.1139
2535351.0,1.8316,1.0654,2.5355,0.1165,-1.2664,-0.1139
2535361.0,2.2434,0.7015,1.5179,-0.0564,-1.0727,-0.1383
2535371.0,2.6001,0.1604,1.2546,-0.2432,-0.8615,-0.1884
2535381.0,2.7725,-0.0551,0.996,-0.2985,-0.6449,-0.2512
2535391.0,2.7246,-0.0886,1.4748,-0.1469,-0.364,-0.2964
2535401.0,2.5714,0.2298,2.3008,0.2299,-0.1075,-0.2975
2535411.0,2.1213,0.9768,2.2984,0.7609,0.017,-0.2506
2535421.0,1.8627,1.8938,0.7063,1.2574,0.008,-0.1522
2535431.0,1.8028,2.7174,-3.1412,1.4873,-0.0537,-0.0362
2535441.0,2.2577,2.7988,-8.023,1.2191,-0.0335,0.0458
2535451.0,2.8323,2.1165,-12.9718,0.5773,0.248,0.0777
2535461.0,4.549,1.5155,-15.3468,-0.1767,0.821,0.0681
2535471.0,0.5243,0.0886,-16.8145,-0.6236,1.5612,0.0979
2535481.0,1.0798,-1.2163,-19.1584,-0.68,1.8949,0.0468
2535491.0,-1.0391,-0.0718,-26.1471,0.1048,2.7899,0.0149
2535501.0,-3.7517,0.237,-25.8741,0.9259,4.4628,-0.016
2535511.0,-8.837,3.7972,-23.5805,2.0619,6.3401,-0.033
2535521.0,-14.5184,5.7102,-16.0388,3.0857,8.1834,0.0612
2535531.0,-18.7274,7.1778,-6.4236,4.0611,9.6562,0.1687
2535541.0,-24.6938,7.4292,7.118,4.7033,10.5869,0.2309
2535551.0,-25.3498,6.2034,18.0259,5.3483,10.5459,0.2224
2535561.0,-24.3107,4.2329,26.8294,5.6824,9.976,-0.0372
2535571.0,-25.2109,6.1483,33.8277,5.4366,9.0975,-0.5949
2535581.0,-25.6467,9.6199,39.557,4.2032,7.4363,-1.2537
2535591.0,-23.7696,10.9654,41.2449,2.6068,5.3616,-1.7501
2535601.0,-21.8758,13.7643,41.8028,1.4702,3.7445,-2.1024
2535611.0,-21.6819,15.1697,42.7221,1.0467,2.7218,-2.1535
2535621.0,-20.2717,15.1481,40.6751,1.0504,1.4367,-2.0433
2535631.0,-19.0459,16.6229,36.7366,1.0504,0.2176,-1.9108
2535641.0,-17.4777,20.7458,31.6944,1.0642,-0.5933,-1.6831
2535651.0,-19.903,22.7904,32.202,1.1419,-0.9477,-1.1334
2535661.0,-16.1297,23.8774,22.9317,1.5431,-1.8512,-0.2708
2535671.0,-13.4123,20.3938,19.1297,0.5465,-2.3583,0.3911
2535681.0,-12.1865,17.2766,15.9502,-0.4927,-2.2588,0.8679
2535691.0,-12.0093,11.2097,18.488,-1.5676,-2.253,1.1424
2535701.0,-10.1754,7.7261,15.208,-1.9396,-2.659,1.2249
2535711.0,-9.3518,4.4149,15.1385,-2.5621,-2.9596,1.1126
2535721.0,-9.3158,4.2066,12.9335,-2.8271,-3.2326,1.0089
2535731.0,-8.1451,1.245,12.9766,-2.9117,-3.5455,0.8562
2535741.0,-6.462,1.2234,8.8131,-2.3738,-3.7168,0.6375
2535751.0,-6.8139,1.3336,7.2377,-1.9566,-3.4859,0.4257
2535761.0,-6.0837,1.3599,5.3654,-1.6064,-3.2799,0.2703
2535771.0,-4.6376,1.585,3.146,-1.5053,-3.1538,0.0974
2535781.0,-3.7948,2.2505,1.7166,-1.5538,-2.7053,-0.0607
2535791.0,-3.8331,2.4062,3.0263,-1.8182,-2.1375,-0.2022
2535801.0,-4.0079,2.32,5.612,-2.1183,-1.8608,-0.3251
2535811.0,-4.1946,2.047,7.4962,-2.1742,-1.8448,-0.3959
2535821.0,-4.2737,1.5778,8.9064,-1.9944,-1.9651,-0.4246
2535831.0,-4.1061,1.4629,8.6503,-1.5809,-2.1705,-0.4252
2535841.0,-3.9887,1.4533,7.6926,-1.1052,-2.3088,-0.4177
2535851.0,-3.2729,2.2075,6.201,-0.6689,-2.337,-0.4204
2535861.0,-2.8395,3.4931,4.4125,-0.4874,-2.2679,-0.447
2535871.0,-2.7198,5.0757,3.1077,-0.7029,-2.0976,-0.4566
2535881.0,-2.7892,5.6144,3.3136,-1.2882,-1.9316,-0.4331
2535891.0,-2.4086,4.7764,4.2282,-1.9199,-1.8406,-0.3773
2535901.0,-2.0231,3.2441,5.928,-2.2471,-1.715,-0.3187
2535911.0,-4.695,3.5506,7.2736,-2.0646,-1.5586,-0.2528
2535921.0,-1.1971,2.466,7.5561,-1.5469,-1.6096,-0.1038
2535931.0,-2.794,3.6943,5.8347,-0.8014,-1.5186,0.0468
2535941.0,-1.5586,3.9385,4.9321,-0.3336,-1.3058,0.2288
2535951.0,0.0407,1.6472,4.3144,-0.1197,-0.9849,0.3507
2535961.0,0.2418,0.6321,6.1028,-0.4033,-0.6763,0.3209
2535971.0,-0.9792,0.6105,9.3781,-0.763,-0.5172,0.1666
2535981.0,-1.5586,0.9194,11.2911,-1.0201,-0.7838,0.0096
2535991.0,-1.2857,1.5012,10.7045,-1.1206,-1.292,-0.0745
2536001.0,-0.68,1.3982,9.2201,-1.0429,-1.5415,-0.0841
2536011.0,0.1269,1.6592,7.8075,-0.9206,-1.5101,-0.0697
2536021.0,-0.4764,2.4038,8.7053,-0.919,-1.3228,-0.0686
2536031.0,-1.2522,3.881,8.9735,-0.9243,-1.2829,-0.0213
2536041.0,-1.6783,2.7869,10.7164,-1.0248,-1.3931,0.0968
2536051.0,-0.8021,1.5036,10.2161,-0.8684,-1.6091,0.215
2536061.0,-0.2562,0.5171,9.6295,-0.7008,-1.7698,0.2506
2536071.0,0.2682,1.2115,7.4101,-0.5332,-1.8496,0.2384
2536081.0,0.3352,1.0558,7.0677,-0.5757,-1.7762,0.2357
2536091.0,0.644,0.8092,6.11,-0.5146,-1.7028,0.2453
2536101.0,1.3719,-0.0144,5.1954,-0.4683,-1.666,0.2341
2536111.0,2.0327,-0.5363,3.5554,-0.4124,-1.5777,0.1703
2536121.0,2.3894,1.0846,2.6408,-0.4475,-1.4255,0.0681
2536131.0,1.8699,1.3216,2.1907,-0.4864,-1.201,0.0415
2536141.0,2.375,1.415,1.6328,-0.531,-1.0754,0.0612
2536151.0,2.3559,1.6664,1.1684,-0.4736,-0.9514,0.1022
2536161.0,2.308,2.478,-0.1532,-0.257,-0.8205,0.1857
2536171.0,1.9393,3.1699,-3.0478,-0.0282,-0.6859,0.3528
2536181.0,2.2865,3.7278,-4.9321,0.0974,-0.5225,0.547
2536191.0,2.4349,3.7613,-8.5018,0.3054,-0.2905,0.7779
2536201.0,1.7669,3.0239,-11.1139,0.4885,0.0921,0.9791
2536211.0,2.5546,1.4868,-13.137,1.0578,0.7003,1.1345
2536221.0,2.1907,1.3982,-18.1959,1.8257,1.4175,1.1925
2536231.0,1.0343,1.0942,-21.2821,2.1833,2.4036,1.1531
2536241.0,-1.0918,1.7358,-22.9101,2.3062,3.7173,1.0781
2536251.0,-3.6727,3.1244,-20.0778,2.3174,5.2557,1.0286
2536261.0,-8.9399,4.391,-12.1099,2.5509,6.8919,1.0871
2536271.0,-13.3237,3.9887,-1.7095,2.9564,7.9758,1.2563
2536281.0,-16.4553,1.3575,7.7333,3.554,8.3127,1.3877
2536291.0,-14.2982,-1.154,13.216,4.1648,8.0525,1.2563
2536301.0,-16.0148,-2.8467,17.0922,4.3873,7.8721,0.8407
2536311.0,-15.0619,0.6105,21.5646,3.8163,7.5033,0.1628
2536321.0,-17.7698,3.5099,21.9022,2.5749,6.8227,-0.5193
2536331.0,-16.3261,3.0215,27.4423,0.2469,6.0879,-1.093
2536341.0,-17.9278,3.6847,34.6704,-1.3005,5.7207,-1.4468
2536351.0,-19.5558,3.948,42.0972,-1.7491,4.8529,-1.6075
2536421.0,-13.2328,7.3861,30.7032,1.094,-1.077,0.0905
2536431.0,-12.4331,7.6662,26.0202,0.1511,-2.1822,0.0788
2536441.0,-11.2958,6.3949,20.8535,-0.812,-3.0341,0.1016
2536451.0,-9.1411,4.4556,15.2319,-1.4676,-3.4843,0.1197
2536461.0,-7.5848,2.7461,11.5401,-1.7038,-3.3081,0.0952
2536471.0,-5.7772,2.4828,10.884,-1.6176,-2.7287,0.0394
2536481.0,-8.6526,1.2809,12.1123,-1.4186,-2.1497,0.0043
2536491.0,-6.1794,-0.2729,13.149,-1.3484,-2.2737,-0.1245
2536501.0,-6.9097,0.2346,12.4834,-1.177,-2.3791,-0.3134
2536511.0,-5.9233,1.2426,11.9566,-1.1244,-2.4796,-0.4848
2536521.0,-6.0669,3.0454,9.8976,-1.2957,-2.7234,-0.6226
2536531.0,-5.782,3.3734,8.3462,-1.723,-2.9202,-0.687
2536541.0,-4.9297,2.9353,6.9025,-2.0603,-2.9814,-0.7162
2536551.0,-4.7022,1.9896,6.8594,-2.1519,-2.8388,-0.7428
2536561.0,-4.5011,1.5251,7.367,-1.8076,-2.569,-0.7524
2536571.0,-4.7501,1.4365,8.3366,-1.2111,-2.311,-0.7348
2536581.0,-4.5083,1.5419,8.8202,-0.6077,-2.2013,-0.7029
2536591.0,-4.0773,2.2338,8.2217,-0.3177,-2.2918,-0.7045
2536601.0,-3.7804,3.1987,7.4699,-0.4236,-2.4355,-0.7221
2536611.0,-3.6009,4.0438,6.7421,-0.7189,-2.5201,-0.7152
2536621.0,-3.3543,4.3191,5.9424,-1.0605,-2.6201,-0.663
2536631.0,-2.7821,4.0079,5.3558,-1.2547,-2.626,-0.5662
2536641.0,-2.3607,3.1747,5.6431,-1.1158,-2.3876,-0.4289
2536651.0,-2.1883,1.8531,6.7133,-0.7295,-2.0843,-0.2927
2536661.0,-1.6568,0.7278,7.5226,-0.3044,-1.9475,-0.2272
2536671.0,-1.1444,0.5698,7.4364,-0.0543,-1.9619,-0.2565
2536681.0,-0.8021,1.482,6.9767,-0.067,-2.0215,-0.3315
2536691.0,-0.9074,2.7366,5.964,-0.323,-2.1189,-0.3927
2536701.0,-0.5794,3.2537,4.7381,-0.7184,-2.2157,-0.389
2536712.0,0.0239,2.9951,3.5578,-1.0163,-2.1646,-0.332
2536721.0,0.6057,2.4181,2.9257,-1.1244,-1.9236,-0.2469
2536731.0,0.8332,1.8387,2.9305,-1.0637,-1.5766,-0.1554
2536741.0,1.0558,1.3192,3.6607,-0.9158,-1.2568,-0.0697
2536751.0,1.1708,0.8284,4.9368,-0.68,-0.9876,0.0101
2536761.0,1.1612,0.6393,6.177,-0.3815,-0.7966,0.0745
2536771.0,1.1157,0.5698,7.1251,-0.1453,-0.7513,0.1213
2536781.0,1.0798,0.9194,6.948,-0.05,-0.87,0.1469
2536791.0,1.2067,1.0942,5.9328,-0.1016,-1.0382,0.174
2536801.0,1.8411,0.7015,4.3239,-0.1953,-1.1307,0.2043
2536811.0,2.5666,0.0718,2.8635,-0.2341,-1.0217,0.2198
2536821.0,2.9544,-0.4142,2.2482,-0.2118,-0.7019,0.207
2536831.0,2.909,-0.3041,2.4445,-0.1799,-0.3214,0.1655
2536841.0,2.5594,0.0694,3.2681,-0.232,-0.0527,0.1245
2536851.0,2.466,0.5171,4.209,-0.2788,0.1064,0.1171
2536861.0,2.2769,0.7685,5.1451,-0.2155,0.2027,0.1612
2536871.0,2.138,0.7518,5.6814,0.0399,0.2746,0.2522
2536881.0,1.8603,0.5387,5.4277,0.4225,0.315,0.3608
2536891.0,1.8579,0.1556,4.0318,0.754,0.2905,0.4422
2536901.0,2.1811,-0.3687,1.9609,0.8998,0.2937,0.456
2536911.0,2.3104,-0.3472,-0.1628,0.8732,0.4225,0.3884
2536921.0,1.9944,-0.067,-1.2091,0.7684,0.7093,0.2953
2536931.0,2.2027,0.7254,-1.6376,0.7806,1.0669,0.2277
2536941.0,0.2442,1.5131,-2.5762,0.8636,1.4197,0.2219
2536951.0,1.0127,0.8547,-3.8858,0.8077,1.5022,0.2091
2536961.0,-0.2155,1.3503,-7.4053,0.903,1.8198,0.182
2536971.0,-0.4573,0.905,-8.9208,0.7859,2.3147,0.1277
2536981.0,-1.8076,1.7789,-11.5736,0.7641,2.9101,0.0484
2536991.0,-3.2585,2.8898,-12.2416,0.7849,3.7636,0.0053
2537001.0,-5.9544,4.2066,-10.228,1.0887,4.9747,0.0756
2537011.0,-8.928,5.4588,-5.1906,1.5665,6.1001,0.2607
2537021.0,-11.5808,6.1962,1.3982,2.1966,6.7999,0.5279
2537031.0,-13.5201,6.8354,7.8626,3.1597,7.1745,0.8508
2537041.0,-14.5903,6.9264,13.4147,4.3229,7.2383,1.1738
2537051.0,-15.445,6.5553,16.2135,5.3355,7.0356,1.3941
2537061.0,-14.5759,5.0494,17.3149,5.5302,6.5822,1.3883
2537071.0,-14.1162,3.4022,18.4401,4.7438,6.0081,1.0866
2537081.0,-13.5416,2.3296,19.4385,3.2384,5.3397,0.5704
2537091.0,-13.6685,2.4397,20.413,1.4729,4.5379,-0.0601
2537101.0,-14.2144,2.7605,19.8982,0.0495,3.8578,-0.6502
2537111.0,-11.4682,2.6456,21.057,-1.0993,3.6519,-1.1728
2537121.0,-16.3428,5.4851,25.5557,-1.027,4.0148,-1.4771
2537131.0,-17.2598,8.2576,30.1741,-0.4613,3.8541,-1.4644
2537141.0,-15.7419,10.3525,31.3545,0.1282,3.2278,-1.2132
2537151.0,-15.8041,10.4244,35.2211,0.2432,2.4647,-0.8764
2537161.0,-15.6389,10.8864,35.281,0.3368,1.3399,-0.4906
2537171.0,-14.8129,8.6479,35.0846,0.1373,-0.0575,-0.1511
2537181.0,-13.0843,7.4101,29.5516,0.0601,-1.5128,0.0724
2537191.0,-11.8393,5.9185,24.0569,-0.0617,-2.5116,0.1783
2537201.0,-10.1969,5.4851,16.8504,-0.0623,-3.0628,0.2123
2537211.0,-8.8514,4.5777,12.1147,-0.2501,-3.1272,0.1788
2537221.0,-7.6854,4.3383,8.9974,-0.3789,-2.8101,0.1043
2537231.0,-7.1132,3.8714,8.7005,-0.555,-2.3408,0.0074
2537241.0,-6.857,3.8283,8.9974,-0.7295,-2.005,-0.1006
2537251.0,-6.9121,3.723,10.2831,-1.0403,-1.9098,-0.216
2537261.0,-7.0773,3.6966,10.659,-1.2334,-1.9954,-0.3006
2537271.0,-6.8761,3.3232,10.5704,-1.3569,-2.1801,-0.3608
2537281.0,-6.3327,3.1891,9.2225,-1.3468,-2.3471,-0.4113
2537291.0,-5.9951,3.3255,7.9535,-1.3489,-2.3908,-0.4619
2537301.0,-5.7748,3.4979,7.1778,-1.384,-2.3275,-0.4922
2537311.0,-5.6647,3.5338,7.1299,-1.3909,-2.2476,-0.5055
2537321.0,-5.6,3.6248,7.2544,-1.2627,-2.1444,-0.4885
2537331.0,-5.3367,3.6368,7.7548,-1.0174,-2.0093,-0.4417
2537341.0,-5.1404,3.9863,8.0325,-0.7439,-1.9369,-0.3837
2537351.0,-5.0182,4.7046,7.5753,-0.6071,-1.9693,-0.3124
2537361.0,-4.9608,4.8291,7.0988,-0.6912,-2.0497,-0.223
2537371.0,-4.6974,4.2713,6.4715,-0.8439,-2.1205,-0.1288
2537381.0,-4.0917,3.3112,5.7676,-0.9147,-2.1263,-0.0543
2537391.0,-3.6057,2.4014,5.205,-0.8285,-1.9779,-0.0176
2537401.0,-3.2896,1.7741,5.5905,-0.7082,-1.7304,-0.0202
2537411.0,-3.3232,1.3527,7.2568,-0.5279,-1.467,-0.0452
2537421.0,-3.2753,1.3216,8.8585,-0.3028,-1.3601,-0.0825
2537431.0,-3.1029,1.9513,9.2009,-0.1697,-1.491,-0.1298
2537441.0,-2.9137,2.9185,8.3653,-0.2857,-1.7389,-0.1681
2537451.0,-2.7246,3.5793,7.3741,-0.5491,-1.9066,-0.1575
2537461.0,-2.5905,3.5841,6.5074,-0.7253,-1.9332,-0.0952
2537471.0,-2.375,3.0694,5.4133,-0.7599,-1.8667,-0.0074
2537481.0,-1.9632,1.8962,5.1787,-0.7098,-1.6644,0.0729
2537491.0,-1.5371,0.419,6.6655,-0.481,-1.2989,0.1101
2537501.0,-1.5227,-0.1341,8.5018,-0.1208,-1.0222,0.083
2537511.0,-1.7358,0.2346,9.56,0.0974,-1.0461,0.0096
2537521.0,-1.5155,0.9601,9.4667,0.0415,-1.301,-0.0681
2537531.0,-1.4102,1.6735,8.5641,-0.1165,-1.5671,-0.1187
2537541.0,-1.1372,2.1811,6.8714,-0.2522,-1.706,-0.1197
2537551.0,-0.6393,2.1763,5.1332,-0.3725,-1.6756,-0.0984
2537561.0,-0.1796,1.9225,3.984,-0.4874,-1.492,-0.0862
2537571.0,0.1772,1.7645,3.4836,-0.5593,-1.2074,-0.0841
2537581.0,0.3687,1.561,3.6607,-0.6008,-0.8902,-0.0867
2537591.0,0.4908,1.6544,3.8762,-0.6087,-0.6252,-0.0862
2537601.0,0.486,1.5921,4.3958,-0.6109,-0.4113,-0.067
2537611.0,0.6608,1.3288,5.0637,-0.5076,-0.2001,-0.0314
2537621.0,0.7638,1.3719,5.6479,-0.3012,0.0043,0.0032
2537631.0,0.5602,1.6209,6.3255,-0.1144,0.1873,0.0388
2537641.0,0.2634,1.4748,7.4651,-0.0277,0.2921,0.0766
2537651.0,0.249,1.0726,8.3558,-0.0016,0.249,0.0968
2537661.0,0.2562,1.0702,8.0613,-0.0309,0.0495,0.0819
2537671.0,0.2658,1.1732,6.9743,-0.1086,-0.1586,0.058
2537681.0,0.4525,1.403,5.3822,-0.132,-0.2586,0.058
2537691.0,0.7326,1.5227,3.8475,0.0431,-0.1405,0.1027
2537701.0,0.8595,1.4844,2.7725,0.3932,0.2022,0.1878
2537711.0,3.1388,1.0702,2.7605,0.7662,0.6337,0.2778
2537721.0,-2.5522,2.3248,3.948,1.027,1.1925,0.3358
2537731.0,-0.1173,0.735,4.9057,0.8391,1.1228,0.406
2537741.0,1.0032,-0.0431,2.7581,0.6167,0.7897,0.3448
2537751.0,-0.5746,0.0886,-0.5578,0.6183,1.1228,0.2543
2537761.0,-0.2658,-0.2658,0.3663,0.282,1.5612,0.1373
2537771.0,-0.9433,-0.0096,-0.1484,0.2581,1.8954,0.0372
2537781.0,-1.4437,0.5243,0.431,0.4869,2.4461,-0.016
2537791.0,-2.6935,1.3599,2.0327,0.8929,3.1746,-0.009
2537801.0,-3.984,1.8579,5.2744,1.0999,3.7035,0.0117
2537811.0,-4.9225,2.1572,8.5305,1.1808,3.9525,0.0255
2537821.0,-5.7485,2.2625,11.8202,1.1345,3.9696,0.0181
2537831.0,-6.9935,2.32,14.3748,1.0084,3.7333,-0.0117
2537841.0,-5.8897,2.2984,15.2223,0.8354,3.2331,-0.0724
2537851.0,-7.173,3.1819,15.5312,0.6513,2.801,-0.1133
2537861.0,-7.3574,3.2825,14.9709,0.6183,2.4701,-0.0623
2537871.0,-6.9863,2.0039,15.536,0.6215,2.3094,-0.0096
2537881.0,-6.9408,1.2713,16.3859,0.7806,2.2562,-0.0271
2537891.0,-7.0773,0.8164,18.2271,0.9865,2.1705,-0.1038
2537901.0,-7.1587,1.2785,19.0578,1.2409,1.9135,-0.2134
2537911.0,-7.8961,2.2266,18.7777,1.267,1.508,-0.3475
2537921.0,-6.0047,2.9042,17.528,1.0233,1.0291,-0.506
2537931.0,-7.0677,4.2713,17.0707,0.6183,0.8035,-0.6204
2537941.0,-7.0988,5.3295,16.9509,0.2661,0.6263,-0.6412
2537951.0,-7.0988,5.3079,17.1688,-0.0857,0.3634,-0.6018
2537961.0,-6.8857,4.9488,17.2526,-0.2677,0.125,-0.5305
2537971.0,-6.754,4.3862,17.8751,-0.2187,-0.0415,-0.4523
2537981.0,-6.6607,4.5298,17.3628,0.0277,-0.2815,-0.3789
2537991.0,-6.5457,4.9608,16.283,0.1772,-0.5853,-0.3092
2538001.0,-6.1579,5.0757,14.9302,0.2373,-0.8248,-0.2256
2538011.0,-5.7676,4.9728,13.5751,0.2293,-0.9525,-0.1458
2538021.0,-5.545,4.6855,12.7084,0.0979,-1.0238,-0.0937
2538031.0,-5.3558,4.3503,12.1362,-0.0665,-1.0727,-0.0601
2538041.0,-5.1523,4.0701,11.6071,-0.232,-1.1291,-0.0479
2538051.0,-5.0494,3.7733,11.1235,-0.3991,-1.1994,-0.0516
2538061.0,-4.9632,3.4046,10.6997,-0.5018,-1.2393,-0.0516
2538071.0,-4.7453,2.9832,10.1586,-0.5332,-1.2584,-0.0601
2538081.0,-4.5586,2.8323,9.7181,-0.5438,-1.2723,-0.0857
2538091.0,-4.4939,2.8778,9.232,-0.5193,-1.2547,-0.1091
2538101.0,-4.3742,2.988,8.9495,-0.4645,-1.2047,-0.1176
2538111.0,-4.2473,3.0358,8.8202,-0.4001,-1.1403,-0.1091
2538121.0,-4.2162,3.0933,8.9064,-0.3602,-1.0898,-0.0958
2538131.0,-4.1851,3.146,8.9807,-0.3421,-1.0679,-0.083
2538141.0,-3.9385,3.0239,9.1339,-0.339,-1.0706,-0.0639
2538151.0,-3.7541,3.1771,9.0046,-0.3182,-1.0813,-0.05
2538161.0,-3.8379,3.067,9.2249,-0.3288,-1.0738,-0.0266
2538171.0,-3.5291,2.6312,9.402,-0.3262,-1.0977,0.0
2538181.0,-3.1029,2.2051,9.347,-0.3427,-1.1632,-0.0027
2538191.0,-2.8276,2.1979,8.8705,-0.364,-1.2334,-0.0378
2538201.0,-2.6528,2.3798,8.2241,-0.4076,-1.2654,-0.0761
2538211.0,-2.466,2.5953,7.932,-0.4555,-1.2313,-0.1043
2538221.0,-2.3152,2.6935,7.7835,-0.4422,-1.1542,-0.1043
2538231.0,-2.1452,2.7557,7.8458,-0.397,-1.0525,-0.0873
2538241.0,-2.0973,2.7557,8.1738,-0.3688,-0.9722,-0.0665
2538251.0,-2.0542,2.6719,8.5425,-0.348,-0.944,-0.042
2538261.0,-1.8866,2.3128,8.7245,-0.3177,-0.9594,-0.0202
2538271.0,-1.6448,1.9561,8.8298,-0.2719,-0.9674,-0.0176
2538281.0,-1.482,1.7813,8.8681,-0.2464,-1.0084,-0.0415
2538291.0,-1.2785,2.0183,8.5305,-0.223,-1.0568,-0.0788
2538301.0,-1.1851,2.332,8.1475,-0.2352,-1.0807,-0.1043
2538311.0,-1.0558,2.6839,7.5776,-0.2746,-1.0919,-0.107
2538321.0,-0.905,2.8084,7.1156,-0.3374,-1.0791,-0.0878
2538331.0,-0.7111,2.8419,6.7852,-0.3597,-1.0036,-0.0521
2538341.0,-0.6081,2.6815,6.9049,-0.3251,-0.8886,-0.0059
2538351.0,-0.5171,2.5857,6.8522,-0.2464,-0.8093,0.0399
2538361.0,-0.3448,2.3152,6.675,-0.1756,-0.7551,0.0766
2538371.0,-0.249,1.9369,6.3949,-0.1309,-0.6928,0.099
2538381.0,0.0096,1.4653,6.4093,-0.0894,-0.6098,0.0974
2538391.0,0.2777,1.3575,6.3518,0.0048,-0.5087,0.0724
2538401.0,0.3472,1.8028,5.9951,0.0649,-0.4214,0.0357
2538411.0,0.2251,2.4541,5.7197,0.042,-0.3363,0.0176
2538421.0,0.2753,2.9856,5.1116,-0.0309,-0.2661,0.0442
2538431.0,0.4357,3.0526,4.5633,-0.1548,-0.1793,0.1027
2538441.0,0.5411,2.7342,4.0893,-0.248,-0.008,0.1761
2538451.0,0.4549,2.2625,4.4269,-0.2905,0.2512,0.2421
2538461.0,0.2059,1.7238,5.0159,-0.2528,0.4725,0.2937
2538471.0,-0.2298,0.9313,5.8155,-0.1607,0.6247,0.323
2538481.0,-0.1652,-0.158,6.4907,0.0404,0.7221,0.3177
2538491.0,0.0694,-0.7302,6.359,0.2927,0.7524,0.2453
2538501.0,0.0359,-0.6752,5.9065,0.538,0.8482,0.1203
2538511.0,-0.1724,0.091,5.5474,0.7237,1.0014,-0.0192
2538521.0,-0.5148,1.2186,5.217,0.8019,1.1637,-0.1368
2538531.0,-0.7733,2.2984,5.0182,0.7221,1.3079,-0.2134
2538541.0,-1.245,3.2489,4.6831,0.4661,1.4016,-0.2522
2538551.0,-1.6233,3.814,4.0989,0.0889,1.4415,-0.241
2538561.0,-1.7717,3.8523,3.2274,-0.2703,1.5298,-0.1687
2538571.0,-2.1715,3.3519,2.8946,-0.4693,1.8023,-0.0639
2538581.0,-2.7653,2.7031,3.6272,-0.4113,2.237,0.0527
2538591.0,-3.6057,2.1596,5.3774,-0.1165,2.7202,0.1543
2538601.0,-4.3934,1.4557,8.0948,0.2948,3.09,0.2219
2538611.0,-4.7285,1.0199,10.422,0.7418,3.2172,0.2363
2538621.0,-4.7692,1.1971,11.6047,1.0477,3.0905,0.191
2538631.0,-5.2577,1.9896,12.7731,1.1898,2.9021,0.1139
2538641.0,-5.9065,3.1077,13.4171,1.3659,2.7563,0.0878
2538651.0,-6.4811,3.6631,14.437,1.5234,2.6877,0.1203
2538661.0,-6.9145,3.6943,15.785,1.5782,2.6015,0.1612
2538671.0,-7.1156,3.0143,18.0906,1.4298,2.3887,0.1564
2538681.0,-7.2185,2.6073,19.7977,1.2276,1.9544,0.0835
2538691.0,-7.1898,2.375,20.5422,1.0435,1.3925,-0.0245
2538701.0,-6.9528,2.6288,19.8982,0.9259,0.82,-0.1458
2538711.0,-6.8666,3.1987,18.4832,0.7859,0.3187,-0.2645
2538721.0,-6.7014,3.9744,16.3811,0.6146,-0.0388,-0.3613
2538731.0,-6.5529,4.5418,14.7243,0.3688,-0.2134,-0.4331
2538741.0,-6.5314,4.7812,13.9726,0.0931,-0.2379,-0.4794
2538751.0,-6.5218,4.9943,13.9654,-0.1298,-0.2187,-0.5103
2538761.0,-6.5601,5.3151,14.188,-0.3044,-0.2496,-0.5241
2538771.0,-6.4428,5.4109,14.7363,-0.4363,-0.3022,-0.5071
2538781.0,-6.3997,5.3989,15.4522,-0.5092,-0.4055,-0.4661
2538791.0,-6.3255,5.5162,15.7203,-0.5199,-0.6055,-0.4113
2538801.0,-6.1675,5.6623,15.2128,-0.539,-0.8876,-0.3411
2538811.0,-5.9951,5.5929,14.1761,-0.6268,-1.1941,-0.2623
2538821.0,-5.6072,5.2122,12.9478,-0.7285,-1.4346,-0.183
2538831.0,-5.3319,4.8291,11.722,-0.7508,-1.5644,-0.1149
2538841.0,-5.0757,4.7836,10.3549,-0.696,-1.6022,-0.0527
2538851.0,-4.707,4.5801,9.2129,-0.6545,-1.5735,0.0074
2538861.0,-4.2569,4.1061,8.6048,-0.6146,-1.4495,0.058
2538871.0,-3.8666,3.5937,8.7125,-0.5736,-1.2712,0.0825
2538881.0,-3.7781,3.2777,9.3015,-0.5342,-1.1164,0.0756
2538891.0,-3.7972,3.4405,9.6654,-0.5529,-1.0956,0.0458
2538901.0,-3.7134,3.7373,9.244,-0.6854,-1.2217,0.0133
2538911.0,-3.4716,3.7757,8.837,-0.8924,-1.3196,-0.0043
2538921.0,-3.2825,3.6464,8.7388,-1.0206,-1.3058,-0.0048
2538931.0,-3.3088,3.5434,8.9663,-1.0147,-1.2478,0.0096
2538941.0,-3.3279,3.4141,9.1147,-0.9184,-1.2313,0.0388
2538951.0,-3.0957,3.383,8.77,-0.7732,-1.2606,0.0782
2538961.0,-2.873,3.3495,8.2648,-0.6646,-1.2792,0.1149
2538971.0,-2.5929,3.2346,8.09,-0.5747,-1.2148,0.1506
2538981.0,-2.5067,3.0454,8.26,-0.513,-1.1573,0.1788
2538991.0,-2.4229,2.9497,8.1331,-0.4741,-1.1627,0.2054
2539001.0,-2.2745,2.8228,7.7883,-0.4603,-1.1941,0.2288
2539011.0,-1.9537,2.5857,7.5058,-0.4395,-1.1919,0.2533
2539021.0,-1.7047,2.5091,7.2688,-0.3331,-1.1009,0.2698
2539031.0,-1.664,2.4924,7.4101,-0.191,-0.9615,0.2868
2539041.0,-1.5945,2.4852,7.5513,-0.0862,-0.8642,0.2964
2539051.0,-1.5538,2.5139,7.6902,-0.0756,-0.8455,0.2969
2539061.0,-1.2953,2.4445,7.6998,-0.1096,-0.8317,0.2927
2539071.0,-1.0295,2.3846,7.8099,-0.1293,-0.7726,0.29
2539081.0,-0.9864,2.5091,7.9535,-0.141,-0.713,0.2868
2539091.0,-1.0367,2.5666,8.1163,-0.2107,-0.6955,0.2889
2539101.0,-0.7757,2.3727,8.1355,-0.3315,-0.721,0.2943
2539111.0,-0.5339,2.1093,8.1235,-0.4331,-0.7471,0.2943
2539121.0,-0.6488,2.0183,7.8889,-0.4965,-0.7673,0.2889
2539131.0,-0.5602,1.6113,7.9128,-0.5135,-0.771,0.29
2539141.0,-0.1891,1.233,7.7835,-0.3895,-0.738,0.2932
2539151.0,-0.0455,1.1181,7.4986,-0.1846,-0.663,0.2815
2539161.0,0.0527,1.4293,7.0174,-0.0181,-0.5752,0.2645
2539171.0,0.0862,1.7669,6.7301,-0.0138,-0.5167,0.2432
2539181.0,0.1245,2.0614,6.2297,-0.091,-0.5044,0.2331
2539191.0,0.2849,1.8579,5.8155,-0.1756,-0.4635,0.2426
2539201.0,0.5722,1.4964,5.3726,-0.1889,-0.3517,0.2591
2539211.0,0.6704,1.1157,5.1834,-0.1612,-0.2107,0.2634
2539221.0,0.6704,0.9313,4.9704,-0.0979,-0.0521,0.2623
2539231.0,0.6129,0.8116,4.7501,-0.033,0.1144,0.2613
2539241.0,0.5363,0.6369,4.7716,0.0149,0.2682,0.2591
2539251.0,0.5483,0.4549,4.7692,0.1203,0.4454,0.2618
2539261.0,0.4741,0.2083,5.0206,0.241,0.6465,0.2559
2539271.0,0.3831,0.0192,5.3391,0.3124,0.7891,0.2304
2539281.0,0.4046,-0.2969,5.4971,0.3288,0.8429,0.1793
2539291.0,0.4429,-0.2203,4.944,0.3054,0.828,0.0921
2539301.0,0.3232,0.237,3.5123,0.2059,0.7732,-0.0213
2539311.0,0.3663,1.2402,0.838,0.0303,0.7721,-0.1235
2539321.0,0.577,2.0638,-1.4317,-0.2416,0.9951,-0.1841
2539331.0,-0.2945,2.5139,-2.0518,-0.4422,1.5708,-0.1719
2539341.0,-1.834,3.0694,-1.0678,-0.505,2.2849,-0.0942
2539351.0,-2.3463,3.201,1.2546,-0.3852,2.8351,0.0309
2539361.0,-3.8642,3.7924,2.624,0.0436,3.3736,0.2325
2539371.0,-5.0709,2.4588,5.7245,0.3028,3.7423,0.4454
2539381.0,-5.6479,1.47,8.3821,0.5965,3.8413,0.5837
2539391.0,-6.5817,0.8308,11.1857,1.0115,3.8317,0.6492
2539401.0,-7.5226,-1.7597,10.8553,1.6368,3.7466,0.6646
2539411.0,-6.4931,-1.5083,14.8536,1.7331,3.6503,0.4017
2539421.0,-7.2401,1.5323,13.5799,2.154,3.5513,0.1447
2539431.0,-8.9639,2.624,15.7778,1.9364,3.4236,-0.0729
2539441.0,-7.4915,4.5993,14.4849,1.5915,3.0575,-0.2543
2539451.0,-8.825,5.0733,16.362,0.6609,2.8308,-0.39
2539461.0,-9.2033,5.4731,17.2574,-0.1293,2.5419,-0.4385
2539471.0,-9.4619,3.9169,19.7593,-0.779,2.1684,-0.4347
2539481.0,-9.165,3.2801,20.2382,-0.8908,1.7778,-0.4273
2539491.0,-9.3182,2.7773,21.8447,-0.7551,1.4638,-0.431
2539501.0,-9.3901,3.4022,21.6101,-0.3124,1.093,-0.4113
2539511.0,-9.2344,3.7062,21.5311,0.0128,0.6566,-0.3783
2539521.0,-8.7388,4.2306,20.2693,0.2426,0.2033,-0.3448
2539531.0,-8.4324,4.4724,19.4385,0.2889,-0.1937,-0.3193
2539541.0,-8.078,4.8004,18.002,0.2629,-0.5486,-0.2921
2539551.0,-7.7189,4.7262,16.8719,0.0979,-0.8721,-0.2746
2539561.0,-7.3047,4.6998,15.3349,-0.1213,-1.176,-0.2703
2539571.0,-6.8977,4.4125,14.1449,-0.3528,-1.3973,-0.2698
2539581.0,-6.5218,4.2593,12.9957,-0.4917,-1.5245,-0.2661
2539591.0,-6.1339,4.3598,11.9399,-0.5981,-1.6123,-0.2634
2539601.0,-5.9185,4.5011,11.0923,-0.7008,-1.6799,-0.2442
2539611.0,-5.5809,4.4724,10.2903,-0.7492,-1.7219,-0.1974
2539621.0,-5.3247,4.1013,9.6798,-0.7545,-1.7272,-0.1373
2539631.0,-4.8698,3.486,9.1243,-0.7231,-1.7081,-0.0788
2539641.0,-4.5011,2.8706,8.7795,-0.6715,-1.6735,-0.0484
2539651.0,-4.2234,2.4972,8.4108,-0.6231,-1.6506,-0.0468
2539661.0,-4.0055,2.3152,8.0876,-0.5906,-1.6416,-0.0686
2539671.0,-3.7254,2.3104,7.4771,-0.5571,-1.6437,-0.0968
2539681.0,-3.3136,2.4876,6.5601,-0.5332,-1.6315,-0.1235
2539691.0,-3.0502,2.7581,5.7581,-0.5321,-1.5325,-0.1405
2539701.0,-2.9904,2.8276,5.5426,-0.5593,-1.3313,-0.1346
2539711.0,-2.9473,2.5666,6.0478,-0.6061,-1.1318,-0.1224
2539721.0,-2.8778,2.2098,6.7373,-0.6236,-1.0046,-0.1155
2539731.0,-2.7438,1.8842,7.58,-0.5885,-0.9253,-0.1176
2539741.0,-2.6767,1.6352,8.4324,-0.4927,-0.8764,-0.125
2539751.0,-2.5762,1.7454,8.9807,-0.3693,-0.9131,-0.1394
2539761.0,-2.5666,2.2841,8.6072,-0.2735,-1.0339,-0.1474
2539771.0,-2.466,2.7294,7.8961,-0.2682,-1.1446,-0.1325
2539781.0,-2.3056,2.9904,7.0222,-0.3246,-1.1903,-0.0995
2539791.0,-2.2841,2.8778,6.608,-0.3874,-1.1446,-0.0511
2539801.0,-2.1141,2.4229,6.6319,-0.3618,-1.0052,0.0021
2539811.0,-1.9585,2.0542,6.9025,-0.2692,-0.8594,0.0341
2539821.0,-1.8866,1.7669,7.1682,-0.2017,-0.7742,0.0383
2539831.0,-1.6879,1.6113,7.2065,-0.183,-0.7599,0.025
2539841.0,-1.482,1.5706,7.2568,-0.1878,-0.7678,0.0011
2539851.0,-1.2953,1.8483,7.0102,-0.1564,-0.7604,-0.0144
2539861.0,-1.0894,2.0758,6.6726,-0.1203,-0.7333,-0.0112
2539871.0,-0.9242,2.32,6.2034,-0.0984,-0.7077,0.0112
2539881.0,-0.6967,2.3846,5.6982,-0.1022,-0.6619,0.0516
2539891.0,-0.5124,2.3128,5.3774,-0.1032,-0.5598,0.1038
2539901.0,-0.4645,2.1452,5.4564,-0.0814,-0.4252,0.1591
2539911.0,-0.5363,1.7765,6.0382,0.0027,-0.2826,0.2176
2539921.0,-0.5746,1.5155,6.4907,0.182,-0.2128,0.2762
2539931.0,-0.4908,1.2977,6.438,0.4693,-0.1985,0.3363
2539941.0,-0.2394,1.233,5.9592,0.8306,-0.1373,0.3916
2539951.0,0.0024,1.482,5.2601,1.1563,-0.0202,0.4236
2539961.0,-0.0287,1.822,4.4125,1.3287,0.1368,0.4299
2539971.0,0.0575,2.4804,3.4596,1.2537,0.2873,0.4049
2539981.0,-0.3089,2.7294,3.5099,0.9546,0.4832,0.3704
2539991.0,-0.2945,2.794,3.5051,0.713,0.7418,0.357
2540001.0,-0.4262,2.7246,4.4891,0.4693,1.0578,0.3421
2540011.0,-0.8236,2.9521,5.5809,0.2432,1.3117,0.3294
2540021.0,-1.4724,2.9999,6.845,-0.0298,1.4005,0.3331
2540031.0,-1.8723,3.1987,6.3518,-0.2921,1.2675,0.3608
2540041.0,-1.98,2.7174,4.4748,-0.622,1.0142,0.4028
2540051.0,-1.6616,1.506,1.5299,-0.7822,0.9429,0.456
2540061.0,-1.0846,-0.6943,-0.2107,-0.538,1.3441,0.4885
2540071.0,-1.0798,-2.7797,0.2346,0.2586,2.2083,0.4443
2540081.0,-1.8076,-2.5618,1.7214,1.2946,3.0916,0.2687
2540091.0,-3.6176,-0.3304,4.0917,1.9646,3.6184,0.0197
2540101.0,-5.4085,2.8826,5.9352,2.2285,3.7328,-0.157
2540111.0,-6.2848,5.1427,6.8307,2.2296,3.7237,-0.1836
2540121.0,-7.0366,5.3151,9.0956,2.0114,3.8919,-0.1229
2540131.0,-7.9392,4.8435,12.2799,1.6203,3.9664,-0.1016
2540141.0,-8.8753,4.3455,15.8592,1.0408,3.712,-0.1564
2540151.0,-9.2153,4.3598,18.2103,0.5587,3.2363,-0.2315
2540161.0,-9.5026,4.5059,19.8384,0.2001,2.668,-0.2932
2540171.0,-9.5074,4.5705,20.1544,0.0639,2.0955,-0.3198
2540181.0,-9.675,4.4317,20.4944,0.1554,1.6394,-0.3246
2540191.0,-9.7636,5.0111,19.7641,0.5779,1.3218,-0.3065
2540201.0,-9.9335,5.9209,18.7442,0.9711,1.06,-0.2879
2540211.0,-9.9503,6.754,18.0188,1.1627,0.8487,-0.2645
2540221.0,-9.7013,7.343,17.6764,1.2004,0.6939,-0.2261
2540231.0,-9.4858,8.3869,17.5902,1.0658,0.5481,-0.1958
2540241.0,-9.5122,9.3901,17.6381,0.6944,0.3209,-0.1463
2540251.0,-9.4906,9.5481,17.8057,0.1112,-0.0282,-0.0697
2540261.0,-9.0764,8.9543,17.1688,-0.4869,-0.4864,0.0176
2540271.0,-8.5569,8.1858,15.3277,-0.9466,-0.9046,0.0921
2540281.0,-8.0732,7.2185,13.4794,-1.2994,-1.11,0.1458
2540291.0,-7.7883,5.7461,12.8377,-1.5554,-1.1483,0.1676
2540301.0,-7.501,4.5897,12.572,-1.5612,-1.1547,0.1586
2540311.0,-7.1611,3.9097,12.3493,-1.3542,-1.1584,0.1293
2540321.0,-6.79,4.1252,11.5137,-1.0733,-1.1786,0.0867
2540331.0,-6.5122,4.8818,10.5321,-0.9519,-1.2095,0.049
2540341.0,-6.2704,5.4971,9.675,-1.0802,-1.2313,0.033
2540351.0,-6.0621,5.5809,9.335,-1.4011,-1.2584,0.0309
2540361.0,-6.0047,5.2098,9.5361,-1.7155,-1.2877,0.0436
2540371.0,-5.9017,4.3646,10.0461,-1.831,-1.3,0.0708
2540381.0,-5.8969,3.6559,10.4818,-1.6911,-1.3122,0.0995
2540391.0,-5.8179,3.4668,10.331,-1.4144,-1.3659,0.1155
2540401.0,-5.5689,3.5674,9.924,-1.1387,-1.4181,0.1272
2540411.0,-5.3151,3.735,9.5193,-0.953,-1.416,0.1399
2540421.0,-5.0661,3.8595,9.2775,-0.9631,-1.4346,0.1426
2540431.0,-4.8123,3.9672,8.9687,-1.1542,-1.5261,0.1298
2540441.0,-4.5394,3.8475,8.5425,-1.4207,-1.6245,0.1176
2540451.0,-4.391,3.4764,8.4803,-1.6357,-1.6687,0.1144
2540461.0,-4.4077,3.158,8.3701,-1.6905,-1.6783,0.1235
2540471.0,-4.221,2.6193,8.5952,-1.5665,-1.6432,0.1506
2540481.0,-4.039,2.4852,8.3055,-1.2856,-1.5671,0.182
2540491.0,-3.9624,2.0949,8.576,-1.0823,-1.466,0.2001
2540501.0,-3.7517,1.7669,9.5409,-0.9919,-1.3611,0.1926
2540511.0,-3.7924,1.5227,11.0349,-0.9658,-1.3973,0.1532
2540521.0,-3.7637,1.6927,11.157,-0.9296,-1.6123,0.107
2540531.0,-3.7062,1.9704,10.9247,-0.9748,-1.8672,0.0628
2540541.0,-3.6655,2.466,9.9359,-1.0041,-2.0949,0.0442
2540551.0,-3.5219,2.7461,8.7915,-1.0429,-2.2109,0.0585
2540561.0,-3.4022,2.6887,8.0565,-1.0903,-2.1795,0.0915
2540571.0,-3.1484,2.0973,8.1163,-1.1334,-2.0747,0.124
2540581.0,-2.8347,1.5395,8.9064,-1.1792,-1.9656,0.1213
2540591.0,-2.9305,1.3455,10.3693,-1.1898,-1.9231,0.091
2540601.0,-3.1603,1.5395,11.406,-1.0914,-2.0513,0.0729
2540611.0,-3.1747,2.0638,11.169,-0.9078,-2.3142,0.0968
2540621.0,-3.2202,2.2027,10.6638,-0.7253,-2.5371,0.1666
2540631.0,-2.964,1.8986,9.9527,-0.4778,-2.6318,0.2714
2540641.0,-2.5953,1.3551,9.8976,-0.2517,-2.5994,0.3661
2540651.0,-2.5809,1.0606,10.3286,-0.1522,-2.5738,0.4172
2540661.0,-2.4541,0.7973,10.4674,-0.2889,-2.7633,0.4172
2540671.0,-2.32,0.4429,10.173,-0.5816,-3.0937,0.3767
2540681.0,-1.7693,0.1556,8.9543,-0.7354,-3.3848,0.332
2540691.0,-1.3312,-0.1053,7.5944,-0.6997,-3.4923,0.3017
2540701.0,-0.7111,-0.0766,5.8849,-0.564,-3.4726,0.2794
2540711.0,-0.3639,-0.0694,4.5945,-0.6024,-3.4609,0.2437
2540721.0,0.0718,-0.5219,3.7804,-0.6173,-3.3933,0.2203
2540731.0,4.1132,-1.9273,4.3048,-0.4257,-3.1943,0.2155
2540741.0,-1.8675,-1.1492,4.6878,-0.05,-2.8319,0.2123
2540751.0,1.834,-3.3615,4.5633,0.0713,-3.1831,0.1846
2540761.0,2.3128,-1.5155,0.5052,0.5013,-3.1602,0.1032
2540771.0,1.9944,-1.1325,1.7286,0.6343,-2.6755,0.1032
2540781.0,2.162,-0.3687,0.6105,0.8168,-2.4626,0.1751
2540791.0,2.1644,-2.083,1.0558,0.5683,-2.5515,0.2219
2540801.0,4.7549,-2.8132,-2.9113,0.2677,-2.9181,0.1639
2540811.0,2.873,-3.6679,-5.9352,-0.1772,-3.0001,0.0154
2540821.0,5.5881,-5.5593,-10.7476,-0.2368,-2.9357,-0.183
2540831.0,8.3941,-5.8203,-15.2319,0.1362,-2.3147,-0.4885
2540841.0,7.4843,-3.9911,-16.9701,0.9003,-0.9748,-0.7732
2540851.0,6.359,-3.1005,-15.275,1.4809,-0.0372,-0.9849
2540861.0,5.0039,-1.6161,-16.0124,2.047,0.2927,-1.1536
2540871.0,3.2801,0.0455,-19.5127,2.4871,0.3618,-1.259
2540881.0,-0.7901,1.7095,-25.0841,2.8681,0.5034,-1.2686
2540891.0,-4.051,2.9425,-34.1605,3.1219,0.6864,-1.1871
2540901.0,-5.7868,1.9824,-44.5345,3.5854,1.7687,-1.0882
2540911.0,-9.0357,-0.4022,-50.441,4.06,4.3181,-1.1233
2540921.0,-14.2287,-2.976,-49.39,3.9302,7.415,-1.4889
2540931.0,-22.3571,-2.9281,-38.798,2.9522,10.2458,-2.1742
2540941.0,-32.0392,0.6297,-24.8111,1.6879,12.063,-2.8723
2540951.0,-40.7086,5.8107,-10.1107,0.8312,12.6169,-3.2273
2540961.0,-42.9352,8.3845,2.4086,1.6517,13.0245,-2.9852
2540971.0,-48.9327,10.094,13.0292,4.2505,13.7216,-2.518
2540981.0,-46.244,10.1418,23.1256,6.9872,14.4958,-2.2423
2540991.0,-45.9615,13.0723,34.036,7.7151,14.474,-2.5685
2541001.0,-44.999,16.5535,49.9095,5.427,12.8782,-3.3539
2541011.0,-42.363,18.761,60.7648,1.4777,9.1518,-4.077
2541021.0,-37.1317,21.3635,55.5335,-1.8991,4.524,-4.3947
2541031.0,-31.1055,19.6348,46.5529,-3.8738,1.3963,-4.0919
2541041.0,-27.4615,20.1975,37.0168,-2.9458,0.8301,-3.3571
2541051.0,-25.6227,19.915,33.1573,-0.5513,1.9837,-2.4355
2541061.0,-25.0936,16.4984,36.6504,1.1696,2.941,-1.7123
2541071.0,-23.9851,17.2335,40.1963,1.782,2.4126,-1.4032
2541081.0,-22.7066,18.0092,42.9807,1.4766,1.0701,-1.1185
2541091.0,-21.6579,18.1169,41.3215,1.0759,-0.68,-0.7295
2541101.0,-19.3811,18.8855,33.5188,0.6018,-2.6398,-0.3421
2541111.0,-16.8145,18.9405,22.946,-0.2283,-4.0302,0.0537
2541121.0,-14.4514,16.7139,14.461,-1.2686,-4.5384,0.4597
2541131.0,-11.7986,12.5097,7.8841,-2.1173,-4.5086,0.812
2541141.0,-8.8298,6.7469,4.5705,-2.6127,-3.9291,1.0296
2541151.0,-7.1563,4.1563,5.0661,-2.6648,-3.0277,1.0302
2541161.0,-7.6495,3.0765,6.1435,-2.3812,-2.3088,0.9594
2541171.0,-6.8283,2.4828,6.9695,-2.3461,-2.1513,0.8636
2541181.0,-6.3351,2.4565,7.5106,-2.3381,-2.1263,0.7764
2541191.0,-5.9161,0.7757,6.8666,-2.2168,-2.137,0.6944
2541201.0,-4.1252,-0.7422,5.7868,-2.2673,-2.2641,0.4869
2541211.0,-4.1204,-0.2514,5.8059,-2.2923,-2.1332,0.1639
2541221.0,-5.6288,0.9888,6.8187,-2.2322,-1.9571,-0.0686
2541231.0,-5.0015,1.4581,7.5393,-2.0614,-2.2226,-0.1862
2541241.0,-4.9297,3.0143,4.774,-1.3989,-2.3126,-0.1772
2541251.0,-4.4293,2.9042,3.9097,-0.9232,-2.1221,-0.0777
2541261.0,-3.8714,3.1508,2.5881,-0.5513,-1.8863,0.0277
2541271.0,-3.5985,2.7725,2.715,-0.4268,-1.6213,0.1112
2541281.0,-3.3902,2.3391,2.7845,-0.3831,-1.3808,0.1692
2541291.0,-3.2537,2.0255,3.0957,-0.4677,-1.235,0.1745
2541301.0,-2.8587,2.2386,2.8826,-0.5875,-1.1552,0.149
2541311.0,-2.739,1.8172,3.541,-0.6806,-0.9541,0.1415
2541321.0,-2.6456,1.4054,4.9081,-0.522,-0.6449,0.1522
2541331.0,-2.8084,1.3216,6.1579,-0.2038,-0.4081,0.1623
2541341.0,-2.9425,1.391,6.6894,0.0777,-0.2783,0.1692
2541351.0,-2.8706,1.2019,7.4053,0.1389,-0.2182,0.1458
2541361.0,-2.9305,1.2665,8.0828,0.0484,-0.2107,0.0788
2541371.0,-3.0885,1.4724,8.5521,-0.1538,-0.2943,-0.0197
2541381.0,-3.0263,1.8627,8.5784,-0.3831,-0.4156,-0.1139
2541391.0,-2.9209,2.3918,8.327,-0.6236,-0.4869,-0.1894
2541401.0,-2.976,2.8299,8.5928,-0.861,-0.4789,-0.2309
2541411.0,-3.3184,3.1699,9.2608,-1.0233,-0.4661,-0.2214
2541421.0,-3.5865,3.201,9.6822,-1.0562,-0.5353,-0.158
2541431.0,-3.5267,2.8347,9.6055,-0.9392,-0.6252,-0.0612
2541441.0,-3.2106,2.3104,9.1937,-0.6928,-0.6327,0.0399
2541451.0,-2.9066,1.9537,8.7269,-0.4177,-0.5678,0.1107
2541461.0,-2.806,2.0207,8.3055,-0.2538,-0.4938,0.1368
2541471.0,-2.8323,2.0207,8.3606,-0.29,-0.4587,0.1362
2541481.0,-2.7653,2.0207,8.406,-0.4007,-0.4613,0.1245
2541491.0,-2.7318,1.8268,8.746,-0.4725,-0.4555,0.1229
2541501.0,-2.636,1.7382,8.8801,-0.406,-0.4321,0.1373
2541511.0,-2.5762,1.549,8.8777,-0.2879,-0.4033,0.158
2541521.0,-2.4756,1.6568,8.4659,-0.1942,-0.381,0.174
2541531.0,-2.332,1.8268,8.0397,-0.2363,-0.3618,0.1772
2541541.0,-2.2649,1.7573,7.7428,-0.3858,-0.3113,0.1751
2541551.0,-2.1141,1.3312,7.9368,-0.5837,-0.2368,0.1655
2541561.0,-2.1021,0.7614,8.3845,-0.7503,-0.1644,0.1314
2541571.0,-2.071,0.2538,8.9136,-0.8615,-0.1538,0.0745
2541581.0,-2.1548,0.0958,9.1842,-0.8498,-0.1772,0.0112
2541591.0,-2.1907,0.34,9.2081,-0.6875,-0.1591,-0.0351
2541601.0,-2.3248,0.8499,9.1722,-0.415,-0.0899,-0.0436
2541611.0,-2.4205,1.5131,8.8753,-0.1628,-0.0192,-0.0202
2541621.0,-2.4134,2.0542,8.7077,-0.0506,0.0553,0.0255
2541631.0,-2.4397,2.1644,8.9543,-0.0995,0.1261,0.0772
2541641.0,-2.4924,2.0542,9.4762,-0.223,0.1623,0.1219
2541651.0,-2.5163,1.6592,10.0078,-0.3688,0.1522,0.1548
2541661.0,-2.6863,1.0558,10.7955,-0.4528,0.1298,0.1767
2541671.0,-2.7821,0.5531,11.4754,-0.3943,0.0777,0.1884
2541681.0,-2.7988,0.3496,11.6526,-0.2139,-0.0154,0.19
2541691.0,-2.6935,0.3974,11.2743,-0.0181,-0.1059,0.1815
2541701.0,-2.5738,0.68,10.6853,0.0846,-0.1602,0.1618
2541711.0,-2.4876,1.0104,10.1921,0.0351,-0.2006,0.1309
2541721.0,-2.4157,1.3001,9.7731,-0.1277,-0.2256,0.1
2541731.0,-2.5426,1.3455,9.8043,-0.339,-0.2107,0.0814
2541741.0,-2.6528,1.1396,10.228,-0.4997,-0.1836,0.0809
2541751.0,-2.7078,0.656,10.7619,-0.5342,-0.1713,0.0942
2541761.0,-2.6647,0.2705,11.0708,-0.4645,-0.1894,0.0984
2541771.0,-2.545,0.0,11.2911,-0.3608,-0.2352,0.083
2541781.0,-2.4373,0.1149,11.2216,-0.2655,-0.3129,0.0484
2541791.0,-2.2841,0.4214,10.6973,-0.2379,-0.4161,0.008
2541801.0,-2.15,0.814,9.9503,-0.2996,-0.48,-0.0314
2541811.0,-2.15,1.1779,9.4308,-0.4534,-0.4805,-0.0607
2541821.0,-2.1644,1.1325,9.5265,-0.6667,-0.4432,-0.0734
2541831.0,-2.2338,0.8021,10.1658,-0.8173,-0.3991,-0.0686
2541841.0,-2.3176,0.2873,10.9726,-0.8285,-0.4028,-0.0559
2541851.0,-2.2889,-0.0287,11.4203,-0.6683,-0.4597,-0.0383
2541861.0,-2.1955,-0.0096,11.236,-0.4188,-0.538,-0.0213
2541871.0,-2.1165,-0.0192,10.963,-0.216,-0.6013,-0.0053
2541881.0,-1.9082,0.1173,10.5105,-0.0942,-0.6566,0.0
2541891.0,-1.7573,0.3065,9.8785,-0.0905,-0.7162,-0.0101
2541901.0,-1.5658,0.4286,9.2632,-0.1761,-0.7247,-0.0271
2541911.0,-1.4509,0.4693,9.0597,-0.3171,-0.6694,-0.0474
2541921.0,-1.5131,0.5507,9.2632,-0.4752,-0.6024,-0.0681
2541931.0,-1.6376,0.51,9.9575,-0.5901,-0.5491,-0.0702
2541941.0,-1.7406,0.3017,10.7835,-0.5821,-0.5289,-0.0468
2541951.0,-1.7047,-0.1173,11.5065,-0.4475,-0.5561,-0.0069
2541961.0,-1.585,-0.4908,11.6358,-0.2528,-0.6513,0.0218
2541971.0,-1.3815,-0.6464,11.1306,-0.1091,-0.8024,0.0208
2541981.0,-1.1133,-0.6153,10.2161,-0.075,-0.9371,-0.009
2541991.0,-0.905,-0.419,9.2991,-0.1298,-1.002,-0.0607
2542001.0,-0.8188,0.0096,8.7508,-0.2065,-0.9668,-0.1091
2542011.0,-0.8595,0.4381,8.7077,-0.2687,-0.8626,-0.1314
2542021.0,-0.9601,0.7398,8.9567,-0.3363,-0.7843,-0.1272
2542031.0,-0.9577,0.7183,9.3685,-0.4193,-0.7615,-0.0995
2542041.0,-0.8188,0.3831,9.73,-0.4284,-0.7662,-0.0585
2542051.0,-0.6584,0.0,9.7707,-0.365,-0.7992,-0.0255
2542061.0,-0.4645,-0.1915,9.2775,-0.2969,-0.8413,-0.0112
2542071.0,-0.3735,-0.2897,8.8346,-0.3086,-0.853,-0.017
2542081.0,-0.328,-0.395,8.9687,-0.3677,-0.8301,-0.0346
2542091.0,-0.3472,-0.5746,9.7085,-0.3469,-0.7897,-0.0458
2542101.0,-0.3424,-0.6823,10.1418,-0.2208,-0.7987,-0.0468
2542111.0,-0.2801,-0.5794,10.0269,-0.0878,-0.8812,-0.0479
2542121.0,-0.146,-0.3041,9.4691,-0.0176,-0.9754,-0.0442
2542131.0,-0.0024,-0.0527,8.9447,0.0027,-1.0046,-0.025
2542141.0,0.1628,-0.2083,8.7053,0.0112,-0.9525,0.009
2542151.0,0.4812,-0.6919,8.8609,0.0282,-0.8759,0.0319
2542161.0,0.6416,-0.9888,9.1028,0.0282,-0.7934,0.0112
2542171.0,0.5267,-1.166,9.5936,-0.0937,-0.7604,-0.0537
2542181.0,0.5722,-1.4796,10.5153,-0.3272,-0.8157,-0.1554
2542191.0,0.5052,-1.4629,11.1091,-0.5917,-0.9817,-0.2804
2542201.0,0.2897,-0.9146,10.8314,-0.8407,-1.2739,-0.4012
2542211.0,0.4094,-0.2418,10.3142,-0.9035,-1.4745,-0.4459
2542221.0,0.7039,-0.0335,9.9886,-0.6492,-1.4532,-0.3959
2542231.0,0.7973,0.1365,9.3685,-0.2192,-1.3776,-0.3049
2542241.0,0.9816,0.3448,8.5305,0.0835,-1.3686,-0.2251
2542251.0,1.3264,0.6273,7.6902,0.2033,-1.3303,-0.1681
2542261.0,1.2474,0.7207,7.8314,0.1373,-1.251,-0.1352
2542271.0,1.0104,0.9816,8.0661,-0.0325,-1.2787,-0.1165
2542281.0,0.6393,0.723,8.5186,-0.2022,-1.425,-0.0889
2542291.0,0.9457,0.1508,8.0062,-0.1761,-1.6543,-0.0426
2542301.0,1.798,-0.5746,6.7397,0.0937,-1.8358,-0.0027
2542311.0,2.6145,-0.8045,4.8985,0.5917,-1.7906,0.016
2542321.0,2.8874,-0.3448,3.292,1.0147,-1.6373,-0.0059
2542331.0,2.885,0.7422,2.0399,1.2372,-1.4931,-0.0266
2542341.0,2.6815,1.5538,1.4796,1.4085,-1.2824,0.0106
2542351.0,2.3583,1.9944,0.6512,1.6054,-1.1313,0.1096
2542361.0,2.4948,2.2051,-2.2865,1.7139,-1.152,0.2277
2542371.0,6.0118,1.4581,-7.6567,1.4186,-1.2957,0.29
2542381.0,3.1627,2.2482,-14.3772,0.5869,-1.1552,0.2246
2542391.0,4.8076,0.7087,-16.2614,-0.4581,-0.7678,0.1064
2542401.0,3.6057,0.4262,-17.7793,-0.3363,-0.0564,0.008
2542411.0,2.1093,0.4405,-20.7865,0.9163,0.7455,0.0138
2542421.0,1.5036,1.0439,-29.3098,2.5009,1.4367,0.0537
2542431.0,-1.47,2.4804,-37.0838,3.6631,2.7931,0.0085
2542441.0,-5.928,4.4412,-40.7613,4.1468,4.773,-0.0979
2542451.0,-13.9271,6.8881,-40.3998,4.1563,7.018,-0.2102
2542461.0,-20.2645,6.5266,-33.3776,4.0057,9.4546,-0.2357
2542471.0,-29.0752,5.284,-21.0762,3.8328,11.8283,-0.3113
2542481.0,-36.8994,5.3798,-4.865,3.5577,13.2964,-0.5028
2542491.0,-40.486,6.019,10.5345,3.5391,13.7413,-0.7253
2542501.0,-42.8131,7.2281,22.4145,3.7977,13.422,-0.9253
2542511.0,-41.1515,8.406,32.7527,4.0707,12.7287,-1.1361
2542521.0,-40.0646,9.6893,40.8044,3.8355,11.4814,-1.45
2542531.0,-38.3384,12.0237,47.6949,2.7324,9.6429,-1.8789
2542541.0,-34.8668,13.1154,52.1002,1.4282,7.4826,-2.13
2542551.0,-32.3097,15.864,52.7251,0.4651,5.2775,-2.1614
2542561.0,-29.1063,14.6812,52.354,-0.166,3.3555,-1.847
2542571.0,-25.6898,12.9119,47.3334,-0.2347,1.4899,-1.4798
2542581.0,-22.6061,11.3174,40.8834,-0.2788,-0.3038,-1.2271
2542591.0,-19.5247,11.9614,31.6992,0.0282,-1.5894,-1.0211
2542601.0,-17.1185,12.8257,22.7808,0.506,-2.105,-0.763
2542611.0,-14.5615,13.5248,15.354,0.829,-2.0311,-0.4459
2542621.0,-12.4331,12.8162,11.4467,0.7503,-1.5516,-0.1192
2542631.0,-11.3126,11.0516,10.8122,0.4624,-0.8727,0.1735
2542641.0,-11.3365,7.4388,13.6134,0.0383,-0.4145,0.3831
2542651.0,-10.489,3.5841,16.1226,-0.1304,-0.4629,0.4778
2542661.0,-9.4308,1.5969,16.9079,0.066,-0.7801,0.4305
2542671.0,-8.8394,1.731,15.67,0.2985,-1.1669,0.2927
2542681.0,-8.6933,2.6743,13.5991,0.108,-1.6639,0.1155
2542691.0,-8.1427,3.4453,11.1785,-0.505,-2.2375,-0.0665
2542701.0,-7.252,4.0773,8.2911,-1.0227,-2.6132,-0.2011
2542711.0,-6.9408,4.2545,6.2201,-1.2244,-2.5302,-0.2448
2542721.0,-6.766,4.1228,4.8722,-1.1951,-2.2221,-0.2246
2542731.0,-6.5027,3.316,4.5825,-1.144,-1.9273,-0.1963
2542741.0,-5.9065,2.1404,4.7573,-1.0908,-1.6522,-0.2059
2542751.0,-4.7764,1.4054,6.1076,-1.0068,-1.3755,-0.2815
2542761.0,-7.027,1.7238,7.7644,-0.8908,-1.1568,-0.3916
2542771.0,-6.2608,1.8004,9.0812,-0.92,-1.3436,-0.5087
2542781.0,-5.8778,2.9856,8.3821,-0.9498,-1.7081,-0.6247
2542791.0,-5.8179,3.8451,7.2496,-0.8987,-1.8353,-0.6588
2542801.0,-5.7581,4.1851,6.778,-0.8445,-1.8108,-0.6423
2542811.0,-5.4827,4.7357,6.5314,-0.7774,-1.7725,-0.5986
2542821.0,-5.7964,5.3965,6.3686,-0.6258,-1.6735,-0.4965
2542831.0,-5.9592,5.454,6.9743,-0.4331,-1.55,-0.3294
2542841.0,-5.7197,5.102,6.8091,-0.1979,-1.4771,-0.1368
2542851.0,-5.4157,4.0773,6.7828,-0.182,-1.4873,-0.0037
2542861.0,-4.8243,3.2825,6.3877,-0.4001,-1.5655,0.0255
2542871.0,-4.5633,2.7701,6.7157,-0.7189,-1.6139,-0.0234
2542881.0,-4.4532,2.9808,6.8235,-0.8663,-1.6299,-0.0819
2542891.0,-4.5801,3.3327,6.7876,-0.8046,-1.5841,-0.091
2542901.0,-4.4963,3.4692,6.5841,-0.6343,-1.5133,-0.0495
2542911.0,-4.1587,3.4381,6.5266,-0.4523,-1.408,0.0112
2542921.0,-4.0223,3.3567,6.5673,-0.3219,-1.2755,0.0649
2542931.0,-3.8642,3.0694,6.6774,-0.3118,-1.1946,0.0968
2542941.0,-3.6631,2.6288,7.0629,-0.4166,-1.1765,0.0931
2542951.0,-3.4812,2.4612,7.1946,-0.4943,-1.1722,0.0686
2542961.0,-3.4093,2.5402,7.3215,-0.513,-1.1478,0.0436
2542971.0,-3.395,2.8204,7.3382,-0.4512,-1.0914,0.041
2542981.0,-3.3375,3.0023,7.5369,-0.3597,-1.0121,0.0697
2542991.0,-3.2489,3.0574,7.7452,-0.2841,-0.9466,0.1123
2543001.0,-3.1532,2.873,7.9535,-0.249,-0.9067,0.1564
2543011.0,-3.055,2.636,8.0804,-0.2671,-0.9051,0.1841
2543021.0,-2.9257,2.3008,8.0134,-0.34,-0.9402,0.1894
2543031.0,-2.6504,2.1045,7.7069,-0.4081,-0.969,0.1724
2543041.0,-2.4852,2.0423,7.501,-0.4342,-0.9264,0.1458
2543051.0,-2.545,2.2266,7.6998,-0.3922,-0.804,0.1314
2543061.0,-2.6552,2.5881,8.0349,-0.3076,-0.6822,0.1437
2543071.0,-2.6719,2.7533,8.2791,-0.2214,-0.6024,0.182
2543081.0,-2.4876,2.7031,8.3103,-0.1767,-0.5566,0.2283
2543091.0,-2.3631,2.5091,8.5928,-0.2027,-0.5028,0.2639
2543101.0,-2.411,2.0734,9.3134,-0.2442,-0.4299,0.2879
2543111.0,-2.4445,1.5323,10.1107,-0.3001,-0.4544,0.2895
2543121.0,-2.3176,1.0606,10.2711,-0.3347,-0.5816,0.2634
2543131.0,-2.0686,0.905,9.7659,-0.3374,-0.7253,0.2134
2543141.0,-1.9273,1.154,9.0022,-0.3187,-0.7742,0.1554
2543151.0,-1.9273,1.5012,8.5425,-0.2889,-0.7168,0.1139
2543161.0,-1.8316,1.9345,8.3103,-0.2746,-0.6343,0.0958
2543171.0,-1.7741,2.2242,8.3965,-0.2698,-0.5177,0.1043
2543181.0,-1.8675,2.2577,8.8322,-0.2682,-0.3975,0.133
2543191.0,-1.9154,1.9656,9.5361,-0.2804,-0.3294,0.1671
2543201.0,-1.8244,1.7214,9.7947,-0.29,-0.3379,0.1878
2543211.0,-1.7765,1.4916,10.0461,-0.3347,-0.3725,0.1905
2543221.0,-1.8124,1.154,10.4531,-0.3677,-0.3863,0.1825
2543231.0,-1.7334,0.9625,10.5919,-0.3858,-0.4613,0.157
2543241.0,-1.6496,1.1277,10.1538,-0.4023,-0.5704,0.1155
2543251.0,-1.4509,1.3743,9.6175,-0.4337,-0.6141,0.0798
2543261.0,-1.4365,1.7502,9.3422,-0.4571,-0.5805,0.0633
2543271.0,-1.4916,1.8723,9.5648,-0.4534,-0.5066,0.075
2543281.0,-1.4724,1.6951,9.8857,-0.3821,-0.4331,0.1075
2543291.0,-1.3982,1.3791,10.2639,-0.2788,-0.3874,0.1368
2543301.0,-1.3216,1.154,10.6183,-0.1841,-0.3704,0.1474
2543311.0,-1.3886,1.0678,10.9008,-0.1208,-0.3863,0.1426
2543321.0,-1.3479,1.0846,10.975,-0.1213,-0.4597,0.125
2543331.0,-1.2258,1.1803,10.75,-0.1745,-0.564,0.1006
2543341.0,-1.1971,1.3958,10.1682,-0.2698,-0.6529,0.074
2543351.0,-1.0654,1.4365,9.8881,-0.3783,-0.687,0.0601
2543361.0,-0.917,1.4868,9.6199,-0.431,-0.6721,0.0553
2543371.0,-0.8906,1.3695,9.6989,-0.4321,-0.6125,0.0623
2543381.0,-0.8116,1.1061,9.9455,-0.3725,-0.5337,0.0713
2543391.0,-0.7207,0.9098,10.2927,-0.3092,-0.4858,0.0665
2543401.0,-0.6823,0.9266,10.4531,-0.2703,-0.4917,0.0474
2543411.0,-0.5794,0.972,10.6566,-0.2815,-0.5295,0.0261
2543421.0,-0.5531,1.2402,10.5058,-0.3203,-0.5928,0.0064
2543431.0,-0.4597,1.4365,10.228,-0.3964,-0.663,0.0005
2543441.0,-0.4046,1.5706,9.8402,-0.4709,-0.705,0.0112
2543451.0,-0.3903,1.6065,9.6247,-0.5193,-0.704,0.0378
2543461.0,-0.3112,1.3958,9.6941,-0.5018,-0.663,0.0803
2543471.0,-0.1963,1.0367,9.7971,-0.4278,-0.6194,0.1224
2543481.0,-0.0934,0.7207,9.9718,-0.3368,-0.5827,0.1479
2543491.0,0.0862,0.5195,10.1801,-0.2746,-0.5598,0.1501
2543501.0,0.0503,0.5052,10.4004,-0.2916,-0.5896,0.1272
2543511.0,0.103,0.5962,10.2137,-0.4071,-0.7066,0.0883
2543521.0,0.2658,0.6201,9.5984,-0.5875,-0.8626,0.0495
2543531.0,0.4214,0.4836,8.8059,-0.7311,-0.9567,0.0176
2543541.0,0.5171,0.2969,8.1379,-0.7646,-0.9445,-0.0059
2543551.0,0.8595,0.1772,7.7883,-0.679,-0.8461,-0.0186
2543561.0,0.9744,0.2322,7.9871,-0.4725,-0.6226,-0.0192
2543571.0,0.838,0.6656,8.5617,-0.3038,-0.4315,-0.0165
2543581.0,0.5722,1.5131,8.9663,-0.3219,-0.398,-0.0059
2543591.0,0.5387,2.0973,9.2057,-0.5444,-0.5002,0.0319
2543601.0,0.7111,1.8244,9.0477,-0.8748,-0.6774,0.0899
2543611.0,0.747,1.1444,8.6263,-1.1988,-0.8711,0.1341
2543621.0,1.142,0.1556,8.0062,-1.3516,-0.9935,0.1697
2543631.0,1.4533,-1.0582,7.8434,-1.1834,-0.9243,0.1958
2543641.0,1.4964,-1.5323,8.078,-0.7588,-0.7263,0.1958
2543651.0,1.4653,-1.9297,8.4731,-0.3044,-0.5906,0.1841
2543661.0,1.5562,-2.1045,8.1427,0.05,-0.6109,0.1447
2543671.0,2.0973,-2.1476,7.7309,0.2139,-0.6417,0.067
2543681.0,2.1787,-1.1492,7.8889,0.3336,-0.5417,-0.0282
2543691.0,1.4269,-0.0239,8.6431,0.3943,-0.497,-0.0931
2543701.0,1.0223,1.1636,8.0852,0.3209,-0.7471,-0.1171
2543711.0,1.5874,1.0558,6.1435,0.0633,-1.1542,-0.1171
2543721.0,2.7126,1.1444,3.9576,-0.1181,-1.3654,-0.124
2543731.0,2.3559,1.5706,2.6336,0.0372,-1.1706,-0.0968
2543741.0,1.5874,2.1141,1.3815,0.4097,-0.9211,0.0128
2543751.0,2.4205,0.9864,-0.1796,0.8908,-0.77,0.1681
2543761.0,2.4469,0.9744,-2.6264,1.582,-0.3778,0.3081
2543771.0,2.0327,0.1173,-3.5865,2.1402,0.1878,0.4262
2543781.0,2.6336,-0.1413,-6.177,2.5275,0.538,0.4374
2543791.0,2.6504,-0.3304,-8.8753,2.4924,0.8987,0.3251
2543801.0,1.3838,-0.5387,-10.3046,2.0332,1.2755,0.1149
2543811.0,1.8196,-0.4597,-12.3325,1.3808,1.2707,-0.1559
2543821.0,0.067,0.5507,-17.9613,0.9684,1.086,-0.3954
2543831.0,0.3807,2.2482,-27.2005,1.2856,1.4266,-0.5103
2543841.0,-5.9592,3.8738,-34.3712,1.9741,2.9431,-0.4933
2543851.0,-9.5122,5.4755,-39.8802,2.4818,4.7566,-0.4252
2543861.0,-16.0627,8.2456,-37.7302,3.2485,7.7853,-0.3411
2543871.0,-28.1821,9.1291,-23.2262,4.026,11.3005,-0.191
2543881.0,-36.7965,9.2847,-6.869,4.4522,13.016,-0.1032
2543891.0,-39.4229,8.4539,8.1762,4.6794,13.911,-0.1953
2543901.0,-41.0893,8.4587,21.8423,4.2824,14.1489,-0.5422
2543911.0,-42.8203,8.0086,36.5571,2.7643,13.3677,-1.0759
2543921.0,-40.0981,6.8642,52.0739,0.621,11.3782,-1.5538
2543931.0,-37.9146,9.5289,61.4807,-0.3922,8.6937,-1.8214
2543941.0,-34.4286,12.4331,59.0793,-0.3363,5.6452,-1.6735
2543951.0,-28.0624,9.6798,55.4689,-1.1776,3.1538,-1.2473
2543961.0,-26.7001,6.2106,52.7203,-1.1973,1.2297,-1.1387
2543971.0,-24.4783,7.3957,45.5928,-0.2639,-0.4736,-1.0919
2543981.0,-21.476,8.0541,36.3536,0.6774,-1.6277,-1.0525
2543991.0,-19.8431,10.5536,30.2364,1.4798,-1.8672,-1.0036
2544001.0,-18.2199,15.2942,24.9811,1.5548,-1.8741,-0.9381
2544011.0,-18.8352,17.4346,25.3881,0.3884,-2.1875,-0.746
2544021.0,-17.5399,15.5886,24.6459,-0.7535,-2.8606,-0.3257
2544031.0,-16.2566,10.4627,23.9468,-1.5522,-3.7647,0.0261
2544041.0,-12.4355,7.1874,19.3068,-1.6559,-4.6267,0.2139
2544051.0,-13.7044,4.695,15.6796,-1.5335,-4.9763,0.2841
2544061.0,-12.05,2.4397,12.548,-1.1882,-5.3435,0.2543
2544071.0,-11.1905,2.1165,6.7684,-0.5082,-5.4361,0.1681
2544081.0,-8.3199,2.6193,2.3631,-0.1963,-5.2339,0.0271
2544091.0,-7.1754,3.814,-1.221,-0.357,-4.7853,-0.149
2544101.0,-6.4739,4.1324,-1.4437,-1.0217,-4.2707,-0.3272
2544111.0,-5.8562,4.2713,-0.7566,-1.6203,-3.8552,-0.4794
2544121.0,-5.5474,4.6112,-0.103,-2.054,-3.588,-0.5678
2544131.0,-5.533,4.7022,0.8978,-2.278,-3.4359,-0.5672
2544141.0,-4.604,4.3766,0.8308,-2.154,-3.3614,-0.4805
2544151.0,-3.8762,3.7373,0.7183,-1.7602,-3.1597,-0.3459
2544161.0,-3.2178,3.2561,0.9385,-1.234,-2.8888,-0.2091
2544171.0,-2.8754,3.043,1.008,-0.7524,-2.7148,-0.0862
2544181.0,-2.7749,3.201,0.3543,-0.4071,-2.6425,0.0383
2544191.0,-2.2266,3.043,-0.3256,-0.1836,-2.5563,0.1761
2544201.0,-1.8268,2.8467,-1.0247,0.0527,-2.3291,0.3187
2544211.0,-1.3671,1.8675,-1.4054,0.2097,-2.0188,0.4512
2544221.0,-0.5411,0.2322,-1.0702,0.199,-1.7006,0.5066
2544231.0,-0.1891,-0.7805,0.1939,0.0942,-1.3537,0.4512
2544241.0,-0.182,-1.4724,1.5634,-0.1245,-1.1291,0.2921
2544251.0,0.0168,-2.083,2.2745,-0.5672,-1.1855,0.05
2544261.0,0.6704,-2.1715,1.6233,-1.0552,-1.3404,-0.2437
2544271.0,0.9888,-0.9984,1.4054,-1.392,-1.2925,-0.5199
2544281.0,0.5219,0.8164,1.9896,-1.2313,-0.9078,-0.6428
2544291.0,0.0694,0.9266,3.7852,-0.7646,-0.4119,-0.6087
2544301.0,0.012,1.5012,6.4596,-0.2634,-0.0841,-0.5225
2544311.0,-1.1732,1.9273,9.9048,0.2581,0.0702,-0.3837
2544321.0,-1.6999,1.7382,12.5432,0.7689,-0.1235,-0.1958
2544331.0,-1.81,0.5531,12.5576,1.1499,-0.6396,-0.0447
2544341.0,-0.8284,-0.6847,10.2065,1.2505,-1.2441,-0.0277
2544351.0,0.7901,-1.1396,7.0102,1.1297,-1.5708,-0.165
2544361.0,1.4317,0.0263,4.2856,0.8562,-1.4867,-0.4092
2544371.0,1.4317,0.5531,3.4405,0.3831,-1.1025,-0.6433
2544381.0,1.4413,1.9273,3.8858,-0.2629,-0.7428,-0.8673
2544391.0,0.182,3.565,5.5115,-1.0227,-0.5752,-1.0158
2544401.0,0.091,4.944,4.9991,-1.6527,-0.7178,-0.9876
2544411.0,-0.8595,3.802,5.2146,-2.071,-1.0121,-0.7668
2544421.0,1.2258,1.8483,1.008,-1.6293,-1.4569,-0.4629
2544431.0,4.3551,0.6752,-7.3909,-0.3858,-1.4585,-0.2432
2544441.0,6.0071,1.166,-16.7594,1.3649,-0.4805,-0.1346
2544451.0,4.367,4.3814,-27.0377,2.9016,1.3931,-0.0772
2544461.0,2.0159,7.3143,-31.9075,3.2432,3.4726,-0.0399
2544471.0,-3.9433,9.6319,-27.0114,3.1964,6.1831,0.1155
2544481.0,-13.4913,10.1418,-14.1378,3.4502,8.8224,0.4624
2544491.0,-22.3092,9.7181,-2.806,4.3016,10.4752,0.8519
2544501.0,-24.1766,7.3574,8.5138,4.8295,11.4234,1.0302
2544511.0,-24.8877,7.197,18.6748,4.2314,11.5527,0.7652
2544521.0,-28.7831,7.7859,28.8429,2.6238,11.0647,0.2857
2544531.0,-29.4391,5.2601,42.533,0.2889,9.5397,-0.2379
2544541.0,-27.8134,4.8435,49.7994,-1.3643,7.3352,-0.712
2544551.0,-24.8542,4.3622,52.4163,-2.5084,4.7895,-1.1126
2544561.0,-22.8742,6.2944,48.0756,-3.0841,2.4137,-1.3611
2544571.0,-21.6149,6.9049,44.2425,-3.4273,0.5731,-1.3574
2544581.0,-19.5032,7.185,39.3224,-2.8096,-0.5406,-1.0962
2544591.0,-18.1313,7.9847,34.1269,-1.7235,-1.127,-0.7396
2544601.0,-16.9557,7.288,30.3968,-1.0616,-1.7336,-0.3831
2544611.0,-14.8991,6.4356,25.9747,-0.7572,-2.5345,-0.1176
2544621.0,-13.0843,5.1571,20.6644,-0.7583,-3.2368,0.0176
2544631.0,-10.9152,3.9289,15.2295,-1.0461,-3.7216,-0.0181
2544641.0,-9.3063,3.6464,10.8673,-1.5931,-3.9749,-0.2049
2544651.0,-7.7069,3.3232,7.6567,-2.1662,-4.0015,-0.4321
2544661.0,-7.0413,2.8299,5.6814,-2.5712,-3.8631,-0.6561
2544671.0,-6.0885,2.3822,4.5274,-2.767,-3.6428,-0.8615
2544681.0,-6.1172,2.3607,5.0781,-2.775,-3.4156,-1.0413
2544691.0,-5.4444,3.1963,5.296,-2.4083,-3.2901,-1.1339
2544701.0,-5.8849,4.1683,5.0015,-1.8177,-3.1847,-1.1095
2544711.0,-5.0733,4.616,4.525,-1.2717,-3.1214,-0.9956
2544721.0,-4.4317,4.8267,4.5059,-0.828,-3.0314,-0.8423
2544731.0,-4.4317,5.3391,3.8355,-0.5901,-3.0474,-0.6843
2544741.0,-4.1539,5.2768,2.7677,-0.6742,-3.2512,-0.53
2544751.0,-3.2825,4.695,0.7733,-0.7998,-3.4252,-0.3767
2544761.0,-2.8539,3.8666,-1.7238,-0.8615,-3.3518,-0.2246
2544771.0,-1.3934,1.9297,-2.4612,-0.8035,-2.9873,-0.1117
2544781.0,-0.3926,0.7278,-2.2625,-0.3954,-2.2902,-0.0458
2544791.0,-0.2586,0.0982,-0.1221,0.0043,-1.5442,-0.0335
2544801.0,-0.2873,0.3472,2.296,0.1133,-1.218,-0.0766
2544811.0,-0.6321,0.893,4.5873,0.0676,-1.1877,-0.1022
2544821.0,-0.8523,1.1684,5.8371,0.1554,-1.2946,-0.0633
2544831.0,-0.7781,1.0511,5.3486,0.3677,-1.5117,0.0181
2544841.0,-0.1197,0.3304,3.6464,0.6082,-1.641,0.1048
2544851.0,0.7398,-0.9529,2.557,0.8381,-1.4787,0.1442
2544861.0,1.2115,-1.7597,2.6791,1.0445,-1.0924,0.1
2544871.0,1.1995,-1.0534,3.462,1.0632,-0.77,-0.0202
2544881.0,0.8164,-0.8787,4.0941,0.7881,-0.638,-0.1527
2544891.0,1.4245,-0.5387,4.8459,0.2841,-0.6433,-0.3065
2544901.0,0.9768,0.3089,6.371,-0.0702,-0.5433,-0.439
2544911.0,0.2251,1.822,7.3765,-0.1038,-0.448,-0.4725
2544921.0,-0.1556,2.648,7.8314,-0.0223,-0.4741,-0.3938
2544931.0,-0.1484,2.5187,7.6614,0.0724,-0.538,-0.2634
2544941.0,0.0431,1.5658,8.0493,0.1506,-0.5183,-0.1527
2544951.0,0.1796,0.6776,8.576,0.2788,-0.4534,-0.1086
2544961.0,0.1532,0.4788,9.0692,0.356,-0.4805,-0.1325
2544971.0,-0.0862,0.9936,8.8801,0.3634,-0.5885,-0.1809
2544981.0,-0.1772,1.3336,8.011,0.2794,-0.7535,-0.2102
2544991.0,0.1628,0.9385,6.2776,0.1277,-0.8987,-0.2304
2545001.0,0.7159,0.1963,4.4149,-0.0793,-0.9158,-0.2932
2545011.0,0.9936,0.1676,2.6073,-0.3448,-0.8088,-0.4177
2545021.0,0.8643,0.6009,0.8978,-0.7109,-0.7194,-0.5598
2545031.0,3.1077,1.6807,-1.5371,-1.1584,-0.795,-0.6433
2545041.0,2.2075,1.6257,-5.6886,-1.6176,-0.8806,-0.588
2545051.0,4.7118,1.0822,-12.639,-1.9241,-1.0328,-0.5071
2545061.0,5.0111,0.5219,-21.0594,-1.5761,-0.6055,-0.3656
2545071.0,4.2066,2.3104,-29.4152,0.0064,1.1526,-0.1378
2545081.0,0.6584,5.612,-35.0727,2.1535,3.5652,0.1458
2545091.0,-6.6176,9.8857,-37.2969,4.5022,6.4465,0.4363
2545101.0,-19.1512,14.2886,-29.9323,6.7589,10.2895,0.8221
2545111.0,-38.1396,15.2367,-14.9973,8.3781,13.4071,1.267
2545121.0,-36.672,13.3668,-2.9161,9.5259,15.2823,1.475
2545131.0,-44.7237,11.4443,19.994,10.0777,17.4357,0.9046
2545141.0,-48.5233,14.5974,35.3767,8.3723,17.4331,-0.1213
2545151.0,-45.4898,-1.9225,60.6882,1.7288,13.3284,-1.3542
2545161.0,-46.9742,2.2266,75.3982,-0.6928,9.7861,-2.9346
2545171.0,-43.7253,6.4596,78.4508,-2.2429,4.9045,-3.8349
2545181.0,-38.2402,16.6684,64.665,-2.9069,-0.6071,-4.1201
2545191.0,-35.2594,19.6372,52.7491,-4.0244,-3.6796,-3.969
2545201.0,-29.5588,24.0258,36.763,-4.0153,-4.7704,-3.3858
2545211.0,-28.0217,20.5159,33.8516,-4.1638,-4.8433,-2.5611
2545221.0,-23.8846,16.5727,26.2381,-3.4412,-4.954,-1.6708
2545231.0,-22.8886,9.9407,29.475,-3.4305,-5.07,-1.1589
2545241.0,-23.1807,9.7516,25.1726,-2.6574,-5.9389,-0.8546
2545251.0,-22.2924,6.4165,19.8096,-2.3402,-7.3357,-0.6476
2545261.0,-19.7977,6.0861,8.7532,-2.0625,-8.4627,-0.6167
2545271.0,-17.1736,5.1332,1.2929,-2.0763,-8.815,-0.7008
2545281.0,-12.7012,5.4157,-8.7293,-1.7342,-8.4319,-0.7593
2545291.0,-9.8234,4.2377,-11.3629,-1.6676,-7.0723,-0.8524
2545301.0,-7.3598,3.79,-10.6973,-1.8592,-5.7495,-1.0456
2545311.0,-6.699,4.2808,-7.9009,-2.4067,-4.9811,-1.2989
2545321.0,-5.9807,6.2369,-5.7557,-2.693,-4.4554,-1.4202
2545331.0,-5.2409,6.1651,-2.7126,-2.6185,-4.0073,-1.3319
2545341.0,-4.6232,5.6982,-0.9361,-2.0822,-3.7498,-1.0892
2545351.0,-3.7493,5.4492,-0.8164,-1.1834,-3.6029,-0.7577
2545361.0,-2.478,3.1508,-1.5395,-0.1921,-3.4066,-0.3746
2545371.0,-0.261,2.0183,-3.5841,0.6433,-3.0692,-0.0899
2545381.0,0.5459,1.7621,-3.7804,0.9951,-2.5291,0.0644
2545391.0,0.6416,1.6568,-3.5171,0.9195,-2.0273,0.1463
2545401.0,1.1372,1.2474,-2.047,0.4119,-1.6879,0.1634
2545411.0,1.257,0.9912,-0.1796,-0.0846,-1.4,0.1383
2545421.0,0.656,0.7063,2.0303,-0.3602,-1.176,0.1309
2545431.0,0.5124,0.2394,3.5219,-0.248,-1.027,0.1655
2545441.0,1.1684,0.249,3.3567,0.0378,-0.9839,0.2395
2545451.0,1.6233,0.3663,3.4117,0.4113,-0.7827,0.3209
2545461.0,1.4102,0.3448,3.316,0.7396,-0.5204,0.4012
2545471.0,1.5658,0.1293,2.2936,0.6742,-0.4491,0.4241
