time_ms,ax,ay,az,gx,gy,gz
1365581.0,0.7901,1.7406,10.2831,-0.4539,-0.8035,0.075
1365591.0,1.0295,1.9393,10.307,-0.3374,-0.7508,0.0931
1365601.0,0.9553,2.3128,10.3837,-0.2368,-0.7003,0.1266
1365611.0,1.0511,2.4756,10.1682,-0.1969,-0.6965,0.1873
1365621.0,1.1779,2.2027,10.1131,-0.2639,-0.7125,0.2496
1365631.0,1.4964,1.6472,9.7851,-0.3789,-0.7519,0.2921
1365641.0,1.6424,0.9816,9.7636,-0.4874,-0.7636,0.2932
1365651.0,1.8507,0.6249,9.3182,-0.5023,-0.7327,0.2661
1365661.0,2.0255,0.1724,9.3541,-0.513,-0.6641,0.2171
1365671.0,2.2577,0.1532,9.1889,-0.4417,-0.5821,0.1554
1365681.0,2.3032,0.3543,9.3972,-0.3794,-0.5066,0.0883
1365691.0,2.1691,0.8882,9.3254,-0.2783,-0.4464,0.0474
1365701.0,2.1763,1.1492,9.1435,-0.2107,-0.4108,0.049
1365711.0,2.1045,1.1349,8.7388,-0.2208,-0.4001,0.067
1365721.0,2.3463,0.905,8.2983,-0.3054,-0.3964,0.0772
1365731.0,2.4325,0.4525,8.1642,-0.3485,-0.299,0.0761
1365741.0,2.4397,0.2777,8.0158,-0.307,-0.1458,0.0585
1365751.0,2.3846,0.0934,8.6622,-0.2751,0.0005,0.025
1365761.0,2.2625,0.3663,8.9591,-0.1341,0.1389,-0.0011
1365771.0,1.9872,0.577,9.6343,-0.0186,0.2416,-0.0122
1365781.0,1.6664,0.8475,10.1634,0.1086,0.2772,-0.0027
1365791.0,1.7885,1.0558,10.6087,0.2214,0.274,0.0223
1365801.0,1.8244,1.0965,10.647,0.2943,0.2315,0.0537
1365811.0,1.8148,0.9744,10.8362,0.2772,0.1399,0.0713
1365821.0,1.8172,0.9002,10.6949,0.248,0.0415,0.0761
1365831.0,1.8004,0.6153,10.6638,0.2352,-0.017,0.0756
1365841.0,1.8028,0.5148,10.2927,0.281,-0.0639,0.0654
1365851.0,1.9537,0.5243,9.8904,0.331,-0.0835,0.0442
1365861.0,1.9393,0.6704,9.4547,0.3895,-0.0564,0.0229
1365871.0,1.901,0.8356,9.3063,0.439,0.0048,0.0069
1365881.0,1.8483,1.075,8.9639,0.5204,0.0851,0.0069
1365891.0,2.0063,1.1971,9.2153,0.5683,0.1969,0.0106
1365901.0,1.9321,1.2881,9.4379,0.5938,0.3012,0.0218
1365911.0,2.1356,1.0774,10.0796,0.5204,0.3374,0.0181
1365921.0,1.8196,1.0247,10.2807,0.4145,0.3001,-0.0085
1365931.0,1.8028,1.0487,10.501,0.2767,0.2112,-0.0511
1365941.0,1.8268,1.2857,10.2208,0.1788,0.1325,-0.0846
1365951.0,1.7933,1.3982,10.1634,0.0883,0.1027,-0.108
1365961.0,1.7478,1.5993,9.9527,0.0506,0.1032,-0.1144
1365971.0,1.4844,1.6041,9.9024,0.0293,0.1171,-0.1075
1365981.0,1.6496,1.4844,9.9359,0.0372,0.157,-0.0947
1365991.0,1.4054,1.6568,10.0245,0.0729,0.2325,-0.0915
1366001.0,1.4748,1.8268,10.7428,0.0814,0.249,-0.0931
1366011.0,1.6161,2.0494,10.8218,0.2102,0.2591,-0.0628
1366021.0,1.6281,2.1165,11.1235,0.2847,0.2639,-0.0325
1366031.0,1.6305,2.1883,11.4515,0.2799,0.2075,-0.0154
1366041.0,1.4581,2.217,11.5736,0.257,0.1006,-0.0021
1366051.0,1.3815,2.0949,11.0277,0.2102,-0.0293,0.0053
1366061.0,1.6113,2.1213,10.331,0.0814,-0.1362,-0.009
1366071.0,1.664,2.0925,9.8474,-0.0841,-0.1857,-0.0335
1366081.0,1.6783,2.0423,9.177,-0.1697,-0.1724,-0.0415
1366091.0,1.8196,2.0662,8.7795,-0.191,-0.0697,-0.0436
1366101.0,1.7717,2.3008,8.9064,-0.1591,0.1155,-0.0378
1366111.0,1.6783,2.5043,9.335,-0.1128,0.265,-0.0122
1366121.0,1.8435,2.4948,9.8952,-0.1059,0.3379,0.0213
1366131.0,1.7358,2.466,10.2448,-0.1325,0.3634,0.0511
1366141.0,1.6592,2.4828,10.477,-0.2288,0.3038,0.0681
1366151.0,1.4461,2.4229,10.2424,-0.3624,0.1916,0.0878
1366161.0,1.5945,1.968,9.9886,-0.4454,0.141,0.1139
1366171.0,1.8292,1.7119,9.4403,-0.4262,0.2081,0.1298
1366181.0,1.4245,1.6209,9.9527,-0.4879,0.3124,0.1064
1366191.0,1.47,1.7645,10.41,-0.5092,0.315,0.0825
1366201.0,1.4844,1.8268,10.5967,-0.4257,0.3161,0.0851
1366211.0,1.2354,1.9345,10.3932,-0.3219,0.3155,0.1101
1366221.0,1.4724,1.7023,10.5608,-0.2746,0.265,0.1383
1366231.0,1.5802,1.5682,10.0868,-0.0761,0.2778,0.1793
1366241.0,1.8794,1.0654,9.8857,0.1256,0.339,0.2176
1366251.0,2.6217,0.3496,9.4762,0.3118,0.4033,0.2304
1366261.0,0.5555,0.4405,9.2871,0.4033,0.4667,0.1857
1366271.0,2.4086,0.5124,8.4946,0.4672,0.497,0.1282
1366281.0,1.3551,1.0798,9.9958,0.4076,0.7407,0.0543
1366291.0,1.1253,1.8268,11.0684,0.3624,0.7263,0.025
1366301.0,1.0343,2.1045,11.5329,0.2921,0.522,0.0378
1366311.0,0.9697,2.308,10.999,0.2224,0.34,0.0756
1366321.0,0.9888,1.8603,11.2551,0.0979,0.2118,0.1208
1366331.0,1.0678,1.2833,10.7308,0.1006,0.1101,0.1634
1366341.0,1.2761,0.5555,10.386,0.0772,0.0064,0.1639
1366351.0,1.2139,0.0814,9.9814,0.1245,-0.0298,0.125
1366361.0,1.3288,0.0024,9.6534,0.2591,0.0059,0.0676
1366371.0,1.2881,0.3807,9.481,0.4406,0.1011,0.0059
1366381.0,1.1444,0.9409,9.6295,0.5784,0.191,-0.0452
1366391.0,1.0295,1.5299,9.8713,0.6795,0.2368,-0.0756
1366401.0,0.9409,2.1428,9.8857,0.7519,0.2714,-0.083
1366411.0,0.8978,2.6384,10.082,0.7157,0.299,-0.0724
1366421.0,0.7542,2.7318,10.4052,0.5827,0.2932,-0.0532
1366431.0,0.905,2.4924,10.6638,0.4001,0.2416,-0.0447
1366441.0,0.8595,2.071,10.9798,0.2176,0.1793,-0.0585
1366451.0,0.9026,1.8603,11.066,0.108,0.1107,-0.0937
1366461.0,0.8499,1.8172,11.0875,0.0479,0.0639,-0.1415
1366471.0,0.8236,2.0901,10.9056,0.0617,0.0383,-0.1804
1366481.0,0.7614,2.4014,11.0492,0.0724,0.0213,-0.2027
1366491.0,0.7829,2.8084,10.896,0.1277,0.0106,-0.1953
1366501.0,0.7254,2.9975,10.7332,0.1676,0.0112,-0.1618
1366511.0,0.8092,2.873,10.7404,0.1543,-0.0144,-0.1187
1366521.0,1.0271,2.6001,10.647,0.1373,-0.0495,-0.0835
1366531.0,1.166,2.3104,10.3956,0.1165,-0.0612,-0.075
1366541.0,1.2546,2.2721,10.1706,0.0569,-0.0649,-0.0915
1366551.0,1.3312,2.1093,10.0676,-0.0426,-0.0724,-0.1224
1366561.0,1.3144,2.1931,9.8162,-0.1719,-0.0883,-0.1666
1366571.0,1.2139,2.3463,9.9048,-0.3267,-0.1038,-0.2118
1366581.0,1.087,2.5139,9.7947,-0.3837,-0.0782,-0.2283
1366591.0,1.0056,2.5043,9.8665,-0.4028,-0.0282,-0.2251
1366601.0,1.0942,2.4636,10.0604,-0.3954,0.017,-0.2166
1366611.0,0.9984,2.4565,10.161,-0.3491,0.0474,-0.207
1366621.0,1.1205,2.466,10.1251,-0.3017,0.0521,-0.1932
1366631.0,1.1133,2.6001,10.0533,-0.2607,0.0729,-0.1809
1366641.0,1.0319,2.6743,10.1466,-0.248,0.0995,-0.1612
1366651.0,0.9936,2.6456,10.0676,-0.2533,0.0974,-0.1346
1366661.0,1.0606,2.6025,9.9335,-0.2852,0.091,-0.1181
1366671.0,1.0391,2.4995,10.0149,-0.3517,0.1016,-0.1101
1366681.0,0.984,2.3798,10.1801,-0.4198,0.1133,-0.1117
1366691.0,0.9505,2.2745,10.3884,-0.4667,0.1059,-0.1181
1366701.0,0.9673,2.1979,10.5321,-0.4576,0.0899,-0.1181
1366711.0,0.9337,2.1261,10.6159,-0.4124,0.0718,-0.1155
1366721.0,0.929,2.2338,10.6063,-0.339,0.0511,-0.1091
1366731.0,0.9936,2.3583,10.5153,-0.2421,0.0447,-0.0905
1366741.0,0.9625,2.399,10.4004,-0.1612,0.0383,-0.0623
1366751.0,1.0463,2.3487,10.307,-0.1096,0.0218,-0.0309
1366761.0,1.0534,2.2793,10.0628,-0.0777,0.0144,-0.0059
1366771.0,1.1372,2.1165,9.9359,-0.0601,0.0234,0.0122
1366781.0,1.1803,1.8866,9.9718,-0.0553,0.0452,0.0197
1366791.0,1.1875,1.6137,10.003,-0.0665,0.0585,0.0112
1366801.0,1.245,1.47,10.0341,-0.0745,0.0575,-0.0165
1366811.0,1.2163,1.4485,10.0365,-0.066,0.058,-0.0511
1366821.0,1.0918,1.5682,9.8569,-0.0468,0.0617,-0.0841
1366831.0,1.221,1.8531,9.7468,-0.0309,0.0761,-0.1112
1366841.0,1.2091,2.0853,9.6391,-0.0181,0.1139,-0.116
1366851.0,1.1588,2.217,9.663,-0.0458,0.1421,-0.1048
1366861.0,1.1205,2.1141,9.833,-0.0958,0.1548,-0.0899
1366871.0,1.0726,1.9249,9.9479,-0.1038,0.1703,-0.0734
1366881.0,1.1803,1.7789,9.9718,-0.0649,0.1942,-0.0665
1366891.0,1.1181,1.731,9.9934,-0.0234,0.216,-0.0686
1366901.0,1.0534,1.6831,9.9742,-0.0234,0.2059,-0.0814
1366911.0,1.0558,1.7214,9.8138,-0.0239,0.207,-0.0995
1366921.0,0.9984,1.9154,9.7947,-0.0239,0.241,-0.1197
1366931.0,0.9002,2.0997,9.8976,-0.0521,0.2708,-0.1341
1366941.0,0.8978,2.1644,10.0341,-0.0947,0.281,-0.1352
1366951.0,0.905,2.1069,10.1562,-0.1463,0.2857,-0.1314
1366961.0,0.8811,2.0255,10.343,-0.1916,0.2826,-0.1298
1366971.0,0.7997,1.8914,10.4651,-0.2166,0.274,-0.1309
1366981.0,0.8356,1.8603,10.4914,-0.2123,0.2607,-0.1368
1366991.0,0.7709,1.8507,10.5512,-0.1751,0.2677,-0.1405
1367001.0,0.7207,1.8364,10.6207,-0.1197,0.2857,-0.1415
1367011.0,0.6752,1.8196,10.7476,-0.0639,0.3028,-0.1415
1367021.0,0.5794,1.968,10.7859,-0.0048,0.3012,-0.1442
1367031.0,0.4764,2.2027,10.7691,0.0319,0.2831,-0.1474
1367041.0,0.395,2.5283,10.7835,0.0468,0.2746,-0.1378
1367051.0,0.316,2.8084,10.8338,0.0223,0.2597,-0.1128
1367061.0,0.2825,2.9185,10.999,-0.0516,0.2086,-0.0756
1367071.0,0.3687,2.8371,10.9463,-0.1501,0.1245,-0.0298
1367081.0,0.5148,2.6193,10.738,-0.2341,0.0452,0.0117
1367091.0,0.5435,2.4062,10.4555,-0.29,-0.0005,0.042
1367101.0,0.6464,2.241,10.1993,-0.3262,-0.0096,0.0601
1367111.0,0.5986,2.1284,10.3358,-0.3406,0.0261,0.0702
1367121.0,0.5076,2.2194,10.5177,-0.3022,0.0591,0.0803
1367131.0,0.407,2.3128,10.7452,-0.2395,0.0782,0.1
1367141.0,0.2945,2.3679,10.7212,-0.1708,0.0745,0.1336
1367151.0,0.3448,2.3128,10.9104,-0.1341,0.0633,0.1687
1367161.0,0.2801,2.2577,10.8649,-0.0974,0.0569,0.2027
1367171.0,0.2729,2.0758,11.0085,-0.1038,0.0431,0.2267
1367181.0,0.2322,1.9178,11.0828,-0.1235,0.0239,0.2416
1367191.0,0.0982,1.6472,11.3222,-0.1692,-0.009,0.2453
1367201.0,0.0862,1.3455,11.4634,-0.1937,-0.0564,0.2395
1367211.0,-0.0192,1.0175,11.5017,-0.1953,-0.1022,0.223
1367221.0,0.0551,0.7207,11.552,-0.182,-0.1602,0.1857
1367231.0,0.1125,0.6464,11.3677,-0.1309,-0.2017,0.1389
1367241.0,-0.0048,0.7542,11.133,-0.0676,-0.2171,0.0899
1367251.0,-0.0479,0.9912,10.9391,-0.0378,-0.2187,0.042
1367261.0,0.1006,1.233,10.7284,-0.042,-0.2182,0.0059
1367271.0,0.3448,1.2067,10.4435,-0.1229,-0.2512,-0.0197
1367281.0,0.4693,1.1229,10.1825,-0.2538,-0.298,-0.0553
1367291.0,0.6249,1.0918,9.924,-0.3384,-0.2969,-0.0968
1367301.0,0.6943,1.0056,9.742,-0.3805,-0.2485,-0.1341
1367311.0,0.8164,0.9816,9.6702,-0.3831,-0.1846,-0.1761
1367321.0,0.905,0.9912,9.6893,-0.3693,-0.1054,-0.2182
1367331.0,0.9122,1.0008,9.7827,-0.3672,-0.0612,-0.2618
1367341.0,0.9553,1.0367,9.7348,-0.3698,-0.0601,-0.3049
1367351.0,0.9313,1.1037,9.4403,-0.3719,-0.0729,-0.3432
1367361.0,0.905,1.2498,9.0644,-0.356,-0.0532,-0.3751
1367371.0,0.6847,1.6065,8.6215,-0.3092,0.0085,-0.3884
1367381.0,0.8188,1.8483,8.6383,-0.257,0.1075,-0.3799
1367391.0,0.7542,2.1141,8.746,-0.1373,0.2554,-0.3368
1367401.0,0.7781,2.2697,8.9184,-0.0314,0.3762,-0.273
1367411.0,1.0295,2.2434,9.0285,-0.0154,0.4363,-0.2081
1367421.0,0.9385,2.0949,9.2249,-0.1128,0.4592,-0.1639
1367431.0,0.984,1.8651,9.3182,-0.2565,0.4512,-0.1325
1367441.0,0.8475,1.5706,9.4715,-0.4198,0.4342,-0.1155
1367451.0,0.8667,1.2665,9.5768,-0.5449,0.4246,-0.1091
1367461.0,0.8978,0.9577,9.7061,-0.5869,0.4454,-0.1133
1367471.0,0.838,0.7757,9.9647,-0.5587,0.4938,-0.1314
1367481.0,0.7781,0.7015,10.5105,-0.439,0.5805,-0.1527
1367491.0,0.7087,0.9529,10.9128,-0.2884,0.6417,-0.1756
1367501.0,0.5938,1.1636,11.4084,-0.2416,0.5997,-0.1937
1367511.0,0.6249,1.3934,11.5041,-0.2315,0.4901,-0.1921
1367521.0,0.6249,1.4317,11.552,-0.2645,0.3735,-0.1767
1367531.0,0.6991,1.3982,11.4012,-0.2959,0.2618,-0.1506
1367541.0,0.8068,1.2977,11.3078,-0.3044,0.1676,-0.1288
1367551.0,0.9146,1.166,10.9726,-0.2671,0.1101,-0.116
1367561.0,0.9122,1.1492,10.6446,-0.2038,0.0947,-0.1059
1367571.0,0.8571,0.9816,10.5369,-0.1586,0.1123,-0.1006
1367581.0,0.8092,0.8667,10.5728,-0.1086,0.1612,-0.107
1367591.0,0.644,0.7973,10.9798,-0.0724,0.1894,-0.1213
1367601.0,0.6249,0.8619,11.3533,0.0208,0.1697,-0.1314
1367611.0,1.0582,0.9864,11.1977,0.1426,0.0862,-0.1362
1367621.0,1.0032,1.0678,10.9487,0.2224,-0.0037,-0.1405
1367631.0,0.6416,1.4317,10.0149,0.3549,0.0,-0.124
1367641.0,1.5203,1.3551,10.058,0.2597,-0.0639,-0.1543
1367651.0,1.1851,2.0279,9.2967,0.2943,0.0106,-0.1708
1367661.0,0.407,2.3056,9.2368,0.2395,0.1628,-0.1346
1367671.0,0.577,2.0853,9.6151,0.0346,0.1692,-0.0974
1367681.0,0.5986,1.9034,10.173,-0.1277,0.1655,-0.0846
1367691.0,0.5339,1.8004,10.4363,-0.1815,0.1703,-0.0697
1367701.0,0.2993,1.5514,11.0085,-0.2081,0.149,-0.0564
1367711.0,0.3448,1.4653,11.2144,-0.1389,0.0905,-0.0442
1367721.0,0.2658,1.3647,11.4682,0.0149,0.0686,-0.0287
1367731.0,0.2227,1.4868,11.2911,0.1985,0.0261,-0.0133
1367741.0,0.2753,1.5586,11.1761,0.2889,-0.0708,-0.0043
1367751.0,0.3208,1.7166,10.6638,0.3528,-0.141,0.0053
1367761.0,0.3711,1.8268,10.2855,0.3597,-0.1543,0.0133
1367771.0,0.4118,1.889,9.9335,0.265,-0.1767,0.0096
1367781.0,0.3065,1.9273,9.7755,0.1229,-0.1804,0.0059
1367791.0,0.2562,1.8842,9.7755,0.0021,-0.1426,0.008
1367801.0,0.1772,1.7597,10.003,-0.0931,-0.0947,0.0064
1367811.0,0.2274,1.6783,10.3214,-0.1634,-0.074,0.0011
1367821.0,0.0742,1.6664,10.8218,-0.2017,-0.0772,-0.0037
1367831.0,-0.0192,1.8196,10.8218,-0.182,-0.108,0.0053
1367841.0,0.0814,1.7909,10.8338,-0.1894,-0.1681,0.0261
1367851.0,0.1676,1.7909,10.4315,-0.1958,-0.2357,0.0516
1367861.0,0.2322,1.6664,10.0437,-0.2384,-0.2623,0.075
1367871.0,0.3615,1.5131,9.7779,-0.2671,-0.2309,0.0947
1367881.0,0.3376,1.3503,9.9958,-0.2565,-0.1511,0.1112
1367891.0,0.261,1.3288,10.1251,-0.1628,-0.0686,0.1288
1367901.0,0.4836,1.2713,10.2472,-0.0378,-0.0287,0.1506
1367911.0,0.6297,1.2234,9.9575,0.0931,-0.0027,0.1729
1367921.0,0.6608,1.1803,9.7947,0.1277,0.0074,0.1767
1367931.0,0.589,1.2713,9.6175,0.1256,0.0271,0.1751
1367941.0,0.5794,1.2809,9.6558,0.083,0.0458,0.1719
1367951.0,0.5387,1.3336,9.6223,0.0431,0.0617,0.1713
1367961.0,0.51,1.2282,9.6582,0.0053,0.083,0.1761
1367971.0,0.6033,1.0415,9.6103,-0.0309,0.1027,0.1772
1367981.0,0.7039,0.7901,9.5577,-0.0686,0.1272,0.165
1367991.0,0.7398,0.6752,9.5241,-0.1011,0.149,0.1325
1368001.0,0.7997,0.7015,9.6678,-0.1192,0.19,0.0846
1368011.0,0.7446,0.9313,9.7516,-0.0958,0.2464,0.0442
1368021.0,0.5555,1.1013,9.8402,-0.0835,0.2905,0.0149
1368031.0,0.4669,1.2378,9.9359,-0.0968,0.3166,0.0021
1368041.0,0.5148,1.2019,10.1921,-0.1298,0.3299,-0.0016
1368051.0,0.4501,1.1133,10.4004,-0.1676,0.3177,-0.0048
1368061.0,0.3328,1.0463,10.5417,-0.1815,0.29,-0.0149
1368071.0,0.3352,0.9505,10.6111,-0.1527,0.2708,-0.0234
1368081.0,0.3543,0.9074,10.7021,-0.0947,0.2639,-0.0367
1368091.0,0.2993,0.972,10.6997,-0.0122,0.265,-0.049
1368101.0,0.2346,1.1708,10.7093,0.0537,0.265,-0.0628
1368111.0,0.2155,1.3815,10.7117,0.0841,0.2506,-0.0676
1368121.0,0.2083,1.4605,10.7356,0.0649,0.2112,-0.0633
1368131.0,0.2083,1.4581,10.7021,0.0426,0.1703,-0.0521
1368141.0,0.2203,1.3336,10.6255,0.0474,0.1495,-0.0383
1368151.0,0.2346,1.1372,10.7141,0.0819,0.1442,-0.0255
1368161.0,0.34,0.9409,10.659,0.1522,0.1383,-0.0245
1368171.0,0.431,0.9098,10.5991,0.2363,0.125,-0.0436
1368181.0,0.5483,1.1516,10.2424,0.315,0.1144,-0.0761
1368191.0,0.5674,1.5227,9.9072,0.3288,0.1139,-0.108
1368201.0,0.486,1.8723,9.6558,0.2639,0.1213,-0.125
1368211.0,0.4405,2.0518,9.5217,0.1426,0.1341,-0.124
1368221.0,0.4238,1.9872,9.4762,0.0117,0.1548,-0.1181
1368231.0,0.4645,1.9201,9.5361,-0.0835,0.1942,-0.1165
1368241.0,0.4501,1.8603,9.7516,-0.1203,0.2543,-0.1165
1368251.0,0.3567,1.8316,9.9862,-0.124,0.3044,-0.1112
1368261.0,0.3783,1.8124,10.331,-0.0926,0.3241,-0.1016
1368271.0,0.3352,1.8818,10.4603,-0.0208,0.3358,-0.0899
1368281.0,0.2442,1.9872,10.5369,0.0516,0.3374,-0.0692
1368291.0,0.3112,2.0063,10.6039,0.0772,0.3241,-0.049
1368301.0,0.2514,2.059,10.5824,0.058,0.2889,-0.0372
1368311.0,0.182,2.0925,10.6111,0.0048,0.2512,-0.0293
1368321.0,0.1676,2.1069,10.5393,-0.0293,0.2187,-0.0176
1368331.0,0.1173,2.0423,10.489,-0.0559,0.2006,-0.0032
1368341.0,0.0479,1.9944,10.4339,-0.0559,0.1985,0.0117
1368351.0,0.0048,1.9249,10.4674,-0.0341,0.2134,0.0234
1368361.0,0.0503,1.9896,10.4794,-0.0016,0.2251,0.0319
1368371.0,0.0455,2.0949,10.5297,0.0005,0.2214,0.0404
1368381.0,-0.0287,2.2314,10.5536,-0.0027,0.2102,0.0548
1368391.0,-0.0838,2.1524,10.5441,-0.008,0.2112,0.0803
1368401.0,-0.0527,2.0063,10.5465,0.0,0.2182,0.1059
1368411.0,-0.0263,1.7741,10.6542,0.0021,0.2144,0.1171
1368421.0,-0.0239,1.6328,10.6087,0.0106,0.2043,0.1165
1368431.0,-0.1245,1.5874,10.6566,0.0181,0.2001,0.1027
1368441.0,-0.1101,1.5299,10.6662,0.0192,0.1905,0.0841
1368451.0,-0.1077,1.5323,10.671,0.0112,0.1815,0.0612
1368461.0,-0.2203,1.6352,10.6398,0.0,0.1666,0.0383
1368471.0,-0.2227,1.6759,10.5991,-0.0239,0.1447,0.0192
1368481.0,-0.182,1.8459,10.58,-0.0271,0.1341,0.0133
1368491.0,-0.1053,1.968,10.4291,-0.042,0.1155,0.017
1368501.0,0.0096,2.0327,10.3262,-0.0793,0.091,0.0388
1368511.0,0.2203,1.9154,10.1059,-0.1155,0.0878,0.0756
1368521.0,0.3304,1.7023,9.9742,-0.1511,0.108,0.1181
1368531.0,0.51,1.3647,9.9623,-0.1783,0.1383,0.1564
1368541.0,0.6632,0.917,9.9718,-0.1767,0.1852,0.182
1368551.0,0.8595,0.5124,9.9862,-0.1474,0.2363,0.1809
1368561.0,1.2665,0.2203,10.0413,-0.0841,0.299,0.1506
1368571.0,1.6161,0.1772,9.9503,0.0149,0.3943,0.1064
1368581.0,1.8028,0.3783,9.7612,0.1059,0.5257,0.0553
1368591.0,1.7262,0.6991,9.7827,0.133,0.6955,0.0117
1368601.0,1.3719,1.0247,10.2855,0.1634,0.9509,-0.0096
1368611.0,0.7877,1.324,11.6765,0.2171,1.2473,-0.0133
1368621.0,-0.0239,1.6783,13.4243,0.3044,1.4676,0.0037
1368631.0,-0.6704,1.9513,15.1601,0.3954,1.5261,0.0372
1368641.0,-1.3168,2.1213,16.4577,0.464,1.4484,0.075
1368651.0,-2.1955,2.2482,17.5615,0.5433,1.3681,0.1144
1368661.0,-3.0382,2.1955,18.9669,0.6391,1.3441,0.1421
1368671.0,-3.7996,2.2865,20.8703,0.6561,1.2707,0.1197
1368681.0,-4.4772,2.6911,22.7569,0.4895,0.9817,0.0319
1368691.0,-5.3319,3.4429,24.5358,0.1399,0.4746,-0.0883
1368701.0,-5.8251,4.379,25.6227,-0.2836,-0.2379,-0.191
1368711.0,-6.4045,5.3032,25.6036,-0.7104,-1.0924,-0.2384
1368721.0,-6.6894,5.9616,24.1766,-1.1126,-2.0066,-0.2261
1368731.0,-6.7924,6.2082,21.713,-1.4825,-2.8521,-0.1681
1368741.0,-6.7421,6.1052,18.974,-1.7709,-3.5056,-0.0835
1368751.0,-6.3686,5.7844,16.3356,-1.9257,-3.9227,0.0117
1368761.0,-5.9233,5.5186,13.8936,-1.98,-4.1723,0.1059
1368771.0,-5.4492,5.2601,11.825,-2.0055,-4.3218,0.2001
1368781.0,-5.0278,4.9656,10.1778,-1.9507,-4.3718,0.306
1368791.0,-4.4365,4.47,8.7005,-1.7767,-4.3271,0.4401
1368801.0,-3.7254,3.6871,7.5298,-1.5016,-4.1941,0.589
1368811.0,-2.8443,2.8898,6.3207,-1.2249,-4.0398,0.7072
1368821.0,-2.0494,2.162,5.3606,-1.0578,-3.9046,0.7641
1368831.0,-1.5347,1.6472,4.4388,-0.9865,-3.7791,0.7732
1368841.0,-0.9601,1.1492,4.1061,-0.9775,-3.646,0.7466
1368851.0,-0.4932,0.8499,3.7158,-0.9477,-3.5306,0.704
1368861.0,-0.0383,0.6129,3.4022,-0.9227,-3.4752,0.6545
1368871.0,0.4525,0.7661,2.2075,-0.8769,-3.4598,0.6173
1368881.0,1.0558,0.7207,0.7111,-0.9653,-3.4561,0.5976
1368891.0,1.6496,0.3639,-0.6512,-1.119,-3.405,0.6045
1368901.0,2.4157,-0.34,-1.4653,-1.1057,-3.1969,0.6364
1368911.0,3.0478,-1.2139,-2.1668,-0.7769,-2.8574,0.6864
1368921.0,3.7589,-2.047,-2.8563,-0.2075,-2.444,0.7173
1368931.0,4.8123,-2.739,-3.6895,0.48,-2.0183,0.7098
1368941.0,5.126,-2.6815,-5.3558,1.1015,-1.5511,0.6667
1368951.0,5.4277,-2.5594,-6.7636,1.3351,-1.1776,0.5954
1368961.0,5.5809,-2.2889,-8.904,1.2675,-0.9147,0.5209
1368971.0,5.4851,-2.4493,-11.4682,1.0302,-0.6731,0.4571
1368981.0,5.7269,-2.9784,-13.9127,1.0009,-0.1979,0.3927
1368991.0,5.6048,-3.2034,-16.089,1.4617,0.6859,0.3198
1369001.0,5.0661,-2.5498,-18.6341,2.0885,1.7054,0.2208
1369011.0,3.7709,-1.3599,-20.1735,2.3509,2.6419,0.0995
1369021.0,2.0949,0.2873,-21.2629,2.3429,3.5652,0.0245
1369031.0,-0.0718,1.8914,-22.3235,2.1045,4.4261,0.0325
1369041.0,-2.8587,2.1404,-22.5965,1.69,5.3291,0.1277
1369051.0,-5.8155,0.9816,-21.737,1.3127,6.4609,0.2772
1369061.0,-9.809,-1.3503,-16.453,1.0174,7.7385,0.3421
1369071.0,-13.5153,-2.4134,-10.9319,1.1653,8.8235,0.2506
1369081.0,-16.9414,-3.4596,-2.7773,1.5873,9.7371,0.0202
1369091.0,-20.4632,-2.806,5.43,2.6744,10.5576,-0.3033
1369101.0,-21.9285,-1.7573,14.2144,3.9552,10.911,-0.7205
1369111.0,-26.5062,2.7725,20.583,5.0652,10.7322,-1.2313
1369121.0,-23.9899,7.3933,24.8662,5.2743,9.835,-1.7017
1369131.0,-24.44,12.6246,29.5612,4.5826,8.8645,-2.0486
1369141.0,-24.4903,15.4929,34.3185,3.3193,7.6209,-2.079
1369151.0,-23.0514,15.1984,38.3,2.0124,6.1927,-1.8656
1369161.0,-22.0195,14.0659,40.2705,1.002,4.6512,-1.6251
1369171.0,-20.5375,13.0436,40.2082,0.373,3.065,-1.3989
1369181.0,-18.6508,12.8664,37.3855,0.2682,1.6565,-1.1701
1369191.0,-16.8528,12.955,33.2195,0.3922,0.5869,-0.919
1369201.0,-15.2702,12.7372,29.0273,0.5662,-0.0793,-0.6407
1369211.0,-13.6015,11.9255,26.0226,0.6657,-0.4347,-0.3688
1369221.0,-12.651,10.7548,24.2174,0.6944,-0.621,-0.1245
1369231.0,-11.6646,8.9759,23.4297,0.6593,-0.796,0.0766
1369241.0,-10.7093,7.3598,22.6611,0.6008,-1.0084,0.1873
1369251.0,-10.07,6.1866,22.2661,0.3906,-1.2893,0.1751
1369261.0,-9.8521,5.5737,21.7394,-0.0229,-1.7459,0.0575
1369271.0,-9.8234,5.2625,20.6667,-0.5364,-2.3227,-0.1107
1369281.0,-9.3134,5.2672,18.7849,-1.0248,-2.9096,-0.2943
1369291.0,-8.9711,5.6383,16.8648,-1.467,-3.3566,-0.4715
1369301.0,-9.0118,6.1699,15.05,-1.8331,-3.6705,-0.5896
1369311.0,-8.9232,6.1244,13.8888,-2.0077,-3.8397,-0.6061
1369321.0,-8.7029,5.9376,12.5935,-1.9124,-3.8908,-0.5454
1369331.0,-8.4204,5.7126,11.497,-1.715,-3.8802,-0.4624
1369341.0,-7.9392,5.2625,10.568,-1.4979,-3.82,-0.3799
1369351.0,-7.1515,4.6759,9.8833,-1.3585,-3.7647,-0.3315
1369361.0,-6.1938,4.1013,9.2895,-1.3862,-3.7737,-0.3496
1369371.0,-5.4684,3.6105,8.8322,-1.6176,-3.8674,-0.4337
1369381.0,-5.2122,3.2561,8.6024,-1.9656,-4.0148,-0.5608
1369391.0,-5.2768,3.3112,8.5712,-2.212,-4.1595,-0.6928
1369401.0,-5.047,3.4309,8.3941,-2.2306,-4.2862,-0.7652
1369411.0,-4.6855,3.6129,7.3813,-2.088,-4.3947,-0.771
1369421.0,-4.0055,3.7517,5.9975,-2.0385,-4.541,-0.7588
1369431.0,-3.3064,3.9528,4.2904,-2.1205,-4.6645,-0.7396
1369441.0,-3.0263,4.051,2.976,-2.2838,-4.7017,-0.7029
1369451.0,-2.411,3.7469,2.0399,-2.3876,-4.6555,-0.6263
1369461.0,-1.5897,3.225,1.2115,-2.2945,-4.5144,-0.5199
1369471.0,-0.8356,2.7605,0.2035,-2.0045,-4.2883,-0.4017
1369481.0,0.0622,2.375,-0.814,-1.608,-3.9749,-0.2852
1369491.0,1.1612,2.0279,-1.8723,-1.1877,-3.5731,-0.166
1369501.0,2.1955,1.6137,-2.8826,-0.8748,-3.1389,-0.0612
1369511.0,3.1771,1.0846,-3.5291,-0.7317,-2.6936,0.0074
1369521.0,3.632,0.4094,-3.4117,-0.6556,-2.1588,0.041
1369531.0,4.3958,-0.2083,-2.4277,-0.5502,-1.6229,0.0319
1369541.0,4.8028,-0.51,-1.3408,-0.3209,-1.144,-0.0005
1369551.0,4.8363,-0.4214,-0.7111,-0.1298,-0.8301,-0.0506
1369561.0,4.8746,-0.0862,-0.6584,-0.0559,-0.621,-0.0926
1369571.0,4.9153,0.0694,-0.5387,-0.0873,-0.4076,-0.107
1369581.0,5.0494,0.0455,-0.4812,-0.1681,-0.2043,-0.0963
1369591.0,4.8842,-0.2825,-0.1293,-0.207,0.0298,-0.0761
1369601.0,4.8195,-0.7326,0.6345,-0.116,0.3209,-0.066
1369611.0,4.9752,-1.0271,1.5706,0.1027,0.5933,-0.0825
1369621.0,4.853,-0.893,2.2122,0.357,0.7609,-0.125
1369631.0,4.7932,-0.3903,2.3248,0.5837,0.8344,-0.1644
1369641.0,4.7357,0.328,1.9058,0.7678,0.8902,-0.1687
1369651.0,4.3742,1.0702,1.0989,0.8966,0.9817,-0.1203
1369661.0,3.893,1.6089,0.1987,1.0078,1.1584,-0.0149
1369671.0,3.3591,1.5897,-0.091,1.1531,1.4867,0.1373
1369681.0,2.9353,0.893,0.1652,1.3649,1.9427,0.2921
1369691.0,2.5833,0.0168,0.8188,1.4798,2.3126,0.3656
1369701.0,2.2984,-0.498,1.0223,1.4223,2.5063,0.3278
1369711.0,1.9369,-0.6512,0.4836,1.1792,2.6185,0.2182
1369721.0,1.3264,-0.2993,-0.431,0.7939,2.8096,0.075
1369731.0,0.5914,0.8595,-1.7765,0.2198,3.0687,-0.0734
1369741.0,-0.4094,2.4852,-3.122,-0.6502,3.3092,-0.1538
1369751.0,-2.5522,3.9576,-3.292,-1.59,3.646,-0.0761
1369761.0,-5.1715,4.063,-1.075,-1.9486,4.2894,0.2538
1369771.0,-6.845,2.6408,2.1883,-1.3234,5.0795,0.7572
1369781.0,-7.9009,0.5028,4.889,-0.0021,5.733,1.2324
1369791.0,-8.5976,-1.8148,6.1196,1.5506,6.2768,1.525
1369801.0,-8.9663,-3.3495,6.675,2.8527,6.7945,1.5107
1369811.0,-10.0772,-3.4429,7.0725,3.4449,7.1138,1.1733
1369821.0,-11.8321,-1.6975,6.9911,3.3193,7.1825,0.6518
1369831.0,-15.5551,0.644,8.1163,2.8479,7.3346,0.191
1369841.0,-18.1289,0.9936,11.9088,2.7276,7.9194,-0.0192
1369851.0,-19.6396,-0.5195,18.8998,3.049,8.8081,-0.1453
1369861.0,-21.2366,-1.0582,27.847,2.991,8.9693,-0.5034
1369871.0,-21.7777,-0.7733,38.0917,2.2221,7.8572,-1.0717
1369881.0,-21.5765,0.9481,45.0661,1.6549,5.973,-1.5671
1369891.0,-21.3395,3.8523,47.7476,1.5692,3.8929,-1.8746
1369901.0,-20.9876,7.6447,45.8825,1.5155,1.7187,-1.9997
1369911.0,-20.5087,10.6111,41.3503,1.002,-0.4299,-1.9534
1369921.0,-19.405,12.0117,35.7933,0.2405,-2.2402,-1.748
1369931.0,-17.1473,11.2025,30.6793,-0.2969,-3.4305,-1.409
1369941.0,-18.7251,11.0756,24.6004,-0.4103,-4.0898,-1.0062
1369951.0,-15.3301,8.5784,20.6763,-0.5917,-4.5719,-0.6566
1369961.0,-14.1234,6.8211,16.678,-0.5646,-4.6938,-0.4315
1369971.0,-11.8944,4.4628,13.7882,-0.3491,-4.7454,-0.3092
1369981.0,-10.4339,4.1013,9.7157,-0.1336,-4.4783,-0.2911
1369991.0,-9.0118,3.5937,9.8545,-0.4635,-4.2032,-0.389
1370001.0,-8.6957,4.0941,9.8737,-0.8668,-4.0824,-0.5114
1370011.0,-8.3869,3.5147,10.5249,-1.3968,-4.2053,-0.63
1370021.0,-7.8219,3.0311,9.9886,-1.5772,-4.4485,-0.7066
1370031.0,-7.0701,2.4397,8.6215,-1.4612,-4.5671,-0.729
1370041.0,-6.2513,2.0997,7.1922,-1.2063,-4.5405,-0.7418
1370051.0,-5.2888,2.1811,5.715,-1.0073,-4.4905,-0.7668
1370061.0,-4.3622,2.5115,4.0127,-0.9248,-4.4224,-0.7944
1370071.0,-3.5003,2.9018,2.5043,-1.0036,-4.316,-0.8163
1370081.0,-2.715,3.304,1.4317,-1.1632,-4.1436,-0.8232
1370091.0,-1.9728,3.5291,1.1349,-1.2435,-3.8387,-0.7843
1370101.0,-1.1947,3.4141,1.4964,-1.1244,-3.4039,-0.6891
1370111.0,-0.7973,3.3495,1.9752,-0.9546,-3.0437,-0.5816
1370121.0,-0.5842,2.9832,2.5235,-0.8785,-2.8745,-0.481
1370131.0,-0.0503,2.4086,2.9592,-0.6949,-2.7164,-0.3719
1370141.0,0.4549,1.9321,3.2082,-0.3257,-2.4483,-0.2687
1370151.0,0.7829,1.7454,3.8882,0.0202,-2.2003,-0.1985
1370161.0,1.0199,2.0063,4.5442,0.3134,-2.0252,-0.1474
1370171.0,1.087,2.5594,4.6088,0.456,-1.9917,-0.091
1370181.0,1.3551,2.8946,4.1779,0.3874,-2.079,-0.016
1370191.0,1.6592,2.9928,3.5267,0.2437,-2.1215,0.0761
1370201.0,1.81,2.7677,2.9951,0.1336,-2.0327,0.1889
1370211.0,1.9441,1.8962,3.3591,0.1261,-1.8134,0.3139
1370221.0,2.5331,0.8643,4.1372,0.3251,-1.5107,0.4135
1370232.0,2.7366,0.4501,4.6136,0.5465,-1.2936,0.4358
1370241.0,2.7629,0.486,4.8243,0.5454,-1.2888,0.3868
1370251.0,3.0095,0.9002,4.4341,0.4486,-1.3399,0.3225
1370261.0,3.1244,1.3743,3.5626,0.3012,-1.3462,0.282
1370271.0,3.1603,1.6017,2.9042,0.0809,-1.3053,0.2666
1370281.0,3.3782,1.652,2.4062,-0.0862,-1.1824,0.2698
1370291.0,3.4453,1.7286,1.9776,-0.1751,-1.0174,0.2794
1370301.0,3.4477,1.7047,1.5443,-0.2017,-0.8471,0.3102
1370311.0,3.7182,1.5203,1.2043,-0.0793,-0.5875,0.3677
1370321.0,3.9289,1.3455,0.8356,0.1575,-0.2565,0.4358
1370331.0,3.96,1.1803,0.498,0.3629,0.0452,0.4858
1370341.0,3.96,1.142,-0.0239,0.531,0.3166,0.5215
1370351.0,3.8738,1.1253,-0.6632,0.6965,0.6332,0.5582
1370361.0,3.6129,0.9529,-1.2761,0.8955,1.061,0.5954
1370371.0,3.3184,0.5267,-1.4844,1.1041,1.5798,0.6199
1370381.0,2.8228,0.067,-1.4892,1.2292,2.0891,0.5928
1370391.0,2.3367,-0.4429,-0.9625,1.2058,2.5233,0.4933
1370401.0,2.0375,-0.7135,-0.4932,1.0775,2.8409,0.3294
1370411.0,1.5395,-0.5339,-0.6057,0.8434,3.0229,0.1288
1370421.0,0.9697,0.2753,-1.4102,0.622,3.2172,-0.0553
1370431.0,-0.0239,1.6281,-2.8371,0.4832,3.5907,-0.1522
1370441.0,-1.7933,3.1675,-3.7421,0.3714,4.1739,-0.1282
1370451.0,-4.2808,4.8411,-4.0606,0.3081,4.8986,0.033
1370461.0,-6.8714,5.5522,-3.0239,0.307,5.717,0.3544
1370471.0,-9.4954,4.4508,-0.158,0.447,6.6025,0.7881
1370481.0,-11.382,1.9585,3.7206,0.6816,7.2452,1.1882
1370491.0,-12.3277,-1.6855,7.9416,1.0488,7.5672,1.4335
1370501.0,-12.8209,-4.8076,11.4419,1.7336,7.7609,1.3904
1370511.0,-13.2687,-6.1986,14.2527,2.5749,7.8545,0.9865
1370521.0,-13.9989,-4.7118,16.2399,3.2166,7.7369,0.2889
1370531.0,-14.9829,-0.8859,17.504,3.397,7.4304,-0.4486
1370541.0,-16.7546,3.9073,18.2271,2.8989,6.9521,-0.9897
1370551.0,-19.1273,7.6998,20.1759,1.6927,6.2949,-1.2143
1370561.0,-20.1017,7.9847,24.519,0.5396,5.734,-1.0408
1370571.0,-19.8647,5.5929,29.7049,0.1442,5.3089,-0.6758
1370581.0,-19.496,3.6536,34.2084,0.2538,4.5198,-0.4768
1370591.0,-18.9621,3.5434,36.3583,0.6481,3.3167,-0.447
1370601.0,-18.0475,4.6232,35.9849,1.1595,2.0242,-0.4459
1370611.0,-16.9773,5.8323,34.0312,1.4766,0.754,-0.4284
1370621.0,-15.8113,6.9192,31.0169,1.4777,-0.4353,-0.406
1370631.0,-14.8057,7.6614,27.3897,1.1744,-1.5053,-0.3922
1370641.0,-14.1138,8.0828,23.3123,0.6614,-2.3966,-0.3943
1370651.0,-13.4698,7.9966,19.484,0.0585,-3.0118,-0.4071
1370661.0,-12.809,7.4962,16.702,-0.5071,-3.3199,-0.4353
1370671.0,-12.1075,7.0581,14.6597,-0.9956,-3.4555,-0.4927
1370681.0,-11.4515,6.6607,13.6541,-1.4335,-3.5471,-0.5688
1370691.0,-10.7619,6.4667,13.1873,-1.7294,-3.6056,-0.6321
1370701.0,-10.3406,6.3614,13.1154,-1.8576,-3.6583,-0.6619
1370711.0,-10.0724,6.426,12.797,-1.8789,-3.803,-0.646
1370721.0,-9.6367,6.4141,12.1003,-1.8305,-3.9978,-0.5859
1370731.0,-8.9759,6.2273,11.0397,-1.6974,-4.1356,-0.4746
1370741.0,-8.2121,5.7102,10.0772,-1.5543,-4.1925,-0.3395
1370751.0,-7.5441,5.0781,9.3494,-1.4686,-4.2308,-0.2214
1370761.0,-7.1802,4.3862,8.9567,-1.4314,-4.2846,-0.1352
1370771.0,-6.9647,3.9241,8.521,-1.3377,-4.349,-0.0692
1370781.0,-6.4787,3.6009,7.9823,-1.1552,-4.3952,-0.008
1370791.0,-6.201,3.3519,7.6136,-0.8993,-4.3676,0.0617
1370801.0,-5.7509,3.6176,6.6918,-0.6481,-4.3548,0.132
1370811.0,-5.2553,3.7302,5.8419,-0.6199,-4.425,0.1958
1370821.0,-4.6256,3.6823,4.6687,-0.7146,-4.4857,0.265
1370831.0,-4.1444,3.474,3.7852,-0.8908,-4.4602,0.315
1370841.0,-3.6129,3.1867,3.1651,-1.1073,-4.4293,0.3469
1370851.0,-2.873,2.6887,2.7605,-1.2638,-4.3734,0.3656
1370861.0,-2.2625,2.3774,2.0566,-1.276,-4.2585,0.3773
1370871.0,-1.7262,2.0614,1.6328,-1.21,-4.0739,0.3842
1370881.0,-0.9768,1.9489,1.2402,-1.0456,-3.8222,0.4049
1370891.0,-0.3256,1.7813,1.008,-0.861,-3.5471,0.4406
1370901.0,0.2514,1.5658,0.9074,-0.6816,-3.2634,0.4901
1370911.0,0.7925,1.2953,0.9361,-0.5199,-2.9788,0.5396
1370921.0,1.0726,0.9649,1.0511,-0.4347,-2.7643,0.5779
1370931.0,1.4078,0.5938,0.8236,-0.3906,-2.6201,0.6066
1370941.0,2.0662,0.1245,0.2873,-0.3485,-2.4759,0.6268
1370951.0,2.9425,-0.4717,-0.4405,-0.3257,-2.2769,0.6215
1370961.0,3.486,-0.9433,-1.2977,-0.3767,-2.0289,0.5699
1370971.0,4.3383,-1.1325,-1.6472,-0.4635,-1.7161,0.4683
1370981.0,4.537,-0.7398,-1.5107,-0.5002,-1.3095,0.3613
1370991.0,4.3503,-0.3304,-0.8332,-0.5209,-0.92,0.2943
1371001.0,4.2497,-0.1269,0.1915,-0.5018,-0.6263,0.2836
1371011.0,4.3981,-0.0934,0.8667,-0.4156,-0.4432,0.3193
1371021.0,4.5442,-0.3352,1.2258,-0.2586,-0.3124,0.3895
1371031.0,4.7908,-0.6847,1.0439,-0.0239,-0.1788,0.4762
1371041.0,4.8171,-1.1109,0.6656,0.2267,0.0128,0.5433
1371051.0,4.8219,-1.4365,0.2083,0.4858,0.2655,0.5811
1371061.0,4.5155,-1.7238,0.0192,0.7343,0.5944,0.5875
1371071.0,4.1611,-2.0183,0.146,0.9647,0.9488,0.572
1371081.0,3.9433,-2.4588,0.7087,1.1472,1.2771,0.5204
1371091.0,4.1946,-2.6767,0.668,1.2074,1.4516,0.4124
1371101.0,4.4077,-2.5474,-0.577,0.9488,1.4117,0.2474
1371111.0,4.6807,-2.5019,-2.6671,0.3693,1.3521,0.0607
1371121.0,4.3239,-2.6911,-4.0773,-0.2373,1.5426,-0.1016
1371131.0,3.8044,-2.636,-5.2002,-0.5779,1.9678,-0.2246
1371141.0,2.3248,-2.387,-5.5282,-0.6667,2.5105,-0.3241
1371151.0,0.7542,-1.1636,-6.1459,-0.4092,3.1107,-0.4023
1371161.0,-1.3815,0.1844,-7.3239,0.0261,3.7402,-0.4039
1371171.0,-2.8036,0.6512,-7.7788,0.7269,4.6427,-0.306
1371181.0,-5.0542,1.3982,-7.9703,1.8039,6.0219,-0.1793
1371191.0,-8.1642,1.6305,-6.0071,2.6473,7.4975,-0.1022
1371201.0,-11.7316,1.6759,-2.2146,3.0889,8.8224,-0.125
1371211.0,-15.5647,1.7406,3.3567,2.9905,9.7542,-0.2762
1371221.0,-18.1433,1.5538,10.7978,2.4983,10.1394,-0.5257
1371231.0,-20.2573,2.3104,17.3077,2.0337,9.9537,-0.7939
1371241.0,-21.294,3.6488,22.5558,1.5171,9.1534,-1.0344
1371251.0,-22.8958,5.6407,25.5892,1.3957,8.2839,-1.0972
1371261.0,-22.8239,5.636,29.4583,1.7554,7.8822,-0.9477
1371271.0,-22.7162,5.8897,34.8356,2.0971,7.5624,-0.8594
1371281.0,-23.0011,6.8426,41.4508,1.8273,6.5301,-0.903
1371291.0,-22.0219,7.4675,45.8801,1.242,4.6187,-0.919
1371301.0,-20.7889,7.841,46.0908,0.8796,2.4871,-0.8407
1371311.0,-19.4816,8.4563,42.782,0.6369,0.4826,-0.7237
1371321.0,-18.3468,8.6311,37.4262,0.2618,-1.3069,-0.5906
1371331.0,-17.0395,8.2193,31.1366,-0.141,-2.6664,-0.4406
1371341.0,-15.7634,7.6375,25.4671,-0.4411,-3.4577,-0.2948
1371351.0,-14.6214,7.0437,20.9086,-0.605,-3.8307,-0.1586
1371361.0,-13.1992,6.4548,17.0395,-0.679,-3.9797,-0.042
1371371.0,-11.7364,6.0047,14.0564,-0.7673,-3.9749,0.0325
1371381.0,-10.6374,5.782,11.9375,-0.8865,-3.8557,0.0729
1371391.0,-9.6702,5.5641,10.635,-1.0483,-3.7274,0.0984
1371401.0,-8.849,5.3534,9.5122,-1.2553,-3.6684,0.1144
1371411.0,-8.2097,5.0925,8.6814,-1.4697,-3.6455,0.1352
1371421.0,-7.6854,4.6088,8.0206,-1.5346,-3.5497,0.1878
1371431.0,-7.0485,3.6129,7.6974,-1.4165,-3.3576,0.2767
1371441.0,-6.3327,2.3056,7.8338,-1.1855,-3.1448,0.3485
1371451.0,-5.4564,1.3886,7.8626,-0.9078,-2.9878,0.3496
1371461.0,-4.9201,1.0487,7.853,-0.6981,-2.9064,0.2841
1371471.0,-4.4748,1.1181,7.6591,-0.6103,-2.9144,0.1894
1371481.0,-3.8595,1.2186,7.4531,-0.6582,-2.9937,0.0862
1371491.0,-3.3639,1.4964,6.9815,-0.7476,-3.0809,-0.0053
1371501.0,-3.0646,1.8028,6.2513,-0.8812,-3.1416,-0.0803
1371511.0,-2.8276,1.9106,5.9304,-1.0222,-3.131,-0.125
1371521.0,-2.6288,1.8435,6.1651,-1.0674,-3.0245,-0.133
1371531.0,-2.5977,1.5012,6.9504,-0.994,-2.8931,-0.1091
1371541.0,-2.4349,1.0056,7.9583,-0.812,-2.8133,-0.0708
1371551.0,-2.3104,0.8308,8.5688,-0.6071,-2.891,-0.0559
1371561.0,-2.0853,0.8811,8.5808,-0.5002,-3.1602,-0.0665
1371571.0,-1.7526,1.1851,7.5968,-0.4395,-3.4875,-0.0718
1371581.0,-1.2713,1.3862,6.0573,-0.4129,-3.7264,-0.0537
1371591.0,-0.7614,1.506,4.6424,-0.4033,-3.7956,-0.0192
1371601.0,-0.2538,1.6089,3.553,-0.3932,-3.7306,0.0261
1371611.0,0.1939,1.5874,2.7964,-0.4209,-3.6184,0.0798
1371621.0,0.5171,1.4916,2.2913,-0.4374,-3.4742,0.1447
1371631.0,0.917,1.1684,1.9704,-0.4071,-3.2858,0.2293
1371641.0,1.3671,0.6033,1.7837,-0.3219,-3.0639,0.3177
1371651.0,1.98,-0.103,1.7382,-0.2128,-2.8447,0.3858
1371661.0,2.4541,-0.6057,1.6616,-0.0665,-2.6228,0.414
1371671.0,3.1244,-0.8787,1.5107,0.0575,-2.4334,0.3991
1371681.0,3.5314,-0.9888,1.1995,0.1096,-2.2609,0.3608
1371691.0,3.7206,-1.0295,0.9098,0.1187,-2.0971,0.3209
1371701.0,3.9887,-1.2091,0.8332,0.1703,-1.8831,0.2873
1371711.0,4.3646,-1.3958,0.6129,0.3124,-1.6139,0.2639
1371721.0,4.6256,-1.6376,0.4477,0.431,-1.3415,0.2304
1371731.0,4.8267,-1.9082,0.4812,0.5326,-1.0286,0.1793
1371741.0,5.0015,-2.0973,0.8164,0.6348,-0.6657,0.1048
1371751.0,4.9799,-2.0039,1.5179,0.6486,-0.3523,-0.0106
1371761.0,4.7884,-1.5419,2.1165,0.5364,-0.1751,-0.1559
1371771.0,4.3646,-0.9122,2.5714,0.2884,-0.1266,-0.2905
1371781.0,4.2569,-0.5387,2.8802,-0.0101,-0.1655,-0.3767
1371791.0,4.4676,-0.6081,2.8228,-0.2283,-0.223,-0.415
1371801.0,4.7788,-0.9218,2.5211,-0.2097,-0.1937,-0.4257
1371811.0,4.9584,-1.1037,1.743,0.066,-0.0303,-0.4289
1371821.0,4.865,-1.1349,0.9912,0.4683,0.2533,-0.4353
1371831.0,4.719,-0.9888,0.2059,0.919,0.6183,-0.4491
1371841.0,4.2497,-0.7183,-0.4142,1.3175,1.0445,-0.4794
1371851.0,3.7397,-0.4046,-0.8954,1.5309,1.4346,-0.5374
1371861.0,3.6607,0.0287,-2.1093,1.4074,1.6559,-0.6353
1371871.0,4.2401,0.1269,-4.4149,0.8152,1.7123,-0.7588
1371881.0,3.9265,0.0766,-7.1778,-0.0357,1.9443,-0.8918
1371891.0,2.4972,0.0192,-8.7197,-0.8471,2.569,-1.0084
1371901.0,0.419,0.3184,-8.0493,-1.3047,3.4923,-1.0802
1371911.0,-2.0662,1.1851,-5.5067,-1.1398,4.5118,-1.0892
1371921.0,-4.7621,3.1819,-3.3974,-0.3374,5.4153,-1.0142
1371931.0,-6.8953,5.5809,-3.3327,0.5454,5.9389,-0.8354
1371941.0,-7.6136,6.3542,-5.6168,0.9637,6.1204,-0.5337
1371951.0,-10.8673,5.363,-7.118,1.342,6.8834,-0.2086
1371961.0,-14.7243,4.1779,-9.3781,1.8667,8.21,0.0979
1371971.0,-17.3604,-0.4549,-3.984,1.9188,9.7903,0.1979
1371981.0,-22.2254,-2.0327,2.4828,2.6616,11.6299,-0.0596
1371991.0,-26.7672,-2.6887,13.6446,2.9522,12.6994,-0.6806
1372001.0,-29.1303,-0.589,24.7752,2.9862,12.7084,-1.4324
1372011.0,-28.8525,3.1867,35.518,2.4467,11.4697,-2.1247
1372021.0,-27.8853,7.3167,43.2776,1.4936,9.2071,-2.5462
1372031.0,-26.4703,11.2863,46.651,0.745,6.7823,-2.594
1372041.0,-24.9356,13.4171,48.2049,0.1266,4.5198,-2.3296
1372051.0,-23.7098,14.6956,46.5457,-0.2496,2.3791,-1.8805
1372061.0,-22.3786,14.2766,43.043,-0.6066,0.3214,-1.3526
1372071.0,-20.9229,12.9263,37.4549,-0.6391,-1.3244,-0.7992
1372081.0,-19.3835,11.4874,31.2539,-0.3528,-2.3519,-0.3118
1372091.0,-17.7339,10.5153,25.2181,-0.0053,-2.8761,0.0654
1372101.0,-15.8329,9.3063,20.7122,0.1086,-3.0501,0.3193
1372111.0,-14.0683,8.3007,17.8081,0.0803,-2.9373,0.4459
1372121.0,-12.8257,7.7835,16.4984,-0.125,-2.7558,0.4587
1372131.0,-11.9303,7.3885,16.2542,-0.5534,-2.7553,0.4055
1372141.0,-11.1642,7.1754,16.101,-1.0493,-2.9591,0.3203
1372151.0,-10.6398,7.2449,15.3061,-1.5144,-3.2757,0.2416
1372161.0,-10.3166,7.2449,14.3963,-1.9342,-3.621,0.2027
1372171.0,-10.0652,6.9528,13.5416,-2.1865,-3.9046,0.2395
1372181.0,-9.7971,6.268,12.7419,-2.1944,-4.0829,0.3565
1372191.0,-9.4332,5.0901,11.9399,-1.972,-4.1952,0.5316
1372201.0,-8.9711,3.7828,10.9678,-1.5979,-4.2766,0.7035
1372211.0,-7.8985,2.8874,9.5936,-1.1882,-4.3325,0.8115
1372221.0,-7.1299,2.6049,8.1403,-1.0004,-4.4064,0.8391
1372231.0,-6.4236,2.4349,6.9863,-1.0509,-4.4793,0.8253
1372241.0,-5.7676,2.3367,6.2465,-1.2255,-4.5043,0.7918
1372251.0,-5.284,2.0997,5.8012,-1.5112,-4.5703,0.7375
1372261.0,-4.7812,1.6855,5.4899,-1.8055,-4.6773,0.6651
1372271.0,-4.4532,1.4317,4.9967,-1.9741,-4.7725,0.5837
1372281.0,-4.2665,1.1779,4.5274,-1.9842,-4.8183,0.5215
1372291.0,-3.8786,0.8882,4.0606,-1.8118,-4.7901,0.4933
1372301.0,-3.5027,0.759,3.4812,-1.483,-4.681,0.4959
1372311.0,-3.2633,0.7997,2.794,-1.1536,-4.5708,0.514
1372321.0,-2.8778,0.8452,2.1237,-0.911,-4.4857,0.5491
1372331.0,-2.411,0.7949,1.4245,-0.7354,-4.3899,0.6034
1372341.0,-1.9489,0.5531,0.5746,-0.6391,-4.3021,0.6635
1372351.0,-1.2929,0.1053,-0.3256,-0.6183,-4.2228,0.7008
1372361.0,-0.6153,-0.2514,-1.3479,-0.6604,-4.1276,0.6891
1372371.0,0.2705,-0.5243,-2.0758,-0.6747,-3.9435,0.6412
1372381.0,0.9409,-0.4741,-2.7916,-0.5614,-3.6482,0.5944
1372391.0,1.4245,-0.34,-3.1603,-0.3959,-3.2975,0.5736
1372401.0,2.5307,-0.4334,-3.4836,-0.1708,-2.9367,0.5981
1372411.0,3.1867,-0.735,-3.8235,0.1038,-2.5121,0.6513
1372421.0,3.8666,-1.2234,-4.1444,0.3501,-2.0651,0.6992
1372431.0,4.5897,-1.9537,-4.13,0.4683,-1.6049,0.7013
1372441.0,4.8123,-2.2841,-3.6296,0.4895,-1.144,0.6385
1372451.0,5.138,-2.5786,-2.4086,0.4454,-0.7402,0.547
1372461.0,5.1763,-2.411,-1.3001,0.4688,-0.4427,0.4555
1372471.0,5.2313,-1.9752,-0.7111,0.5491,-0.2453,0.3948
1372481.0,5.5569,-1.5514,-0.7446,0.6572,-0.0942,0.4007
1372491.0,5.5498,-1.5419,-0.8092,0.7913,0.1463,0.4683
1372501.0,5.6743,-1.9082,-0.7638,0.9589,0.4752,0.5571
1372511.0,5.7174,-2.3942,-0.486,1.0679,0.8189,0.6093
1372521.0,5.5833,-2.7126,0.0862,1.052,1.1004,0.5949
1372531.0,5.193,-2.885,1.1708,1.0036,1.3388,0.5433
1372541.0,4.4436,-2.9233,2.1093,1.0408,1.4974,0.4879
1372551.0,3.9504,-3.1244,1.8387,1.1057,1.4591,0.4342
1372561.0,4.1922,-3.6847,-0.1508,1.0115,1.242,0.3411
1372571.0,4.8914,-4.1899,-3.96,0.737,1.0546,0.1735
1372581.0,5.0159,-4.3503,-8.2121,0.3416,1.1627,-0.0809
1372591.0,4.0869,-3.5123,-11.9135,0.05,1.724,-0.389
1372601.0,1.889,-1.1732,-13.9965,0.1474,2.7782,-0.6497
1372611.0,-1.9896,1.5874,-14.2886,0.8152,4.2596,-0.7098
1372621.0,-5.2888,3.0837,-13.216,1.9241,5.9091,-0.5789
1372631.0,-8.0349,4.2545,-13.2974,2.7819,7.1596,-0.4741
1372641.0,-10.9918,4.5155,-13.4291,2.9484,8.1583,-0.4289
1372651.0,-15.7395,4.5993,-12.8712,2.7963,9.4535,-0.4129
1372661.0,-21.9141,2.9401,-8.2768,2.2705,10.845,-0.4268
1372671.0,-27.1048,0.5866,-0.0407,1.9949,12.2115,-0.5263
1372681.0,-32.0703,-0.091,10.4459,2.1987,13.3512,-0.8093
1372691.0,-34.4286,0.1963,23.7553,2.3142,13.488,-1.2281
1372701.0,-34.4837,2.8491,35.6377,2.7063,12.6441,-1.5963
1372711.0,-30.9427,6.6056,43.9887,2.9734,10.713,-1.8023
1372721.0,-29.0345,10.3789,47.4674,2.8511,8.1254,-1.7757
1372731.0,-26.0753,13.0915,46.0429,2.3264,5.3174,-1.5564
1372741.0,-24.0522,13.8074,42.5952,1.7464,3.0676,-1.1494
1372751.0,-22.3307,13.4291,37.8451,1.3111,1.4771,-0.6588
1372761.0,-20.8343,11.6047,33.5835,0.6215,0.0532,-0.249
1372771.0,-19.0626,8.9854,29.5708,0.1772,-0.977,0.0729
1372781.0,-17.334,6.3087,26.0681,0.1878,-1.4399,0.2927
1372791.0,-15.7706,4.4029,23.681,0.1969,-1.7794,0.3038
1372801.0,-14.3628,3.486,21.7154,0.0676,-2.2194,0.132
1372811.0,-13.2806,3.7397,19.5247,-0.0681,-2.6233,-0.1149
1372821.0,-12.4115,4.4125,17.6716,-0.2474,-2.9474,-0.3421
1372831.0,-11.6693,5.2553,15.9741,-0.4523,-3.2315,-0.5044
1372841.0,-11.0923,5.873,14.2886,-0.7215,-3.5077,-0.5949
1372851.0,-10.5369,6.1076,13.1801,-0.9903,-3.7306,-0.6125
1372861.0,-10.149,5.9687,12.5073,-1.0413,-3.8131,-0.5491
1372871.0,-10.1275,5.8993,11.631,-0.8764,-3.8701,-0.4177
1372881.0,-9.8833,5.4229,10.75,-0.6268,-3.9493,-0.2442
1372891.0,-8.8442,4.9656,9.1866,-0.3081,-3.9972,-0.0585
1372901.0,-7.8386,4.4173,7.7045,-0.1336,-3.9674,0.0841
1372911.0,-7.1084,4.1228,6.4093,-0.1873,-3.919,0.1602
1372921.0,-6.3111,3.7828,5.7078,-0.4273,-3.8812,0.1815
1372931.0,-5.5857,3.45,5.0613,-0.6534,-3.8222,0.174
1372941.0,-4.8914,3.1771,4.4005,-0.8157,-3.7163,0.1517
1372951.0,-4.2928,2.9233,3.9911,-0.8753,-3.5157,0.1314
1372961.0,-3.5913,2.4732,4.1061,-0.7955,-3.2086,0.1314
1372971.0,-3.0742,2.0686,4.5538,-0.6178,-2.8713,0.1352
1372981.0,-2.7964,1.7142,5.5258,-0.4592,-2.5962,0.1219
1372991.0,-2.4157,1.6951,6.4165,-0.3272,-2.4488,0.0894
1373001.0,-2.1261,2.0734,6.8666,-0.3129,-2.4578,0.0431
1373011.0,-1.8675,2.5762,6.7612,-0.4284,-2.5855,0.0165
1373021.0,-1.7717,2.9257,6.6822,-0.596,-2.7005,0.0303
1373031.0,-1.4892,3.0382,6.426,-0.6939,-2.75,0.0968
1373041.0,-1.2354,2.818,6.2417,-0.7545,-2.7829,0.1878
1373051.0,-0.8021,2.2721,6.2297,-0.7168,-2.7845,0.2911
1373061.0,-0.2251,1.6616,6.3087,-0.4943,-2.6792,0.3922
1373071.0,0.091,1.2641,6.1651,-0.2448,-2.5909,0.4677
1373081.0,0.3663,0.9577,5.8347,-0.1011,-2.5946,0.5114
1373091.0,0.7015,0.8571,5.0039,-0.0223,-2.6132,0.5364
1373101.0,1.0606,0.6464,4.209,-0.0016,-2.5595,0.5593
1373111.0,1.47,0.3567,3.4285,0.0181,-2.4211,0.5837
1373121.0,1.968,-0.0431,2.8395,0.0101,-2.2349,0.5885
1373131.0,2.6001,-0.2705,2.1045,-0.0431,-2.047,0.5598
1373141.0,2.8994,-0.3591,1.3743,-0.1735,-1.8448,0.5013
1373151.0,3.4069,-0.51,0.9912,-0.3416,-1.6102,0.4358
1373161.0,3.6224,-0.5315,0.8787,-0.4401,-1.3095,0.3767
1373171.0,3.541,-0.4764,1.1732,-0.4278,-0.9626,0.3331
1373181.0,3.7948,-0.1963,1.312,-0.3001,-0.6183,0.3054
1373191.0,3.7134,0.1365,1.2713,-0.2416,-0.3272,0.2857
1373201.0,3.4644,0.316,1.3192,-0.3336,-0.0766,0.2767
1373211.0,3.4405,0.0383,1.8866,-0.5736,0.1309,0.2661
1373221.0,3.553,-0.5387,2.5307,-0.9211,0.2075,0.2246
1373231.0,3.6081,-1.1396,3.1412,-1.2542,0.1719,0.1368
1373241.0,3.7397,-1.5706,3.3758,-1.3665,0.1431,0.0335
1373251.0,3.7302,-1.7669,3.1915,-1.1345,0.2448,-0.0484
1373261.0,3.6368,-1.8938,2.7845,-0.6486,0.4629,-0.107
1373271.0,3.5123,-1.9537,2.4349,-0.0447,0.7466,-0.1623
1373281.0,3.4093,-1.8459,1.8555,0.6071,1.0706,-0.2341
1373291.0,3.1053,-1.482,1.1971,1.193,1.4106,-0.3358
1373301.0,2.5522,-0.7853,0.5004,1.5852,1.7107,-0.4576
1373311.0,1.9609,0.0862,-0.6919,1.6692,1.9034,-0.5827
1373321.0,1.8914,0.9098,-3.2729,1.2733,1.8879,-0.6976
1373331.0,1.6807,1.1013,-6.2369,0.4422,1.9012,-0.7891
1373341.0,0.4693,1.5634,-9.1578,-0.2128,2.4179,-0.829
1373351.0,-1.9178,2.5067,-10.2328,-0.4784,3.521,-0.8024
1373361.0,-4.8866,3.5985,-8.825,-0.3565,4.8837,-0.671
1373371.0,-8.3199,4.6687,-6.0118,0.216,6.2816,-0.4092
1373381.0,-12.062,5.4061,-2.5857,0.9035,7.3793,-0.0756
1373391.0,-14.8177,4.7597,0.4214,1.5458,8.194,0.3299
1373401.0,-17.0228,1.7621,4.7238,1.9784,8.8549,0.6907
1373411.0,-18.6796,-2.2051,10.6446,2.4855,9.4423,0.7827
1373421.0,-19.484,-4.8123,17.9158,3.3864,9.9117,0.4374
1373431.0,-19.6133,-3.4046,24.294,4.4862,10.0191,-0.307
1373441.0,-19.0459,1.6065,28.9722,4.7656,9.4461,-1.1988
1373451.0,-24.701,8.6742,33.4446,3.3528,7.9748,-1.9076
1373461.0,-22.0793,10.568,39.4157,1.0972,5.8149,-2.1811
1373471.0,-21.792,10.1347,44.0964,-0.4257,3.8961,-2.0869
1373481.0,-21.3132,8.3414,46.1363,-1.0844,1.7123,-1.872
1373491.0,-20.2286,8.2361,42.4133,-0.8934,-0.6024,-1.6623
1373501.0,-19.3739,8.7676,35.8987,-0.2453,-2.3828,-1.4021
1373511.0,-17.686,9.2632,27.744,0.4693,-3.5231,-1.0972
1373521.0,-15.8329,9.5816,20.5207,0.8051,-4.0967,-0.8269
1373531.0,-14.0348,9.2967,15.615,0.7615,-4.2303,-0.6008
1373541.0,-12.4163,8.7915,12.3206,0.6497,-4.0403,-0.4065
1373551.0,-11.0684,7.9583,10.6398,0.489,-3.7125,-0.249
1373561.0,-10.1011,7.0461,10.1035,0.3831,-3.3656,-0.1341
1373571.0,-9.0261,6.4955,10.0652,0.3342,-3.0953,-0.0702
1373581.0,-8.4659,6.2848,10.1634,0.3214,-2.9069,-0.025
1373591.0,-7.9583,6.2034,10.0389,0.2565,-2.8399,0.0271
1373601.0,-7.1826,5.9568,9.8138,0.0952,-2.8718,0.0782
1373611.0,-6.6607,5.8203,9.3039,-0.1501,-2.9516,0.1139
1373621.0,-6.2201,5.3175,9.1195,-0.4581,-3.0112,0.1485
1373631.0,-5.4779,4.4245,9.323,-0.6604,-2.9915,0.1884
1373641.0,-4.8435,3.4261,9.8521,-0.787,-2.9974,0.1894
1373651.0,-4.3551,2.6743,10.3334,-0.8705,-3.14,0.1373
1373661.0,-4.0462,2.2625,10.1754,-0.8588,-3.3752,0.0436
1373671.0,-3.4357,2.387,9.2153,-0.7572,-3.6205,-0.074
1373681.0,-2.9377,2.9377,7.8961,-0.6439,-3.7514,-0.1889
1373691.0,-2.6767,3.699,6.8809,-0.622,-3.7658,-0.2756
1373701.0,-2.4062,4.2737,6.4045,-0.7136,-3.7333,-0.3198
1373711.0,-2.4062,4.2737,6.4045,-0.7136,-3.7333,-0.3198
1373721.0,-2.0351,4.616,6.2082,-0.8328,-3.7067,-0.3161
1373731.0,-1.6161,4.7621,5.928,-0.9881,-3.7429,-0.2778
1373741.0,-1.0774,4.4005,6.0837,-1.1291,-3.7732,-0.2171
1373751.0,-0.6081,3.8738,6.2968,-1.1057,-3.7243,-0.1421
1373761.0,-0.4549,3.3854,7.0246,-1.0302,-3.7088,-0.1016
1373771.0,-0.5219,3.5793,7.3454,-0.9631,-3.8658,-0.0984
1373781.0,-0.7566,3.802,7.8003,-0.903,-4.1361,-0.0899
1373791.0,-1.0343,4.391,6.9192,-0.6987,-4.4522,-0.0298
1373801.0,-1.2905,4.616,5.6144,-0.5853,-4.8215,0.0692
1373811.0,-1.1684,4.8339,3.4213,-0.4858,-5.178,0.1963
1373821.0,-0.9433,4.7812,1.1372,-0.315,-5.3014,0.3613
1373831.0,-0.4166,4.4652,-0.7398,0.0218,-5.1386,0.5779
1373841.0,0.3208,3.8235,-2.0949,0.4922,-4.7661,0.8253
1373851.0,1.3551,2.9975,-3.2657,1.0339,-4.2878,1.0674
1373861.0,2.0542,2.1069,-4.0007,1.5798,-3.7088,1.2803
1373871.0,2.5019,1.3168,-4.3814,2.0529,-3.0932,1.4372
1373881.0,3.7086,0.6536,-4.7573,2.2721,-2.5919,1.5101
1373891.0,4.8004,0.1556,-5.0087,2.2907,-2.1338,1.508
1373901.0,5.6168,-0.1317,-5.5641,2.1428,-1.7299,1.4601
1373911.0,6.4308,-0.4645,-6.5817,1.8842,-1.3521,1.3883
1373921.0,7.1012,-0.6919,-8.1307,1.6171,-0.8338,1.2962
1373931.0,7.2688,-0.7207,-9.6774,1.2723,-0.1777,1.1813
1373941.0,6.8929,-0.9888,-9.9623,0.9003,0.6529,1.0573
1373951.0,5.8059,-1.1899,-9.0501,0.7322,1.6432,0.9392
1373961.0,4.7142,-1.5538,-7.2257,0.7173,2.5696,0.812
1373971.0,3.79,-2.0351,-4.9704,0.7998,3.2783,0.6412
1373981.0,3.2202,-2.3535,-3.2968,0.9514,3.7147,0.4012
1373991.0,2.4517,-2.2027,-2.387,1.1047,3.9446,0.083
1374001.0,1.5969,-1.0965,-2.818,1.2207,4.0435,-0.2772
1374011.0,0.5531,0.6823,-4.3311,1.2074,4.134,-0.5928
1374021.0,-0.917,2.9425,-6.8307,1.086,4.3681,-0.7822
1374031.0,-3.0813,5.3654,-9.6606,0.8721,4.8119,-0.8051
1374041.0,-7.0964,7.7548,-11.7675,0.8285,5.6675,-0.6151
1374051.0,-11.6646,9.3829,-12.3541,1.3207,7.1175,-0.1575
1374061.0,-15.8137,8.442,-10.5129,2.3881,9.1444,0.4746
1374071.0,-21.3491,6.347,-7.252,3.3465,11.0488,0.8668
1374081.0,-25.29,3.7781,-2.9497,3.5843,12.5861,0.745
1374091.0,-30.3441,2.9377,6.7086,2.7095,13.8551,0.0649
1374101.0,-35.2139,3.8451,21.6532,1.0142,14.0653,-0.7923
1374111.0,-35.0751,5.1308,36.2578,-0.3187,13.0719,-1.3462
1374121.0,-33.3369,7.3119,46.6582,-1.0568,11.1781,-1.5947
1374131.0,-30.1598,10.7571,52.8305,-1.6368,8.5399,-1.6432
1374141.0,-28.4982,14.1689,54.7865,-1.7682,5.8868,-1.3319
1374151.0,-25.7688,14.4706,54.3508,-1.5234,3.4587,-0.6428
1374161.0,-22.8072,12.6342,50.3812,-1.1861,1.0578,0.1282
1374171.0,-20.1424,9.4619,43.4524,-1.1132,-1.4431,0.6992
1374181.0,-17.4585,6.6726,33.4183,-0.763,-3.2491,1.0988
1374191.0,-15.1673,4.4772,23.7553,-0.3054,-4.0611,1.3106
1374201.0,-12.6414,2.9137,15.9214,-0.0867,-4.2308,1.3266
1374211.0,-10.3549,1.8938,10.2041,-0.0926,-3.9078,1.1935
1374221.0,-8.5665,1.2258,7.3119,-0.3597,-3.3502,0.9402
1374231.0,-6.8354,0.893,6.1507,-0.6763,-2.7569,0.6263
1374241.0,-5.5545,0.6608,5.928,-0.9498,-2.2264,0.2948
1374251.0,-4.8746,0.6967,5.5905,-1.2733,-1.898,-0.058
1374261.0,-4.4197,0.9553,5.7868,-1.7033,-1.7129,-0.4278
1374271.0,-4.6352,1.5347,6.5027,-2.0226,-1.5064,-0.7444
1374281.0,-5.2241,2.3846,7.6591,-2.0832,-1.2893,-0.9594
1374291.0,-5.5162,3.0287,9.2249,-1.8549,-1.1174,-1.0397
1374301.0,-5.7174,3.6464,10.1059,-1.4191,-1.0749,-1.0014
1374311.0,-5.545,3.9576,10.4507,-0.9951,-1.1808,-0.9014
1374321.0,-5.2433,4.3383,9.9288,-0.663,-1.3484,-0.7758
1374331.0,-4.6017,4.379,9.7875,-0.4699,-1.4601,-0.6279
1374341.0,-4.2114,4.4532,9.4188,-0.4071,-1.5559,-0.4757
1374351.0,-4.1204,4.0701,9.6007,-0.6188,-1.7416,-0.3555
1374361.0,-3.9624,3.6583,9.5409,-0.9525,-2.0087,-0.2852
1374371.0,-4.0199,3.2034,9.9718,-1.3047,-2.2929,-0.2543
1374381.0,-4.2258,2.9616,10.5034,-1.4255,-2.5302,-0.2155
1374391.0,-4.4891,2.9066,10.9487,-1.2308,-2.6994,-0.1399
1374401.0,-4.5945,2.9113,11.0277,-0.8546,-2.883,-0.025
1374411.0,-4.6878,2.9856,10.4627,-0.5183,-3.1639,0.1059
1374421.0,-4.7501,2.9113,9.3948,-0.3943,-3.5354,0.223
1374431.0,-4.5705,2.6456,8.1283,-0.4023,-3.8536,0.3209
1374441.0,-4.4652,2.3343,6.857,-0.5119,-4.085,0.3863
1374451.0,-4.1827,1.7909,6.1986,-0.6843,-4.2596,0.4129
1374461.0,-3.4812,1.4126,5.2672,-0.7396,-4.3399,0.4124
1374471.0,-2.8683,1.1947,4.1946,-0.8014,-4.3835,0.3799
1374481.0,-2.3104,1.1756,2.9784,-0.8945,-4.4006,0.3347
1374491.0,-1.5419,1.2282,1.5299,-1.0137,-4.3447,0.298
1374501.0,-0.6656,1.1923,0.3663,-1.201,-4.1957,0.2634
1374511.0,0.0622,1.1013,-0.6608,-1.4197,-3.9834,0.2341
1374521.0,0.7733,0.8787,-1.3671,-1.6554,-3.729,0.207
1374531.0,1.4796,0.6512,-1.8699,-1.8369,-3.4374,0.1825
1374541.0,2.1021,0.4142,-1.9178,-1.9167,-3.0964,0.1676
1374551.0,2.5115,0.3208,-1.8052,-1.7932,-2.6967,0.1815
1374561.0,2.7031,0.2394,-1.4533,-1.4889,-2.2769,0.2347
1374571.0,3.1484,0.0766,-1.1708,-1.0786,-1.906,0.3155
1374581.0,3.8786,-0.2346,-0.9984,-0.6236,-1.6118,0.4033
1374591.0,4.6615,-0.4118,-1.6616,-0.1926,-1.3909,0.473
1374601.0,5.0853,-0.6656,-2.4014,0.1793,-1.0972,0.5364
1374611.0,5.4684,-1.0367,-3.0909,0.48,-0.7455,0.5922
1374621.0,5.7796,-1.6209,-3.6823,0.6923,-0.3491,0.6252
1374631.0,6.0023,-2.3224,-3.9409,0.887,0.1075,0.6103
1374641.0,5.9687,-2.8802,-3.9169,1.1403,0.6385,0.5353
1374651.0,5.7126,-3.3208,-3.4716,1.5027,1.2308,0.4097
1374661.0,5.4468,-3.541,-3.1436,1.9294,1.7682,0.2341
1374671.0,4.7501,-3.5243,-3.0023,2.3599,2.2657,0.0043
1374681.0,3.7445,-3.0047,-3.1268,2.8037,2.7771,-0.265
1374691.0,2.5666,-2.1189,-3.4141,3.1155,3.2406,-0.547
1374701.0,1.221,-1.154,-3.699,3.2544,3.6514,-0.8141
1374711.0,-0.182,-0.2538,-4.2689,3.314,4.0739,-1.0195
1374721.0,-1.7645,0.0335,-4.8602,3.3725,4.6134,-1.144
1374731.0,-3.7637,0.0072,-5.6551,3.4891,5.3302,-1.26
1374741.0,-5.8395,0.0024,-6.2728,3.5577,6.1379,-1.4516
1374751.0,-9.2536,-0.1891,-5.6527,3.6248,7.166,-1.7294
1374761.0,-12.8377,0.3663,-3.8571,3.7115,8.2728,-2.1231
1374771.0,-16.5056,0.6081,0.8332,3.595,9.2928,-2.5925
1374781.0,-19.6468,1.506,7.1515,3.3853,10.0676,-3.1267
1374791.0,-22.5893,3.2346,16.0555,2.7244,10.2251,-3.7445
1374801.0,-24.5142,7.1778,26.0226,2.0593,9.7967,-4.2654
1374811.0,-26.2596,13.0484,35.6616,1.6091,8.8054,-4.4841
1374821.0,-24.689,18.0068,42.3678,1.2329,7.2032,-4.2372
1374831.0,-25.0194,21.2414,46.9096,0.5672,5.1524,-3.6801
1374841.0,-23.7505,23.4704,47.9247,-0.1655,2.7425,-2.9335
1374851.0,-21.7346,22.5773,46.5265,-0.8732,0.2006,-2.0178
1374861.0,-20.2454,19.9485,40.4022,-1.0653,-2.0678,-1.0711
1374871.0,-18.591,16.2638,31.9817,-0.9908,-3.7557,-0.2815
1374881.0,-16.6014,12.536,23.3961,-0.7987,-4.6751,0.2767
1374891.0,-14.188,9.3925,16.0675,-0.7822,-4.9997,0.5481
1374901.0,-11.6286,6.9743,11.1426,-0.97,-4.8566,0.5624
1374911.0,-9.6606,5.4588,8.4851,-1.1749,-4.349,0.4172
1374921.0,-8.5832,4.6112,7.8051,-1.3542,-3.753,0.2006
1374931.0,-7.7357,4.0965,8.3414,-1.4681,-3.2619,-0.0229
1374941.0,-6.9887,3.9265,9.2105,-1.4351,-2.8622,-0.2198
1374951.0,-6.6702,4.4269,10.0652,-1.4442,-2.6515,-0.4071
1374961.0,-6.4236,4.8722,11.3222,-1.5905,-2.6584,-0.5422
1374971.0,-6.2058,5.1882,12.0787,-1.6969,-2.8032,-0.5944
1374981.0,-5.9759,5.0566,12.7252,-1.7352,-3.0405,-0.5768
1374991.0,-5.7892,4.9321,12.6198,-1.5969,-3.3167,-0.5044
1375001.0,-5.8921,4.6328,12.3684,-1.293,-3.5444,-0.3719
1375011.0,-5.7557,3.9528,11.8585,-0.7599,-3.6599,-0.1761
1375021.0,-5.4061,3.1963,10.7859,-0.1235,-3.7306,0.0234
1375031.0,-4.561,2.4972,9.3661,0.3783,-3.8413,0.1469
1375041.0,-3.5841,2.3846,7.2999,0.6518,-3.9344,0.174
1375051.0,-2.8802,2.648,5.4779,0.5832,-3.9637,0.1213
1375061.0,-2.3128,3.0382,4.4053,0.2698,-3.9259,0.0479
1375071.0,-1.7693,3.1699,3.9887,-0.0277,-3.7721,0.0112
1375081.0,-1.2713,3.2322,3.632,-0.1916,-3.537,0.0133
1375091.0,-0.7494,3.0765,3.6847,-0.3166,-3.2815,0.0394
1375101.0,-0.2466,2.8874,4.0725,-0.4055,-3.0368,0.0756
1375111.0,0.1293,2.7007,4.5226,-0.4736,-2.8548,0.1117
1375121.0,0.2825,2.4948,5.1451,-0.5412,-2.7643,0.1383
1375131.0,0.6105,2.4157,5.3079,-0.5188,-2.7329,0.1756
1375141.0,0.8332,2.2913,5.2601,-0.4688,-2.7377,0.2277
1375151.0,1.2881,1.9513,4.8363,-0.3432,-2.7175,0.3038
1375161.0,1.6975,1.5395,4.1108,-0.157,-2.6159,0.3821
1375171.0,2.1548,1.1181,3.6703,0.0479,-2.4248,0.4454
1375181.0,2.7031,0.6823,3.6631,0.2868,-2.1348,0.4927
1375191.0,3.2465,0.3208,3.802,0.5023,-1.839,0.5055
1375201.0,3.5075,0.4669,3.6464,0.5225,-1.6799,0.4544
1375211.0,3.5075,0.7183,3.6033,0.2602,-1.648,0.3634
1375221.0,3.5314,0.8906,3.5554,-0.1229,-1.6506,0.2783
1375231.0,3.6583,0.6967,3.7158,-0.4933,-1.6469,0.2128
1375241.0,3.8642,0.4693,3.7086,-0.7215,-1.6245,0.1554
1375251.0,4.1659,0.3256,3.5961,-0.8003,-1.5453,0.1027
1375261.0,4.3718,0.3998,3.4477,-0.7779,-1.4101,0.0537
1375271.0,4.5322,0.6033,3.6392,-0.6891,-1.2169,0.0208
1375281.0,4.7214,0.9098,3.8355,-0.5922,-1.0653,-0.0011
1375291.0,4.8195,1.2761,3.6775,-0.6577,-1.0695,-0.0266
1375301.0,4.8626,1.585,3.0526,-0.8705,-1.1696,-0.0516
1375311.0,4.9512,1.7238,2.3583,-1.0924,-1.2143,-0.0537
1375321.0,4.9177,1.8076,1.6424,-1.2148,-1.1563,-0.0266
1375331.0,4.8459,1.7047,1.1995,-1.1903,-0.9966,0.0341
1375341.0,4.6615,1.5227,0.8475,-0.9541,-0.7317,0.1256
1375351.0,4.6974,1.1468,0.6847,-0.5566,-0.4007,0.2299
1375361.0,5.1978,0.7422,0.3017,-0.0819,-0.0585,0.3203
1375371.0,5.3558,0.3615,-0.2897,0.3709,0.3145,0.3677
1375381.0,5.6838,0.1628,-0.9912,0.7343,0.7333,0.3826
1375391.0,5.5378,0.0503,-1.5107,1.0009,1.2686,0.364
1375401.0,5.102,0.0359,-1.7406,1.0727,1.8017,0.3038
1375411.0,4.7477,0.0263,-1.5227,0.9136,2.2758,0.2086
1375421.0,4.0438,0.0431,-1.0415,0.5438,2.6712,0.0846
1375431.0,3.0526,-0.0599,-0.2538,-0.0271,2.9133,-0.0591
1375441.0,1.9585,-0.4142,1.0558,-0.6417,3.0187,-0.2075
1375451.0,1.6281,-0.905,2.0734,-1.0201,3.0447,-0.3395
1375461.0,1.6065,-1.1588,2.5091,-1.0435,3.0921,-0.4688
1375471.0,1.2522,-0.5794,2.1308,-0.6497,3.306,-0.5731
1375481.0,0.51,0.6273,1.5802,-0.0069,3.7056,-0.6258
1375491.0,-0.4693,2.4014,0.6632,0.6204,4.1585,-0.6263
1375501.0,-1.7549,4.4556,-0.589,0.9764,4.5804,-0.5757
1375511.0,-3.7589,6.3039,-1.8747,0.8604,4.9279,-0.4502
1375521.0,-6.0693,7.1946,-2.9664,0.364,5.2621,-0.2006
1375531.0,-8.2863,6.0765,-2.5474,-0.1522,5.7894,0.1772
1375541.0,-10.9128,4.1108,-1.0175,-0.0958,6.7067,0.5901
1375551.0,-14.0228,2.0255,1.7502,0.5406,7.8375,0.9088
1375561.0,-16.1082,-0.1365,6.1004,1.532,8.981,1.0334
1375571.0,-18.1409,-0.9313,11.2527,2.7074,9.9867,0.8631
1375581.0,-19.642,0.1508,16.8504,3.521,10.4193,0.3959
1375591.0,-20.5087,3.2753,22.0506,3.6263,10.0186,-0.207
1375601.0,-21.986,7.8578,25.618,3.0463,8.8767,-0.68
1375611.0,-22.9436,10.8242,29.4726,2.2977,7.7268,-0.7513
1375621.0,-21.713,10.8529,33.5643,1.822,6.8579,-0.4784
1375631.0,-19.8144,8.7173,38.5395,1.0014,5.477,-0.2847
1375641.0,-18.2486,7.2065,40.1556,0.0697,3.3023,-0.2932
1375651.0,-16.9126,6.5529,38.0223,-0.4911,1.1057,-0.348
1375661.0,-15.6365,6.5817,32.9466,-0.6486,-0.6678,-0.3586
1375671.0,-14.5304,6.948,26.4487,-0.7513,-1.9949,-0.3496
1375681.0,-13.1035,7.4747,19.642,-0.9913,-2.8782,-0.3315
1375691.0,-11.8202,7.683,14.3652,-1.2547,-3.1544,-0.2746
1375701.0,-10.7907,7.9775,10.2879,-1.3005,-2.891,-0.1421
1375711.0,-10.0796,7.5824,8.7556,-1.185,-2.2609,0.0761
1375721.0,-9.0836,6.2872,8.6431,-0.8982,-1.5383,0.3523
1375731.0,-8.1163,4.4891,9.4332,-0.6194,-0.9732,0.5784
1375741.0,-7.3334,2.7869,10.6326,-0.4603,-0.6683,0.6753
1375751.0,-6.6583,1.5897,11.7938,-0.3911,-0.5843,0.6492
1375761.0,-6.1938,0.7925,12.8377,-0.3666,-0.6774,0.5374
1375771.0,-6.0286,0.5171,13.3261,-0.3821,-0.9328,0.3677
1375781.0,-5.8826,0.5722,13.0771,-0.4342,-1.2909,0.1788
1375791.0,-5.8466,0.8787,12.2535,-0.4981,-1.6538,0.0011
1375801.0,-5.7389,1.3096,11.0828,-0.5385,-1.9225,-0.1453
1375811.0,-5.5402,1.6999,10.0221,-0.5396,-2.0401,-0.2501
1375821.0,-5.205,2.047,9.1363,-0.5481,-2.0678,-0.3203
1375831.0,-4.8435,2.2649,8.5665,-0.5906,-2.0556,-0.3656
1375841.0,-4.4796,2.5355,7.999,-0.6768,-2.0385,-0.4007
1375851.0,-4.1803,2.8036,7.5058,-0.7966,-2.0135,-0.423
1375861.0,-3.699,2.9904,7.0773,-0.9073,-1.9624,-0.4198
1375871.0,-3.3902,3.0167,6.8163,-0.9887,-1.8576,-0.3906
1375881.0,-3.2106,2.9449,6.8426,-0.9855,-1.6921,-0.3384
1375891.0,-3.0765,2.8084,7.1491,-0.8631,-1.4729,-0.265
1375901.0,-2.9449,2.5714,7.7572,-0.6369,-1.235,-0.1703
1375911.0,-2.8467,2.2075,8.4036,-0.364,-1.0382,-0.0708
1375921.0,-2.569,1.7861,8.8011,-0.1203,-0.9291,0.0
1375931.0,-2.332,1.5107,9.1243,0.0362,-0.8892,0.017
1375941.0,-2.2386,1.5538,9.3757,0.1192,-0.8743,-0.008
1375951.0,-2.2242,1.8818,9.6438,0.1447,-0.8663,-0.0521
1375961.0,-2.399,2.4181,9.7276,0.1176,-0.8711,-0.0857
1375971.0,-2.6336,2.8108,9.9311,0.0357,-0.8759,-0.0952
1375981.0,-2.7342,2.9353,10.2975,-0.0681,-0.8796,-0.075
1375991.0,-2.7653,2.8299,10.8362,-0.1921,-0.9158,-0.0495
1376001.0,-2.7677,2.6001,11.2049,-0.3363,-1.0312,-0.0394
1376011.0,-2.6647,2.3439,11.4371,-0.4826,-1.2116,-0.0516
1376021.0,-2.636,2.2769,11.2049,-0.5816,-1.4074,-0.0782
1376031.0,-2.5738,2.3224,10.7715,-0.6492,-1.5761,-0.1064
1376041.0,-2.5618,2.4277,10.1179,-0.688,-1.7001,-0.125
1376051.0,-2.478,2.5043,9.6031,-0.6949,-1.7576,-0.1235
1376061.0,-2.4014,2.5977,9.2943,-0.6018,-1.7171,-0.0984
1376071.0,-2.4995,2.806,9.0405,-0.4656,-1.6357,-0.0521
1376081.0,-2.5666,2.8778,9.1961,-0.3709,-1.5846,0.0144
1376091.0,-2.466,2.7677,9.4475,-0.2501,-1.5591,0.1059
1376101.0,-2.2482,2.5187,9.5624,-0.1245,-1.5772,0.2038
1376111.0,-1.8938,2.1739,9.2656,-0.0772,-1.6831,0.2783
1376121.0,-1.5562,1.8364,8.6167,-0.1527,-1.8448,0.3139
1376131.0,-1.142,1.4533,7.8841,-0.2831,-1.9699,0.3203
1376141.0,-0.8021,1.087,7.2496,-0.3821,-2.0071,0.3076
1376151.0,-0.5076,0.8284,6.8115,-0.4246,-1.972,0.281
1376161.0,-0.2729,0.7542,6.2968,-0.4315,-1.9151,0.2448
1376171.0,-0.0886,0.7111,5.794,-0.4683,-1.8752,0.2134
1376181.0,0.407,0.5842,5.2601,-0.4911,-1.8172,0.1921
1376191.0,0.8308,0.3663,4.6687,-0.5295,-1.7278,0.1761
1376201.0,1.2953,0.146,4.2186,-0.6013,-1.6304,0.1447
1376211.0,1.6903,-0.0814,3.7541,-0.6731,-1.5075,0.1038
1376221.0,2.0686,-0.2466,3.474,-0.7439,-1.367,0.0532
1376231.0,2.2434,-0.2993,3.2178,-0.8062,-1.2255,-0.0048
1376241.0,2.2817,-0.2466,3.1388,-0.8195,-1.077,-0.0506
1376251.0,2.3032,-0.079,3.0502,-0.7205,-0.9025,-0.0681
1376261.0,2.1332,0.1508,2.8874,-0.4571,-0.6619,-0.0404
1376271.0,1.9872,0.2897,2.7174,-0.0883,-0.3677,0.0277
1376281.0,2.1835,0.419,2.3535,0.3193,-0.058,0.1245
1376291.0,2.1955,0.3448,2.3463,0.687,0.315,0.2288
1376301.0,2.1284,0.3065,2.2146,0.9365,0.6694,0.3097
1376311.0,1.7526,0.1317,2.6552,0.9823,0.9573,0.3469
1376321.0,1.4365,-0.0048,3.7062,0.9551,1.184,0.3517
1376331.0,1.3838,0.012,4.7429,0.9573,1.3266,0.339
1376341.0,1.3671,0.1245,5.6144,0.8966,1.2888,0.3092
1376351.0,1.3623,0.5315,5.0733,0.7428,1.0844,0.2735
1376361.0,1.2522,0.7925,3.9696,0.3666,0.8349,0.2341
1376371.0,0.9074,1.0247,2.8635,-0.108,0.7173,0.2107
1376381.0,0.5267,0.9744,2.9161,-0.4906,0.8242,0.215
1376391.0,-0.1125,1.0056,3.3591,-0.7577,0.9509,0.2315
1376401.0,-0.9577,1.1253,3.8858,-1.0169,0.8955,0.2522
1376411.0,-1.1851,1.3623,3.1412,-1.2675,0.6204,0.3044
1376421.0,-0.68,1.2115,0.8595,-1.6022,0.2496,0.4081
1376431.0,-0.4525,0.4118,-1.9704,-1.8305,0.1612,0.563
1376441.0,-0.9385,-0.4262,-4.9009,-1.6245,0.6854,0.7295
1376451.0,-1.5155,-1.154,-6.5577,-1.209,1.6378,0.8216
1376461.0,-2.217,-1.5179,-6.6631,-0.8179,2.626,0.7966
1376471.0,-3.8188,-0.8978,-6.8905,-0.4715,3.4678,0.7173
1376481.0,-6.5314,-0.3496,-7.2999,-0.2554,4.1537,0.6838
1376491.0,-8.1451,-1.3072,-7.6758,0.0085,4.8342,0.7599
1376501.0,-10.1323,-3.5027,-7.5872,0.7865,6.0836,0.8737
1376511.0,-13.0269,-6.0382,-4.7549,1.997,7.9045,0.8024
1376521.0,-16.8145,-7.5274,2.5546,3.2246,9.6711,0.3597
1376531.0,-21.1552,-6.2201,11.3078,4.4788,10.8567,-0.3847
1376541.0,-24.5717,-2.4708,20.3914,5.3717,11.1174,-1.2068
1376551.0,-25.0434,3.1915,27.2269,5.4957,10.4374,-1.8496
1376561.0,-25.7041,7.0892,35.1924,4.1441,8.7586,-2.221
1376571.0,-24.4807,7.7668,40.6655,2.262,6.0145,-2.3062
1376581.0,-23.0825,7.6183,40.0358,1.4096,3.3236,-2.1684
1376591.0,-20.4441,8.4635,37.237,1.98,1.8257,-1.9071
1376601.0,-19.6732,12.5648,32.1996,3.0293,1.284,-1.5979
1376611.0,-19.2877,15.184,30.0041,2.3599,0.191,-1.3431
1376621.0,-17.8679,15.3899,27.2604,0.9312,-1.2478,-1.019
1376631.0,-16.8959,14.0085,24.5693,-0.0559,-2.1082,-0.6173
1376641.0,-15.8472,12.2463,22.0769,-0.58,-2.6526,-0.2395
1376651.0,-14.8824,10.568,19.2207,-0.8493,-3.1772,0.0745
1376661.0,-13.2495,8.6957,15.8783,-0.9232,-3.6189,0.3304
1376671.0,-11.6167,7.2089,12.1362,-0.6981,-3.6631,0.5295
1376681.0,-10.2783,6.2225,9.3829,-0.4454,-3.3656,0.6577
1376691.0,-9.2512,5.2337,8.2504,-0.3751,-2.9548,0.7189
1376701.0,-8.5281,4.4939,8.0804,-0.3922,-2.5956,0.7317
1376711.0,-8.0134,3.8571,8.1451,-0.4204,-2.3296,0.7136
1376721.0,-7.5154,3.3495,8.2217,-0.4401,-2.1348,0.6795
1376731.0,-7.0461,2.9042,8.3725,-0.5055,-2.0156,0.6316
1376741.0,-6.6343,2.5929,8.4348,-0.6018,-1.9731,0.571
1376751.0,-6.2153,2.3559,8.1451,-0.7008,-1.9752,0.5044
1376761.0,-5.8251,2.2577,7.8314,-0.7944,-1.9555,0.4321
1376771.0,-5.4277,2.2793,7.7644,-0.8663,-1.8688,0.3618
1376781.0,-5.3223,2.375,7.9033,-0.9376,-1.7762,0.3028
1376791.0,-5.3606,2.4684,8.1211,-1.0451,-1.7538,0.2559
1376801.0,-5.4564,2.5235,8.181,-1.1621,-1.8007,0.2288
1376811.0,-5.3247,2.3535,8.2504,-1.2388,-1.8448,0.2288
1376821.0,-5.1715,2.1332,8.4276,-1.1999,-1.839,0.2485
1376831.0,-5.1092,1.9321,8.5234,-1.0578,-1.8108,0.2847
1376841.0,-4.9728,1.8076,8.6119,-0.8375,-1.7826,0.3272
1376851.0,-4.6567,1.822,8.4132,-0.5981,-1.7549,0.365
1376861.0,-4.4891,1.968,8.0996,-0.4555,-1.7352,0.3959
1376871.0,-4.2737,2.1907,7.8338,-0.4773,-1.7432,0.4161
1376881.0,-4.0869,2.332,7.7357,-0.6625,-1.7996,0.4294
1376891.0,-3.8595,2.2697,7.5633,-0.8886,-1.8773,0.4576
1376901.0,-3.5219,1.9178,7.4675,-1.036,-1.8964,0.5028
1376911.0,-3.1747,1.5371,7.3622,-1.0706,-1.8496,0.5502
1376921.0,-2.9449,1.1492,7.422,-1.0467,-1.7693,0.5859
1376931.0,-2.6839,0.759,7.5393,-0.9977,-1.6879,0.6077
1376941.0,-2.5091,0.4142,7.8003,-0.9562,-1.6346,0.6135
1376951.0,-2.375,0.0838,8.0278,-0.9014,-1.6144,0.6071
1376961.0,-2.162,-0.1772,8.1451,-0.8072,-1.6134,0.5922
1376971.0,-1.9369,-0.3783,7.9416,-0.6992,-1.6155,0.5688
1376981.0,-1.6065,-0.7207,7.8171,-0.6034,-1.5942,0.5412
1376991.0,-1.2498,-0.9888,7.75,-0.5209,-1.5431,0.4933
1377001.0,-1.0199,-1.1013,7.853,-0.4906,-1.508,0.4198
1377011.0,-0.8356,-0.9553,7.8219,-0.4869,-1.4995,0.3347
1377021.0,-0.723,-0.7925,7.7859,-0.5252,-1.5059,0.2618
1377031.0,-0.656,-0.644,7.75,-0.6194,-1.5458,0.2054
1377041.0,-0.5866,-0.6009,7.8027,-0.7141,-1.5953,0.1628
1377051.0,-0.3926,-0.6967,7.6926,-0.7221,-1.6006,0.1394
1377061.0,-0.2753,-0.8212,7.5154,-0.6917,-1.5655,0.1213
1377071.0,-0.1173,-1.0223,7.6136,-0.6721,-1.524,0.0942
1377081.0,0.0646,-1.1181,7.9152,-0.613,-1.4867,0.0591
1377091.0,0.1389,-1.0487,8.1163,-0.4933,-1.458,0.0271
1377101.0,0.2251,-0.9792,8.1403,-0.3453,-1.4457,0.0101
1377111.0,0.0575,-0.8475,7.9631,-0.2421,-1.4649,-0.0016
1377121.0,0.1652,-1.0415,8.0397,-0.174,-1.4622,-0.0021
1377131.0,0.4405,-1.3527,8.2552,-0.0793,-1.3915,-0.0112
1377141.0,0.668,-1.6448,8.679,-0.1117,-1.3782,-0.075
1377151.0,0.9505,-1.7262,8.9088,-0.3209,-1.5405,-0.2065
1377161.0,1.0942,-1.4916,8.9902,-0.6215,-1.8134,-0.3767
1377171.0,1.0008,-0.8428,8.3677,-0.8152,-2.0593,-0.5209
1377181.0,0.826,-0.2897,7.8578,-0.8503,-2.1891,-0.5896
1377191.0,1.0558,-0.0144,7.2736,-0.6907,-2.1902,-0.5773
1377201.0,1.166,0.249,6.7756,-0.4938,-2.1716,-0.5316
1377211.0,1.47,0.4357,6.2441,-0.3187,-2.1849,-0.4709
1377221.0,1.8962,0.5698,5.5043,-0.0984,-2.1418,-0.3852
1377231.0,2.0925,0.7518,4.5442,0.0644,-2.0768,-0.2932
1377241.0,2.4493,0.7254,3.8499,0.141,-1.9901,-0.2043
1377251.0,2.9042,0.6225,3.2537,0.2363,-1.831,-0.1181
1377261.0,3.1101,0.5219,2.9257,0.3453,-1.6293,-0.0426
1377271.0,3.0622,0.3041,2.6767,0.4379,-1.4378,0.0218
1377281.0,3.4931,-0.1101,2.2601,0.4768,-1.3058,0.0617
1377291.0,4.1994,-0.5387,1.1229,0.3852,-1.2531,0.0484
1377301.0,4.877,-0.8811,-0.6991,0.0734,-1.2563,-0.0261
1377311.0,5.2672,-1.3862,-2.3343,-0.2804,-1.0754,-0.132
1377321.0,5.703,-1.506,-3.486,-0.3789,-0.5768,-0.2496
1377331.0,5.6886,-1.4102,-4.0294,-0.3805,0.0181,-0.3826
1377341.0,5.4612,-1.0343,-4.4652,-0.2746,0.5502,-0.5252
1377351.0,4.889,0.3903,-6.0166,-0.0404,1.0286,-0.6848
1377361.0,3.8499,2.739,-8.1283,0.0958,1.4606,-0.837
1377371.0,2.5953,5.7796,-11.5544,0.1421,1.9161,-0.8822
1377381.0,1.4676,8.7556,-16.6445,-0.0458,2.4472,-0.7418
1377391.0,-0.2682,9.8761,-20.4201,-0.3209,3.5907,-0.3406
1377401.0,-5.4037,9.9934,-20.4154,-0.2804,5.6244,0.2501
1377411.0,-9.8545,8.4994,-13.9151,-0.1341,7.8306,0.8147
1377421.0,-14.7938,8.4898,-5.1523,0.2602,9.5456,1.2462
1377431.0,-18.5239,8.8657,3.8283,0.6997,10.3874,1.6261
1377441.0,-21.2821,9.0094,9.6822,0.8886,10.1649,1.9827
1377451.0,-22.812,8.1427,12.2439,0.9371,9.304,2.3376
1377461.0,-24.3969,6.1842,12.8162,1.6166,8.9177,2.7271
1377471.0,-24.1814,1.6065,14.9901,2.9059,9.5461,3.0868
1377481.0,-23.7864,-3.4141,21.2821,3.6317,10.2357,2.9809
1377491.0,-23.0466,-5.8682,30.2244,3.3007,9.8925,2.2732
1377501.0,-20.978,-6.505,37.1604,2.5318,8.3898,1.3739
1377511.0,-19.5319,-5.3678,40.4692,1.964,6.5104,0.5454
1377521.0,-18.1768,-2.1284,39.9808,1.5724,4.59,-0.1293
1377531.0,-17.2622,1.0008,37.2729,0.9653,2.6643,-0.5795
1377541.0,-16.4697,3.0646,33.1334,0.339,1.0094,-0.7716
1377551.0,-15.773,4.3359,28.6035,0.0112,-0.0628,-0.7588
1377561.0,-14.9638,4.4796,25.4049,-0.0032,-0.6188,-0.597
1377571.0,-13.8888,4.0797,22.7784,0.2533,-0.8929,-0.3773
1377581.0,-13.0508,3.4812,21.2342,0.564,-1.0642,-0.2086
1377591.0,-12.2894,3.4333,19.4242,0.8679,-1.2638,-0.1165
1377601.0,-11.5831,3.5434,17.8368,1.0264,-1.4686,-0.0878
1377611.0,-10.7978,4.0773,15.7898,1.0589,-1.6304,-0.0984
1377621.0,-10.2328,4.5107,14.5927,0.829,-1.723,-0.1442
1377631.0,-9.7276,4.8076,13.9965,0.414,-1.8246,-0.2011
1377641.0,-9.4906,4.8387,13.9366,-0.0346,-1.9417,-0.2506
1377651.0,-9.1602,4.5993,14.2359,-0.3421,-2.0667,-0.2719
1377661.0,-9.2009,4.4772,14.3437,-0.455,-2.2264,-0.2692
1377671.0,-9.1243,4.2401,14.2263,-0.4294,-2.4408,-0.241
1377681.0,-8.904,4.0127,13.7331,-0.2442,-2.6361,-0.1846
1377691.0,-8.6311,3.8666,12.955,0.0686,-2.7542,-0.1144
1377701.0,-7.9823,4.1348,11.5999,0.3528,-2.8527,-0.0596
1377711.0,-7.5154,4.4317,10.6183,0.4432,-2.8984,-0.0181
1377721.0,-7.0246,4.7812,9.6367,0.3874,-2.9037,0.0223
1377731.0,-6.8426,4.889,9.2057,0.1437,-2.9053,0.0553
1377741.0,-6.7397,4.7621,9.1722,-0.1304,-2.8989,0.0958
1377751.0,-6.608,4.3766,9.3565,-0.323,-2.8739,0.1469
1377761.0,-6.3997,3.6799,9.809,-0.4033,-2.8537,0.1937
1377771.0,-5.9352,3.0526,9.9383,-0.4172,-2.8952,0.2059
1377781.0,-5.5067,2.6911,9.8497,-0.4443,-3.0107,0.1681
1377791.0,-5.2672,2.897,9.2488,-0.5151,-3.1884,0.0963
1377801.0,-4.9177,3.1484,8.6479,-0.6034,-3.3332,0.033
1377811.0,-4.5657,3.5817,7.841,-0.6428,-3.3874,0.008
1377821.0,-4.3072,3.8954,7.3334,-0.7162,-3.4162,0.0197
1377831.0,-4.0294,4.0438,6.6894,-0.7753,-3.4449,0.0809
1377841.0,-3.5338,3.711,6.28,-0.7444,-3.3896,0.1878
1377851.0,-3.0287,3.225,5.952,-0.5757,-3.2326,0.3145
1377861.0,-2.3822,2.4565,6.1363,-0.3618,-3.0373,0.4273
1377871.0,-1.7071,1.9656,6.2153,-0.1421,-2.8942,0.4874
1377881.0,-1.0367,1.6233,6.3853,0.0037,-2.8229,0.5018
1377891.0,-0.7111,1.7502,5.9783,0.0649,-2.8362,0.4853
1377901.0,-0.3376,1.9465,5.4755,0.0101,-2.8649,0.4592
1377911.0,0.3831,2.1668,4.7525,-0.0644,-2.8197,0.4613
1377921.0,0.814,2.0255,4.2569,-0.2426,-2.7249,0.4821
1377931.0,1.2402,1.7478,3.7278,-0.5263,-2.6787,0.4816
1377941.0,1.6328,1.3575,3.5147,-0.8306,-2.6435,0.455
1377951.0,2.1644,0.9529,3.5578,-0.9626,-2.5265,0.4262
1377961.0,2.6504,0.7111,3.4237,-0.903,-2.3695,0.4071
1377971.0,3.0119,0.5698,3.1077,-0.7897,-2.2604,0.3868
1377981.0,3.2968,0.6273,2.5618,-0.6082,-2.1322,0.3773
1377991.0,3.565,0.8523,1.6783,-0.3517,-1.9193,0.3986
1378001.0,3.8307,1.0151,0.9481,-0.1559,-1.6799,0.4448
1378011.0,3.8211,0.9098,0.2873,-0.0218,-1.4026,0.5119
1378021.0,4.4053,0.6847,-0.0024,0.0654,-1.0977,0.5656
1378031.0,4.3287,0.3328,0.2179,0.1229,-0.7838,0.5992
1378041.0,4.2449,-0.091,0.68,0.191,-0.4949,0.6226
1378051.0,4.1444,-0.6536,1.2306,0.2719,-0.2868,0.6263
1378061.0,4.3311,-1.1827,1.5083,0.3778,-0.1623,0.6024
1378071.0,4.6471,-1.6472,1.233,0.4922,-0.0532,0.5491
1378081.0,4.7908,-1.7669,0.5171,0.5678,0.0867,0.4587
1378091.0,4.6615,-1.5203,-0.3184,0.5295,0.2692,0.339
1378101.0,4.4412,-1.0534,-0.6009,0.4001,0.5087,0.2139
1378111.0,4.051,-0.4525,-0.486,0.2985,0.7918,0.1219
1378121.0,3.6416,0.2993,-0.0814,0.2533,1.0334,0.0702
1378131.0,3.146,1.1923,-0.6057,0.1985,1.119,0.0644
1378141.0,2.7581,1.6448,-3.5554,-0.1341,0.9509,0.1187
1378151.0,2.818,0.9768,-8.6503,-0.9663,0.647,0.1948
1378161.0,3.0622,-0.1053,-14.4299,-1.8863,0.7503,0.2421
1378171.0,1.9561,-0.249,-18.2845,-2.0571,1.9635,0.306
1378181.0,-2.2434,0.0575,-18.895,-1.4213,3.9738,0.489
1378191.0,-7.4484,-0.6919,-16.1106,-0.2794,6.0645,0.7317
1378201.0,-10.3022,-2.3583,-11.1426,1.4367,8.1461,0.8003
1378211.0,-13.7906,-2.9544,-4.9081,3.2289,9.9755,0.5156
1378221.0,-18.0092,-1.9345,1.1756,4.3718,11.0828,-0.0798
1378231.0,-21.045,-0.316,8.1139,4.4756,11.3968,-0.8876
1378241.0,-23.3171,2.15,14.8488,3.8286,11.1605,-1.7166
1378251.0,-24.2389,4.5394,20.9229,2.4887,10.3549,-2.403
1378261.0,-25.29,6.4356,27.4687,0.7897,9.1635,-2.8628
1378271.0,-24.8351,8.26,33.684,-0.3837,7.8252,-2.9995
1378281.0,-23.9588,10.1155,38.8555,-0.5231,6.5945,-2.7877
1378291.0,-23.1112,12.1697,40.9313,-0.1266,5.0913,-2.336
1378301.0,-21.3323,12.7443,41.1946,0.2804,3.2432,-1.748
1378311.0,-19.2973,13.0939,37.3088,1.0089,1.6442,-1.0818
1378321.0,-17.5064,12.3541,32.8461,1.4947,0.4597,-0.4683
1378331.0,-15.9095,10.908,28.752,1.5708,-0.4656,0.0138
1378341.0,-14.2718,8.7939,25.4767,1.4234,-1.1808,0.3475
1378351.0,-12.7276,6.8307,22.1607,1.2723,-1.7299,0.5146
1378361.0,-11.5089,5.5474,18.7777,1.0855,-2.1242,0.5177
1378371.0,-10.3382,5.1523,15.4019,0.8067,-2.3732,0.397
1378381.0,-9.3302,5.4253,12.2846,0.4145,-2.4083,0.2208
1378391.0,-8.5952,5.7796,10.5704,-0.1192,-2.2242,0.0511
1378401.0,-8.09,5.9376,10.2615,-0.6875,-1.9443,-0.0745
1378411.0,-7.9751,5.8897,11.1402,-1.1573,-1.7028,-0.141
1378421.0,-7.841,5.4492,12.481,-1.4053,-1.5937,-0.1304
1378431.0,-7.8745,4.9033,13.5823,-1.4042,-1.6522,-0.0708
1378441.0,-7.6351,4.1899,14.1593,-1.143,-1.8129,0.0298
1378451.0,-7.3287,3.6823,13.8576,-0.696,-2.0023,0.1373
1378461.0,-6.9288,3.5291,12.73,-0.2437,-2.1928,0.2208
1378471.0,-6.4811,3.6943,10.9607,0.0266,-2.3493,0.2746
1378481.0,-5.9999,3.8259,9.4906,0.0069,-2.4467,0.2975
1378491.0,-5.5258,4.0055,8.2384,-0.1937,-2.4525,0.3049
1378501.0,-5.1834,3.8666,7.7644,-0.5241,-2.395,0.3033
1378511.0,-4.8602,3.4477,7.8745,-0.8626,-2.3312,0.2975
1378521.0,-4.5514,2.9377,7.932,-1.0924,-2.2812,0.2831
1378531.0,-4.6256,2.4708,8.1906,-1.2435,-2.2684,0.2506
1378541.0,-4.2186,1.9561,8.7628,-1.1855,-2.2003,0.216
1378551.0,-3.8499,1.8914,8.8921,-0.9466,-2.0987,0.1777
1378561.0,-3.644,1.9968,9.0764,-0.8168,-2.0885,0.1176
1378571.0,-3.3902,2.3942,8.9256,-0.7913,-2.1774,0.0596
1378581.0,-3.213,2.6887,8.6359,-0.845,-2.2849,0.0293
1378591.0,-2.9449,2.8563,8.1427,-0.8769,-2.3402,0.0335
1378601.0,-2.806,2.8706,8.0541,-0.8892,-2.3025,0.0607
1378611.0,-2.6097,2.8467,8.3366,-0.8684,-2.2141,0.1054
1378621.0,-2.5426,2.7653,8.8059,-0.8721,-2.1689,0.1559
1378631.0,-2.478,2.6217,9.2296,-0.9817,-2.2673,0.1958
1378641.0,-2.2769,2.3176,9.3254,-1.1371,-2.4706,0.2299
1378651.0,-2.2553,1.9345,8.9304,-1.26,-2.6962,0.2655
1378661.0,-2.1308,1.4461,8.3797,-1.3,-2.8596,0.2943
1378671.0,-1.9034,0.9912,7.9487,-1.2116,-2.9059,0.3113
1378681.0,-1.6496,0.6321,7.8458,-1.0147,-2.8441,0.3113
1378691.0,-1.3982,0.6033,7.865,-0.7732,-2.7574,0.2847
1378701.0,-1.1732,0.8428,7.7859,-0.6678,-2.7814,0.24
1378711.0,-0.9122,0.9601,7.106,-0.7849,-2.9516,0.1878
1378721.0,-0.4573,0.9601,5.9903,-1.0568,-3.1427,0.133
1378731.0,-0.1963,0.7925,5.023,-1.3516,-3.2102,0.0798
1378741.0,0.0718,0.589,4.4628,-1.5548,-3.148,0.042
1378751.0,0.3472,0.4405,4.209,-1.6075,-3.007,0.0245
1378761.0,0.7638,0.1269,4.1731,-1.5165,-2.8463,0.0426
1378771.0,1.2594,-0.2466,4.2114,-1.2909,-2.6909,0.0883
1378781.0,1.5299,-0.5626,3.699,-1.0238,-2.5919,0.1431
1378791.0,2.1284,-1.1708,3.2298,-0.7881,-2.5398,0.1948
1378801.0,2.897,-1.822,2.1787,-0.5236,-2.4616,0.2277
1378811.0,3.553,-2.4397,1.2905,-0.2975,-2.3205,0.2065
1378821.0,4.0055,-2.6839,0.2969,-0.0958,-2.13,0.132
1378831.0,4.3239,-2.7366,-0.2682,0.0665,-1.8975,0.033
1378841.0,4.8028,-2.5857,-0.6871,0.2708,-1.6256,-0.0511
1378851.0,5.3032,-2.4493,-1.1253,0.5092,-1.3303,-0.1016
1378861.0,5.3606,-2.3679,-2.5881,0.596,-1.1238,-0.1245
1378871.0,6.0406,-2.7653,-4.6591,0.3331,-1.036,-0.1735
1378881.0,6.5769,-3.3016,-6.6463,-0.0761,-0.8195,-0.2746
1378891.0,6.3375,-3.3471,-8.7532,-0.3443,-0.3331,-0.4145
1378901.0,5.7844,-3.2681,-9.4834,-0.4299,0.3592,-0.572
1378911.0,5.1595,-2.6217,-9.4834,-0.1389,1.2143,-0.7136
1378921.0,4.118,-1.2833,-9.1051,0.4257,2.1242,-0.812
1378931.0,2.9616,0.2993,-9.2488,0.8397,2.8127,-0.8508
1378941.0,2.2649,1.5395,-10.0006,0.7987,3.2187,-0.8461
1378951.0,1.257,2.7821,-11.6502,0.4246,3.5199,-0.7955
1378961.0,-0.8045,4.2425,-12.7204,0.2661,4.2138,-0.6598
1378971.0,-3.5314,6.2704,-12.6677,0.5837,5.3919,-0.4124
1378981.0,-8.849,8.4396,-11.7675,1.0392,6.6525,-0.0037
1378991.0,-11.7651,8.102,-9.3063,1.2271,7.7449,0.5348
1379001.0,-14.9446,5.9209,-5.8442,1.0828,8.5931,1.0318
1379011.0,-17.8919,2.4349,-0.3783,0.9924,9.3333,1.375
1379021.0,-19.8958,-0.9337,5.4708,1.3186,10.0074,1.4936
1379031.0,-21.5933,-3.6512,11.4108,1.6495,10.3081,1.3154
1379041.0,-21.7633,-5.6336,17.1856,1.7278,10.0138,0.8503
1379051.0,-22.0889,-5.4899,21.2677,1.7804,9.3423,0.2027
1379061.0,-22.448,-3.1364,24.7824,1.9704,8.5734,-0.472
1379071.0,-22.8,0.2777,26.748,2.3626,7.8002,-0.9807
1379081.0,-22.4504,3.2657,27.8996,2.4169,6.8823,-1.3335
1379091.0,-21.9955,5.8538,29.2547,2.0007,5.8442,-1.5782
1379101.0,-21.4401,7.8697,30.7966,1.516,4.9369,-1.6543
1379111.0,-20.6979,9.3829,32.8652,1.0488,4.0648,-1.5868
1379121.0,-20.0155,10.5201,35.1181,0.5768,3.0346,-1.4053
1379131.0,-19.3954,10.9056,36.7271,0.2453,1.7666,-1.0962
1379141.0,-18.5096,10.7955,35.6832,0.1948,0.2937,-0.696
1379151.0,-17.2957,10.4124,32.0057,0.2889,-1.1499,-0.2857
1379161.0,-16.2925,10.1586,26.5014,0.3954,-2.2955,0.0905
1379171.0,-15.2343,9.5529,21.1193,0.3704,-3.0378,0.422
1379181.0,-13.8265,8.2384,16.5128,0.2682,-3.3528,0.7157
1379191.0,-12.469,6.6439,13.1753,0.1405,-3.3677,0.9307
1379201.0,-11.157,5.0613,10.9415,-0.0303,-3.2352,1.0413
1379211.0,-9.9216,3.5961,9.7803,-0.1724,-3.0235,1.0653
1379221.0,-8.8705,2.5786,8.8514,-0.257,-2.8064,1.0105
1379231.0,-8.0158,1.9513,8.3366,-0.3592,-2.6233,0.8881
1379242.0,-7.2544,1.5658,8.0732,-0.4347,-2.4498,0.7295
1379251.0,-6.6104,1.4676,7.9057,-0.4821,-2.2716,0.555
1379261.0,-6.3255,1.7693,8.0014,-0.5257,-2.0875,0.381
1379271.0,-6.0789,2.1476,8.3677,-0.5981,-1.938,0.2395
1379281.0,-6.0166,2.4636,9.0237,-0.6566,-1.8379,0.141
1379291.0,-5.9807,2.8994,9.4284,-0.6279,-1.7959,0.0878
1379301.0,-5.7868,3.2058,9.6678,-0.5768,-1.7948,0.0777
1379311.0,-5.6862,3.3016,9.8809,-0.53,-1.7836,0.1038
1379321.0,-5.4205,3.1891,10.3118,-0.5002,-1.7693,0.1346
1379331.0,-5.4037,3.2202,10.6877,-0.5486,-1.8337,0.1458
1379341.0,-5.3798,2.9832,11.054,-0.7168,-2.0087,0.1453
1379351.0,-5.2936,2.6001,11.1426,-0.8987,-2.2375,0.1389
1379361.0,-5.0757,2.4541,11.0995,-1.0344,-2.461,0.1128
1379371.0,-5.2074,2.5187,10.9894,-1.0983,-2.6627,0.0958
1379381.0,-5.3367,2.7342,10.2951,-1.086,-2.8771,0.116
1379391.0,-5.2553,2.4876,9.5385,-1.0456,-3.0298,0.1761
1379401.0,-4.8052,2.0399,8.8945,-0.9216,-3.0501,0.2469
1379411.0,-4.3814,1.7478,8.5976,-0.7705,-2.982,0.2884
1379421.0,-4.13,1.6975,8.4372,-0.6721,-2.9458,0.2985
1379431.0,-3.8451,1.8364,8.1499,-0.6252,-2.9644,0.3017
1379441.0,-3.3375,1.9201,7.6327,-0.5981,-2.9814,0.3219
1379451.0,-2.6193,1.834,7.1994,-0.5875,-2.9564,0.3501
1379461.0,-2.1237,1.8052,6.7301,-0.5944,-2.8771,0.3741
1379471.0,-1.7549,1.549,6.6679,-0.6705,-2.7909,0.3895
1379481.0,-1.3336,1.2163,6.6487,-0.803,-2.7718,0.3847
1379491.0,-0.7853,0.6704,6.7636,-0.919,-2.7718,0.3592
1379501.0,-0.3328,0.3496,6.5601,-0.9041,-2.7186,0.3246
1379511.0,0.2083,0.0838,6.5338,-0.8604,-2.6478,0.2772
1379521.0,0.6871,0.2155,6.3901,-0.7753,-2.5882,0.2192
1379531.0,1.1301,0.735,6.1076,-0.6619,-2.5105,0.1809
1379541.0,1.5107,1.1325,6.0741,-0.5656,-2.4073,0.1894
1379551.0,1.8651,1.3455,6.189,-0.4874,-2.3158,0.2368
1379561.0,1.9896,1.4389,6.0334,-0.4677,-2.3158,0.2985
1379571.0,2.2505,1.1684,5.8419,-0.5071,-2.3668,0.3661
1379581.0,2.5714,0.8021,5.4779,-0.4805,-2.37,0.4294
1379591.0,2.806,0.4118,5.114,-0.4193,-2.3349,0.4725
1379601.0,3.1364,0.2251,4.6926,-0.3108,-2.2865,0.4927
1379611.0,3.383,0.067,4.1348,-0.1666,-2.1976,0.5082
1379621.0,3.6248,-0.1197,3.7373,0.0037,-2.0454,0.5257
1379631.0,3.8858,-0.261,3.8642,0.232,-1.814,0.5374
1379641.0,3.9217,-0.2897,4.2497,0.5114,-1.5618,0.5507
1379651.0,3.7948,-0.3543,4.5729,0.7152,-1.4,0.5608
1379661.0,3.7613,-0.6656,4.9823,0.7487,-1.375,0.5433
1379671.0,3.8403,-0.9505,4.9536,0.6455,-1.475,0.48
1379681.0,4.0127,-1.1372,4.6328,0.4762,-1.6299,0.3677
1379691.0,4.2904,-0.8715,3.7062,0.3789,-1.7453,0.2352
1379701.0,4.4341,-0.4334,2.8491,0.3826,-1.7065,0.132
1379711.0,4.549,0.0718,2.2841,0.489,-1.5224,0.0819
1379721.0,4.7405,0.4022,2.3559,0.6444,-1.2866,0.0713
1379731.0,4.9536,0.9242,2.2338,0.812,-1.1132,0.0873
1379741.0,4.9991,1.3815,1.9513,0.8333,-1.0568,0.1181
1379751.0,4.8291,1.6688,1.5203,0.7434,-1.0701,0.1708
1379761.0,4.8435,1.5706,0.6369,0.6481,-1.0919,0.2538
1379771.0,5.4827,1.1995,-1.8004,0.4917,-1.1579,0.3464
1379781.0,6.1555,0.3424,-5.6767,0.0516,-1.2329,0.4087
1379791.0,7.288,-0.826,-9.7731,-0.5417,-1.0525,0.4039
1379801.0,7.4364,-1.5131,-12.481,-0.8354,-0.2677,0.3395
1379811.0,6.3087,-1.4461,-13.4578,-0.721,0.8918,0.2581
1379821.0,4.9129,-0.7733,-13.6326,-0.2719,2.0736,0.1873
1379831.0,3.1292,0.6009,-15.3875,0.2192,3.0831,0.1676
1379841.0,0.996,1.4222,-17.8272,0.2283,3.9243,0.2251
1379851.0,-1.3862,1.1277,-19.2087,-0.0803,4.9369,0.3661
1379861.0,-5.3295,-0.0335,-18.8687,-0.2506,6.2747,0.5662
1379871.0,-10.3334,-1.8794,-16.5008,-0.0819,7.7774,0.737
1379881.0,-14.0755,-4.4604,-11.643,0.5741,9.3418,0.762
1379891.0,-17.5399,-6.4596,-4.221,1.7538,10.8785,0.5044
1379901.0,-20.8439,-5.6671,4.7046,3.2805,12.0683,-0.0867
1379911.0,-23.681,-1.3312,13.7092,4.6384,12.4413,-0.8546
1379921.0,-25.0864,5.8203,19.5175,5.1673,11.7081,-1.5378
1379931.0,-25.8454,12.9502,23.0466,4.499,10.3469,-1.8906
1379941.0,-26.6475,16.5607,28.0098,3.066,9.1816,-1.7326
1379951.0,-26.2117,15.1457,35.3959,1.4708,7.9945,-1.2574
1379961.0,-24.61,11.6167,41.1779,0.3549,6.33,-0.787
1379971.0,-22.8048,8.3055,43.3614,0.0027,4.4735,-0.4326
1379981.0,-20.887,6.3375,41.9033,0.2033,2.6659,-0.2166
1379991.0,-18.7993,5.8251,37.5914,0.6087,1.0525,-0.1314
1380001.0,-16.7211,6.6918,31.3066,0.8939,-0.1979,-0.1405
1380011.0,-14.959,7.7093,25.934,0.8982,-0.8924,-0.1644
1380021.0,-13.8289,8.6957,21.6101,0.7689,-1.1382,-0.1421
1380031.0,-12.7419,9.3422,18.9214,0.4826,-1.1818,-0.0718
1380041.0,-11.9878,9.2727,17.4035,0.2426,-1.0467,0.0676
1380051.0,-11.382,8.7029,16.9677,0.0729,-0.8062,0.2522
1380061.0,-10.829,7.2018,18.1887,-0.0479,-0.5922,0.4379
1380071.0,-10.2472,5.6024,19.0578,-0.1155,-0.6231,0.5587
1380081.0,-9.6247,4.2497,19.1608,-0.3666,-0.9839,0.5539
1380091.0,-9.1028,2.8323,19.1967,-0.6417,-1.3888,0.4752
1380101.0,-8.7364,1.7119,18.6508,-0.8062,-1.7549,0.3464
1380111.0,-8.3797,0.723,18.1744,-0.9908,-2.1588,0.1495
1380121.0,-8.078,0.4956,17.0659,-1.0967,-2.5579,-0.0947
1380131.0,-7.9487,0.9194,15.6413,-1.1164,-2.8431,-0.3411
1380141.0,-7.9224,1.7406,14.133,-1.0541,-2.9745,-0.5422
1380151.0,-7.7405,2.4493,13.4794,-0.9988,-2.95,-0.6854
1380161.0,-7.6806,3.2058,13.0843,-1.0286,-2.9293,-0.7875
1380171.0,-7.7596,3.6224,13.2806,-1.2952,-3.0692,-0.878
1380181.0,-7.683,3.6727,13.4506,-1.5447,-3.3076,-0.9413
1380191.0,-7.4388,3.6536,13.2447,-1.6315,-3.5444,-0.9823
1380201.0,-7.2592,3.7445,12.651,-1.5857,-3.7519,-0.9993
1380211.0,-7.015,3.8547,11.9255,-1.5016,-3.9376,-0.9988
1380221.0,-6.7062,4.0582,10.9008,-1.4622,-4.1585,-0.9876
1380231.0,-6.3901,4.2425,9.8952,-1.4899,-4.3894,-0.9599
1380241.0,-5.9185,4.2401,8.8585,-1.4729,-4.5581,-0.9019
1380251.0,-5.3965,4.1994,7.7883,-1.3723,-4.639,-0.8163
1380261.0,-4.7692,4.0486,6.6056,-1.2643,-4.6954,-0.7205
1380271.0,-4.1444,3.8834,5.114,-1.2318,-4.7725,-0.6284
1380281.0,-3.3567,3.6081,3.5985,-1.2622,-4.805,-0.5459
1380291.0,-2.6288,3.4716,2.059,-1.3,-4.7369,-0.4704
1380301.0,-1.719,3.3567,0.6919,-1.3393,-4.5655,-0.3975
1380311.0,-0.6345,3.158,-0.2849,-1.342,-4.2995,-0.3124
1380321.0,0.34,2.7988,-0.759,-1.2654,-3.927,-0.2065
1380331.0,1.0726,2.3391,-0.9122,-1.144,-3.5359,-0.0947
1380341.0,1.7334,1.6352,-0.8619,-1.0376,-3.2187,-0.0011
1380351.0,2.5474,0.9409,-0.8571,-0.887,-2.9421,0.0601
1380361.0,3.1005,0.3543,-0.8068,-0.6683,-2.6366,0.0841
1380371.0,3.6057,0.0982,-0.8882,-0.4299,-2.3546,0.074
1380381.0,3.9552,0.0431,-1.1995,-0.2059,-2.0843,0.0511
1380391.0,4.3981,0.0886,-1.3647,-0.0282,-1.8001,0.0319
1380401.0,4.7812,0.17,-1.4389,0.1181,-1.4771,0.0229
1380411.0,4.9033,0.3232,-1.2977,0.1862,-1.1568,0.0133
1380421.0,5.0566,0.4956,-0.929,0.1884,-0.879,0.0016
1380431.0,5.102,0.6201,-0.4812,0.1421,-0.6465,-0.0021
1380441.0,5.2313,0.6297,-0.1221,0.0447,-0.5023,0.0
1380451.0,5.2553,0.4717,0.17,-0.0314,-0.3837,0.0074
1380461.0,5.1547,0.1413,0.2945,-0.0016,-0.2347,0.0218
1380471.0,5.047,-0.2274,0.4549,0.1075,-0.0607,0.0176
1380481.0,4.9201,-0.4405,0.7661,0.2395,0.0793,-0.0282
1380491.0,4.6471,-0.4381,0.9625,0.3826,0.1559,-0.1032
1380501.0,4.1228,-0.1245,0.6225,0.5502,0.1751,-0.19
1380511.0,3.8044,0.5171,-0.5435,0.6742,0.1437,-0.2735
1380521.0,3.7661,1.0965,-2.4134,0.7045,0.1426,-0.3347
1380531.0,3.8738,1.7502,-5.1092,0.6093,0.2198,-0.3719
1380541.0,4.5035,2.0901,-8.2121,0.2325,0.3544,-0.3954
1380551.0,4.2904,2.3559,-10.987,-0.1591,0.7609,-0.381
1380561.0,2.9401,2.739,-12.7611,-0.1963,1.607,-0.3108
1380571.0,1.5802,3.1436,-12.888,0.307,2.8351,-0.1554
1380581.0,-1.1325,3.7493,-12.1721,1.3276,4.2963,0.0756
1380591.0,-3.9887,4.2617,-11.3294,2.3578,5.5345,0.2634
1380601.0,-5.5881,5.0206,-12.3349,3.1102,6.4806,0.3443
1380611.0,-7.6183,5.8107,-14.0611,3.2752,7.4278,0.3581
1380621.0,-13.8696,6.505,-13.4698,2.8234,8.6133,0.3384
1380631.0,-20.4944,6.1699,-11.2144,2.3014,9.9468,0.4949
1380641.0,-25.4719,2.0399,-2.7078,2.1285,11.5596,0.7008
1380651.0,-28.8932,-1.4269,7.0437,2.8399,13.1049,0.589
1380661.0,-30.8397,-2.399,20.5231,3.4151,13.704,-0.0623
1380671.0,-32.281,1.5897,32.6114,4.0148,13.0964,-0.887
1380681.0,-29.9036,7.75,40.1915,4.2686,11.2281,-1.4846
1380691.0,-28.8621,14.2024,42.5809,3.8025,8.6543,-1.7209
1380701.0,-27.2173,18.591,41.4915,2.875,6.0884,-1.5644
1380711.0,-24.8351,19.3021,39.8659,2.1817,4.5405,-1.0312
1380721.0,-23.0705,17.3029,39.9975,1.359,3.4561,-0.5023
1380731.0,-21.3108,13.9366,40.8163,0.1511,1.8885,-0.2006
1380741.0,-19.5774,10.7907,39.3248,-0.6029,0.2155,-0.0303
1380751.0,-17.9852,8.7269,35.6952,-0.7061,-1.1361,0.0564
1380761.0,-16.4075,8.2289,30.2603,-0.5768,-2.2157,0.0559
1380771.0,-14.6741,8.2001,24.8662,-0.6449,-3.0011,0.0048
1380781.0,-13.2639,8.406,20.2023,-0.8727,-3.4412,-0.0543
1380791.0,-11.9758,8.4707,16.6708,-1.1914,-3.6157,-0.0905
1380801.0,-10.975,8.2935,14.2287,-1.5506,-3.6386,-0.0984
1380811.0,-10.1155,8.0014,12.2511,-1.8922,-3.6242,-0.0761
1380821.0,-9.2967,6.9911,11.2934,-2.1742,-3.5652,-0.0287
1380831.0,-8.576,5.94,10.2735,-2.2583,-3.4742,0.0213
1380841.0,-7.9009,4.8602,9.7636,-2.3046,-3.4023,0.0314
1380851.0,-7.3454,4.1587,9.3805,-2.3062,-3.3784,-0.0005
1380861.0,-6.8139,3.7421,9.1411,-2.1982,-3.3603,-0.0474
1380871.0,-6.2896,3.7469,8.4898,-1.9842,-3.356,-0.0841
1380881.0,-5.7988,3.8595,7.7285,-1.7682,-3.3401,-0.1006
1380891.0,-5.4708,3.9768,7.0701,-1.549,-3.2709,-0.0819
1380901.0,-5.217,3.8595,6.7516,-1.3255,-3.1522,-0.0298
1380911.0,-4.8171,3.5195,6.6702,-1.0424,-2.9969,0.0521
1380921.0,-4.47,3.0239,6.541,-0.7583,-2.8245,0.133
1380931.0,-3.8834,2.5043,6.5673,-0.5694,-2.6952,0.1735
1380941.0,-3.4979,2.4062,6.438,-0.4975,-2.6207,0.1591
1380951.0,-3.292,2.4205,6.5505,-0.5497,-2.5786,0.116
1380961.0,-3.0023,2.4876,6.7205,-0.5933,-2.5089,0.0899
1380971.0,-2.7318,2.5163,6.9887,-0.6444,-2.4467,0.0766
1380981.0,-2.5211,2.5642,7.2281,-0.771,-2.4765,0.0596
1380991.0,-2.2362,2.6121,7.3334,-0.8929,-2.5552,0.0553
1381001.0,-1.9249,2.5738,7.1156,-0.9307,-2.6047,0.0819
1381011.0,-1.7406,2.4373,6.8163,-0.9456,-2.6265,0.1256
1381021.0,-1.2857,2.0686,6.8474,-0.9269,-2.6143,0.1799
1381031.0,-0.8571,1.8651,6.4835,-0.8242,-2.594,0.2315
1381041.0,-0.6009,1.7933,5.952,-0.7646,-2.6185,0.2735
1381051.0,-0.2322,1.6759,5.3798,-0.6987,-2.6089,0.3315
1381061.0,0.2514,1.4413,4.8123,-0.5454,-2.4749,0.415
1381071.0,0.51,1.0846,4.4604,-0.4007,-2.2977,0.5023
1381081.0,0.9002,0.5698,4.0247,-0.3443,-2.1609,0.5683
1381091.0,1.4245,-0.1006,3.7733,-0.373,-2.0407,0.5986
1381101.0,1.9441,-0.644,3.395,-0.4672,-1.9396,0.5752
1381111.0,2.3511,-1.0295,3.2705,-0.6157,-1.8576,0.5044
1381121.0,2.6049,-1.0247,2.9377,-0.704,-1.7719,0.4156
1381131.0,2.7031,-0.8787,2.5546,-0.7434,-1.6591,0.3437
1381141.0,2.8443,-0.8092,2.6121,-0.629,-1.4468,0.3182
1381151.0,3.1149,-0.7733,2.8228,-0.3081,-1.1371,0.3523
1381161.0,3.134,-1.0008,3.0191,0.0511,-0.8365,0.4055
1381171.0,3.4117,-1.2713,3.0119,0.2549,-0.655,0.4252
1381181.0,3.5099,-1.506,3.122,0.2182,-0.5853,0.3852
1381191.0,3.6296,-1.5826,3.1053,0.0218,-0.6024,0.2996
1381201.0,3.6416,-1.7478,3.1627,-0.1708,-0.6481,0.2033
1381211.0,3.7326,-1.8579,2.557,-0.2304,-0.68,0.1203
1381221.0,3.9744,-1.9656,1.2857,-0.2405,-0.6774,0.0367
1381231.0,4.3598,-2.2482,0.1652,-0.2772,-0.6135,-0.0521
1381241.0,4.5226,-2.3966,-1.1037,-0.2299,-0.4161,-0.1506
1381251.0,4.5681,-2.3822,-2.1189,-0.0851,-0.0745,-0.2613
1381261.0,4.3431,-2.0063,-2.8563,0.1277,0.3608,-0.3719
1381271.0,3.7062,-1.3934,-3.1244,0.3645,0.8508,-0.4635
1381281.0,2.9137,-0.723,-3.3471,0.5869,1.3095,-0.5007
1381291.0,2.0159,-0.4956,-3.3327,0.7088,1.666,-0.4959
1381301.0,1.7933,-0.7805,-3.553,0.8306,1.9693,-0.4794
1381311.0,1.6017,-1.0726,-4.7285,0.9519,2.2689,-0.5007
1381321.0,0.8571,-1.4245,-6.1483,0.9594,2.6483,-0.5859
1381331.0,-0.182,-1.3623,-7.5681,0.9131,3.1916,-0.7497
1381341.0,-1.8411,-0.7853,-8.1235,0.8099,3.9036,-0.9732
1381351.0,-3.893,0.7063,-7.8865,0.7077,4.7017,-1.2047
1381361.0,-6.5122,2.8108,-7.1658,0.5843,5.4366,-1.3574
1381371.0,-9.2775,4.6352,-5.6623,0.5917,6.2177,-1.3207
1381381.0,-12.9957,5.8778,-3.3639,0.9174,7.1723,-1.069
1381391.0,-16.5942,5.284,1.4509,1.5591,8.2861,-0.6598
1381401.0,-19.2949,3.7182,7.7165,2.6095,9.3753,-0.2772
1381411.0,-21.4042,2.4277,14.8871,3.7104,10.0713,-0.1431
1381421.0,-22.3403,2.6695,22.1368,4.6304,10.2022,-0.3065
1381431.0,-22.8215,5.0733,28.661,5.0615,9.7132,-0.6375
1381441.0,-23.2453,8.4396,34.4693,4.6565,8.4744,-0.9647
1381451.0,-22.2757,11.3078,38.4126,3.6285,6.6094,-1.1621
1381461.0,-21.2318,13.6158,39.1165,2.4041,4.5597,-1.1994
1381471.0,-20.796,14.7076,37.7685,1.0914,2.6403,-1.0962
1381481.0,-19.7091,13.7571,36.1165,-0.0064,1.1323,-0.8631
1381491.0,-18.9238,11.8274,34.1006,-0.803,-0.1506,-0.6364
1381501.0,-17.9421,9.9383,31.1294,-1.2978,-1.4005,-0.4895
1381511.0,-16.6636,8.4683,26.985,-1.3431,-2.3333,-0.3783
1381521.0,-15.2295,7.7189,22.4025,-1.2106,-2.9346,-0.3235
1381531.0,-13.7475,7.5896,18.2175,-1.1542,-3.2831,-0.3166
1381541.0,-12.4044,7.6543,14.8177,-1.1813,-3.3805,-0.2975
1381551.0,-11.0564,7.422,12.402,-1.2877,-3.2869,-0.248
1381561.0,-9.9048,6.9623,10.884,-1.475,-3.1043,-0.1894
1381571.0,-9.074,6.3446,10.1227,-1.6996,-2.908,-0.1336
1381581.0,-8.2911,5.4899,9.9958,-1.9161,-2.751,-0.0851
1381591.0,-7.5896,4.4221,10.2232,-2.0444,-2.6382,-0.0468
1381601.0,-7.003,3.4524,10.4531,-2.0449,-2.5898,-0.0266
1381611.0,-6.6319,2.6456,10.7595,-1.9486,-2.61,-0.0357
1381621.0,-6.1651,2.162,10.9223,-1.7107,-2.6723,-0.0516
1381631.0,-5.8682,1.9417,10.7021,-1.3478,-2.7537,-0.0553
1381641.0,-5.5665,1.7262,10.137,-0.912,-2.8298,-0.0346
1381651.0,-5.035,1.6185,9.0788,-0.48,-2.8926,-0.0053
1381661.0,-4.2928,1.4509,7.8841,-0.1628,-2.917,0.0096
1381671.0,-3.7757,1.4892,6.5577,-0.0027,-2.8777,-0.0053
1381681.0,-3.3088,1.6424,5.8514,-0.0053,-2.7521,-0.0468
1381691.0,-2.6815,1.8483,5.624,-0.0569,-2.5605,-0.0841
1381701.0,-2.4876,2.0542,5.8083,-0.1548,-2.3636,-0.1139
1381711.0,-2.2577,2.1883,6.292,-0.2799,-2.2104,-0.1309
1381721.0,-2.0399,2.2984,6.7205,-0.4172,-2.1343,-0.1394
1381731.0,-1.8076,2.2146,7.1515,-0.596,-2.1465,-0.1453
1381741.0,-1.7693,2.2338,7.4029,-0.7162,-2.1907,-0.1421
1381751.0,-1.6879,1.9824,7.9248,-0.6939,-2.1801,-0.1123
1381761.0,-1.336,1.8771,8.1163,-0.481,-2.1263,-0.0639
1381771.0,-1.0798,1.8244,8.2432,-0.2629,-2.0875,-0.0197
1381781.0,-0.759,1.8699,8.2049,-0.1187,-2.0971,0.0122
1381791.0,-0.5794,2.0901,7.9368,-0.1054,-2.1572,0.0325
1381801.0,-0.34,2.2745,7.5968,-0.2198,-2.2631,0.058
1381811.0,-0.1077,2.2865,7.1323,-0.3416,-2.3322,0.1059
1381821.0,0.1891,2.1308,6.7564,-0.3943,-2.311,0.1793
1381831.0,0.5818,1.8004,6.4739,-0.3778,-2.2221,0.2613
1381841.0,0.7733,1.4509,6.3494,-0.3555,-2.1263,0.3326
1381851.0,1.0534,1.0511,6.3638,-0.3379,-2.0492,0.3837
1381861.0,1.3647,0.6776,6.3662,-0.2937,-1.9837,0.4166
1381871.0,1.7023,0.4334,6.2393,-0.2293,-1.9369,0.4289
1381881.0,2.0159,0.4022,5.8682,-0.183,-1.9257,0.4252
1381891.0,2.3224,0.3998,5.3032,-0.1564,-1.9119,0.4257
1381901.0,2.6456,0.3424,4.5801,-0.1139,-1.8406,0.4422
1381911.0,3.0574,0.146,3.8475,-0.0788,-1.7065,0.464
1381921.0,3.3447,-0.0886,3.225,-0.0963,-1.5399,0.4704
1381931.0,3.565,-0.2873,2.7749,-0.1846,-1.3718,0.4534
1381941.0,3.6919,-0.5195,2.6935,-0.2884,-1.1786,0.4182
1381951.0,3.8044,-0.9649,2.988,-0.3384,-0.969,0.3821
1381961.0,4.0869,-1.2043,3.1125,-0.3411,-0.8264,0.3235
1381971.0,4.1946,-1.3192,3.0119,-0.3528,-0.7636,0.2469
1381981.0,4.4317,-1.3144,2.545,-0.3118,-0.6886,0.1708
1381991.0,4.537,-1.2641,2.1165,-0.2006,-0.5092,0.1139
1382001.0,4.5442,-1.1516,1.6951,-0.0346,-0.2682,0.0724
1382011.0,4.4843,-1.0487,1.336,0.1298,-0.0165,0.0383
1382021.0,4.2832,-0.9792,1.0199,0.299,0.2607,0.009
1382031.0,4.1252,-1.0965,1.1971,0.5215,0.6268,-0.0144
1382041.0,3.9792,-1.2905,1.6017,0.7609,1.0052,-0.0511
1382051.0,3.7757,-1.4844,2.1859,0.8775,1.2568,-0.1421
1382061.0,3.7541,-1.4293,2.5307,0.8775,1.3798,-0.2943
1382071.0,3.6224,-1.0151,2.5594,0.8072,1.441,-0.4709
1382081.0,3.1292,-0.5507,2.5762,0.6816,1.4798,-0.6348
1382091.0,2.6504,-0.1077,2.4253,0.5523,1.5128,-0.7764
1382101.0,2.229,0.2442,2.1644,0.4395,1.5506,-0.8961
1382111.0,1.7047,0.7709,1.5419,0.3517,1.5979,-1.0084
1382121.0,1.2977,1.4269,0.7326,0.2533,1.6804,-1.1057
1382131.0,0.9625,2.2673,-0.1556,0.1687,1.8518,-1.168
1382141.0,0.2753,3.2801,-0.9218,0.1219,2.1455,-1.1669
1382151.0,-0.7829,4.2713,-1.4341,0.1368,2.5584,-1.069
1382161.0,-1.9058,5.0613,-1.8699,0.2059,3.0527,-0.8673
1382171.0,-3.2609,5.4037,-1.6544,0.3081,3.6397,-0.5768
1382181.0,-4.7118,5.4061,-1.4964,0.4438,4.2303,-0.2453
1382191.0,-6.2297,4.9033,-0.9816,0.5486,4.7917,0.0676
1382201.0,-8.1977,4.4748,-0.4621,0.7774,5.4291,0.3342
1382211.0,-10.987,4.0175,0.917,1.1754,6.2098,0.5481
1382221.0,-14.0109,3.7158,2.9425,1.8049,7.1202,0.7098
1382231.0,-16.441,2.7797,6.766,2.5174,8.0679,0.7934
1382241.0,-18.0283,1.8962,10.9247,3.165,8.7836,0.7189
1382251.0,-18.6628,1.2809,16.2901,3.2975,8.9868,0.4033
1382261.0,-18.6772,1.5467,22.3499,2.9867,8.6021,-0.0718
1382271.0,-18.6484,2.7533,28.3904,2.4807,7.647,-0.5614
1382281.0,-18.0786,4.6855,32.8054,2.0683,6.2273,-0.9424
1382291.0,-17.2502,7.1826,34.6034,1.8698,4.6081,-1.151
1382301.0,-16.6996,9.7444,33.8899,1.7416,2.9937,-1.1808
1382311.0,-16.5415,11.904,31.4502,1.4681,1.5261,-1.0541
1382321.0,-15.8041,12.979,28.4216,0.977,0.2692,-0.7913
1382331.0,-15.0954,12.8617,25.3067,0.3624,-0.7716,-0.4576
1382341.0,-14.0683,11.8872,21.9476,-0.1793,-1.5665,-0.1197
1382351.0,-13.0915,10.4651,18.7274,-0.5082,-2.0146,0.1878
1382361.0,-12.0811,8.8729,16.0723,-0.6268,-2.1306,0.4385
1382371.0,-11.0971,7.3574,14.3221,-0.6295,-2.0449,0.6029
1382381.0,-10.1418,6.0956,13.2088,-0.5912,-1.898,0.6758
1382391.0,-9.3158,5.1427,12.5121,-0.5273,-1.7278,0.6705
1382401.0,-8.5928,4.4843,12.129,-0.5007,-1.5745,0.6039
1382411.0,-7.9487,3.9504,12.1506,-0.5901,-1.4883,0.4826
1382421.0,-7.6303,3.723,12.4355,-0.7721,-1.5011,0.3145
1382431.0,-7.3095,3.7781,12.4642,-1.0014,-1.6378,0.1314
1382441.0,-6.9432,3.8499,12.2894,-1.2404,-1.8379,-0.0362
1382451.0,-6.5697,4.0558,11.8585,-1.4399,-2.0289,-0.1809
1382461.0,-6.2824,4.3191,11.3581,-1.6001,-2.179,-0.2916
1382471.0,-6.1363,4.5442,10.9104,-1.7288,-2.2939,-0.3613
1382481.0,-6.1531,4.6663,10.635,-1.8087,-2.3849,-0.3895
1382491.0,-6.0741,4.7573,10.3597,-1.8017,-2.46,-0.3757
1382501.0,-5.9544,4.6926,9.9862,-1.7203,-2.5174,-0.3294
1382511.0,-5.8203,4.525,9.6391,-1.5708,-2.5478,-0.2586
1382521.0,-5.7245,4.3263,9.4643,-1.3808,-2.5579,-0.1868
1382531.0,-5.4803,4.0989,9.2967,-1.1717,-2.5818,-0.1176
1382541.0,-5.0925,3.8188,9.0668,-0.9658,-2.6137,-0.0543
1382551.0,-4.7453,3.7733,8.5784,-0.7779,-2.6574,-0.0112
1382561.0,-4.4915,3.9241,8.0325,-0.6811,-2.7095,0.0144
1382571.0,-4.3048,4.2234,7.5609,-0.6401,-2.7452,0.0553
1382581.0,-4.197,4.379,7.2951,-0.6055,-2.7271,0.1288
1382591.0,-4.0079,4.3072,7.1132,-0.5555,-2.6893,0.2373
1382601.0,-3.8547,3.9217,6.9504,-0.5619,-2.6973,0.3469
1382611.0,-3.5626,3.4381,6.62,-0.605,-2.7547,0.4284
1382621.0,-3.1508,2.9497,6.2465,-0.6236,-2.7819,0.4837
1382631.0,-2.8252,2.5522,5.8227,-0.596,-2.751,0.5177
1382641.0,-2.4301,2.3272,5.612,-0.5295,-2.6675,0.5364
1382651.0,-2.217,2.2793,5.6455,-0.4182,-2.5483,0.5582
1382661.0,-2.1021,2.1213,6.0118,-0.265,-2.4057,0.6098
1382671.0,-1.7286,1.8699,6.3159,-0.075,-2.2913,0.6822
1382681.0,-1.336,1.5275,6.5122,0.0261,-2.27,0.7418
1382691.0,-1.0798,1.1588,6.5242,0.0223,-2.3285,0.7705
1382701.0,-0.7111,0.735,6.505,-0.0144,-2.3897,0.7748
1382711.0,-0.1341,0.419,6.1507,-0.0378,-2.4541,0.7513
1382721.0,0.4357,0.1341,5.703,-0.0984,-2.5387,0.6965
1382731.0,0.9553,0.1556,4.8914,-0.1469,-2.5802,0.622
1382741.0,1.3791,0.3328,4.3503,-0.1772,-2.5206,0.5529
1382751.0,1.6879,0.6177,3.9385,-0.1708,-2.3887,0.5071
1382761.0,1.9369,0.8404,3.711,-0.1767,-2.262,0.497
1382771.0,2.3655,0.7805,3.3926,-0.2134,-2.1737,0.5167
1382781.0,2.9521,0.5028,2.9473,-0.2331,-2.072,0.5465
1382791.0,3.565,0.2825,2.2314,-0.249,-1.9518,0.5608
1382801.0,4.2042,0.0694,1.7047,-0.2778,-1.7922,0.5545
1382811.0,4.7525,0.0622,1.1923,-0.2182,-1.5378,0.5465
1382821.0,4.7884,0.012,0.7638,-0.132,-1.2318,0.5465
1382831.0,4.9416,0.0407,0.34,-0.075,-0.9376,0.5523
1382841.0,4.9153,-0.0048,0.0599,-0.1091,-0.6811,0.5577
1382851.0,4.9967,-0.2274,-0.3735,-0.2352,-0.4736,0.5475
1382861.0,4.9584,-0.656,-0.4501,-0.4305,-0.2948,0.5177
1382871.0,4.7692,-0.9912,-1.0175,-0.6173,-0.1485,0.4672
1382881.0,4.5897,-1.4365,-1.8172,-0.8354,-0.0223,0.397
1382891.0,4.7357,-1.8531,-2.9018,-1.0195,0.1543,0.3044
1382901.0,4.5538,-2.0207,-4.0677,-1.1185,0.4635,0.191
1382911.0,4.2425,-2.1093,-5.0302,-1.1377,0.8812,0.0745
1382921.0,3.9169,-2.0662,-5.8586,-1.0749,1.3744,-0.0516
