time_ms,ax,ay,az,gx,gy,gz
1210141.0,-4.8123,3.0837,6.699,-0.2033,3.1315,0.2953
1210151.0,-5.7221,2.0925,8.6503,-0.5768,3.3539,0.332
1210161.0,-6.1292,1.4724,10.0748,-0.9573,3.3433,0.3299
1210171.0,-6.6367,0.8188,11.1163,-1.3074,3.2108,0.3076
1210181.0,-7.0174,0.6488,11.0732,-1.5181,3.0421,0.2868
1210191.0,-7.5058,0.5914,10.489,-1.5389,3.0277,0.3038
1210201.0,-7.8985,-0.182,10.4722,-1.4096,3.2225,0.3565
1210211.0,-8.3917,-1.482,11.054,-1.1685,3.5332,0.39
1210221.0,-9.2225,-2.7869,12.9167,-0.8817,3.8482,0.3443
1210231.0,-9.5289,-4.0917,15.7323,-0.4752,4.0829,0.2187
1210241.0,-9.9072,-4.7046,19.1129,0.1171,4.2159,0.0037
1210251.0,-10.1754,-3.4165,21.5885,0.6747,3.9845,-0.2969
1210261.0,-10.2951,-1.0199,22.7018,0.9626,3.4013,-0.5864
1210271.0,-10.3525,1.6113,22.2565,0.9519,2.66,-0.7854
1210281.0,-10.1873,4.0079,21.2797,0.5816,1.8863,-0.8961
1210291.0,-10.5105,5.3654,20.8176,0.0176,1.2249,-0.8993
1210301.0,-10.4866,5.2385,20.5231,-0.571,0.5502,-0.8237
1210311.0,-10.2807,3.8906,20.2358,-0.9951,-0.0724,-0.737
1210321.0,-9.9838,2.7557,19.144,-1.0972,-0.5805,-0.6933
1210331.0,-9.6295,2.4038,17.8584,-1.035,-1.0057,-0.7098
1210341.0,-9.2608,2.8323,16.0172,-0.8248,-1.2962,-0.7317
1210351.0,-8.904,3.7182,14.1713,-0.588,-1.4479,-0.7231
1210361.0,-8.6646,4.367,12.7874,-0.4363,-1.4936,-0.6657
1210371.0,-8.3199,4.5777,12.2152,-0.373,-1.4862,-0.572
1210381.0,-8.09,4.2401,12.3924,-0.3272,-1.4559,-0.456
1210391.0,-7.908,3.4596,13.3189,-0.2618,-1.4761,-0.3501
1210401.0,-7.8027,2.7892,14.0755,-0.1304,-1.607,-0.2692
1210411.0,-7.7381,2.545,14.2694,0.0208,-1.856,-0.2219
1210421.0,-7.6088,2.1476,13.9917,0.1336,-2.1785,-0.1873
1210431.0,-7.4867,2.3104,12.6605,0.2203,-2.5291,-0.1751
1210441.0,-7.343,2.6121,11.1163,0.2059,-2.8048,-0.1687
1210451.0,-7.1108,3.0047,9.6965,0.1607,-2.9463,-0.1463
1210461.0,-6.8139,3.2561,8.7364,0.0681,-2.9862,-0.1107
1210471.0,-6.5242,3.122,8.2935,-0.0261,-2.9777,-0.0633
1210481.0,-6.0478,2.545,8.1259,-0.1091,-2.9852,-0.0197
1210491.0,-5.5713,1.8316,7.9607,-0.1426,-2.9905,-0.0032
1210501.0,-5.3558,1.3886,7.6543,-0.1341,-3.0064,-0.0208
1210511.0,-4.7716,1.3264,7.0773,-0.0788,-3.0181,-0.0564
1210521.0,-4.3981,1.5107,6.5984,0.0021,-2.9724,-0.0952
1210531.0,-4.0869,2.2769,5.7054,0.0708,-2.9096,-0.1181
1210541.0,-3.7421,2.873,5.2002,0.0362,-2.8324,-0.1043
1210551.0,-3.3591,3.2394,4.6543,0.0165,-2.7281,-0.0442
1210561.0,-2.8108,2.8132,4.3742,0.0271,-2.5839,0.0463
1210571.0,-2.2098,2.1189,4.3335,0.0979,-2.3839,0.1187
1210581.0,-1.8555,1.3934,4.6926,0.1873,-2.1763,0.1495
1210591.0,-1.3408,0.826,4.5538,0.2485,-2.0736,0.1383
1210601.0,-0.7901,0.5219,4.1324,0.2442,-1.9917,0.0841
1210611.0,-0.3089,0.8092,3.6081,0.2176,-1.8677,0.0059
1210621.0,0.0192,1.3312,3.2753,0.1825,-1.6863,-0.058
1210631.0,0.2011,1.8148,3.2729,0.1767,-1.4463,-0.0798
1210641.0,0.2897,1.9225,3.7876,0.2091,-1.1967,-0.0543
1210651.0,0.4118,1.3336,4.9153,0.3118,-0.9418,-0.0005
1210661.0,0.4238,0.34,6.5457,0.4715,-0.745,0.0298
1210671.0,0.3687,-0.2921,7.5681,0.6034,-0.7184,-0.0043
1210681.0,0.3448,-0.1628,7.6614,0.5757,-0.9035,-0.1075
1210691.0,0.6536,0.6967,6.4835,0.4236,-1.1616,-0.2331
1210701.0,0.7015,1.9034,4.786,0.2001,-1.3218,-0.3288
1210711.0,1.482,2.9377,3.0933,0.0085,-1.2984,-0.3523
1210721.0,1.1325,3.2465,2.0542,-0.099,-1.0493,-0.306
1210731.0,1.2234,3.9002,1.4461,-0.1346,-0.7194,-0.232
1210741.0,1.5969,4.0725,1.7382,-0.0532,-0.2783,-0.1
1210751.0,1.4988,3.8427,2.4181,0.1011,0.1846,0.0729
1210761.0,1.4174,3.4596,3.5291,0.2043,0.5726,0.2246
1210771.0,1.1564,2.976,4.8028,0.2666,0.8711,0.3464
1210781.0,1.0295,2.5786,6.1459,0.2841,1.0573,0.4273
1210791.0,0.6967,2.2266,7.1323,0.3049,1.1467,0.48
1210801.0,0.5746,1.8316,7.4316,0.323,1.1015,0.505
1210811.0,0.9026,1.4557,6.766,0.3757,1.0429,0.505
1210821.0,1.1899,1.4509,5.6671,0.4539,1.1084,0.4736
1210831.0,1.0008,0.9433,4.7285,0.4816,1.3462,0.4353
1210841.0,0.7111,1.0319,5.0901,0.4161,1.6565,0.3374
1210851.0,0.4884,1.2402,4.8076,0.3688,1.9539,0.2554
1210861.0,0.2059,0.4214,5.5929,0.1043,2.1593,0.1681
1210871.0,-0.2634,0.4645,5.4588,-0.1511,2.3142,0.0383
1210881.0,-0.8619,0.2298,6.3925,-0.4826,2.4711,-0.0968
1210891.0,-1.6544,0.3735,7.1682,-0.6715,2.5972,-0.215
1210901.0,-2.332,0.5363,8.1834,-0.7897,2.6499,-0.3049
1210911.0,-2.8299,0.984,8.181,-0.8115,2.6276,-0.3512
1210921.0,-3.5314,0.8164,8.3055,-0.8216,2.6685,-0.3507
1210931.0,-3.9696,0.486,8.5305,-0.7795,2.7611,-0.3437
1210941.0,-4.1539,0.0622,9.2991,-0.6944,2.8558,-0.3507
1210951.0,-4.5059,-0.0886,10.3046,-0.4784,2.9309,-0.3693
1210961.0,-5.023,0.0958,11.0492,-0.1128,2.9436,-0.3922
1210971.0,-5.3391,0.4717,10.9319,0.3496,2.8622,-0.3954
1210981.0,-5.2529,0.5291,10.5896,0.8759,2.8713,-0.3714
1210991.0,-5.5474,0.8116,10.2687,1.3915,3.0165,-0.3613
1211001.0,-6.0669,0.9026,10.1993,1.6911,3.1272,-0.3794
1211011.0,-6.3853,1.312,9.9599,1.7219,3.1352,-0.4427
1211021.0,-6.8761,2.2386,10.2304,1.5245,3.1597,-0.5348
1211031.0,-7.3358,3.45,10.975,1.201,3.1879,-0.6024
1211041.0,-7.9057,4.4412,12.6414,0.7045,3.1246,-0.6353
1211051.0,-8.4036,4.9823,14.5184,0.107,2.8527,-0.6295
1211061.0,-8.6838,5.0422,15.6509,-0.4523,2.3993,-0.5795
1211071.0,-8.9352,4.5346,16.5056,-0.8248,1.9678,-0.4911
1211081.0,-8.7939,3.9456,16.7905,-0.8844,1.6394,-0.3762
1211091.0,-8.7436,3.4596,16.9079,-0.7035,1.4314,-0.2554
1211101.0,-8.6766,3.1723,16.8695,-0.4204,1.2584,-0.1458
1211111.0,-8.3749,2.794,16.7115,-0.1644,1.0727,-0.0543
1211121.0,-8.3677,2.0542,16.9653,0.0293,0.8876,0.0074
1211131.0,-8.0732,1.2617,17.1138,0.2139,0.6774,0.0197
1211141.0,-8.0278,0.9505,16.9222,0.2836,0.3746,-0.0511
1211151.0,-7.9248,1.324,16.1776,0.1889,-0.0399,-0.1793
1211161.0,-8.011,1.8579,14.9302,0.0133,-0.4443,-0.2948
1211171.0,-7.6686,2.3463,13.2136,-0.1761,-0.7588,-0.3741
1211181.0,-7.6399,2.6983,12.1913,-0.3719,-0.9003,-0.4299
1211191.0,-7.4555,2.9521,11.5736,-0.5076,-0.9365,-0.4544
1211201.0,-7.4819,3.2848,11.5999,-0.6683,-0.9402,-0.4693
1211211.0,-7.592,3.4357,12.0596,-0.8961,-1.0355,-0.4736
1211221.0,-7.4579,3.3375,12.4187,-1.0807,-1.2196,-0.4566
1211231.0,-7.3694,3.1867,12.4403,-1.1589,-1.4207,-0.4252
1211241.0,-7.1994,3.0311,12.1075,-1.1047,-1.6075,-0.3778
1211251.0,-7.0054,2.885,11.5472,-0.9381,-1.7272,-0.3124
1211261.0,-6.7109,2.6671,10.9104,-0.7077,-1.7969,-0.2341
1211271.0,-6.4069,2.5043,10.1347,-0.4842,-1.8305,-0.1591
1211281.0,-6.2537,2.1763,9.5984,-0.3129,-1.8251,-0.0974
1211291.0,-5.8419,1.6376,9.3709,-0.1692,-1.8007,-0.0548
1211301.0,-5.5809,1.221,9.086,-0.0692,-1.7804,-0.0548
1211311.0,-5.3582,0.8739,9.1722,-0.0713,-1.7996,-0.1006
1211321.0,-5.2289,0.8954,8.9447,-0.0947,-1.873,-0.1719
1211331.0,-5.0182,1.0127,8.8394,-0.1325,-1.9348,-0.2453
1211341.0,-4.8147,1.3958,8.6933,-0.0639,-1.9225,-0.2948
1211351.0,-4.7333,1.9393,8.9926,0.074,-1.8518,-0.3054
1211361.0,-4.6807,2.5115,9.2105,0.1937,-1.8512,-0.2804
1211371.0,-4.6376,2.8802,9.1818,0.2235,-1.9576,-0.2256
1211381.0,-4.4843,2.9137,8.7532,0.2017,-2.1061,-0.1532
1211391.0,-4.3191,2.569,8.1642,0.1846,-2.2178,-0.0793
1211401.0,-4.1563,2.1452,7.8314,0.223,-2.245,-0.0202
1211411.0,-4.0079,1.6041,7.7716,0.3448,-2.2285,0.0293
1211421.0,-3.7685,1.3024,7.264,0.5502,-2.2301,0.0649
1211431.0,-3.2106,1.3024,6.5218,0.771,-2.1966,0.0846
1211441.0,-2.7366,1.5754,5.9185,0.9397,-2.1024,0.0873
1211451.0,-2.3104,1.9585,5.1787,1.0169,-2.0343,0.0915
1211461.0,-1.9561,2.3487,4.2234,0.9791,-1.9736,0.1043
1211471.0,-1.5682,2.241,3.316,0.829,-1.8959,0.1219
1211481.0,-1.0582,1.8723,2.4876,0.6609,-1.7496,0.1235
1211491.0,-0.8236,1.3791,2.2314,0.4672,-1.5181,0.0899
1211501.0,-0.3496,1.1085,2.7246,0.364,-1.2036,0.0282
1211511.0,-0.2705,1.4916,3.4381,0.3805,-0.886,-0.0367
1211521.0,-0.2921,2.1093,4.0606,0.4145,-0.6731,-0.0692
1211531.0,-0.1006,2.7222,4.3694,0.4848,-0.4943,-0.0431
1211541.0,0.0144,2.9951,4.3527,0.5295,-0.3485,0.0287
1211551.0,0.2203,2.9281,3.9241,0.5396,-0.2075,0.116
1211561.0,0.3472,2.5905,3.7421,0.5013,0.0213,0.19
1211571.0,0.3639,2.3008,3.9433,0.4315,0.2996,0.2325
1211581.0,0.1532,2.0327,4.6974,0.3453,0.5837,0.2506
1211591.0,-0.0622,1.8268,5.4564,0.2565,0.8115,0.2522
1211601.0,-0.1197,1.4461,6.4548,0.1272,0.969,0.232
1211611.0,-0.2394,1.2617,7.264,0.0011,1.0632,0.1804
1211621.0,-0.5363,1.1516,7.9272,-0.1378,1.0727,0.1059
1211631.0,-0.7422,1.1037,8.09,-0.2474,1.0163,0.0303
1211641.0,-0.8236,1.0918,7.7907,-0.29,0.9812,-0.0404
1211651.0,-0.929,1.3599,7.2065,-0.2735,1.0009,-0.1059
1211661.0,-1.0654,1.6999,6.5984,-0.2118,1.093,-0.1474
1211671.0,-1.2402,2.0494,6.0047,-0.1139,1.2505,-0.1634
1211681.0,-1.7023,2.2697,5.6024,-0.0186,1.4303,-0.1618
1211691.0,-1.7933,2.2098,4.7669,0.0229,1.5862,-0.1559
1211701.0,-1.9417,1.8387,3.8571,-0.1421,1.6799,-0.1953
1211711.0,-2.0446,1.6855,2.6217,-0.4709,1.7336,-0.2975
1211721.0,-2.7461,1.7358,1.7071,-0.8631,1.8629,-0.4257
1211731.0,-3.4596,1.889,1.3001,-1.052,2.1183,-0.4997
1211741.0,-4.1563,1.798,2.047,-0.7519,2.7111,-0.4656
1211751.0,-4.8722,1.3695,3.7373,-0.1,3.4412,-0.3714
1211761.0,-5.5761,0.8428,6.0501,0.5603,4.0105,-0.3049
1211771.0,-6.3159,0.7853,8.4276,0.9903,4.2926,-0.3241
1211781.0,-6.9504,1.391,10.2208,1.119,4.2675,-0.4108
1211791.0,-7.5992,2.5426,11.0421,0.9386,3.9972,-0.5002
1211801.0,-7.9655,4.13,10.3142,0.5055,3.6253,-0.5401
1211811.0,-8.3151,5.2002,9.6055,-0.2086,3.3332,-0.5071
1211821.0,-9.2153,6.0597,9.4188,-0.8716,3.2794,-0.3714
1211831.0,-10.6039,4.7238,12.1458,-1.2148,3.5907,-0.0894
1211841.0,-11.1426,1.889,16.7187,-1.0121,3.968,0.2267
1211852.0,-11.6095,-0.4094,21.1719,-0.563,3.9451,0.3852
1211861.0,-11.8441,-1.7621,24.3897,-0.0484,3.504,0.39
1211871.0,-11.5209,-1.7621,24.7704,0.4741,2.7702,0.2783
1211881.0,-11.0564,-0.5411,22.9484,0.7274,1.9757,0.0894
1211891.0,-10.9056,1.403,20.3771,0.6236,1.3308,-0.1149
1211901.0,-11.1282,2.9568,18.4473,0.2198,0.9323,-0.2677
1211911.0,-11.4108,2.9664,19.0794,-0.2943,0.7843,-0.357
1211921.0,-11.6741,2.4181,20.8942,-0.6992,0.5662,-0.439
1211931.0,-11.7747,2.1452,22.8311,-0.9493,0.1197,-0.5459
1211941.0,-12.0835,2.6312,23.6116,-0.9339,-0.4385,-0.6311
1211951.0,-12.0787,3.5362,22.6779,-0.8051,-1.1047,-0.6667
1211961.0,-11.8489,4.7333,20.4321,-0.7545,-1.7469,-0.6673
1211971.0,-11.6837,5.8203,18.3156,-0.8269,-2.2226,-0.6258
1211981.0,-11.5424,6.5745,16.4913,-0.9296,-2.5488,-0.5252
1211991.0,-11.2527,6.6822,14.9997,-1.0669,-2.8069,-0.3826
1212001.0,-10.9056,6.0023,13.9247,-1.1786,-3.0011,-0.2277
1212011.0,-10.4363,5.0661,13.2351,-1.1653,-3.1208,-0.0931
1212021.0,-10.1011,4.2066,12.7012,-1.0397,-3.2049,-0.0021
1212031.0,-9.7588,3.8403,11.9351,-0.8077,-3.2991,0.0564
1212041.0,-9.2943,3.6823,10.9032,-0.5773,-3.389,0.1043
1212051.0,-8.904,4.0582,9.4332,-0.4257,-3.4539,0.1378
1212061.0,-8.3462,4.3742,8.2528,-0.4454,-3.4832,0.1793
1212071.0,-7.865,4.3598,7.3741,-0.5614,-3.4497,0.2347
1212081.0,-7.367,3.8618,7.1012,-0.7157,-3.381,0.2868
1212091.0,-6.9312,3.055,7.3765,-0.8301,-3.2996,0.3171
1212101.0,-6.4691,2.15,8.0756,-0.8487,-3.247,0.3134
1212111.0,-6.2082,1.6688,8.5234,-0.7439,-3.2496,0.2804
1212121.0,-5.952,1.6041,8.7867,-0.5805,-3.305,0.2357
1212131.0,-5.715,2.0087,8.3294,-0.414,-3.4039,0.2043
1212141.0,-5.6934,2.5546,7.8027,-0.2629,-3.4694,0.2112
1212151.0,-5.4037,3.0694,6.845,-0.1453,-3.5173,0.2607
1212161.0,-5.1044,3.2322,6.1579,-0.1096,-3.5045,0.3368
1212171.0,-4.5274,2.9904,6.0382,-0.1213,-3.4204,0.4209
1212181.0,-4.1779,2.8491,6.3087,-0.1495,-3.331,0.4885
1212191.0,-4.0582,2.8276,6.5649,-0.2421,-3.331,0.5417
1212201.0,-3.62,2.6528,6.3398,-0.3645,-3.4146,0.6002
1212211.0,-3.2274,2.2386,5.9448,-0.4917,-3.4837,0.6582
1212221.0,-2.715,1.731,5.1499,-0.613,-3.5455,0.6981
1212231.0,-2.0782,1.0511,4.5657,-0.6875,-3.5311,0.7247
1212241.0,-1.4988,0.6201,3.9385,-0.6284,-3.4061,0.7338
1212251.0,-0.9122,0.2921,3.4979,-0.5396,-3.2677,0.7322
1212261.0,-0.2801,0.0742,2.8802,-0.4496,-3.123,0.7258
1212271.0,0.2729,-0.1053,2.4301,-0.414,-2.9713,0.7104
1212281.0,1.0989,-0.3328,2.0686,-0.3799,-2.7957,0.696
1212291.0,1.506,-0.7733,1.8411,-0.3257,-2.5728,0.687
1212301.0,2.0087,-1.1564,1.6305,-0.3432,-2.4216,0.6497
1212311.0,2.3679,-1.3599,0.644,-0.4103,-2.3392,0.5896
1212321.0,3.2441,-2.0207,-0.4788,-0.5465,-2.2716,0.5055
1212331.0,4.2114,-2.4062,-2.229,-0.564,-2.0524,0.3858
1212341.0,4.7333,-2.5762,-2.715,-0.48,-1.5756,0.2448
1212351.0,5.0901,-2.557,-2.2338,-0.2384,-1.0073,0.1181
1212361.0,5.0733,-2.2769,-1.1396,0.1288,-0.4326,0.0223
1212371.0,4.8698,-1.9872,0.5578,0.5289,0.0367,-0.0388
1212381.0,4.5466,-1.5706,2.3535,0.9594,0.3645,-0.0665
1212391.0,4.367,-0.8499,4.142,1.3851,0.5236,-0.0639
1212401.0,4.1013,-0.0215,5.2409,1.8273,0.5209,-0.017
1212411.0,3.7757,1.0511,4.5729,2.1673,0.2847,0.0569
1212421.0,3.2322,2.0423,1.664,2.1082,-0.2128,0.1229
1212431.0,2.6695,2.5786,-5.4947,1.5213,-0.9817,0.1564
1212441.0,2.9066,3.1675,-15.3564,0.4076,-1.6714,0.1128
1212451.0,3.1508,3.9863,-25.2876,-0.4049,-1.6187,0.0958
1212461.0,1.1181,4.8483,-35.506,-0.2719,-0.5321,0.2458
1212471.0,-1.1779,5.7533,-47.2735,0.2144,0.8604,0.4619
1212481.0,-7.0988,7.4939,-56.3787,0.5736,3.0144,0.6508
1212491.0,-16.9677,8.7269,-63.8965,0.8663,5.7314,0.9418
1212501.0,-28.9291,7.1227,-64.5166,0.9743,9.1656,1.2851
1212511.0,-43.9767,3.3208,-56.891,1.1068,13.0634,1.4984
1212521.0,-58.1743,-1.0558,-43.4045,0.853,16.1326,1.3963
1212531.0,-71.249,-1.1037,-23.0729,0.6886,17.4357,1.0786
1212541.0,-78.4532,-0.8643,-0.3759,2.2695,17.4357,1.0206
1212551.0,-78.4532,-2.7605,22.3451,4.7603,17.4357,0.9722
1212561.0,-78.4532,-3.8211,42.3032,6.9489,17.4357,0.3682
1212571.0,-78.4077,1.1612,56.7569,7.4224,17.4357,-0.9913
1212581.0,-71.5938,12.7491,68.5484,5.6782,14.8252,-2.5589
1212591.0,-57.1161,26.8893,68.7782,3.5657,8.029,-3.3039
1212601.0,-56.2446,22.3882,78.4508,-0.1442,4.3372,-3.4683
1212611.0,-49.481,35.7406,56.2087,0.9658,1.3053,-2.5392
1212621.0,-46.3493,26.8151,62.0601,-0.224,-0.9131,-1.3356
1212631.0,-38.1109,30.5835,39.478,1.6325,-2.0061,0.067
1212641.0,-36.411,20.2286,43.8833,0.3485,-2.4695,1.0286
1212651.0,-30.4495,15.876,33.1501,0.1282,-3.8035,1.6809
1212661.0,-27.9882,6.45,32.4917,-1.0866,-4.9082,1.889
1212671.0,-22.8886,0.1508,22.4744,-1.6224,-6.5599,1.7336
1212681.0,-20.2933,-4.0031,15.8161,-2.4483,-7.7353,1.1286
1212691.0,-18.1385,-3.1125,6.3279,-2.6787,-8.4079,0.3629
1212701.0,-16.3428,-0.7374,-0.8428,-2.717,-8.3739,-0.3134
1212711.0,-14.6549,2.7701,-5.94,-2.3626,-7.5081,-0.7572
1212721.0,-13.4889,6.1411,-6.8809,-1.9885,-6.2119,-0.9312
1212731.0,-12.548,7.9631,-3.6679,-1.7331,-5.0396,-0.8684
1212741.0,-12.3421,9.074,-0.2514,-1.4511,-4.284,-0.6284
1212751.0,-11.4251,8.8442,2.6193,-1.3803,-4.084,-0.3113
1212761.0,-10.6494,6.8163,4.8794,-1.3042,-4.1084,0.0245
1212771.0,-9.3877,3.9193,5.375,-1.0807,-4.2074,0.2889
1212781.0,-8.7412,0.9625,5.5091,-0.9935,-4.3867,0.365
1212791.0,-7.3071,-1.6735,4.6208,-0.8838,-4.5767,0.2826
1212801.0,-6.5027,-2.4086,3.3088,-0.796,-4.6001,0.0266
1212811.0,-6.4643,-0.8595,2.162,-0.8924,-4.582,-0.3113
1212821.0,-6.122,1.4868,0.7183,-1.1137,-4.5767,-0.547
1212831.0,-5.8299,3.2777,0.0239,-1.3766,-4.4378,-0.6311
1212841.0,-4.9656,4.4436,-1.1253,-1.5123,-4.233,-0.5747
1212851.0,-4.0438,4.3024,-1.4174,-1.5719,-3.8956,-0.4166
1212861.0,-2.885,3.0119,-1.0056,-1.4447,-3.4571,-0.2283
1212871.0,-1.6783,1.1875,-0.237,-1.0946,-2.9522,-0.0708
1212881.0,-1.1181,-0.2227,0.9266,-0.6391,-2.4099,0.0074
1212891.0,-0.3496,-1.5347,2.4541,-0.2666,-2.0146,0.0032
1212901.0,-0.1484,-1.8651,3.8331,0.0357,-1.707,-0.0851
1212911.0,-0.3974,-0.8332,4.9177,0.099,-1.6198,-0.232
1212921.0,-0.3519,0.3352,5.1547,-0.067,-1.7129,-0.3347
1212931.0,-0.0192,1.2522,5.1691,-0.3038,-1.7544,-0.3688
1212941.0,0.012,1.798,5.873,-0.4906,-1.6916,-0.3432
1212951.0,0.1844,2.0638,6.2776,-0.4417,-1.5713,-0.2458
1212961.0,0.4262,1.9321,6.4524,-0.2772,-1.4622,-0.1107
1212971.0,0.8212,1.6664,6.1746,-0.1123,-1.3585,0.0128
1212981.0,1.0582,1.2905,5.9735,-0.0474,-1.2499,0.0952
1212991.0,1.2689,1.2426,5.3415,-0.1064,-1.184,0.1352
1213001.0,1.5562,1.257,5.0637,-0.2916,-1.0749,0.1527
1213011.0,1.5586,1.1995,5.1787,-0.4518,-0.8934,0.1788
1213021.0,1.585,0.9936,5.466,-0.5566,-0.6981,0.2203
1213031.0,1.6951,-0.0335,6.1028,-0.58,-0.4959,0.2703
1213041.0,2.0901,-1.4293,6.9336,-0.472,-0.2474,0.2778
1213051.0,2.1572,-2.0758,8.5234,-0.3193,0.0016,0.1926
1213061.0,1.8794,-1.4796,9.9503,-0.1777,0.1208,0.0591
1213071.0,1.4054,-0.2634,10.9654,-0.1937,0.0197,-0.0527
1213081.0,1.2306,0.9266,11.2623,-0.3406,-0.2336,-0.1
1213091.0,1.1109,1.5371,11.3509,-0.4661,-0.4395,-0.0644
1213101.0,1.1157,1.6281,11.0133,-0.4991,-0.5965,0.0309
1213111.0,1.3312,0.9457,10.4339,-0.4832,-0.7035,0.1442
1213121.0,1.7406,-0.1245,10.2328,-0.4305,-0.7024,0.2224
1213131.0,1.9082,-0.7207,10.2639,-0.3826,-0.6747,0.2288
1213141.0,1.8699,-0.8452,10.4938,-0.3959,-0.7237,0.182
1213151.0,1.9441,-0.6153,10.2855,-0.4448,-0.8594,0.1298
1213161.0,1.8771,-0.644,10.1299,-0.497,-1.0057,0.0937
1213171.0,2.0423,-0.5698,9.1171,-0.4236,-1.1089,0.0873
1213181.0,2.2673,-0.8691,8.7484,-0.2836,-1.0717,0.0984
1213191.0,2.5139,-1.1325,7.9942,-0.0101,-0.9525,0.1171
1213201.0,2.8395,-1.5802,7.6327,0.1926,-0.821,0.1117
1213211.0,3.1149,-1.6927,7.2999,0.3177,-0.6774,0.067
1213221.0,3.0813,-1.5443,7.3334,0.3166,-0.572,-0.0085
1213231.0,3.2034,-1.0702,7.2472,0.2432,-0.5076,-0.0798
1213241.0,3.1747,-0.8236,7.4412,0.1149,-0.4576,-0.1272
1213251.0,3.4333,-0.8547,7.5441,0.0213,-0.414,-0.1538
1213261.0,3.4309,-1.2067,8.169,0.0027,-0.2953,-0.1777
1213271.0,3.4093,-1.5562,8.9184,0.1383,-0.165,-0.1985
1213281.0,3.4381,-1.6807,9.5409,0.3459,-0.075,-0.2299
1213291.0,3.4046,-1.4102,9.8497,0.5167,-0.0532,-0.2794
1213301.0,3.3016,-0.5914,9.9311,0.6109,-0.0628,-0.3288
1213311.0,3.1651,0.3663,9.8162,0.5731,-0.1197,-0.3555
1213321.0,3.1268,1.0247,9.5577,0.4135,-0.2203,-0.3496
1213331.0,3.0885,1.3288,9.3254,0.232,-0.2873,-0.3155
1213341.0,3.1005,1.2474,9.086,0.1213,-0.2969,-0.2602
1213351.0,3.1891,0.9553,9.2153,0.1224,-0.223,-0.1963
1213361.0,3.2561,0.7781,9.596,0.2379,-0.0926,-0.1399
1213371.0,3.2633,0.7542,10.0269,0.4108,0.0176,-0.0841
1213381.0,3.1867,0.8978,10.3477,0.5316,0.0548,-0.0388
1213391.0,3.1939,1.1588,10.2927,0.5752,0.0176,-0.0016
1213401.0,3.225,1.3336,9.9048,0.5582,-0.0335,0.0378
1213411.0,3.237,1.4126,9.2967,0.4619,-0.0809,0.0686
1213421.0,3.2801,1.2929,8.691,0.2911,-0.1054,0.0825
1213431.0,3.2417,1.0008,8.497,0.1027,-0.0718,0.0819
1213441.0,3.2633,0.5363,8.8657,-0.0112,0.0266,0.0756
1213451.0,3.2178,0.2682,9.6367,-0.0043,0.1389,0.0612
1213461.0,3.1891,0.0072,10.386,0.0639,0.1868,0.0426
1213471.0,3.2513,-0.0575,10.8242,0.158,0.1559,0.0186
1213481.0,3.2226,0.17,10.7643,0.2288,0.0756,-0.0117
1213491.0,3.1173,0.5866,10.398,0.2549,-0.0154,-0.0335
1213501.0,3.134,1.2043,9.754,0.2389,-0.0814,-0.0341
1213511.0,2.9353,1.7023,9.2105,0.1639,-0.1032,-0.0096
1213521.0,2.8994,1.7549,8.6981,0.0819,-0.0889,0.0516
1213531.0,2.9832,1.154,8.6407,0.0192,-0.0069,0.1266
1213541.0,3.1891,0.2298,8.916,-0.0181,0.1149,0.1719
1213551.0,3.3375,-0.7446,9.9862,-0.0431,0.2192,0.1559
1213561.0,3.3734,-1.0726,10.8314,0.0133,0.2341,0.091
1213571.0,3.2705,-0.9649,11.4994,0.1261,0.1804,0.0192
1213581.0,3.2513,-0.5195,11.3126,0.2836,0.066,-0.0346
1213591.0,3.2274,-0.0742,10.5417,0.3815,-0.0633,-0.0686
1213601.0,3.1819,0.2682,9.6726,0.3879,-0.1421,-0.0926
1213611.0,3.2561,0.577,8.7867,0.3139,-0.1596,-0.1123
1213621.0,3.3519,0.4932,8.8729,0.2081,-0.0793,-0.125
1213631.0,3.2944,0.3735,9.2727,0.1825,0.0548,-0.1378
1213641.0,3.2346,0.158,10.0197,0.1421,0.1027,-0.165
1213651.0,3.1699,0.0814,10.7069,0.1016,0.0596,-0.2102
1213661.0,3.0406,0.1939,10.9463,0.1112,-0.0543,-0.2517
1213671.0,3.1316,0.4118,10.5153,0.1777,-0.1873,-0.2788
1213681.0,3.2801,0.6608,9.6702,0.2794,-0.2496,-0.2911
1213691.0,3.3567,1.1061,8.8418,0.3363,-0.2299,-0.2969
1213701.0,3.4692,1.506,8.418,0.3272,-0.141,-0.2873
1213711.0,3.4357,1.8914,8.4922,0.2964,-0.0037,-0.2613
1213721.0,3.2944,2.296,8.7221,0.215,0.0809,-0.2192
1213731.0,3.213,2.3272,9.0908,0.1022,0.0963,-0.1575
1213741.0,3.2681,1.8938,9.1937,0.0601,0.1038,-0.0718
1213751.0,3.4836,0.8763,9.2081,0.0724,0.1288,-0.0053
1213761.0,3.6799,0.012,9.1291,0.1266,0.183,0.0021
1213771.0,3.6823,-0.5531,9.5553,0.1479,0.2714,-0.0607
1213781.0,3.5698,-0.3855,9.9096,0.1463,0.3182,-0.1687
1213791.0,3.3375,0.4836,10.2711,0.0654,0.2794,-0.2879
1213801.0,3.1125,1.5778,10.4315,-0.0596,0.2112,-0.364
1213811.0,2.9784,2.4445,10.4866,-0.1783,0.1314,-0.3714
1213821.0,2.9018,2.9066,10.3142,-0.2634,0.0697,-0.3155
1213831.0,2.964,2.9185,10.2256,-0.3017,0.0521,-0.2208
1213841.0,2.9808,2.399,10.1682,-0.282,0.0708,-0.1139
1213851.0,3.1101,1.6544,10.1801,-0.2219,0.0942,-0.0314
1213861.0,3.4644,0.6201,10.4172,-0.1293,0.1368,0.0064
1213871.0,3.5602,0.158,10.6805,-0.0112,0.1979,-0.0218
1213881.0,3.4285,0.1556,11.0708,0.0543,0.1995,-0.0979
1213891.0,3.4572,0.2682,11.2312,0.0984,0.1277,-0.1708
1213901.0,3.3734,0.5746,11.0923,0.1703,0.0442,-0.2272
1213911.0,3.3471,0.9936,10.5297,0.2559,-0.0351,-0.2639
1213921.0,3.3255,1.4174,9.9718,0.3485,-0.0772,-0.2724
1213931.0,3.2106,1.822,9.3015,0.4331,-0.0835,-0.257
1213941.0,3.1508,2.0207,8.8969,0.4826,-0.0756,-0.2246
1213951.0,3.2322,1.9082,8.5186,0.5124,-0.0963,-0.1852
1213961.0,3.4644,1.6783,7.6902,0.5215,-0.1825,-0.1618
1213971.0,3.7158,1.7669,6.5553,0.5444,-0.2267,-0.1618
1213981.0,3.6512,2.2505,5.3367,0.5608,-0.2065,-0.1713
1213991.0,3.6344,3.0311,4.2114,0.5731,-0.158,-0.1681
1214001.0,3.4692,3.8786,3.4069,0.5922,-0.0921,-0.1373
1214011.0,2.6743,4.9967,2.0782,0.5688,-0.1564,-0.075
1214021.0,0.6823,6.9384,-1.6592,0.2607,-0.531,0.0298
1214031.0,-0.6464,9.2751,-8.3007,-0.5635,-1.2781,0.2081
1214041.0,-1.233,10.7212,-19.745,-1.6644,-2.2035,0.5364
1214051.0,-3.0406,10.6877,-35.53,-2.5126,-2.6292,0.9754
1214061.0,-4.2401,11.1163,-55.7897,-2.511,-1.9082,1.5016
1214071.0,-10.3214,8.9783,-68.127,-2.1136,1.0201,2.1375
1214081.0,-18.0523,4.5873,-74.4046,-0.7684,5.5345,2.8064
1214091.0,-36.2362,-0.2035,-70.5595,0.6306,10.9503,3.1905
1214101.0,-55.5048,-5.3798,-60.9276,1.4899,15.7191,3.2533
1214111.0,-72.8747,-12.9407,-40.9313,2.104,17.4357,2.7947
1214121.0,-78.4532,-21.4209,-9.7899,3.5487,17.4357,1.7113
1214131.0,-78.4532,-21.5718,24.4831,5.651,17.4357,-0.1107
1214141.0,-78.4532,-3.5291,52.0452,7.7885,17.4357,-2.1646
1214151.0,-78.4532,19.7905,74.3208,7.4921,17.4357,-3.5476
1214161.0,-78.4532,33.2626,78.4508,4.6251,14.6352,-3.653
1214171.0,-66.7934,33.4302,78.4508,2.0736,8.5356,-2.6217
1214181.0,-54.4082,27.2484,78.4508,0.9509,1.4505,-1.2276
1214191.0,-44.3143,21.5574,69.2738,0.7098,-4.5581,-0.1431
1214201.0,-36.1429,16.4434,41.9105,0.5103,-7.5432,0.4379
1214211.0,-29.6881,13.2208,20.9181,0.2772,-8.1727,0.6215
1214221.0,-23.4728,11.2527,7.8482,-0.0048,-7.4496,0.5954
1214231.0,-18.7011,10.9822,-0.4286,-0.124,-5.9735,0.5353
1214241.0,-14.2072,9.2895,-1.7741,-0.539,-4.3819,0.497
1214251.0,-11.6143,7.9751,-0.9529,-0.8508,-3.0533,0.4534
1214261.0,-10.1059,6.5673,2.9329,-1.3404,-2.2806,0.3618
1214271.0,-9.3661,5.9472,7.3622,-1.5766,-2.104,0.306
1214281.0,-8.746,6.1411,8.2265,-1.2771,-2.3844,0.3863
1214291.0,-8.0541,5.6527,7.0318,-0.861,-2.7186,0.5752
1214301.0,-7.3047,4.3646,4.774,-0.5215,-2.9027,0.7849
1214311.0,-6.4476,2.8108,2.2027,-0.439,-2.9272,0.9094
1214321.0,-5.3486,1.1947,1.2067,-0.6992,-2.8138,0.8822
1214331.0,-5.0135,0.4286,0.2777,-1.0813,-2.6941,0.7338
1214341.0,-4.13,-0.1006,-1.0726,-1.6394,-2.7265,0.5236
1214351.0,-3.4788,-0.146,-2.162,-2.17,-2.601,0.2943
1214361.0,-3.2394,-0.1006,-1.2929,-2.3642,-2.1285,0.1203
1214371.0,-3.2896,0.2658,0.103,-1.9763,-1.483,0.0676
1214381.0,-3.8379,0.3639,1.8531,-1.2467,-0.8067,0.1336
1214391.0,-3.8738,0.1149,3.3806,-0.5028,-0.2868,0.2485
1214401.0,-3.6727,-0.2394,5.3558,0.0064,0.0968,0.3182
1214411.0,-3.8092,-0.4764,7.6088,0.1548,0.2139,0.2895
1214421.0,-3.6775,-0.1173,8.4827,-0.0474,-0.0942,0.1666
1214431.0,-3.6176,0.4741,8.5162,-0.5502,-0.5646,-0.0021
1214441.0,-3.6655,0.9457,7.8626,-1.1137,-1.0222,-0.1501
1214451.0,-3.735,1.1325,6.9791,-1.4553,-1.2435,-0.2293
1214461.0,-4.3191,1.1756,6.675,-1.5022,-1.2084,-0.2448
1214471.0,-4.4029,1.403,6.0932,-1.2781,-1.0653,-0.1985
1214481.0,-4.4388,1.4748,5.9975,-0.9477,-0.7785,-0.1101
1214491.0,-4.7333,1.2019,6.7301,-0.6279,-0.4491,-0.0096
1214501.0,-4.6184,0.7039,7.5657,-0.3672,-0.2442,0.0782
1214511.0,-4.4436,0.1772,8.3079,-0.1926,-0.1256,0.1197
1214521.0,-4.4724,0.0407,8.7245,-0.1532,-0.1197,0.0963
1214531.0,-4.2641,0.1269,8.8609,-0.2948,-0.2203,0.0255
1214541.0,-4.2641,0.1844,8.9974,-0.531,-0.3049,-0.0612
1214551.0,-4.3167,0.3112,9.2703,-0.7732,-0.3688,-0.1506
1214561.0,-4.6495,0.4166,10.1442,-0.936,-0.4055,-0.224
1214571.0,-5.0039,0.6009,10.7045,-0.8924,-0.4683,-0.2512
1214581.0,-5.2625,0.7015,10.6686,-0.7258,-0.5571,-0.2395
1214591.0,-5.1763,0.9768,10.0173,-0.5417,-0.6258,-0.2139
1214601.0,-5.0422,1.3072,9.5457,-0.4363,-0.6236,-0.1868
1214611.0,-4.968,1.6424,9.1267,-0.4374,-0.5821,-0.1554
1214621.0,-4.8315,1.5993,9.3996,-0.5459,-0.5215,-0.1219
1214631.0,-4.8267,1.3599,10.2759,-0.6359,-0.4555,-0.0851
1214641.0,-5.0518,1.0606,11.5113,-0.597,-0.4241,-0.0415
1214651.0,-5.0206,0.9577,12.0979,-0.4284,-0.4885,0.0133
1214661.0,-4.865,0.8547,12.3397,-0.2357,-0.6061,0.0649
1214671.0,-4.8315,0.8547,11.7819,-0.1032,-0.77,0.1043
1214681.0,-4.5657,0.6249,11.145,-0.1309,-0.9397,0.1171
1214691.0,-4.5322,0.498,10.4028,-0.224,-1.0387,0.1048
1214701.0,-4.537,0.3256,10.0413,-0.4017,-1.1132,0.0676
1214711.0,-4.4149,0.1125,9.9144,-0.5406,-1.1291,0.0234
1214721.0,-4.4532,-0.0239,10.0437,-0.6114,-1.0834,-0.033
1214731.0,-4.5083,-0.2227,10.75,-0.6529,-1.0456,-0.0995
1214741.0,-4.5514,0.1748,11.2887,-0.629,-1.0722,-0.1681
1214751.0,-4.9488,0.8475,11.9566,-0.571,-1.152,-0.207
1214761.0,-5.0374,1.3886,12.2703,-0.4315,-1.251,-0.1745
1214771.0,-5.1164,1.6065,12.8497,-0.2666,-1.3101,-0.0947
1214781.0,-5.3702,1.4078,13.8624,-0.1059,-1.3915,0.0027
1214791.0,-5.3271,1.0487,14.4322,-0.0106,-1.6362,0.0846
1214801.0,-5.4013,0.3783,14.7411,-0.0229,-2.0305,0.1197
1214811.0,-5.3415,0.2418,13.714,-0.0702,-2.5297,0.0995
1214821.0,-5.4708,0.3304,12.4738,-0.2054,-3.0032,0.0468
1214831.0,-5.2577,0.6416,10.6997,-0.2629,-3.3454,0.0122
1214841.0,-5.0613,0.9361,9.2536,-0.2794,-3.5077,0.0053
1214851.0,-4.7716,0.759,8.9615,-0.2565,-3.5444,0.0335
1214861.0,-4.3694,0.17,9.1602,-0.0761,-3.5636,0.0905
1214871.0,-4.039,0.0862,8.3079,0.1687,-3.6977,0.1373
1214881.0,-4.0151,0.2753,7.0749,0.2267,-3.9376,0.1596
1214891.0,-3.8283,0.5052,4.118,0.125,-4.2697,0.1937
1214901.0,-2.8156,0.68,-0.5339,-0.3219,-4.6597,0.199
1214911.0,-1.6783,1.0056,-6.2034,-1.177,-5.0013,0.1442
1214921.0,-0.4357,-0.3903,-9.3182,-2.0545,-5.2754,0.0788
1214931.0,1.4533,-3.7757,-15.0547,-1.3095,-5.4345,0.1676
1214941.0,4.2952,-9.8474,-32.7527,1.2286,-5.4467,0.3368
1214951.0,6.0549,-12.0093,-66.6929,2.626,-5.2557,-0.0591
1214961.0,-3.3351,-8.9352,-78.4532,0.1889,-5.0136,-1.3063
1214971.0,-8.1307,1.8603,-78.4532,-2.7957,-4.5272,-2.2929
1214981.0,-29.657,12.6486,-78.4532,-4.0377,4.3468,-2.4387
1214991.0,-47.8625,18.8903,-78.4532,-3.3454,10.6923,-1.4495
1215001.0,-67.5596,18.0547,-68.8884,-2.1066,16.3694,0.0905
1215011.0,-78.4532,13.1154,-44.9703,-0.1873,17.4357,1.6001
1215021.0,-78.4532,1.5419,-3.9385,3.2102,17.4357,2.9575
1215031.0,-78.4532,-9.3087,27.6961,7.7215,17.4357,3.7594
1215041.0,-78.4532,-10.5321,47.5488,11.2318,17.4357,2.6318
1215051.0,-78.4532,8.4443,65.9603,10.0271,17.4357,-0.1713
1215061.0,-78.4532,13.9941,78.4508,3.7956,17.4357,-2.8048
1215071.0,-78.4532,24.6124,78.4508,-1.4383,9.2343,-4.3537
1215081.0,-75.6113,35.7119,78.4508,-3.2028,0.3948,-3.9073
1215111.0,-78.4532,30.2436,78.4508,0.0,0.0,0.0
1215121.0,-78.4532,-20.2358,78.4508,0.6662,-17.1441,12.8191
1215131.0,-78.4532,-46.6199,78.4508,-1.3803,-17.4363,8.4095
1215141.0,-78.4532,-49.5983,78.4508,-5.0726,-17.4363,3.5034
1215151.0,-78.4532,-35.9609,78.4508,-9.229,-17.4363,-1.3021
1215161.0,-78.4532,-9.3087,55.7657,-10.9583,-17.4363,-4.2941
1215171.0,-78.4532,15.093,9.7875,-8.2866,-17.4363,-4.7848
1215181.0,-78.4532,30.8277,-37.407,-4.8071,-17.4363,-3.587
1215191.0,-76.5857,31.9482,-64.9403,-1.5735,-17.4363,-2.0412
1215201.0,-61.1958,30.866,-78.4532,-2.3275,-17.4363,-0.9062
1215211.0,-41.9177,19.7091,-73.9042,-3.5002,-17.4363,-0.3991
1215221.0,-32.1685,12.469,-58.1408,-3.8876,-17.1511,-0.3826
1215231.0,-27.9643,5.7652,-32.1685,-3.3012,-14.0808,-0.3368
1215241.0,-25.0625,2.3846,-13.2543,-1.2616,-12.3275,-0.158
1215251.0,-22.9652,0.996,-4.9991,0.3821,-12.5935,0.0372
1215261.0,-15.9837,1.4365,-4.3766,2.9069,-10.5992,0.2756
1215271.0,-14.2311,5.0949,-3.7254,2.4493,-9.3753,0.2458
1215281.0,-11.5975,5.8419,3.9361,-0.0564,-10.0878,-0.0032
1215291.0,-8.6574,7.604,6.5218,-3.2948,-11.127,-0.3735
1215301.0,-7.0868,5.861,10.8793,-6.2709,-12.7021,-0.7407
1215311.0,-5.3534,3.2465,7.7668,-8.1679,-13.9781,-0.9844
1215321.0,-3.6871,-3.3423,6.9815,-7.8157,-13.3757,-1.1792
1215331.0,-1.3408,-4.6735,4.5011,-5.4696,-12.0774,-1.2888
1215341.0,-0.2586,-4.0606,4.8363,-1.8927,-10.24,-0.9982
1215351.0,2.0494,-2.6911,1.7909,1.5474,-7.8093,-0.5736
1215361.0,4.2617,0.1628,6.0142,3.6354,-5.7223,-0.2634
1215371.0,2.8156,4.9512,9.8737,3.5045,-5.3807,0.025
1215381.0,3.735,5.1619,14.3365,2.2359,-5.8006,0.2724
1215391.0,4.1851,4.4053,15.6293,1.0302,-6.2188,0.422
1215401.0,4.9608,3.0071,15.0835,0.1155,-6.2491,0.4119
1215411.0,5.2481,2.1931,13.0245,-0.5805,-5.4893,0.4236
1215421.0,5.8706,-1.8962,16.7403,-0.7716,-4.3064,0.2751
1215431.0,5.6024,-3.0933,21.318,-1.4399,-3.8685,-0.1538
1215441.0,4.3191,-0.4214,26.1638,-2.2812,-4.4075,-0.5731
1215451.0,5.5833,5.5833,27.4471,-3.43,-4.9369,-0.6886
1215461.0,5.9376,10.2759,27.8877,-4.4788,-5.6186,-0.4901
1215471.0,5.6503,13.5225,27.8494,-5.2392,-6.4593,0.0144
1215481.0,6.0717,17.1904,22.63,-5.7724,-7.5698,0.7178
1215491.0,5.6599,16.1848,12.0572,-7.457,-9.1023,1.5367
1215501.0,7.8913,10.2951,-5.0757,-8.5111,-10.3145,2.1641
1215511.0,13.6182,8.1786,-28.1271,-9.436,-8.8395,2.3881
1215521.0,10.6207,7.5944,-41.0175,-8.5558,-6.7727,2.7409
1215531.0,11.0229,2.8635,-48.6693,-5.4339,-5.5526,3.1272
1215541.0,9.4619,-1.063,-62.9292,6.4779,-3.3821,3.7285
1215551.0,3.9073,-0.6033,-78.4532,17.4357,-1.3452,3.6572
1215561.0,-3.6583,16.1944,-78.4532,16.9425,2.0258,1.4878
1215571.0,-27.9068,36.8611,-78.4532,3.0655,8.6601,-1.1004
1215581.0,-74.3064,65.9267,-78.4532,-9.8505,17.4357,-1.4346
1215591.0,-78.4532,78.4508,-78.4532,-13.4385,17.4357,2.5424
1215601.0,-78.4532,78.4508,-78.4532,-6.8871,17.4357,9.287
1215611.0,-78.4532,78.4508,-78.4532,4.9407,17.4357,17.1255
1215621.0,-78.4532,35.8939,-7.7859,17.4357,17.4357,17.4357
1215631.0,-78.4532,-29.1518,78.4508,17.4357,17.4357,17.4357
1215641.0,-78.4532,-73.4541,78.4508,17.4357,17.4357,16.0443
1215651.0,-78.4532,-32.3026,78.4508,17.4357,17.4357,5.0593
1215661.0,-78.4532,-6.359,78.4508,17.4357,17.4357,-5.7074
1215671.0,-78.4532,27.993,78.4508,1.6868,17.4357,-13.1911
1215681.0,-78.4532,54.9996,78.4508,-2.2631,17.4357,-14.218
1215691.0,-78.4532,78.4508,78.4508,-1.8448,0.912,-11.2047
1215701.0,-78.4532,78.4508,78.4508,-0.721,-16.1565,-6.0001
1215711.0,-78.4532,78.4508,78.4508,-2.3291,-17.4363,-1.2978
1215721.0,-78.4532,78.4508,78.4508,-2.2019,-17.4363,1.7714
1215731.0,-78.4532,78.4508,78.4508,-5.4393,-17.4363,2.7345
1215741.0,-78.4532,61.2245,78.4508,-6.6812,-17.4363,2.0242
1215751.0,-78.4532,57.1161,30.6649,-13.3385,-17.4363,-0.1681
1215761.0,-78.4532,51.2838,-28.7304,-16.0033,-17.4363,-2.4706
1215771.0,-78.4532,60.8798,-78.4532,-17.4363,-17.4363,-3.7067
1215781.0,-78.4532,50.556,-78.4532,-16.0634,-17.4363,-3.8317
1215791.0,-78.4532,38.5275,-78.4532,-14.6374,-17.4363,-4.0057
1215801.0,-78.4532,22.7162,-78.4532,-3.2964,-17.4363,-3.7338
1215811.0,-78.4532,27.6291,-78.4532,4.4022,-17.4363,-2.3615
1215821.0,-78.4532,27.0066,-78.4532,0.6891,-17.4363,-1.7677
1215831.0,-47.3286,39.4086,-78.4532,-14.4644,-17.4363,-1.7022
1215841.0,-68.0241,42.8562,-78.4532,-17.4363,6.6934,-1.3973
1215851.0,-78.4532,49.6845,-78.4532,-12.4791,17.4357,0.4741
1215861.0,-78.4532,71.1269,-78.4532,2.1327,17.4357,4.1281
1215871.0,-78.4532,68.6849,-78.4532,11.4521,17.4357,8.7666
1215881.0,-78.4532,55.2199,-78.4532,17.4357,17.4357,12.3439
1215891.0,-78.4532,22.7353,-78.4532,17.4357,17.4357,14.2686
1215901.0,-78.4532,-56.0626,-78.4532,17.4357,17.4357,9.4652
1215911.0,-78.4532,-78.4532,75.1971,17.4357,17.4357,0.8748
1215921.0,-78.4532,-50.9773,78.4508,17.4357,17.4357,-11.9486
1215931.0,-78.4532,50.0675,78.4508,13.5896,17.4357,-17.4363
1215941.0,-78.4532,78.4508,78.4508,3.9919,17.4357,-15.7229
1215951.0,-78.4532,78.4508,78.4508,5.2269,17.4357,-4.5969
1215961.0,-78.4532,78.4508,78.4508,9.7526,6.5865,6.9366
1215971.0,-78.4532,78.4508,78.4508,3.0761,-14.0547,13.5497
1215981.0,-78.4532,72.8699,78.4508,11.4218,-17.4363,16.3002
1215991.0,-78.4532,30.8948,78.4508,-5.5909,-17.4363,11.1903
1216001.0,-78.4532,-2.6624,78.4508,-12.9937,-17.4363,4.1579
1216011.0,-78.4532,18.8855,78.4508,-17.4363,-17.4363,-2.0683
1216021.0,-78.4532,45.1259,78.4508,-17.4363,-17.4363,-4.2548
1216031.0,-78.4532,78.051,47.2041,-16.0421,-17.4363,-2.1737
1216041.0,-78.4532,78.4508,-18.3109,-11.8533,-17.4363,2.1391
1216051.0,-78.4532,52.5767,-78.4532,-10.3581,-17.4363,6.4082
1216061.0,-78.4532,-6.9911,-78.4532,-8.268,-17.4363,8.0056
1216071.0,-78.4532,-59.3283,-78.4532,-13.2661,-17.4363,4.8497
1216081.0,-49.311,-78.4532,-78.4532,-17.4363,-17.4363,-2.8505
1216091.0,-42.7126,-66.214,-78.4532,-17.4363,-17.4363,-10.6561
1216101.0,-53.9845,-1.0726,-78.4532,-17.0936,-17.4363,-14.573
1216111.0,-40.0789,51.9638,-78.4532,-10.0495,-17.4363,-14.2377
1216121.0,-59.788,78.4508,-78.4532,-5.8022,-17.4363,-9.5222
1216131.0,-56.7043,78.4508,-78.4532,-1.1935,-1.1483,-1.6128
1216141.0,-57.2693,78.4508,-78.4532,4.6443,17.4357,5.4691
1216151.0,-78.4532,26.1255,-78.4532,6.3859,17.4357,8.873
1216161.0,-78.4532,-18.0906,-78.4532,7.1755,17.4357,8.7224
1216171.0,-78.4532,-56.7138,-78.4532,8.3574,17.4357,3.9914
1216181.0,-78.4532,-68.9913,-25.9053,17.4357,17.4357,-4.7427
1216191.0,-78.4532,12.8904,78.4508,17.4357,17.4357,-8.8831
1216201.0,-78.4532,78.4508,78.4508,17.4357,17.4357,-9.246
1216211.0,-78.4532,78.4508,78.4508,15.4499,17.4357,-3.0857
1216221.0,-78.4532,78.4508,78.4508,10.7497,17.4357,5.0609
1216231.0,-78.4532,78.4508,78.4508,10.9487,17.4357,11.1068
1216241.0,-78.4532,71.8165,78.4508,5.9889,17.4357,10.9833
1216251.0,-78.4532,26.7001,78.4508,-5.2104,8.3478,6.868
1216261.0,-78.4532,9.6822,78.4508,-14.1244,-12.7202,2.1508
1216271.0,-78.4532,12.4882,78.4508,-16.9659,-17.4363,-0.1075
1216281.0,-78.4532,23.2525,78.4508,-15.5686,-17.4363,0.1282
1216291.0,-78.4532,23.5206,78.4508,-12.3195,-17.4363,1.3218
1216301.0,-78.4532,9.7779,78.4508,-10.9338,-17.4363,1.7358
1216311.0,-78.4532,-5.545,24.622,-8.0296,-17.4363,0.6071
1216321.0,-78.4532,3.0933,-56.8767,-11.1451,-17.4363,-1.3697
1216331.0,-78.4532,0.1149,-78.4532,-14.8731,-17.4363,-3.5822
1216341.0,-78.4532,4.3574,-78.4532,-17.4363,-17.4363,-6.5077
1216351.0,-78.4532,7.2688,-78.4532,-17.4363,-17.4363,-8.9741
1216361.0,-78.4532,33.7966,-78.4532,-9.9021,-17.4363,-9.5727
1216371.0,-72.9465,56.6947,-78.4532,-4.4969,-17.4363,-9.0337
1216381.0,-60.8031,78.4508,-78.4532,-1.3537,-17.4363,-7.0537
1216391.0,-57.1927,78.4508,-78.4532,0.9142,-4.9369,-3.8498
1216401.0,-58.3323,78.4508,-78.4532,-4.6475,9.345,0.9307
1216411.0,-64.5573,78.4508,-78.4532,-4.2729,17.4357,5.7889
1216421.0,-78.4532,77.802,-78.4532,2.2902,17.4357,10.8173
1216431.0,-78.4532,55.4401,-78.4532,15.1061,17.4357,15.4142
1216441.0,-78.4532,21.6627,-78.4532,17.4357,17.4357,17.4357
1216451.0,-78.4532,-28.8549,-78.4532,17.4357,17.4357,16.1501
1216461.0,-78.4532,-78.4532,78.4508,17.4357,17.4357,9.0741
1216471.0,-78.4532,-78.4532,78.4508,17.4357,17.4357,-3.2294
1216481.0,-78.4532,-2.7677,78.4508,17.4357,17.4357,-14.1106
1216491.0,-78.4532,78.4508,78.4508,9.1311,17.4357,-17.4363
1216501.0,-78.4532,78.4508,78.4508,0.505,17.4357,-13.7285
1216511.0,-78.4532,78.4508,78.4508,2.2838,4.3575,-3.1123
1216521.0,-78.4532,78.4508,78.4508,6.7179,-9.958,7.2005
1216531.0,-78.4532,78.4508,78.4508,7.1021,-15.0508,12.3184
1216541.0,-78.4532,29.8605,78.4508,4.1271,-17.4272,11.2968
1216551.0,-78.4532,-2.8252,78.4508,-6.2555,-17.4363,5.361
1216561.0,-78.4532,-2.9784,78.4508,-12.8351,-17.4363,-1.416
1216571.0,-78.4532,34.6393,78.4508,-17.4363,-17.4363,-6.388
1216581.0,-78.4532,67.5644,78.4508,-17.4363,-17.4363,-7.3602
1216591.0,-78.4532,78.4508,78.4508,-17.4363,-17.4363,-4.657
1216601.0,-78.4532,78.4508,20.1975,-17.4363,-17.4363,-0.3592
1216611.0,-78.4532,61.8374,-65.9172,-13.9802,-17.4363,3.961
1216621.0,-78.4532,20.073,-78.4532,-10.34,-17.4363,6.0214
1216631.0,-78.4532,-18.7418,-78.4532,-13.4044,-17.4363,4.1297
1216641.0,-69.5276,-44.0342,-78.4532,-16.4444,-17.4363,-1.1132
1216651.0,-56.5798,-27.6099,-78.4532,-13.794,-17.4363,-6.8403
1216661.0,-51.5807,20.2645,-78.4532,-17.4363,-17.4363,-10.3187
1216671.0,-40.7302,63.2165,-78.4532,-14.4596,-17.1255,-9.6781
1216681.0,-48.1043,78.4508,-78.4532,-5.0774,-0.3778,-5.6505
1216691.0,-49.6079,78.4508,-78.4532,3.9882,13.3087,0.9461
1216701.0,-65.1414,78.4508,-78.4532,9.287,17.4357,7.3905
1216711.0,-78.4532,60.2477,-78.4532,10.3491,17.4357,12.3078
1216721.0,-78.4532,2.3942,-78.4532,10.1761,17.4357,14.093
1216731.0,-78.4532,-41.9081,-78.4532,10.7646,17.4357,11.2547
1216741.0,-78.4532,-78.4532,23.2046,17.4357,17.4357,4.1909
1216751.0,-78.4532,-56.3499,78.4508,17.4357,17.4357,-3.1389
1216761.0,-78.4532,8.8011,78.4508,17.4357,17.4357,-6.4918
1216771.0,-78.4532,78.4508,78.4508,17.4357,17.4357,-5.8091
1216781.0,-78.4532,78.4508,78.4508,14.5687,17.4357,-2.5371
1216791.0,-78.4532,78.4508,78.4508,7.871,17.4357,0.6907
1216801.0,-78.4532,74.0574,78.4508,5.7255,17.4357,3.2645
1216811.0,-78.4532,49.627,78.4508,2.3541,15.7681,3.885
1216821.0,-78.4532,35.9418,78.4508,1.6937,2.7047,3.4039
1216831.0,-78.4532,39.5426,78.4508,-1.5687,-9.5945,2.4685
1216841.0,-78.4532,39.2074,78.4508,-4.9167,-17.4363,1.7906
1216851.0,-78.4532,36.8611,78.4508,-7.0106,-17.4363,1.7352
1216861.0,-78.4532,30.8182,78.4508,-10.091,-17.4363,1.5591
1216871.0,-78.4532,16.5391,78.4508,-11.7847,-17.4363,1.1079
1216881.0,-78.4532,7.8913,53.8217,-12.0098,-17.4363,0.0208
1216891.0,-78.4532,8.5904,28.74,-12.6648,-17.4363,-1.4883
1216901.0,-78.4532,19.2302,19.4696,-10.7535,-17.4363,-2.088
1216911.0,-76.4516,29.5349,2.4325,-7.2564,-17.4363,-1.1573
1216921.0,-61.7034,33.0304,-21.9213,-5.2748,-17.4363,0.108
1216931.0,-51.5998,28.9794,-29.8222,-4.2537,-17.4363,1.1579
1216941.0,-44.0437,24.7177,-36.6887,-4.8566,-17.4363,1.7687
1216951.0,-35.3384,14.2311,-28.491,-5.2094,-17.4363,2.0391
1216961.0,-29.5636,3.371,-18.7514,-3.6455,-15.4754,1.9427
1216971.0,-25.7712,-2.8347,-5.8897,-3.2134,-13.9052,1.3814
1216981.0,-25.3498,-4.5586,6.7516,-2.5823,-13.7376,0.6524
1216991.0,-24.191,0.4022,13.4746,-2.5754,-14.1436,0.0096
1217001.0,-25.503,7.2592,19.01,-2.3381,-15.3232,0.0223
1217011.0,-24.622,11.7795,15.9262,-1.8986,-16.7328,0.5055
1217021.0,-22.2757,13.4171,4.1659,-2.5025,-17.4363,1.1994
1217031.0,-16.2231,8.5138,-6.1004,-3.4513,-16.8903,1.6575
1217041.0,-11.9997,3.2274,-12.2296,-3.8695,-14.7784,1.7863
1217051.0,-8.8202,-1.2641,-11.5975,-4.4974,-13.0777,1.5937
1217061.0,-4.2329,-5.2577,-8.6574,-4.6406,-11.3234,1.2547
1217071.0,-2.873,-7.3358,-2.8922,-4.0446,-9.851,0.8854
1217081.0,-1.063,-7.5465,4.2138,-2.3285,-8.2749,0.7088
1217091.0,0.3926,-5.1427,9.6822,0.3528,-7.2458,0.7811
1217101.0,-0.4405,-1.1971,10.1418,2.8825,-6.5397,1.1877
1217111.0,3.4477,1.8962,6.8283,4.4772,-5.4435,1.5857
1217121.0,4.5681,4.6639,5.4875,4.8076,-3.943,1.9215
1217131.0,4.1851,5.2098,8.916,3.6705,-3.3991,2.0226
1217141.0,5.8131,6.2632,14.0779,2.312,-3.024,1.9938
1217151.0,4.7597,7.4795,22.3044,1.8933,-3.0506,2.1726
1217161.0,4.4053,8.1786,25.12,2.0034,-3.6503,2.5323
1217171.0,6.1004,7.2018,24.6315,2.3833,-3.886,2.8649
1217181.0,7.7859,5.8035,23.0897,3.1097,-3.4779,3.0756
1217191.0,7.173,4.2425,22.3906,3.33,-3.3119,3.0958
1217201.0,6.2824,2.1835,23.9995,3.9994,-3.4055,2.9138
1217211.0,5.679,4.3574,21.816,4.7709,-3.1703,2.6962
1217221.0,4.5011,9.7205,18.2917,5.5553,-3.1208,2.6728
1217231.0,6.3973,15.3708,14.4706,5.8665,-1.997,3.0474
1217241.0,4.6256,17.1808,12.6701,5.6138,-1.1254,3.6859
1217251.0,7.6519,12.2009,13.2351,5.1583,-0.3108,4.1223
1217261.0,9.9599,6.8666,13.7427,4.7092,1.2872,4.0935
1217271.0,9.5481,2.9113,18.5407,3.8243,2.1678,3.7381
1217281.0,6.8666,-0.4214,25.436,3.1012,2.4323,3.2331
1217291.0,5.2385,-2.8252,31.4885,3.4029,2.403,2.6803
1217301.0,4.8937,-3.371,35.7311,5.1578,2.3275,2.1551
1217311.0,3.7445,0.1245,32.1398,6.4705,2.1375,1.6581
1217321.0,3.6392,4.8076,24.1431,6.4886,1.8885,1.4016
1217331.0,5.8897,7.9871,15.1314,5.6564,2.9974,1.2941
1217341.0,5.9376,9.7588,11.406,4.4618,4.8896,1.3186
1217351.0,5.0661,9.6438,13.8098,2.602,6.6275,1.4447
1217361.0,3.4093,6.2632,22.2469,1.9044,8.1387,1.5522
1217371.0,0.4597,3.0837,32.5899,1.7107,8.8224,1.5628
1217381.0,-2.0207,-1.6472,44.6471,3.0623,8.6298,1.492
1217391.0,-3.6775,-4.1276,50.0388,5.7644,7.9785,1.2845
1217401.0,-4.6352,-4.3383,46.2272,7.8747,6.9707,0.7492
1217411.0,-3.0263,0.7278,34.5531,8.0195,6.7052,0.0841
1217421.0,-3.0263,5.9089,26.3171,6.7371,7.8077,-0.4347
1217431.0,-4.5298,11.1474,23.3578,4.2771,8.8895,-0.8583
1217441.0,-7.4316,14.7387,26.5086,0.7189,9.4732,-1.0169
1217451.0,-10.5345,12.5648,35.9034,-1.6815,9.5429,-0.8615
1217461.0,-12.7372,6.2153,46.7252,-1.8725,9.3929,-0.7487
1217471.0,-13.963,2.0494,54.0228,0.4422,8.9533,-0.7535
1217481.0,-15.4953,1.2354,53.7067,3.2187,8.3504,-0.8104
1217491.0,-14.5089,1.8675,46.9455,5.6127,8.5207,-1.0185
1217501.0,-13.3692,6.0717,39.7246,5.5739,9.3971,-1.4399
1217511.0,-15.9645,10.2855,40.0406,4.4016,9.5099,-1.8704
1217521.0,-15.457,16.4051,38.5083,1.8752,9.926,-2.0705
1217531.0,-19.2207,18.0044,47.4052,-0.4991,9.6392,-1.9119
1217541.0,-21.883,16.3859,54.674,-1.5421,8.641,-1.5059
1217551.0,-21.7106,12.2487,58.974,-0.8344,7.797,-1.0988
1217561.0,-22.5725,8.7915,58.476,0.4007,7.1862,-0.8077
1217571.0,-22.0267,4.9991,55.8232,1.848,6.7765,-0.7854
1217581.0,-19.6995,4.5586,50.556,2.3158,6.9334,-1.1095
1217591.0,-20.2549,5.7174,48.9471,1.2473,7.017,-1.5671
1217601.0,-20.2741,6.9336,50.4123,-0.6231,6.6998,-2.1056
1217611.0,-21.3275,7.5178,55.6987,-2.27,5.973,-2.5009
1217621.0,-21.7489,7.6231,60.1519,-2.8234,4.7161,-2.6787
1217631.0,-22.2182,9.0022,60.0466,-2.452,3.5231,-2.6483
1217641.0,-22.2086,11.7124,55.1816,-1.7044,2.6425,-2.4429
1217651.0,-22.4193,12.3349,49.8952,-0.9062,2.4631,-1.9789
1217661.0,-20.7242,9.098,46.9072,0.6593,3.0703,-1.6618
1217671.0,-19.9485,6.8474,45.7484,1.8831,3.6647,-1.6448
1217681.0,-19.3643,4.7884,45.2313,2.5807,3.6726,-1.9294
1217691.0,-18.828,4.5107,44.4555,2.4153,3.3193,-2.4557
1217701.0,-17.8607,5.5258,43.9575,1.7533,2.9059,-3.0698
1217711.0,-18.5215,7.173,44.2161,1.4356,2.5696,-3.5593
1217721.0,-19.7186,10.161,44.2257,1.3814,2.1215,-3.877
1217731.0,-21.069,13.8576,43.8809,1.7203,1.6868,-3.8919
1217741.0,-21.7106,16.5487,40.7493,2.2737,1.5006,-3.612
1217751.0,-22.132,15.8017,36.6792,2.4919,1.6027,-3.3598
1217761.0,-20.1304,14.0204,33.5188,1.6527,1.9491,-3.5854
1217771.0,-21.1169,14.0971,35.1756,0.5906,2.2588,-4.001
1217781.0,-23.2238,15.9358,37.9337,-0.5938,2.1444,-4.3516
1217791.0,-23.7122,18.1576,41.3335,-1.6304,1.8214,-4.5927
1217801.0,-25.2349,20.9445,45.0685,-2.1045,1.4681,-4.5379
1217811.0,-26.2788,22.7545,47.7404,-2.2083,0.8471,-4.1952
1217821.0,-26.2883,24.0761,48.9183,-1.6927,0.2464,-3.6099
1217831.0,-26.3171,23.9229,48.9183,-0.9488,-0.074,-2.8723
1217841.0,-26.4033,21.567,48.8896,0.0154,-0.3874,-2.1093
1217851.0,-25.3785,17.5256,47.5584,0.5459,-0.6465,-1.6474
1217861.0,-24.8039,13.5608,47.2615,0.8455,-0.7913,-1.5458
1217871.0,-24.2676,11.9135,46.6869,0.5215,-1.1228,-1.7475
1217881.0,-24.7177,11.0421,48.7268,-0.0452,-1.5633,-2.0651
1217891.0,-25.3498,11.7986,49.5983,-0.7109,-2.4206,-2.3525
1217901.0,-24.8901,12.8521,48.9566,-1.4559,-3.3821,-2.5871
1217911.0,-24.8422,14.212,47.319,-2.1354,-4.0755,-2.6834
1217921.0,-24.5741,14.0683,46.1602,-2.6494,-4.5522,-2.7005
1217931.0,-24.7848,13.1873,45.8537,-2.7484,-4.9561,-2.66
1217941.0,-23.9037,12.038,44.5992,-2.8154,-5.2206,-2.618
1217951.0,-23.7218,9.7013,45.5377,-2.3578,-5.4212,-2.6542
1217961.0,-23.3578,9.4523,44.2257,-2.0699,-5.6856,-2.8106
1217971.0,-22.4863,9.5098,43.6319,-1.5894,-5.832,-2.9282
1217981.0,-22.8886,10.8984,43.2584,-1.1526,-5.9772,-2.9963
1217991.0,-23.377,13.1106,40.8834,-0.953,-6.429,-2.9671
1218001.0,-21.9883,15.3325,38.0774,-1.1249,-6.5242,-2.8521
1218011.0,-21.6819,16.5966,36.8707,-1.5027,-6.3316,-2.6462
1218021.0,-21.4137,15.6293,37.972,-1.5479,-6.297,-2.3876
1218031.0,-19.9198,13.7427,38.7286,-1.4394,-6.2076,-2.2264
1218041.0,-19.3356,12.1338,40.7972,-1.1472,-6.2427,-2.1944
1218051.0,-18.8472,10.6877,42.4061,-0.7779,-6.4742,-2.2354
1218061.0,-17.8895,10.2376,42.9328,-0.3996,-6.8648,-2.3115
1218071.0,-17.8991,10.5345,43.0765,-0.5444,-7.5603,-2.5329
1218081.0,-16.9414,12.9287,41.0749,-0.8141,-8.4973,-2.6499
1218091.0,-16.5583,15.5432,37.4262,-1.1281,-9.0124,-2.5382
1218101.0,-15.5719,16.1752,35.032,-0.9573,-9.1438,-2.2072
1218111.0,-14.0875,15.773,32.9921,-0.2879,-8.6362,-1.7714
1218121.0,-13.3596,15.4187,31.6226,0.3821,-8.227,-1.3313
1218131.0,-11.6646,14.9973,31.546,1.143,-7.7976,-0.8232
1218141.0,-11.0516,13.6661,31.2395,1.326,-7.63,-0.398
1218151.0,-9.9886,10.7643,31.0863,0.9993,-7.8981,-0.223
1218161.0,-8.7245,8.6287,28.4814,0.1623,-8.4143,-0.3017
1218171.0,-7.0006,6.0525,25.7425,-0.787,-8.7506,-0.5454
1218181.0,-4.6352,3.8978,22.9748,-1.1648,-8.5292,-0.8945
1218191.0,-3.3423,3.9361,19.4122,-1.3149,-8.0652,-1.2553
1218201.0,-1.494,5.2194,16.9797,-1.3739,-7.2229,-1.4787
1218211.0,-0.067,6.8857,15.591,-0.8966,-6.0586,-1.4628
1218221.0,0.9194,8.1211,15.3325,-0.7508,-5.0561,-1.317
1218231.0,2.9784,7.7955,15.2175,-0.7104,-4.3202,-1.1467
1218241.0,3.7924,6.9815,15.0356,-1.1121,-3.7668,-1.1137
1218251.0,4.8076,6.5984,14.1162,-1.6171,-3.4885,-1.1611
1218261.0,5.6024,6.7995,12.8521,-2.0896,-3.0235,-1.2127
1218271.0,5.6599,7.5657,10.8314,-2.2056,-2.4855,-1.1547
1218281.0,6.924,8.3318,8.1499,-1.9342,-1.4857,-0.9381
1218291.0,6.9145,8.3606,6.1196,-1.2127,0.1745,-0.6114
1218301.0,7.288,7.106,5.4971,-0.6625,1.8214,-0.3113
1218311.0,7.4891,5.0087,6.675,-0.3336,3.4396,-0.24
1218321.0,5.8227,4.0414,9.8258,-0.3916,4.7161,-0.3214
1218331.0,4.7309,3.4572,14.4418,-0.2629,5.6388,-0.4204
1218341.0,3.304,4.4245,16.9605,-0.3469,6.2183,-0.4597
1218351.0,1.1875,4.4053,20.3316,-0.1389,6.7727,-0.3283
1218361.0,0.0383,3.8116,21.3659,0.5204,7.7359,-0.1894
1218371.0,-1.7142,2.5283,25.3307,1.6602,9.1002,-0.0463
1218381.0,-3.4189,2.0399,31.0672,2.9857,10.3102,-0.0176
1218391.0,-5.4971,3.237,36.0854,3.6077,10.6667,-0.108
1218401.0,-7.0198,4.2042,41.1898,3.5322,10.4459,-0.2597
1218411.0,-8.8969,5.9472,43.3255,3.0469,9.8122,-0.4337
1218421.0,-9.7971,8.0349,44.5226,2.1088,8.9235,-0.5667
1218431.0,-11.6358,10.4579,44.1108,1.2489,8.2861,-0.5167
1218441.0,-13.0723,10.3238,43.8713,0.5396,8.2206,-0.2277
1218451.0,-13.6757,7.4029,45.4036,0.265,8.5675,-0.0612
1218461.0,-14.528,4.1946,49.6174,-0.0803,8.5936,-0.1873
1218471.0,-15.8305,2.2889,54.3484,-0.6641,7.9349,-0.5177
1218481.0,-16.3572,0.7374,59.3954,-1.0935,6.7227,-0.9344
1218491.0,-16.9222,1.6472,60.1998,-1.3856,5.2445,-1.3744
1218501.0,-17.6884,4.3,58.476,-1.1653,3.9563,-1.5766
1218511.0,-17.7362,7.3837,52.8352,-0.506,3.2172,-1.4825
1218521.0,-18.1576,10.4962,45.9782,-0.0298,3.3145,-1.2467
1218531.0,-18.397,12.0189,42.7317,0.513,4.2346,-0.8189
1218541.0,-19.1823,11.655,43.7085,0.9386,5.1753,-0.3938
1218551.0,-19.4218,9.6438,48.5065,1.0876,5.4265,-0.1532
1218561.0,-20.1783,8.4755,52.7107,1.002,4.6847,-0.0442
1218571.0,-19.642,7.3167,54.4825,0.9472,3.6173,-0.0138
1218581.0,-19.2015,6.5888,51.5519,0.8838,2.568,-0.0995
1218591.0,-18.6652,7.2113,46.5912,0.1405,1.8246,-0.2959
1218601.0,-18.263,7.8626,42.0039,-0.8296,1.7166,-0.4571
1218611.0,-18.5311,7.2975,39.6959,-1.558,2.054,-0.6582
1218621.0,-18.8663,6.359,40.2513,-2.37,2.3009,-0.8993
1218631.0,-19.326,5.9089,43.4021,-2.6494,2.2732,-1.1105
1218641.0,-19.8431,6.9145,45.0301,-2.5882,1.9933,-1.1861
1218651.0,-19.7282,8.3606,44.4364,-2.378,1.7411,-1.11
1218661.0,-19.9485,9.414,43.5936,-2.1567,1.6591,-0.8881
1218671.0,-19.8431,9.1075,42.2816,-1.7895,1.7182,-0.6556
1218681.0,-19.7857,8.4563,40.6057,-1.7129,1.7629,-0.522
1218691.0,-19.2207,6.7133,40.5769,-1.8214,2.0598,-0.5119
1218701.0,-19.9293,5.3247,42.3295,-1.8794,2.1907,-0.655
1218711.0,-19.6516,5.2194,44.5513,-2.3982,2.071,-0.8732
1218721.0,-20.3316,5.2768,47.6733,-2.6302,1.5383,-1.0621
1218731.0,-20.7912,6.2728,49.56,-2.9378,0.6439,-1.1414
1218741.0,-20.3699,6.8761,49.4355,-2.6733,-0.0931,-1.0892
1218751.0,-20.2837,8.2456,46.8785,-2.485,-0.6061,-0.9615
1218761.0,-19.9198,9.0501,43.0956,-2.345,-0.9514,-0.7737
1218771.0,-19.5846,10.5824,39.0734,-2.4429,-0.928,-0.5103
1218781.0,-19.9006,10.7069,36.9186,-2.4924,-0.638,-0.1149
1218791.0,-18.9621,7.853,36.8994,-2.1513,-0.075,0.2522
1218801.0,-18.3013,4.8171,37.6656,-1.8895,0.3171,0.3379
1218811.0,-17.7171,2.4421,39.3798,-1.9592,0.3336,0.2543
1218821.0,-17.4968,0.929,39.715,-1.9949,0.0878,0.0617
1218831.0,-17.267,-0.0287,38.7478,-2.1024,-0.0649,-0.1724
1218841.0,-16.9988,-0.3735,38.087,-2.0359,0.1453,-0.4342
1218851.0,-17.8991,-0.0479,38.154,-1.9427,0.3145,-0.6529
1218861.0,-18.0331,0.8619,38.0008,-1.9055,0.4704,-0.8221
1218871.0,-18.7514,1.81,38.901,-2.0832,0.5933,-0.9078
1218881.0,-18.9238,1.494,41.1898,-2.3035,0.705,-0.9578
1218891.0,-19.0962,0.2682,44.829,-2.2147,0.4704,-1.0674
1218901.0,-19.326,-0.0096,48.1043,-1.9789,-0.0245,-1.2255
1218911.0,-19.9102,1.1013,49.9622,-1.5559,-0.7263,-1.3122
1218921.0,-21.0498,2.5474,49.8856,-1.0813,-1.6613,-1.2547
1218931.0,-20.9828,4.3479,46.0357,-0.8168,-2.4631,-1.1483
1218941.0,-20.6284,4.2329,40.529,-0.887,-2.7031,-0.9972
1218951.0,-19.6229,2.0016,37.656,-0.3954,-2.187,-0.9243
1218961.0,-19.4218,0.4884,36.1046,0.0027,-1.3218,-1.0993
1218971.0,-19.393,0.0192,39.1308,0.3001,-0.6827,-1.3351
1218981.0,-19.7378,1.5419,43.201,0.4385,-0.5114,-1.5069
1218991.0,-20.389,2.9113,47.999,0.5135,-0.9833,-1.5713
1219001.0,-21.0211,4.5586,51.0061,0.6971,-1.8688,-1.5623
1219011.0,-20.9732,5.9185,52.5575,0.8312,-2.7106,-1.4058
1219021.0,-21.7489,6.5793,53.8887,1.118,-3.4688,-1.1765
1219031.0,-22.0267,6.5793,53.611,1.185,-4.4171,-0.944
1219041.0,-21.701,5.9664,54.4154,1.0977,-5.1865,-0.795
1219051.0,-21.3371,6.8666,54.3484,1.1318,-6.1986,-0.6199
1219061.0,-21.0115,7.9583,52.9406,0.4917,-7.4948,-0.4693
1219071.0,-20.2166,9.1363,50.1059,-0.0474,-8.683,-0.24
1219081.0,-18.9429,8.3893,46.2368,-0.3193,-9.4402,0.0814
1219091.0,-17.7171,6.6367,43.2776,0.0761,-9.5057,0.3938
1219101.0,-16.2901,4.1946,41.276,0.737,-9.3051,0.6146
1219111.0,-15.0739,2.4612,39.8299,1.3968,-9.313,0.7396
1219121.0,-13.465,1.1779,38.3934,1.8337,-9.3929,0.7476
1219131.0,-11.6167,0.4022,35.664,1.9007,-9.5387,0.6423
1219141.0,-9.7205,-0.9002,33.7295,1.7017,-9.5019,0.415
1219151.0,-7.7189,-1.3982,31.6418,1.441,-9.4253,0.0059
1219161.0,-6.1004,-0.0096,30.6458,0.8881,-9.4211,-0.4081
1219171.0,-5.1715,1.9441,28.8836,0.248,-9.4317,-0.7311
1219181.0,-4.865,3.5147,28.1367,-0.2033,-9.5594,-0.9253
1219191.0,-3.2944,4.4819,27.1598,-0.3145,-9.4455,-0.9057
1219201.0,-2.1261,4.4915,26.9012,0.1575,-9.2008,-0.8248
1219211.0,-1.2163,5.2002,24.4783,0.588,-8.9831,-0.6577
1219221.0,0.5459,4.9321,22.8311,1.3106,-8.5377,-0.4166
1219231.0,1.2641,5.5162,19.4696,1.8906,-8.1003,-0.1687
1219241.0,4.2521,5.3726,16.6158,1.9007,-7.3373,0.0729
1219251.0,6.043,3.8786,15.8592,1.8262,-6.5971,0.1043
1219261.0,5.9759,2.9592,15.6293,0.6907,-6.7647,-0.1325
1219271.0,7.6231,0.2298,14.777,-0.1309,-6.6142,-0.4182
1219281.0,9.0214,-2.6528,14.7291,-0.5087,-6.2598,-0.9567
1219291.0,9.8067,-2.5187,12.038,-1.1813,-6.3098,-1.6613
1219301.0,10.7069,0.5746,8.7245,-1.4702,-5.6904,-2.204
1219311.0,10.9654,4.367,5.6312,-1.2712,-4.4878,-2.3615
1219321.0,11.0133,7.604,3.553,-0.5811,-2.9623,-2.1418
1219331.0,11.2049,9.5385,3.2178,0.1958,-1.3564,-1.7475
1219341.0,10.8314,9.9024,3.371,0.803,-0.1836,-1.3431
1219351.0,10.8026,9.9407,1.7238,1.202,0.5752,-1.0163
1219361.0,11.473,10.1706,-2.1739,1.5405,1.698,-0.6912
1219371.0,10.5536,10.6207,-6.4835,1.9454,3.7147,-0.3927
1219381.0,9.7875,13.0436,-11.0229,1.467,6.0012,-0.1064
1219391.0,6.9432,13.9534,-10.3238,0.7242,8.004,0.29
1219401.0,4.8554,13.4554,-10.659,0.2485,10.24,0.7375
1219411.0,2.4134,9.7013,-7.6423,0.2261,12.8846,0.9817
1219421.0,-1.1013,5.6407,-2.4038,-0.0649,15.0396,0.8652
1219431.0,-3.8499,2.5187,4.4819,-0.4507,16.6972,0.4017
1219441.0,-9.2895,1.8483,13.8289,-0.4651,17.4357,-0.1245
1219451.0,-14.5855,4.2808,23.0418,-0.1032,17.4357,-0.4603
1219461.0,-18.8088,8.9352,31.1725,0.7035,17.4357,-0.5103
1219471.0,-23.0897,15.591,38.1348,1.4218,17.4357,-0.216
1219481.0,-26.499,21.883,44.1778,1.5873,17.4357,0.3448
1219491.0,-28.4431,27.5142,48.1713,0.8977,17.4357,1.0818
1219501.0,-30.5596,29.5061,51.2934,-0.8269,17.4357,1.847
1219511.0,-32.5899,28.1845,56.1297,-2.518,16.073,2.6574
1219521.0,-35.348,24.4017,60.9851,-3.496,14.847,3.4992
1219531.0,-36.095,18.4162,66.6163,-3.1858,13.6976,4.2276
1219541.0,-36.3248,14.6717,69.269,-2.1343,12.4137,4.7113
1219551.0,-36.4876,13.8193,69.0871,-1.0791,10.9466,5.0418
1219561.0,-35.3384,14.1737,64.4136,-0.0298,9.4429,5.2711
1219571.0,-33.6625,16.022,54.9613,-0.0846,8.4718,5.2578
1219581.0,-35.0798,19.0195,46.3517,-1.086,8.1424,5.2828
1219591.0,-34.917,18.0523,43.9001,-1.4873,8.8799,5.551
1219601.0,-37.6273,17.3723,42.6072,-1.7246,9.7334,5.7431
1219611.0,-40.3088,15.2175,49.3876,-2.1157,10.3198,6.0017
1219621.0,-41.391,13.3501,57.0107,-1.5027,10.4965,6.2401
1219631.0,-42.8466,12.3732,63.8103,-1.4207,9.5179,6.3375
1219641.0,-42.3774,12.9957,67.076,-1.0781,8.0509,6.4183
1219651.0,-41.6016,14.8249,65.6777,-1.533,6.2944,6.4396
1219661.0,-39.897,16.9605,60.8893,-2.5467,4.3745,6.4348
1219671.0,-39.8682,19.7186,54.4537,-4.2287,2.9383,6.4636
1219681.0,-41.5155,19.0483,49.876,-5.6207,2.2131,6.8371
1219691.0,-40.9983,12.6318,50.2974,-5.4116,2.1896,7.2293
1219701.0,-41.3143,8.734,50.3644,-4.93,1.7538,7.3623
1219711.0,-41.0462,7.1635,49.8952,-4.4501,1.144,7.4522
1219721.0,-39.7054,6.1004,48.2192,-3.646,0.7742,7.6321
1219731.0,-38.6424,5.3439,45.7771,-2.7313,0.5683,7.7672
1219741.0,-37.589,5.7461,42.6743,-2.1923,0.5151,7.8641
1219751.0,-36.8516,6.9719,39.3894,-2.1747,0.2916,7.9088
1219761.0,-37.2346,8.6287,34.534,-2.6121,0.1777,7.9524
1219771.0,-39.6001,9.5672,30.1286,-3.4529,0.5896,8.0839
1219781.0,-38.4317,4.2425,34.419,-3.4284,1.9667,8.2829
1219791.0,-38.4605,-2.0111,41.5633,-2.4791,2.5834,8.0408
1219801.0,-37.5602,-4.1276,46.6582,-2.543,1.7698,7.3256
1219811.0,-35.281,-3.3615,49.2918,-2.5414,0.7551,6.604
1219821.0,-34.3329,-1.1301,48.2575,-3.1086,-0.4108,5.9565
1219831.0,-32.5899,0.4693,46.6774,-3.9791,-1.5399,5.3371
1219841.0,-31.6897,2.0111,44.446,-4.6672,-2.3429,4.8465
1219851.0,-30.9522,2.6336,43.2776,-5.2488,-2.9468,4.4474
1219861.0,-30.0041,1.5131,43.0382,-5.1764,-3.3241,4.1664
1219871.0,-29.4774,-0.1053,42.8275,-4.8401,-3.6088,3.8568
1219881.0,-27.562,-2.2601,43.4308,-4.0856,-3.811,3.5178
1219891.0,-26.0968,-3.0742,42.6934,-3.3576,-3.9791,3.0942
1219901.0,-24.8231,-2.7964,42.3295,-2.9272,-4.4016,2.5776
1219911.0,-23.0131,-1.743,41.3526,-2.7686,-4.9034,2.1253
1219921.0,-22.4289,-0.7087,39.6192,-2.8761,-5.4281,1.674
1219931.0,-21.1169,-0.1341,38.2976,-2.949,-5.8107,1.2824
1219941.0,-21.0211,0.5267,35.5874,-3.0559,-6.1177,0.8902
1219951.0,-20.1783,0.431,34.4957,-3.2869,-6.1369,0.5268
1219961.0,-18.9812,-0.4214,34.4574,-2.9777,-5.8522,0.1793
1219971.0,-18.3779,-0.814,35.8556,-2.8974,-5.7633,-0.2778
1219981.0,-17.8991,-0.8428,37.1484,-2.8697,-6.0448,-0.7189
1219991.0,-17.3915,0.8619,37.3687,-2.9346,-6.5631,-1.1318
1220001.0,-16.5679,3.3806,36.2578,-3.1075,-6.9733,-1.4239
1220011.0,-17.2095,5.5258,35.5204,-3.2225,-7.3847,-1.5298
1220021.0,-17.0946,7.3167,33.7199,-3.1666,-7.8056,-1.4814
1220031.0,-16.6828,8.1499,31.1725,-3.0086,-7.8247,-1.276
1220041.0,-16.0507,7.0581,29.4487,-2.7941,-7.5917,-1.027
1220051.0,-14.3269,4.798,29.8796,-2.2535,-7.1452,-0.8461
1220061.0,-13.2543,2.5953,30.4351,-1.7373,-6.8611,-0.8184
1220071.0,-12.7755,1.4461,31.3257,-1.3494,-6.9153,-0.8466
1220081.0,-12.0764,0.3448,31.4311,-0.969,-7.0638,-0.9275
1220091.0,-11.1091,0.6608,30.1574,-0.4752,-7.1362,-1.0243
1220101.0,-10.6207,1.7238,27.1407,-0.2703,-7.0718,-1.0711
1220111.0,-9.8258,2.1069,24.8327,-0.2416,-6.6929,-1.0541
1220121.0,-8.0158,0.8045,23.8941,-0.0112,-5.8814,-1.1387
1220131.0,-7.4508,-0.4501,24.1144,-0.0724,-5.2195,-1.3686
1220141.0,-5.8514,-2.2314,27.3035,-0.0639,-4.7927,-1.6916
1220151.0,-4.6735,-3.486,30.1095,-0.1229,-4.7002,-2.1237
1220161.0,-3.8307,-3.7637,31.728,-0.2799,-4.9646,-2.6212
1220171.0,-3.6966,-2.9401,32.0823,-0.364,-5.2381,-3.0937
1220181.0,-3.7637,-0.4022,30.5117,-0.4342,-5.3829,-3.4672
1220191.0,-3.1699,2.3655,29.0177,-0.5662,-5.4994,-3.6838
1220201.0,-2.7869,5.3534,26.9874,-0.7694,-5.501,-3.737
1220211.0,-2.3846,7.5369,24.191,-1.0078,-5.4169,-3.5912
1220221.0,-1.1205,8.0349,22.2086,-1.0296,-5.0599,-3.3858
1220231.0,0.5459,7.671,19.7761,-0.796,-4.3122,-3.1756
1220241.0,1.1588,6.9623,19.7378,-0.5002,-3.4805,-2.9905
1220251.0,2.0399,6.3015,20.8774,0.0154,-2.7218,-2.8399
1220261.0,2.3463,6.924,21.0881,0.2852,-2.3461,-2.693
1220271.0,2.4325,7.0102,21.6723,0.5241,-2.1774,-2.4812
1220281.0,1.3695,7.422,19.5846,0.7364,-2.1088,-2.2349
1220291.0,2.3942,6.9336,17.2574,1.1254,-1.7091,-1.9624
