time_ms,ax,ay,az,gx,gy,gz
1279671.0,11.4443,7.5561,38.4221,0.2629,0.7024,-0.041
1279681.0,11.0038,8.3318,38.221,0.3496,0.9429,0.0176
1279691.0,11.5017,9.2416,38.5179,0.1469,0.9791,0.125
1279701.0,11.8561,7.604,40.6535,0.1096,0.8961,0.2102
1279711.0,12.038,7.3646,40.0311,0.0138,0.7412,0.1474
1279721.0,11.2623,7.1635,40.1556,-0.4315,0.5449,0.0346
1279731.0,11.0325,7.6327,41.1515,-0.6103,0.3634,-0.0027
1279741.0,10.8026,7.7476,41.0845,-0.5513,0.3022,0.0202
1279751.0,10.7356,7.3358,40.9887,-0.2176,0.3496,0.0511
1279761.0,11.0899,7.0294,40.9983,0.0841,0.4214,0.0612
1279771.0,11.5401,6.8474,40.6152,0.224,0.3996,0.0309
1279781.0,11.5496,6.857,39.9736,0.2714,0.3959,-0.033
1279791.0,11.3772,7.1156,39.0159,0.0644,0.3299,-0.1091
1279801.0,11.3772,7.3167,38.9393,-0.1958,0.2437,-0.1708
1279811.0,11.6358,7.7764,39.1596,-0.3193,0.2512,-0.1767
1279821.0,11.4443,8.1307,39.0925,-0.4975,0.2522,-0.1767
1279831.0,11.1091,8.3893,38.8244,-0.5726,0.2528,-0.1325
1279841.0,11.2623,8.4372,38.9968,-0.5316,0.3411,-0.0686
1279851.0,11.6646,8.0062,38.5466,-0.4214,0.5417,-0.0117
1279861.0,11.5688,7.106,39.5522,-0.3038,0.6678,-0.0192
1279871.0,11.6358,6.2249,39.8682,-0.3033,0.6385,-0.1107
1279881.0,11.8657,5.6407,40.2322,-0.3406,0.5715,-0.3081
1279891.0,11.6454,5.8035,40.2417,-0.2091,0.5502,-0.489
1279901.0,11.5688,6.6655,39.3319,-0.1304,0.629,-0.6492
1279911.0,11.4251,8.0062,38.8052,-0.1075,0.7881,-0.7327
1279921.0,10.9846,9.165,38.652,-0.3374,0.8886,-0.7843
1279931.0,10.9463,10.5249,38.8531,-0.763,0.8955,-0.7258
1279941.0,11.2432,11.1857,39.3032,-1.0461,0.9807,-0.6178
1279951.0,11.0229,11.0899,40.8259,-1.0871,1.0334,-0.4613
1279961.0,10.9271,10.9846,41.8985,-0.8642,1.1057,-0.331
1279971.0,10.6207,11.0133,43.1052,-0.6242,1.1036,-0.1277
1279981.0,9.912,10.7356,44.446,-0.3464,0.9488,0.083
1279991.0,10.0078,10.5728,43.7756,-0.0793,0.7694,0.2671
1280001.0,10.3717,9.8545,43.9575,0.3549,0.7439,0.4603
1280011.0,11.0899,9.7492,42.2241,0.5279,0.7588,0.5465
1280021.0,11.6358,9.1459,42.0326,0.4119,0.7934,0.5683
1280031.0,11.7795,9.3278,41.525,0.5385,0.9653,0.5917
1280041.0,11.4826,9.5289,41.9273,0.646,1.2302,0.6481
1280051.0,10.9654,9.8641,42.3965,0.9445,1.4819,0.7615
1280061.0,10.7548,10.7931,42.9041,1.1494,1.6735,0.9477
1280071.0,11.0708,11.6358,42.7221,1.2074,1.7911,1.2372
1280081.0,11.0612,11.6167,42.3103,1.0797,1.8677,1.5522
1280091.0,10.8122,10.9367,41.8123,0.4949,1.6852,1.7991
1280101.0,10.3621,9.2799,41.6783,-0.4033,1.3766,1.931
1280111.0,10.1227,7.2592,41.5059,-1.0616,1.1079,1.939
1280121.0,10.2568,4.798,42.0422,-1.1696,1.3537,1.9028
1280131.0,10.0556,2.6528,43.5266,-0.5044,1.7826,1.7767
1280141.0,9.8258,1.2641,45.1355,0.0883,1.9268,1.5708
1280151.0,9.845,0.7949,45.8442,0.5289,1.7613,1.3042
1280161.0,9.9024,0.8715,44.6662,0.8556,1.6469,1.0488
1280171.0,10.0078,1.0822,43.4117,0.8189,1.6118,0.7758
1280181.0,9.7109,0.9577,42.5019,0.6178,1.5873,0.5076
1280191.0,8.8873,1.2354,41.5825,0.4055,1.6368,0.2166
1280201.0,7.7572,1.7813,41.5538,0.3847,1.9284,0.008
1280211.0,7.1635,1.6664,42.3774,0.9679,2.4823,-0.1852
1280221.0,6.4739,1.8483,43.1052,1.499,2.9671,-0.3858
1280231.0,6.4739,2.0494,44.513,1.7762,3.2044,-0.704
1280241.0,6.7804,3.6105,44.2257,1.4628,3.3869,-1.0137
1280251.0,6.7133,4.8076,46.1411,0.7056,3.3741,-1.318
1280261.0,6.5122,6.5218,48.2767,-0.2911,2.9362,-1.6176
1280271.0,5.9185,8.4659,49.3684,-1.5575,2.2689,-1.8081
1280281.0,5.4684,10.1227,51.3413,-2.5376,1.5038,-1.8235
1280291.0,4.5586,10.9463,52.5862,-2.9777,1.0392,-1.641
1280301.0,3.0454,10.4196,54.3675,-2.6393,0.712,-1.3601
1280311.0,3.2848,8.8585,55.6796,-2.3418,0.2559,-1.1472
1280321.0,4.7597,6.8761,56.0052,-2.229,-0.5374,-1.1552
1280331.0,6.2153,5.612,54.9326,-2.3067,-1.4319,-1.3627
1280341.0,6.9336,5.2289,53.9078,-2.4435,-2.2306,-1.6464
1280351.0,7.6231,5.9472,51.2551,-2.5999,-2.8676,-1.9278
1280361.0,7.3646,6.9815,48.3725,-2.8463,-3.323,-2.1306
1280371.0,7.7381,7.9679,45.8059,-2.9862,-3.554,-2.2301
1280381.0,7.8147,9.5193,43.1435,-3.0873,-3.5093,-2.2184
1280391.0,8.0637,10.0078,41.1803,-3.1645,-3.1852,-2.1178
1280401.0,8.2265,10.3142,40.5865,-3.2581,-2.7345,-1.9475
1280411.0,8.3414,9.5481,42.3582,-3.0868,-2.3791,-1.7709
1280421.0,8.5808,8.0828,44.2544,-2.6749,-2.3136,-1.673
1280431.0,8.7532,7.3933,45.0206,-2.3158,-2.535,-1.6501
1280441.0,9.4523,7.0102,45.2217,-2.0093,-2.8489,-1.6703
1280451.0,9.3565,6.7995,44.4077,-1.5623,-3.1927,-1.7022
1280461.0,9.5672,7.288,42.9232,-0.9998,-3.2507,-1.7145
1280471.0,9.5768,8.3893,41.3143,-0.4746,-3.1613,-1.6692
1280481.0,9.7396,9.3087,40.0598,-0.1208,-3.0293,-1.5421
1280491.0,10.1227,9.8162,38.8435,0.1788,-2.8356,-1.3585
1280501.0,10.2472,10.4962,38.5371,0.3656,-2.5797,-1.2084
1280511.0,10.094,10.4674,38.2306,0.4454,-2.5281,-0.9913
1280521.0,10.2376,10.1706,37.9912,0.2379,-2.6004,-0.8402
1280531.0,10.5345,9.3948,37.8858,0.0495,-2.6776,-0.7157
1280541.0,11.0038,8.4563,37.2346,-0.0857,-2.5994,-0.6774
1280551.0,11.2527,7.2975,37.0239,-0.2661,-2.4919,-0.6518
1280561.0,12.038,6.359,37.7135,-0.5859,-2.5712,-0.7822
1280571.0,12.6988,6.4643,37.5985,-1.1169,-2.7154,-0.9371
1280581.0,12.7084,5.9089,38.3168,-1.8901,-3.0703,-1.1185
1280591.0,12.7372,5.7461,38.7861,-2.5658,-3.5189,-1.3255
1280601.0,13.0532,5.9951,38.7669,-3.0006,-3.9211,-1.5399
1280611.0,12.5648,6.6942,38.1061,-3.2145,-4.2095,-1.6831
1280621.0,12.2487,7.4412,37.2155,-3.0793,-4.3804,-1.7336
1280631.0,11.8657,8.4659,36.3919,-2.8761,-4.4969,-1.6783
1280641.0,11.6933,8.7149,34.917,-2.627,-4.6214,-1.5937
1280651.0,12.1721,8.8202,33.0783,-2.4765,-4.6118,-1.4873
1280661.0,12.4594,8.8202,31.4598,-2.3445,-4.4176,-1.3835
1280671.0,12.9191,8.7819,29.803,-2.1827,-4.1191,-1.2813
1280681.0,13.5895,9.1937,28.5006,-2.0689,-3.5923,-1.1318
1280691.0,14.2407,9.663,28.2516,-2.0109,-3.0767,-0.9791
1280701.0,14.1449,9.4044,28.0026,-2.1247,-2.7074,-0.7716
1280711.0,14.6238,9.0022,28.5676,-2.2168,-2.3732,-0.5949
1280721.0,14.9207,8.1211,29.3146,-2.1008,-1.9497,-0.4017
1280731.0,15.6389,7.3454,30.1574,-1.8688,-1.6432,-0.2783
1280741.0,15.6581,6.8666,30.6841,-1.9103,-1.5453,-0.2187
1280751.0,15.4857,6.9049,30.5692,-2.1987,-1.6267,-0.1873
1280761.0,15.6389,6.8378,30.8756,-2.5733,-1.8539,-0.1341
1280771.0,16.5296,7.1922,29.7168,-2.833,-1.8651,-0.0404
1280781.0,16.9031,7.2496,29.5253,-2.8016,-1.6006,0.1219
1280791.0,16.8743,7.1443,29.554,-2.4589,-1.26,0.2937
1280801.0,17.1138,7.0198,28.9794,-2.0832,-0.97,0.4922
1280811.0,17.765,6.5697,28.3569,-1.7741,-0.5986,0.6662
1280821.0,17.9661,6.2441,28.7783,-1.3133,-0.0239,0.8775
1280831.0,17.8703,5.7748,29.7647,-0.8109,0.4879,1.0818
1280841.0,17.5351,5.2002,30.5404,-0.4736,0.7098,1.2611
1280851.0,17.4872,4.5777,30.3106,-0.4534,0.7992,1.4388
1280861.0,17.5734,4.0989,30.0041,-0.4656,1.0813,1.5655
1280871.0,17.4394,3.7637,29.8701,-0.3592,1.5751,1.7198
1280881.0,17.4777,3.055,30.6649,-0.1666,2.3482,1.9018
1280891.0,16.6636,2.3367,31.9291,-0.0596,3.0479,2.0417
1280901.0,16.0795,1.4653,34.6585,-0.538,3.5088,2.1497
1280911.0,15.773,0.0862,37.7613,-1.0988,3.6801,2.2131
1280921.0,15.955,-2.1739,41.7261,-1.6613,3.6157,2.196
1280931.0,16.1656,-4.865,46.5816,-1.8384,3.3656,2.0385
1280941.0,15.2463,-6.7612,50.2495,-1.8597,2.8282,1.7347
1280951.0,14.8728,-8.2456,53.9749,-1.3691,2.2993,1.416
1280961.0,15.9933,-7.4316,54.6931,-0.3198,1.9789,1.0711
1280971.0,16.0795,-5.2577,54.8176,0.0995,1.806,0.8301
1280981.0,15.6868,-2.9784,55.7849,0.1128,1.3856,0.7056
1280991.0,15.1505,-1.3503,57.7386,-0.2528,0.7311,0.7114
1281001.0,14.9973,-0.68,59.5773,-0.6816,-0.1277,0.8099
1281011.0,15.2942,-1.3599,60.5733,-1.0866,-1.1483,0.8961
1281021.0,15.457,-2.3655,60.3913,-1.574,-2.2588,0.8705
1281031.0,15.5815,-2.8922,59.1847,-1.8597,-3.2581,0.8232
1281041.0,15.7251,-2.6336,56.5894,-2.1481,-3.9765,0.7593
1281051.0,15.5049,-2.9592,55.7753,-2.013,-4.4767,0.7141
1281061.0,16.5104,-2.3176,54.2239,-1.3377,-4.7023,0.7199
1281071.0,16.0795,-2.2889,52.6437,-0.7407,-4.8087,0.7801
1281081.0,16.3285,-3.371,51.8776,-0.182,-5.0966,0.7513
1281091.0,16.5966,-1.9345,49.7228,-0.008,-5.592,0.6997
1281101.0,16.5296,-0.929,47.0796,-0.4922,-5.965,0.6965
1281111.0,16.5391,-0.6321,45.1451,-0.8434,-6.3162,0.7476
1281121.0,16.7211,-0.2682,43.5266,-1.2936,-6.6679,0.7992
1281131.0,17.3723,-0.8236,42.205,-1.4686,-6.9435,0.911
1281141.0,17.4394,-2.4804,40.9983,-1.1536,-7.1596,1.0754
1281151.0,17.5351,-6.9049,39.0734,-0.3682,-7.274,0.9695
1281161.0,17.8799,-5.1619,38.0008,1.6171,-7.4283,0.8407
1281171.0,19.9293,-5.8993,30.5213,2.2503,-6.9441,0.803
1281181.0,18.646,-6.3877,27.8015,2.6989,-6.8419,0.5917
1281191.0,24.0569,-4.2808,17.2957,1.2989,-6.1661,0.6768
1281201.0,19.077,-6.5601,23.8367,0.6726,-5.9405,0.2171
1281211.0,21.9309,-1.0247,17.4202,0.4906,-5.4526,0.0968
1281221.0,20.14,-0.6991,19.9006,-0.0537,-4.9316,0.3219
1281231.0,20.1879,-2.8922,18.8759,0.1165,-4.6794,0.423
1281241.0,21.0977,-1.3886,22.381,1.4734,-4.582,0.5486
1281251.0,22.0362,-1.5897,18.4066,3.0639,-3.7988,0.8711
1281261.0,22.2469,-1.3886,17.4585,4.1718,-3.587,1.1834
1281271.0,23.3483,-0.7183,13.5608,4.2069,-3.3465,1.2851
1281281.0,24.0378,1.0918,8.3701,3.762,-3.2214,1.5618
1281291.0,25.12,0.7183,2.6815,1.7299,-2.768,1.9842
1281301.0,25.6371,-2.0207,2.6911,-0.0463,-2.3738,2.1572
1281311.0,27.3514,-4.7309,4.5777,-0.7157,-1.6581,2.1157
1281321.0,26.499,-7.0006,2.2027,-0.6705,-1.3441,2.1833
1281331.0,28.5485,-11.5688,1.2067,-1.2872,-0.5268,1.9933
1281341.0,30.6075,-16.2901,2.9975,-0.5114,0.4055,1.5139
1281351.0,31.0959,-17.8512,3.5626,-0.0596,0.9865,0.8413
1281361.0,34.4382,-18.7705,4.549,0.5837,1.3633,-0.0053
1281371.0,34.2275,-15.3899,2.1452,0.2134,1.3154,-0.8466
1281381.0,31.115,-12.1434,-0.6129,-1.6453,-0.2959,-1.4617
1281391.0,32.36,-6.8378,-14.2599,-4.2266,-1.5804,-1.8539
1281401.0,26.6906,-0.6416,-32.8101,-8.4787,-1.8826,-1.9305
1281411.0,24.7656,6.924,-48.4395,-12.3189,-1.5383,-1.6203
1281421.0,15.8305,14.3461,-52.5671,-12.8181,0.0378,-0.712
1281431.0,2.3942,23.942,-67.459,-10.7492,-0.7029,0.7966
1281441.0,-6.9623,26.499,-78.4532,-8.6373,0.8503,2.5877
1281451.0,-16.7786,18.9812,-78.4532,-4.283,7.8002,3.8131
1281461.0,-38.7573,27.8589,-78.4532,-3.0373,17.4357,4.7752
1281471.0,-63.7336,17.3628,-78.4532,-2.6419,17.4357,5.7724
1281481.0,-78.4532,11.8657,-78.4532,-3.3949,17.4357,6.4588
1281491.0,-78.4532,2.4612,-78.4532,3.3284,17.4357,6.9622
1281501.0,-78.4532,-14.7674,-67.2483,11.3095,17.4357,6.3662
1281511.0,-78.4532,-43.3159,-0.6704,17.4357,17.4357,2.7319
1281521.0,-78.4532,-38.221,74.6704,17.4357,17.4357,-2.9479
1281531.0,-78.4532,-13.9151,78.4508,17.4357,17.4357,-8.3281
1281541.0,-78.4532,19.3835,78.4508,17.4357,17.4357,-10.9578
1281551.0,-78.4532,64.0401,78.4508,16.0826,17.4357,-9.9505
1281561.0,-78.4532,78.4508,78.4508,2.5414,17.4357,-7.1979
1281571.0,-78.4532,74.2107,78.4508,1.8943,16.9584,-3.0628
1281581.0,-78.4532,74.6129,78.4508,-0.0798,-0.5374,1.0419
1281591.0,-78.4532,42.6359,78.4508,-1.8725,-16.487,4.0164
1281601.0,-78.4532,18.512,78.4508,0.9094,-17.4363,5.4095
1281611.0,-78.4532,2.7294,78.4508,-1.185,-17.4363,5.2104
1281621.0,-71.2993,-9.7971,78.4508,-3.181,-17.4363,3.943
1281631.0,-60.037,-12.9478,63.2452,-7.1739,-17.4363,2.2216
1281641.0,-49.4451,-14.8824,43.2106,-9.2002,-17.4363,0.5348
1281651.0,-40.3088,-13.781,21.318,-7.3708,-17.4363,-0.6428
1281661.0,-29.9179,-8.4946,4.8267,-5.2232,-17.4363,-1.4319
1281671.0,-18.4737,-7.3263,-1.1013,0.1091,-17.0968,-1.7448
1281681.0,-11.2336,-4.0989,-7.7381,5.6744,-10.0255,-1.7586
1281691.0,-11.7795,-1.3886,-6.0047,7.2389,-5.6947,-1.7778
1281701.0,-7.7764,4.1755,-2.4325,6.0294,-3.1687,-1.7927
1281711.0,-7.6231,7.2401,6.9432,4.2569,-1.0344,-1.7464
1281721.0,-7.9009,11.5305,12.8233,2.4568,0.7609,-1.524
1281731.0,-6.4452,8.169,27.4184,1.4128,2.9138,-1.2276
1281741.0,-8.6574,6.1387,44.3502,2.2285,3.4885,-1.2004
1281751.0,-9.8737,7.3358,55.9094,2.4977,2.5563,-1.0839
1281761.0,-9.6534,5.8227,64.8924,2.9798,0.8354,-0.97
1281771.0,-9.5193,7.1635,66.1087,2.9213,-1.036,-1.0259
1281781.0,-10.0365,9.8067,68.5604,1.9278,-3.214,-1.0424
1281791.0,-9.8258,13.1873,67.7176,0.6641,-5.542,-0.8977
1281801.0,-9.8737,14.9685,65.6107,-0.8003,-7.6113,-0.555
1281811.0,-10.477,13.7236,64.404,-1.441,-9.503,-0.1788
1281821.0,-10.3046,12.1242,61.0234,-1.1126,-10.8822,0.2655
1281831.0,-8.3414,9.6247,56.4553,-0.0452,-11.6511,0.5997
1281841.0,-7.5082,8.1786,50.805,0.8216,-12.0843,0.7833
1281851.0,-7.0677,8.1786,44.7045,0.6864,-12.6935,0.837
1281861.0,-7.4316,8.7149,40.1747,-0.2336,-13.3204,0.8583
1281871.0,-3.9648,8.0254,33.8349,-1.4037,-13.7386,0.804
1281881.0,-3.869,9.0692,30.7607,-2.2583,-13.3033,0.9355
1281891.0,-2.1165,9.5002,28.9028,-2.6654,-12.5339,1.0807
1281901.0,-1.4269,9.7205,33.2028,-2.0103,-11.9986,1.4559
1281911.0,-1.1779,8.3222,33.4135,-0.4667,-12.0816,1.8975
1281921.0,2.0303,6.9528,31.2874,0.9855,-12.1577,2.3131
1281931.0,4.0701,5.3726,27.179,2.0204,-11.9624,2.6281
1281941.0,5.4492,4.1276,24.3155,2.4147,-11.7081,2.9021
1281951.0,7.2592,0.9385,21.7872,2.014,-11.8124,3.0293
1281961.0,9.2033,-1.4653,17.9852,0.6806,-12.3652,2.8569
1281971.0,11.0708,-3.4381,14.461,-1.0754,-12.7217,2.5004
1281981.0,13.6565,-4.4915,12.2104,-2.1343,-12.6159,2.0508
1281991.0,14.959,-4.4245,10.0652,-2.5222,-12.021,1.6107
1282001.0,15.9167,-3.6009,10.8601,-1.6511,-11.367,1.35
1282011.0,17.5926,-1.2546,9.663,-0.191,-10.8045,1.3649
1282021.0,19.8623,-0.9673,6.0334,1.0536,-10.4826,1.4239
1282031.0,21.3754,-0.8428,0.4214,1.2159,-10.0245,1.4372
1282041.0,22.3714,-1.7142,-5.1044,0.8876,-9.4769,1.3739
1282051.0,23.7026,-1.494,-9.2512,0.0537,-8.5186,1.2398
1282061.0,23.3866,-0.9385,-11.4922,-0.7652,-7.7124,1.1196
1282071.0,25.9723,-0.8523,-14.3173,-1.3792,-6.8722,1.0366
1282081.0,29.8318,-1.5131,-16.4913,-1.0993,-5.5914,0.9057
1282091.0,32.2643,-0.3926,-16.8743,-0.4693,-4.1766,0.7897
1282101.0,32.5994,1.3599,-17.6692,-0.4933,-3.4864,0.7881
1282111.0,27.5525,2.8156,-17.3915,-0.8077,-3.8498,0.9174
1282121.0,20.7434,6.3686,-26.0202,-2.4546,-5.4797,1.2026
1282131.0,16.3955,8.169,-38.0103,-4.8497,-7.2176,1.5218
1282141.0,8.2648,11.2815,-60.3818,-5.3951,-8.1067,2.005
1282151.0,-3.7924,17.018,-78.4532,-10.7285,-7.3043,2.5621
1282161.0,-10.7739,20.0921,-78.4532,-14.0845,-4.9157,3.5109
1282171.0,-11.4826,22.697,-78.4532,-7.0654,7.266,4.7315
1282181.0,-35.6832,17.6692,-78.4532,-7.125,17.4357,6.3454
1282191.0,-46.2177,9.9024,-78.4532,-1.0797,17.4357,7.075
1282201.0,-71.261,-5.7365,-78.4532,3.5838,17.4357,6.8605
1282211.0,-78.4532,-19.2207,-78.4532,7.7582,17.4357,5.3174
1282221.0,-78.4532,-35.4246,-29.6306,15.8208,17.4357,2.1285
1282231.0,-78.4532,-16.6445,14.5951,13.4092,17.4357,-1.98
1282241.0,-78.4532,-14.0683,78.4508,9.487,17.4357,-4.7651
1282251.0,-78.4532,8.9352,78.4508,3.7104,17.4357,-5.8107
1282261.0,-78.4532,6.541,78.4508,7.2575,17.4357,-5.6031
1282271.0,-78.4532,24.3347,78.4508,-2.1817,17.4357,-5.2418
1282281.0,-78.4532,5.9664,78.4508,-8.3249,17.4357,-4.4192
1282291.0,-78.4532,13.5225,78.4508,-1.9576,5.6494,-2.1157
1282301.0,-77.1412,15.9167,78.4508,4.3202,-4.317,0.3821
1282311.0,-69.949,17.7937,78.4508,5.5074,-14.1585,1.8017
1282321.0,-64.4232,2.4038,78.4508,1.7868,-17.4363,2.0598
1282331.0,-54.3005,-6.8187,78.4508,1.2771,-17.4363,1.6581
1282341.0,-45.6622,-7.422,60.9851,1.6203,-17.4363,1.1568
1282351.0,-37.1197,-8.3414,28.7591,-0.6875,-17.4363,0.5241
1282361.0,-27.5525,-10.0269,9.8928,-2.3418,-14.7023,-0.1948
1282371.0,-15.4187,-8.2648,-4.7597,-1.6857,-7.5321,-0.8354
1282381.0,-15.5527,-10.6686,2.8156,1.1334,1.2989,-1.3963
1282391.0,-19.5941,-5.3534,9.7396,2.9272,6.7142,-1.8709
1282401.0,-20.3507,-4.2042,28.2228,1.9012,10.3182,-2.312
1282411.0,-24.3538,-3.6392,51.4275,2.8441,11.6772,-2.759
1282421.0,-23.9899,3.869,65.0552,1.5884,10.8567,-3.0511
1282431.0,-25.2445,5.2864,78.4508,-0.3182,8.0743,-3.2033
1282441.0,-23.7601,5.0853,78.4508,-1.3473,4.4889,-3.2507
1282451.0,-24.6603,1.5993,78.4508,-2.5137,0.7801,-3.5018
1282461.0,-24.3251,0.6991,78.4508,-2.8218,-3.0889,-3.9249
1282471.0,-24.9667,4.6448,78.4508,-3.3039,-6.6674,-4.2095
1282481.0,-26.7097,5.43,78.4508,-2.9346,-9.8292,-4.3133
1282491.0,-26.6235,10.2663,78.4508,-2.6052,-12.1354,-4.1585
1282501.0,-26.3937,13.4937,71.8165,-2.7159,-13.6359,-3.7743
1282511.0,-24.9093,14.959,61.8757,-2.8362,-14.2989,-3.2166
1282521.0,-24.0474,13.7906,54.9421,-2.8931,-14.4304,-2.7095
1282531.0,-22.6396,11.9806,50.2112,-2.5999,-14.1675,-2.2093
1282541.0,-20.9828,10.0269,47.5584,-1.9438,-13.9137,-1.7943
1282551.0,-20.2549,8.3127,44.4843,-1.4149,-13.9323,-1.4569
1282561.0,-18.8567,7.8147,42.3965,-0.8365,-13.9637,-1.2047
1282571.0,-17.5256,8.8107,38.7861,-0.0894,-13.828,-0.8801
1282581.0,-16.3189,9.4906,35.3384,0.1112,-13.3566,-0.4773
1282591.0,-14.1737,9.0309,33.9211,0.2826,-12.8542,-0.0553
1282601.0,-12.4115,8.4851,32.9634,0.2836,-12.5573,0.3241
1282611.0,-11.0133,7.4603,33.1741,-0.0468,-12.5286,0.7098
1282621.0,-9.1363,5.3726,33.2315,-0.4981,-12.7542,1.0036
1282631.0,-6.6272,4.2042,33.9594,-0.6369,-13.1772,1.2574
1282641.0,-5.4205,0.2107,34.285,-0.1687,-13.2038,1.3739
1282651.0,-5.2385,-2.6145,33.6337,1.1632,-13.7642,1.4112
1282661.0,-1.8675,-2.8922,28.1462,1.8879,-13.903,1.3723
1282671.0,0.2777,-2.8826,23.2525,2.0412,-13.7642,1.2797
1282681.0,1.743,-1.2641,18.014,1.2872,-13.5417,1.2393
1282691.0,3.6583,-1.2546,16.7211,0.3911,-13.2922,1.2276
1282701.0,5.794,-1.3886,15.6389,0.0266,-12.9186,1.2137
1282711.0,7.8338,-1.3408,13.7619,-0.1463,-12.4727,1.1988
1282721.0,9.7492,-2.6336,13.3405,-0.3342,-12.1939,1.126
1282731.0,12.4882,-3.5434,13.1968,-0.2171,-11.8486,0.969
1282741.0,13.3213,-3.3806,13.3501,0.4496,-11.5197,0.8801
1282751.0,14.0492,-2.5091,11.2719,1.0999,-11.3345,0.8902
1282761.0,14.4322,-2.4134,8.8298,1.8794,-11.085,0.9573
1282771.0,16.1465,-1.1971,2.4612,2.3094,-10.6944,1.0711
1282781.0,19.0291,-0.9002,-4.6256,1.7193,-9.6408,1.1749
1282791.0,23.4344,-2.9209,-6.5984,1.8709,-7.7502,1.2324
1282801.0,24.2197,-4.8746,-4.8842,2.5164,-5.7931,1.1009
1282811.0,24.0952,-4.7214,-2.806,2.8574,-4.7635,0.8812
1282821.0,23.9995,-4.4915,-0.1341,2.9729,-4.4016,0.704
1282831.0,23.8941,-4.0414,-0.7087,3.0341,-4.5102,0.4826
1282841.0,23.9516,-1.9249,-5.114,2.5855,-4.599,0.274
1282851.0,24.5166,1.0439,-12.5552,1.3776,-4.4086,0.2011
1282861.0,26.0776,2.308,-19.3643,-0.0708,-3.414,0.2006
1282871.0,28.3857,3.5051,-21.2126,-0.6194,-2.1391,0.1266
1282881.0,29.1422,6.2537,-22.0554,-1.2207,-1.2404,0.2389
1282891.0,27.3992,7.4603,-23.195,-1.55,-1.6245,0.2948
1282901.0,22.2373,10.2855,-27.8877,-1.5186,-2.0375,0.3113
1282911.0,14.3269,16.3955,-37.8667,-0.5614,-2.7234,0.4225
1282921.0,6.11,26.6523,-55.2486,0.5039,-2.3301,0.8216
1282931.0,-9.4619,39.6576,-78.4532,1.1877,-2.1891,1.7491
1282941.0,-14.5089,53.8217,-78.4532,-0.0357,1.1637,3.7253
1282951.0,-21.0881,57.3459,-78.4532,1.0727,10.4289,5.7042
1282961.0,-46.888,48.0947,-78.4532,0.886,17.4357,8.028
1282971.0,-63.0441,37.0718,-78.4532,3.5471,17.4357,9.5764
1282981.0,-78.4532,22.9939,-78.4532,6.1725,17.4357,10.4677
1282991.0,-78.4532,-0.68,-78.4532,5.8681,17.4357,10.3842
1283001.0,-78.4532,-51.1306,-12.9095,8.6665,17.4357,7.8492
1283011.0,-78.4532,-62.1343,62.4695,8.9001,17.4357,2.2242
1283021.0,-78.4532,-47.5776,78.4508,0.3682,17.4357,-1.2531
1283031.0,-78.4532,-39.7054,78.4508,9.5296,17.4357,-3.1772
1283041.0,-78.4532,5.6024,78.4508,10.5108,17.4357,-4.0143
1283051.0,-78.4532,19.0962,78.4508,-3.1746,17.4357,-4.184
1283061.0,-78.4532,19.4218,78.4508,-3.0804,15.8889,-1.7783
1283071.0,-78.4532,23.444,78.4508,5.9969,-0.4438,1.5181
1283081.0,-78.4532,15.8113,78.4508,3.6295,-17.4134,3.24
1283091.0,-78.4532,-5.3343,78.4508,1.2984,-17.4363,3.2523
1283101.0,-78.4532,-13.6565,78.4508,1.8975,-17.4363,2.4408
1283111.0,-78.4532,-15.3899,78.4508,2.1992,-17.4363,1.1621
1283121.0,-59.5486,-9.6534,20.2454,0.7897,-17.4363,-0.0857
1283131.0,-43.948,-2.1261,-5.1332,-3.1123,-17.4363,-0.887
1283141.0,-31.3449,4.1084,-12.0572,-4.3043,-17.4363,-1.16
1283151.0,-20.9732,6.1579,-7.5369,-4.5868,-10.8471,-0.7822
1283161.0,-16.4051,0.5842,6.3686,-0.9982,-5.9527,-0.3416
1283171.0,-11.6358,-2.2984,7.8051,2.0593,-2.187,-0.075
1283181.0,-7.355,-10.0078,12.1242,2.336,0.0772,-0.4613
1283191.0,-5.5545,-14.8249,16.7115,1.5469,1.144,-1.5793
1283201.0,-5.6503,-14.959,21.9405,-0.423,2.0268,-2.9474
1283211.0,-6.8091,-14.3556,31.2683,-1.4734,2.5068,-4.3394
1283221.0,-8.6383,-9.0022,38.4509,-2.2833,2.8495,-5.4249
1283231.0,-10.6207,-3.9265,48.4874,-2.7015,2.0976,-6.0331
1283241.0,-11.2719,2.4708,52.2223,-2.9229,0.539,-6.2587
1283251.0,-12.5743,7.1156,54.2239,-3.2549,-0.7902,-5.9671
1283261.0,-11.8465,6.0047,55.5838,-2.3152,-1.4644,-5.5462
1283271.0,-11.3677,4.1755,55.4784,-1.0302,-1.6511,-5.3174
1283281.0,-11.5879,2.8922,55.9669,-0.4161,-2.0279,-5.3041
1283291.0,-11.7699,3.1603,57.1735,-0.5784,-2.8622,-5.3786
1283301.0,-13.2256,5.5354,59.223,-0.7779,-4.0755,-5.4052
1283311.0,-13.0532,10.7643,58.0833,-1.5431,-5.5159,-5.1689
1283321.0,-13.1873,13.8864,56.666,-2.8074,-7.0388,-4.6485
1283331.0,-11.7986,14.4514,56.5894,-3.7274,-8.3739,-3.9749
1283341.0,-11.4539,12.7372,55.8136,-3.6045,-9.4051,-3.2475
1283351.0,-11.5209,9.3661,54.8272,-2.2833,-10.1394,-2.5504
1283361.0,-9.7683,5.8993,52.3085,-0.0873,-10.5369,-2.0077
1283371.0,-8.8011,4.118,45.4515,1.5905,-10.8631,-1.6655
1283381.0,-7.7764,2.9113,40.3471,1.9342,-10.9754,-1.558
1283391.0,-6.9432,3.8882,36.66,2.0236,-11.2042,-1.4952
1283401.0,-4.8459,5.3247,32.475,1.4697,-11.4399,-1.3452
1283411.0,-3.486,5.2002,28.9698,0.5992,-11.6517,-1.234
1283421.0,-1.4748,5.6503,25.005,-0.4363,-11.6719,-1.1398
1283431.0,1.0343,4.8842,20.9636,-1.7655,-11.3867,-1.0445
1283441.0,3.122,2.6145,20.4273,-2.7861,-10.671,-1.0632
1283451.0,5.114,-0.0383,23.2333,-2.154,-9.859,-1.1467
1283461.0,6.4739,-1.4365,25.0721,-0.5518,-9.0651,-1.2574
1283471.0,6.7133,-1.6664,24.5741,1.3473,-8.6479,-1.3814
1283481.0,8.2648,0.2298,19.1057,2.2162,-8.4164,-1.4591
1283491.0,9.414,2.4708,14.5951,1.9289,-8.1387,-1.5346
1283501.0,10.0556,4.5777,9.7971,0.8705,-7.5528,-1.5607
1283511.0,10.9654,6.1579,7.2688,-0.381,-6.5705,-1.4841
1283521.0,12.0859,6.043,6.7325,-1.2989,-5.2956,-1.3622
1283531.0,13.216,6.0238,6.8378,-2.0657,-3.8658,-1.276
1283541.0,13.8959,4.4724,9.7205,-2.1614,-2.4163,-1.16
1283551.0,15.2271,3.3327,12.4594,-1.7203,-1.0807,-1.1377
1283561.0,14.5567,2.1452,16.5966,-1.267,-0.0346,-1.2074
1283571.0,13.8576,1.3791,20.6955,-0.3427,0.455,-1.3218
1283581.0,13.7523,3.5913,21.7777,0.1932,0.5741,-1.442
1283591.0,13.1202,5.6982,20.7817,0.1713,0.4778,-1.4447
1283601.0,12.5265,7.6902,19.4122,0.0319,0.5704,-1.3085
1283611.0,12.9191,9.347,17.3244,-0.0218,1.1451,-1.0504
1283621.0,12.536,10.2568,15.4474,-0.2208,2.105,-0.6992
1283631.0,12.2009,10.4866,14.959,-0.555,3.2411,-0.3485
1283641.0,11.2623,10.2855,16.5391,-0.9402,4.3846,-0.0309
1283651.0,10.5441,10.6398,18.7131,-1.4851,5.4089,0.2852
1283661.0,9.2416,10.5824,23.9133,-1.6229,6.2874,0.6657
1283671.0,8.5329,11.1474,27.8972,-1.0068,6.9584,1.1201
1283681.0,7.4412,11.3006,31.2395,-0.4108,7.3751,1.6107
1283691.0,6.0238,11.6741,32.7431,0.0325,7.5081,2.1061
1283701.0,4.5681,11.8178,33.9785,0.182,7.6922,2.634
1283711.0,3.8307,10.5728,34.8213,0.2458,7.9977,3.1091
1283721.0,2.6432,9.2225,36.1524,0.0947,8.4196,3.4986
1283731.0,1.9824,6.6463,39.6192,-0.0511,8.7506,3.7572
1283741.0,0.8428,4.6735,42.9232,-0.1963,8.7639,3.8626
1283751.0,0.6225,2.5857,46.5912,-0.5577,8.3052,3.8301
1283761.0,0.5842,2.2218,48.7268,-0.7992,7.4437,3.7445
1283771.0,0.6991,1.312,50.1442,-1.0153,6.7169,3.6748
1283781.0,0.3926,1.3312,48.7555,-0.8051,6.1214,3.5816
1283791.0,-0.747,1.2354,48.066,-0.9493,5.9506,3.5173
1283801.0,-0.996,1.2641,47.252,-0.6667,5.9267,3.4694
1283811.0,-2.1356,1.2929,47.386,-0.5273,6.1448,3.388
1283821.0,-3.7445,1.0439,49.8377,-0.331,6.2177,3.2911
1283831.0,-4.798,1.7238,51.3796,0.2448,6.1661,3.2054
1283841.0,-5.3343,3.3327,51.7722,0.6657,6.0847,3.1767
1283851.0,-6.6272,5.4205,51.4562,0.6923,5.8399,3.2709
1283861.0,-7.7381,6.9815,51.8393,0.4954,5.5462,3.4795
1283871.0,-8.5329,8.5425,50.5943,-0.0697,5.2663,3.762
1283881.0,-10.1897,9.3374,50.4698,-1.0632,4.9928,4.1468
1283891.0,-11.5209,8.7724,51.9159,-1.9523,4.7411,4.5948
1283901.0,-12.4307,6.2441,54.9804,-2.0774,4.5826,5.0609
1283911.0,-12.5839,3.7733,57.3172,-1.4947,4.3857,5.377
1283921.0,-13.0628,1.7909,59.6827,-0.8157,3.9994,5.6553
1283931.0,-13.465,-0.9577,61.2533,-0.0596,3.273,5.7809
1283941.0,-13.6469,-1.7047,59.5486,0.2293,2.353,5.7458
1283951.0,-13.5608,-3.0837,58.045,-0.0005,1.4521,5.6383
1283961.0,-13.5895,-4.2329,55.8328,-0.3379,0.7434,5.4126
1283971.0,-14.0396,-4.8459,53.1896,-0.7503,0.3576,5.154
1283981.0,-13.4841,-5.1619,51.1593,-1.036,0.2629,4.8539
1283991.0,-13.1873,-5.2672,50.7475,-1.3388,0.3815,4.5373
1284001.0,-12.6701,-4.9225,51.8776,-1.3702,0.4789,4.2755
1284011.0,-12.9766,-3.0071,53.3332,-1.2829,0.3363,4.1686
1284021.0,-13.6182,-2.0207,55.3156,-1.301,-0.0197,4.2633
1284031.0,-14.0971,-2.3463,56.2542,-1.1345,-0.6359,4.3947
1284041.0,-13.8385,-2.7677,55.6412,-1.1323,-1.2159,4.5533
1284051.0,-13.216,-4.1276,55.2773,-1.1584,-1.69,4.6166
1284061.0,-12.153,-5.0278,54.8559,-1.0546,-2.0971,4.6608
1284071.0,-11.2815,-5.3822,54.5782,-1.0541,-2.4892,4.7246
1284081.0,-10.1514,-6.9432,54.5399,-1.2063,-2.9734,4.7709
1284091.0,-9.1554,-9.0597,53.994,-1.351,-3.5173,4.7379
1284101.0,-8.3222,-10.9654,53.8791,-1.6453,-4.1164,4.5969
1284111.0,-7.9487,-13.2735,53.8217,-1.9177,-4.7177,4.2734
1284121.0,-7.6806,-15.2559,54.2143,-1.839,-5.3834,3.8552
1284131.0,-6.7038,-16.1561,54.0515,-1.3117,-5.9336,3.422
1284141.0,-5.794,-16.7594,52.0404,-0.5795,-6.3763,2.9367
1284151.0,-5.2289,-15.5049,49.0524,-0.2171,-6.8052,2.4951
1284161.0,-4.1659,-14.03,46.3613,-0.1203,-7.101,2.1859
1284171.0,-2.6815,-13.6086,43.6128,-0.0447,-7.1042,1.9603
1284181.0,-1.4557,-13.8672,41.0175,-0.2283,-6.9622,1.6815
1284191.0,-0.3352,-14.5472,40.395,-0.4986,-6.8249,1.3457
1284201.0,0.5076,-14.9015,39.7054,-0.6486,-6.7424,0.9365
1284211.0,0.9098,-14.71,40.395,-0.4379,-6.7786,0.5598
1284221.0,1.7526,-14.03,39.5714,0.1203,-6.8238,0.2118
1284231.0,2.5187,-13.2735,37.5315,0.6667,-6.7967,-0.1027
1284241.0,3.5051,-11.8848,35.2714,1.21,-6.7743,-0.4172
1284251.0,3.9648,-9.6151,31.7088,1.3846,-6.5258,-0.6534
1284261.0,4.3191,-7.8051,28.0792,1.4101,-5.9756,-0.7184
1284271.0,5.1811,-6.3015,25.503,1.242,-5.07,-0.7343
1284281.0,5.8227,-6.3207,24.1048,0.7822,-4.1297,-0.7199
1284291.0,6.5601,-7.6902,24.8039,0.1623,-3.5476,-0.8642
1284301.0,7.5082,-7.9392,25.5988,-0.5289,-3.2943,-1.1238
1284311.0,8.2169,-7.8243,26.3171,-0.9732,-3.0479,-1.3744
1284321.0,9.0309,-7.5465,26.7863,-1.0036,-2.576,-1.591
1284331.0,9.1171,-7.1156,26.25,-0.8221,-2.0034,-1.7799
1284341.0,8.9543,-6.7804,26.1926,-0.82,-1.4867,-1.9491
1284351.0,9.2225,-7.5753,27.993,-0.5896,-1.0211,-2.1125
1284361.0,9.596,-7.1922,27.9068,-0.1825,-0.7242,-2.3615
1284371.0,9.3948,-6.924,27.9164,-0.0537,-0.4406,-2.5621
1284381.0,9.596,-6.2058,27.2747,0.0016,-0.2421,-2.743
1284391.0,9.4906,-5.8897,26.6906,-0.1719,-0.0819,-2.9138
1284401.0,9.5193,-5.5545,26.499,-0.4012,0.116,-3.1192
1284411.0,9.7492,-4.798,25.254,-0.7407,0.4198,-3.2927
1284421.0,9.2512,-4.2617,24.7465,-1.2031,0.7891,-3.4305
1284431.0,8.7532,-4.118,24.9572,-1.5091,1.1887,-3.521
1284441.0,8.3414,-3.6392,24.9859,-1.7629,1.6219,-3.5721
1284451.0,7.9487,-4.549,25.8191,-1.8321,2.0949,-3.6365
1284461.0,7.7668,-5.612,27.6482,-1.6277,2.5632,-3.7679
1284471.0,7.2975,-6.5601,29.7073,-0.7998,2.8958,-3.9504
1284481.0,7.1156,-6.1004,30.1669,0.1953,3.2374,-4.1521
1284491.0,6.9528,-4.7692,29.2284,0.9504,3.5758,-4.3027
1284501.0,5.9855,-3.5817,27.811,1.0461,3.9009,-4.3931
1284511.0,5.3726,-2.6815,27.2652,0.7125,4.093,-4.4878
1284521.0,4.3191,-2.1931,27.4854,0.1229,4.2548,-4.524
1284531.0,3.7828,-2.0303,27.2269,-0.3634,4.6555,-4.5591
1284541.0,3.5721,-3.0263,27.2939,-0.4294,5.5217,-4.5948
1284551.0,2.9209,-3.6775,28.9411,0.0734,6.8217,-4.6916
1284561.0,2.1835,-4.1851,33.3656,1.0967,8.1371,-4.8539
1284571.0,0.5363,-2.9209,38.0965,2.163,8.9134,-4.9593
1284581.0,-0.9194,-1.2641,42.5593,2.8356,9.0278,-4.9886
1284591.0,-2.059,0.1532,45.9208,3.2076,8.6399,-4.9614
1284601.0,-3.7541,0.8811,48.4108,3.2432,7.9221,-4.9119
1284611.0,-4.8746,1.5227,49.4834,3.0032,7.2272,-4.8672
1284621.0,-5.6407,1.8004,49.5121,2.7127,6.6934,-4.8497
1284631.0,-5.9664,1.743,49.1769,2.2104,6.3822,-4.8593
1284641.0,-6.3782,0.929,50.5081,1.8007,6.1549,-4.9119
1284651.0,-6.2249,0.5076,52.1649,1.5176,5.916,-5.0194
1284661.0,-6.6463,-0.1437,54.9517,1.2797,5.5207,-5.2046
1284671.0,-7.2975,-0.0575,57.3459,1.2957,4.8614,-5.4275
1284681.0,-8.0445,0.3926,58.9836,1.4713,4.0616,-5.6143
1284691.0,-8.8777,0.929,57.8631,1.9709,3.4944,-5.7479
1284701.0,-9.2129,1.1684,55.3539,2.3567,3.265,-5.8671
1284711.0,-8.9926,0.8715,54.0802,2.7744,3.389,-6.0581
1284721.0,-9.6343,2.1165,52.8544,2.8825,3.5923,-6.3263
1284731.0,-10.0461,3.8211,53.2183,2.229,3.6561,-6.5445
1284741.0,-11.0133,5.1332,55.7945,1.442,3.3491,-6.6966
1284751.0,-11.5209,6.7995,58.5143,0.6971,2.8266,-6.7839
1284761.0,-11.9519,7.7668,61.1096,0.3278,2.3088,-6.7594
1284771.0,-12.6988,9.0501,64.4519,0.6071,1.6751,-6.6918
1284781.0,-13.714,11.0612,65.4862,0.9913,0.7907,-6.4843
1284791.0,-13.7714,13.1298,66.1183,1.1685,-0.2192,-6.1432
1284801.0,-14.03,13.6948,65.5628,1.0179,-1.3601,-5.7399
1284811.0,-13.0436,13.7619,64.0018,0.6763,-2.5669,-5.3951
1284821.0,-12.5265,13.8289,62.3737,0.3225,-3.5636,-5.0652
1284831.0,-11.9902,13.4075,59.6827,0.1128,-4.3537,-4.7582
1284841.0,-11.1953,13.2064,56.8958,-0.2735,-4.8906,-4.5256
1284851.0,-10.4579,13.149,54.358,-0.8237,-5.3084,-4.3623
1284861.0,-10.0461,13.2735,52.433,-1.5857,-5.5654,-4.2058
1284871.0,-9.6726,12.651,52.8544,-2.0806,-5.8527,-4.0547
1284881.0,-9.5481,12.3924,52.4905,-2.37,-6.1746,-3.8993
1284891.0,-8.8585,11.7699,52.8831,-2.4871,-6.562,-3.7184
1284901.0,-8.3701,10.9942,53.7833,-2.1524,-6.9733,-3.5657
1284911.0,-8.0541,11.2336,52.4713,-1.5814,-7.457,-3.4039
1284921.0,-7.6998,12.0859,50.6805,-1.1302,-7.9742,-3.2007
1284931.0,-6.9815,13.0532,48.2575,-0.8881,-8.3105,-2.9234
1284941.0,-6.3111,14.3269,44.2544,-1.2324,-8.5984,-2.6254
1284951.0,-5.0757,14.3652,43.4691,-1.8661,-8.8442,-2.3158
1284961.0,-4.5107,14.1066,41.8698,-2.4674,-9.1475,-2.0428
1284971.0,-4.0318,12.5839,41.2665,-3.1751,-9.4338,-1.79
1284981.0,-2.6911,10.6494,40.8163,-3.5247,-9.7249,-1.7123
1284991.0,-1.7334,9.7683,39.4086,-3.8568,-9.9569,-1.7086
1285001.0,-1.245,9.0501,39.3415,-4.1574,-10.2118,-1.7634
1285011.0,-0.5842,8.734,38.9776,-3.9818,-10.6316,-1.7985
1285021.0,0.6608,9.5577,36.66,-3.6338,-11.1547,-1.815
1285031.0,1.9632,10.8409,32.3026,-3.2847,-11.3563,-1.7193
1285041.0,2.8922,12.5552,26.499,-3.0064,-11.0642,-1.4968
1285051.0,4.0606,13.8002,21.8447,-2.9836,-10.274,-1.2334
1285061.0,5.1619,14.71,18.3013,-2.8713,-9.3061,-0.8578
1285071.0,7.2784,14.7579,15.5527,-2.966,-8.0791,-0.4236
1285081.0,8.7819,14.8057,15.3229,-3.0075,-6.778,-0.049
1285091.0,9.9024,14.9781,16.7307,-2.5584,-5.56,0.3751
1285101.0,10.9176,15.457,18.397,-1.3952,-4.4586,0.8961
1285111.0,11.8561,16.204,17.832,0.1666,-3.4002,1.5761
1285121.0,12.5073,16.4625,15.2654,1.3941,-2.1992,2.2934
1285131.0,13.2639,15.8496,12.7755,2.0444,-0.8588,2.9458
1285141.0,13.4075,14.9685,11.1857,2.013,0.6013,3.529
1285151.0,13.0149,13.532,12.6797,1.5639,1.931,3.969
1285161.0,12.536,12.8712,15.0356,0.7008,2.8452,4.3293
1285171.0,11.5688,12.6031,18.0619,-0.5763,3.1788,4.6815
1285181.0,11.473,10.9942,21.1839,-1.831,3.3427,5.0748
1285191.0,11.0325,8.1116,24.6986,-2.4227,3.5455,5.419
1285201.0,11.406,4.8459,28.8741,-2.2876,3.8514,5.625
1285211.0,11.224,2.9688,32.5803,-1.5272,3.8993,5.7436
1285221.0,10.3142,2.5283,33.5859,-0.8631,3.6067,5.8389
1285231.0,10.41,2.4708,32.5899,-0.3783,3.2634,5.9618
1285241.0,10.7356,2.5666,30.1191,0.0096,3.3677,6.0969
1285251.0,9.9599,2.6145,27.7727,0.3044,4.0467,6.2225
1285261.0,8.9926,3.1508,27.3322,0.5699,5.079,6.4226
1285271.0,8.1882,2.5379,28.7975,1.0227,6.1645,6.6163
1285281.0,6.8283,2.6432,29.8988,0.886,7.1005,6.844
1285291.0,5.8993,0.6895,35.415,0.7998,7.7071,7.0547
1285301.0,5.4971,-0.1532,38.7095,1.0589,8.0886,7.1516
1285311.0,4.5203,-0.6895,42.3774,0.9732,8.1866,7.224
1285321.0,3.4764,-0.9002,46.6965,1.1111,7.8827,7.2671
1285331.0,2.2122,0.6704,47.9702,1.1701,7.4006,7.315
1285341.0,-0.5842,2.873,49.6462,1.2861,6.7222,7.5603
1285351.0,-2.7869,4.7309,47.3477,1.3053,6.2805,8.0599
1285361.0,-2.9592,1.8483,48.0756,1.7389,6.2874,8.5532
1285371.0,-2.5762,-1.1013,46.3613,2.1646,6.4923,8.7293
1285381.0,-2.9401,-3.7733,45.8633,1.8672,6.5264,8.6303
1285391.0,-2.9018,-5.6695,46.007,1.2388,6.3854,8.3467
1285401.0,-3.5913,-6.6272,46.6486,0.5757,6.1555,7.9551
1285411.0,-4.0127,-5.9855,46.9168,-0.1101,5.9559,7.5672
1285421.0,-5.6503,-3.4764,47.4435,-0.5864,5.6415,7.3506
1285431.0,-7.2688,0.9098,46.5145,-1.0892,5.2605,7.3703
1285441.0,-10.6398,5.8802,43.4787,-1.5681,4.9518,7.7561
1285451.0,-13.7906,7.1635,41.4484,-1.8214,5.7734,8.6931
1285461.0,-11.5784,-1.5993,45.4898,-0.199,7.4735,9.329
1285471.0,-11.8944,-8.418,49.5504,1.3729,9.1502,9.3088
1285481.0,-14.1162,-11.9902,57.6811,2.3291,9.2832,8.8517
1285491.0,-15.3229,-13.2256,65.0552,2.7271,8.2839,8.3206
1285501.0,-14.9207,-11.6454,68.637,3.3406,6.902,7.8785
1285511.0,-14.7004,-10.0365,66.3194,3.4465,5.6122,7.5459
1285521.0,-14.959,-8.0828,62.5749,2.3998,4.5746,7.134
1285531.0,-16.0412,-4.9512,60.353,0.7641,3.7046,6.8669
1285541.0,-18.1097,-2.0016,60.104,-0.8237,3.3087,6.9191
1285551.0,-19.2302,-3.3519,65.8884,-0.3938,3.3757,7.2985
1285561.0,-18.3013,-7.6327,70.5044,1.1754,3.3193,7.4799
1285571.0,-19.0195,-10.7356,74.1149,1.8847,2.1785,7.2644
1285581.0,-18.7705,-12.0955,76.806,2.0353,0.1591,6.8802
1285591.0,-17.3819,-11.971,74.6321,1.7624,-2.0183,6.4827
1285601.0,-16.4625,-13.1011,70.5619,0.8322,-3.7354,6.0198
1285611.0,-14.8249,-13.8672,64.9595,-0.3081,-5.0338,5.3866
1285621.0,-14.1162,-13.2447,60.9181,-2.0188,-6.0395,4.7092
1285631.0,-13.8576,-11.9135,59.2996,-3.479,-7.0734,4.1154
1285641.0,-14.3748,-11.4922,58.1408,-4.3873,-8.02,3.7333
1285651.0,-12.7755,-14.1258,56.915,-4.5474,-8.6846,3.3709
1285661.0,-11.6167,-17.2478,55.172,-4.1058,-9.1247,2.7963
1285671.0,-10.7356,-18.081,54.9804,-3.1485,-9.5498,2.1157
1285681.0,-10.0748,-16.9893,51.9542,-2.146,-10.1208,1.5399
1285691.0,-9.4044,-15.3516,47.8745,-1.7075,-10.6795,1.0743
1285701.0,-7.7764,-13.9438,42.703,-1.707,-11.0839,0.647
1285711.0,-5.8897,-12.8617,39.1691,-1.873,-11.1999,0.2666
1285721.0,-5.0374,-11.8465,34.0839,-2.4147,-11.1361,-0.1123
1285731.0,-3.7637,-12.3637,32.9442,-2.8963,-10.8806,-0.4603
1285741.0,-1.8962,-12.3637,32.111,-2.676,-10.3714,-0.8466
1285751.0,-1.1684,-11.473,31.8142,-1.9741,-9.8744,-1.144
1285761.0,-0.6225,-10.4483,31.8237,-1.1424,-9.5067,-1.3415
1285771.0,0.7374,-9.1937,31.2395,-0.1107,-9.3306,-1.4293
1285781.0,2.0399,-8.0254,29.4487,0.8806,-9.1821,-1.4149
1285791.0,4.9991,-7.5178,26.2692,1.665,-8.9847,-1.4426
1285801.0,7.9009,-6.4452,21.3084,1.6852,-8.6011,-1.5367
1285811.0,9.3757,-6.0334,18.081,1.0956,-8.0807,-1.6597
1285821.0,10.7452,-5.9951,15.9933,0.2597,-7.482,-1.8235
1285831.0,11.8657,-5.7557,15.1218,-0.4087,-6.9233,-2.0444
1285841.0,12.9191,-5.1427,14.6908,-0.9418,-6.3598,-2.2083
1285851.0,13.9151,-4.8363,15.7347,-0.878,-5.7612,-2.287
1285861.0,14.6429,-4.616,14.7483,-0.3634,-5.0891,-2.3237
1285871.0,15.3995,-4.3287,13.4458,0.0293,-4.4107,-2.3376
1285881.0,15.7826,-4.0318,11.5592,0.2054,-3.7274,-2.3397
1285891.0,16.5391,-4.5586,10.1706,0.2634,-3.0447,-2.3993
1285901.0,16.5583,-4.6926,7.3358,0.2256,-2.2354,-2.5009
1285911.0,17.334,-4.9033,5.2672,0.0032,-0.9807,-2.6441
1285921.0,17.5351,-5.9376,4.4724,-0.0064,0.679,-2.8106
1285931.0,16.9031,-5.7078,5.2385,-0.0766,2.3317,-3.0682
1285941.0,16.204,-4.9225,7.9392,-0.4736,3.6785,-3.2528
1285951.0,16.0316,-4.6448,11.9231,-0.7966,4.6948,-3.3922
1285961.0,15.4857,-4.1755,16.2518,-0.7359,5.5313,-3.4949
1285971.0,13.7427,-3.7062,19.9006,-0.3767,6.122,-3.5481
1285981.0,12.5552,-2.8252,21.7872,-0.1038,6.6865,-3.5838
1285991.0,10.8218,-2.4229,24.507,0.3272,7.3756,-3.5306
1286001.0,10.659,-2.7198,27.3131,0.8721,8.2823,-3.5157
1286011.0,9.4332,-2.7485,30.4926,1.0275,8.9374,-3.6258
1286021.0,7.7476,-1.2546,36.0471,0.2671,8.7288,-3.736
1286031.0,7.039,-0.8906,42.1763,-0.3352,7.7396,-3.7147
1286041.0,7.1347,-0.1724,44.2832,-0.6577,6.4859,-3.6796
1286051.0,7.0294,-0.2298,43.4787,-0.853,5.6063,-3.613
1286061.0,6.79,-0.6225,41.3814,-0.6508,5.3951,-3.5125
1286071.0,6.1866,-1.3503,39.5426,-0.2857,5.7378,-3.4875
1286081.0,5.296,-2.6911,39.4948,-0.1192,6.1406,-3.5561
1286091.0,4.4053,-3.2848,40.6823,-0.2623,6.2337,-3.6609
1286101.0,3.2465,-4.1563,42.6743,-0.638,5.849,-3.8163
1286111.0,2.7198,-5.114,42.5785,-1.0807,5.2296,-4.0403
1286121.0,2.9113,-5.5354,41.4293,-1.5884,4.9268,-4.3756
1286131.0,2.3272,-4.8937,40.4141,-1.5671,5.3233,-4.6746
1286141.0,1.1396,-3.2178,40.4716,-1.1323,6.0709,-4.863
1286151.0,-0.8619,-0.9481,41.6974,-0.6619,6.7951,-4.8885
1286161.0,-2.0207,1.3024,44.5322,-0.058,7.0973,-4.7241
1286171.0,-3.4477,1.9824,46.4188,0.1538,6.8925,-4.4687
1286181.0,-3.3998,1.4653,46.7444,0.0963,6.4428,-4.2952
1286191.0,-3.055,0.7566,45.2217,-0.1905,6.2832,-4.2335
1286201.0,-2.0494,-0.2394,43.7564,-0.7333,6.4008,-4.2894
1286211.0,-2.6049,-0.3639,42.4636,-1.6341,6.6088,-4.4841
1286221.0,-4.2138,0.2107,40.0215,-3.4087,6.6887,-4.6437
1286231.0,-6.6942,-0.814,41.5633,-5.3153,7.1718,-4.7049
1286241.0,-5.6695,-3.3998,46.4092,-6.1422,8.0892,-4.7853
1286251.0,-7.2592,-6.177,53.1034,-5.6867,8.8687,-5.0317
1286261.0,-8.9926,-6.2058,59.4432,-5.2514,9.047,-5.3249
1286271.0,-9.9599,-5.2577,66.2811,-4.6491,8.3616,-5.4967
1286281.0,-9.7779,-3.9073,69.269,-4.6714,7.0271,-5.6313
1286291.0,-10.6781,-3.4572,72.7646,-4.8529,5.4089,-5.6862
1286301.0,-11.7412,-2.3176,75.8579,-3.9504,3.8578,-5.5749
1286311.0,-13.1106,0.498,75.245,-2.3706,2.5206,-5.2631
1286321.0,-13.7427,2.4708,72.6784,-0.7466,1.4915,-4.7294
1286331.0,-13.1873,3.2082,68.7998,0.7263,0.7822,-4.1446
1286341.0,-13.0053,2.8443,63.6091,1.1057,0.1054,-3.6737
1286351.0,-11.904,1.4557,59.5486,0.3719,-0.6651,-3.4188
1286361.0,-10.9271,-0.3735,56.2637,-0.8338,-1.2984,-3.323
1286371.0,-9.9407,-2.806,53.5727,-2.0045,-1.6554,-3.397
1286381.0,-9.5864,-4.6256,51.7818,-3.3209,-1.7911,-3.6114
1286391.0,-9.3661,-7.1443,54.741,-3.7945,-1.8198,-3.8897
1286401.0,-9.3374,-7.4699,57.1065,-2.975,-2.0188,-4.1388
1286411.0,-9.4906,-6.675,57.6045,-2.0066,-2.4424,-4.3069
1286421.0,-9.098,-5.4109,56.3787,-1.0334,-3.0857,-4.4181
1286431.0,-7.8721,-3.869,52.8544,-0.6321,-3.6306,-4.4846
1286441.0,-6.8474,-2.6049,49.3972,-0.7593,-4.001,-4.4884
1286451.0,-5.7844,-1.2833,46.5337,-1.3324,-4.2713,-4.5634
1286461.0,-4.6352,0.2682,44.0054,-2.5627,-4.5384,-4.5586
1286471.0,-3.9361,1.5036,43.2106,-4.0967,-4.8938,-4.4783
1286481.0,-3.7445,1.6185,43.2872,-5.4047,-5.2264,-4.3255
1286491.0,-3.371,1.063,46.7157,-5.3775,-5.3573,-4.0637
1286501.0,-2.9018,0.6416,49.1099,-3.7631,-5.4105,-3.6609
1286511.0,-2.5187,0.6033,49.5791,-1.5293,-5.5159,-3.1512
1286521.0,-1.6281,0.0575,47.9894,0.6779,-5.7979,-2.6345
1286531.0,-0.9577,-0.2107,44.9535,2.3796,-6.2667,-2.1939
1286541.0,0.4788,0.1724,39.8299,3.3199,-6.7174,-1.8688
1286551.0,1.6951,0.0766,33.5859,3.3289,-6.8898,-1.6613
1286561.0,3.3806,0.5938,27.7344,2.543,-6.7355,-1.5469
1286571.0,4.8459,0.9002,24.1527,1.2451,-6.1698,-1.5075
1286581.0,6.0908,0.5076,22.4768,0.1203,-5.3892,-1.4692
1286591.0,6.7421,0.0383,22.3523,-0.8477,-4.541,-1.5032
1286601.0,7.3741,-0.4884,23.195,-1.7283,-3.8275,-1.5841
1286611.0,7.604,-1.1396,26.4128,-2.1561,-3.2459,-1.6724
1286621.0,7.3358,-1.6664,29.9275,-1.5208,-2.8048,-1.7363
1286631.0,7.1826,-1.3886,30.9235,-0.4395,-2.5643,-1.7565
1286641.0,6.9528,-0.1149,30.3585,0.5933,-2.411,-1.7469
1286651.0,7.4795,1.2163,27.4567,1.1951,-2.1487,-1.6932
1286661.0,7.9583,3.1316,25.0625,1.1722,-1.6591,-1.5745
1286671.0,7.5369,4.9225,23.8941,1.0089,-0.9493,-1.3697
1286681.0,7.4795,6.4835,23.1759,0.5608,-0.2315,-1.0807
1286691.0,7.3071,7.2784,24.6124,0.0569,0.4486,-0.7168
1286701.0,6.6367,7.9775,26.3458,-0.1676,0.9567,-0.2432
1286711.0,6.4452,7.7189,28.7975,-0.3858,1.3223,0.2224
1286721.0,6.0525,7.2305,31.048,-0.1873,1.3633,0.6912
1286731.0,5.5833,7.2784,31.4119,-0.0527,1.3856,1.1419
1286741.0,5.2385,7.0773,31.8812,0.1756,1.4787,1.6304
1286751.0,5.0949,6.7612,30.9139,0.414,1.8023,2.1497
1286761.0,4.8267,6.5601,30.5117,0.3597,2.1407,2.5914
1286771.0,4.1468,6.0525,30.6362,0.0064,2.4078,3.0549
1286781.0,3.4764,5.3726,31.7854,-0.3145,2.5307,3.4805
1286791.0,3.3327,4.3,31.5747,-0.5444,2.6361,3.8935
1286801.0,2.9209,2.6528,31.1917,-0.8008,2.9133,4.2638
1286811.0,2.4229,1.0822,30.8277,-0.9211,3.4225,4.5464
1286821.0,1.81,-1.1109,31.1917,-0.9988,4.0606,4.7443
1286831.0,0.747,-3.6775,34.1605,-0.7822,4.615,4.7943
1286841.0,0.6991,-4.5777,36.5642,-0.4374,4.8853,4.781
1286851.0,0.0096,-4.3,37.2729,-0.3246,4.8981,4.7816
1286861.0,-0.565,-4.3096,37.4453,-0.5694,4.9763,4.8401
1286871.0,-0.9002,-5.2098,37.6847,-0.7902,5.1407,4.8752
1286881.0,-1.8579,-5.9951,38.1923,-1.1382,5.3749,4.822
1286891.0,-2.6815,-6.6176,40.2896,-1.3643,5.5654,4.8156
1286901.0,-3.62,-7.5753,43.6702,-1.1696,5.6377,4.8007
1286911.0,-4.6926,-8.1403,46.2751,-0.6119,5.551,4.7715
1286921.0,-5.2481,-8.5138,48.0756,0.2389,5.3749,4.7363
1286931.0,-5.6982,-8.3797,48.6023,1.1063,5.1854,4.6762
1286941.0,-5.7844,-7.5082,47.3765,1.3425,4.9949,4.6006
1286951.0,-6.1866,-6.5122,46.4188,1.036,4.7081,4.5097
1286961.0,-6.5601,-5.3247,45.6048,0.24,4.3708,4.4666
1286971.0,-6.9815,-4.4341,45.4611,-0.7982,4.0983,4.5123
1286981.0,-7.9104,-4.8171,46.2272,-1.5889,3.985,4.5841
1286991.0,-8.8202,-5.3056,47.9511,-1.814,3.9259,4.723
1287001.0,-9.4715,-6.4643,50.1346,-1.5548,3.9387,4.8619
1287011.0,-10.4674,-7.6423,53.2949,-0.6694,3.7189,4.9071
1287021.0,-10.2376,-7.6614,54.4729,0.274,3.347,4.9274
1287031.0,-10.3717,-6.3782,53.8983,0.9519,2.7249,4.979
1287041.0,-10.5824,-4.9129,51.4658,1.11,2.2514,5.1221
1287051.0,-10.9942,-4.7309,50.623,1.2404,2.0231,5.3105
1287061.0,-11.473,-4.2617,50.7092,1.6671,1.9986,5.526
1287071.0,-12.5169,-4.1563,51.0348,2.4174,2.0316,5.7729
1287081.0,-13.1681,-4.0893,51.3508,3.4114,2.0662,6.0666
1287091.0,-12.6127,-4.7501,50.7188,4.2282,1.9321,6.2848
1287101.0,-12.5073,-4.9129,49.8185,4.391,1.6511,6.4104
1287111.0,-12.1721,-5.5737,49.5025,4.3644,1.2936,6.4865
1287121.0,-11.7507,-6.675,48.564,4.3899,1.1111,6.4593
1287131.0,-11.8369,-8.2265,46.8019,4.192,1.1552,6.3172
1287141.0,-11.9806,-9.1746,45.9687,3.8259,1.3175,6.048
1287151.0,-11.8657,-9.414,46.3996,3.3869,1.5474,5.7112
1287161.0,-12.3828,-9.5385,48.2192,2.9841,1.706,5.3914
1287171.0,-12.3924,-9.6438,50.7954,2.7079,1.5341,5.071
1287181.0,-11.7507,-9.7396,53.5918,2.5089,0.9945,4.7433
1287191.0,-11.2336,-9.6343,54.2718,2.1865,0.1272,4.3718
1287201.0,-10.5919,-9.4332,54.0419,1.5181,-0.9136,3.9951
1287211.0,-9.8737,-9.3182,52.4139,0.6742,-1.9055,3.5848
1287221.0,-9.3278,-9.6247,50.6134,-0.2065,-2.6877,3.1794
1287231.0,-9.5672,-9.5864,49.2152,-0.8168,-3.265,2.7808
1287241.0,-9.6534,-9.8641,48.1235,-1.0254,-3.6556,2.4286
1287251.0,-9.1267,-9.5193,47.5488,-0.7471,-3.8573,2.0965
1287261.0,-8.8681,-8.8107,46.1889,-0.281,-4.0159,1.8624
1287271.0,-8.4276,-7.9104,44.9727,0.0298,-4.1707,1.7102
1287281.0,-7.5944,-7.0868,43.0286,0.3044,-4.3601,1.5979
1287291.0,-6.7804,-7.1347,39.8204,0.2373,-4.5293,1.4787
1287301.0,-5.9472,-7.8051,36.9952,-0.3049,-4.6198,1.2771
1287311.0,-5.1332,-8.3797,34.3233,-1.1536,-4.5623,0.9312
1287321.0,-4.4436,-8.9926,34.7542,-1.4463,-4.217,0.5699
1287331.0,-3.9361,-8.3797,34.6489,-0.9418,-3.7737,0.2512
1287341.0,-3.7445,-7.2496,36.3536,-0.0367,-3.3002,0.0873
1287351.0,-3.4955,-5.4396,36.7079,1.2563,-3.0001,0.1697
1287361.0,-3.3615,-4.9991,35.9418,2.2162,-2.826,0.3219
1287371.0,-2.5474,-6.1387,33.9402,2.9154,-2.7446,0.4374
1287381.0,-1.5802,-6.9432,31.0672,2.7734,-2.7005,0.3757
1287391.0,-0.6321,-7.9871,28.922,1.8565,-2.685,0.0947
1287401.0,-0.2203,-8.6574,26.0489,0.4571,-2.7058,-0.3033
1287411.0,0.4884,-9.414,25.0338,-0.903,-2.6015,-0.8003
1287421.0,0.1628,-10.094,24.0665,-1.7932,-2.0997,-1.3361
1287431.0,0.5076,-10.908,25.6754,-1.5474,-1.1313,-1.8427
1287441.0,0.68,-10.9271,28.0122,-0.281,0.0436,-2.295
1287451.0,-0.1628,-9.2416,29.5923,1.2271,1.0264,-2.6414
1287461.0,-0.5842,-8.0637,30.301,2.3844,1.6985,-2.8883
1287471.0,-0.8715,-6.5505,29.4391,2.8617,2.146,-3.1858
1287481.0,-1.1875,-4.9225,28.7496,2.5791,2.5988,-3.4683
1287491.0,-1.8579,-3.2848,28.7208,1.9353,3.148,-3.6583
1287501.0,-2.2793,-1.8387,29.6689,1.0786,3.7014,-3.8286
1287511.0,-3.5051,-0.9864,32.4654,0.1054,4.1569,-3.91
1287521.0,-4.1659,-1.4557,36.842,-0.4385,4.358,-3.9366
1287531.0,-4.5394,-2.241,40.6248,-0.6242,4.325,-4.0041
1287541.0,-4.9033,-2.9688,43.7469,-0.6928,4.0574,-4.1702
1287551.0,-4.9799,-2.806,46.6295,-0.4954,3.5503,-4.3543
1287561.0,-5.9568,-2.059,48.4586,0.0053,2.9362,-4.4591
1287571.0,-7.0198,-0.8715,48.0851,0.6944,2.3317,-4.4793
1287581.0,-7.7955,0.1532,46.0261,1.2654,1.9066,-4.4298
1287591.0,-7.9104,0.6225,42.8179,1.5304,1.7757,-4.3825
1287601.0,-7.9583,0.7853,39.6767,1.3617,1.9709,-4.3862
1287611.0,-7.92,0.814,37.8954,0.7045,2.4669,-4.4458
1287621.0,-8.2361,0.3639,38.3264,-0.1889,3.0235,-4.5442
1287631.0,-8.9352,-0.3735,41.6495,-0.9115,3.3826,-4.6938
1287641.0,-10.0461,-0.4501,46.1985,-1.2079,3.3651,-4.8124
1287651.0,-11.5784,-0.1053,49.4642,-1.0499,3.008,-4.8321
1287661.0,-12.0668,-0.1628,50.8145,-0.7338,2.4733,-4.8247
1287671.0,-11.5113,-0.3831,50.4985,-0.3134,2.1428,-4.8231
1287681.0,-11.4922,-0.5076,48.6885,-0.1426,2.1865,-4.8491
1287691.0,-11.3389,-0.9385,49.4642,-0.108,2.3035,-4.9641
1287701.0,-11.6358,-1.4844,50.5081,-0.2389,2.2929,-5.1418
1287711.0,-12.2296,-1.5131,52.3947,-0.8152,1.8789,-5.3674
1287721.0,-12.5935,-1.3599,54.2813,-1.4527,1.002,-5.5973
1287731.0,-12.2487,-1.1971,54.5974,-1.9475,0.1394,-5.8282
1287741.0,-12.3158,-1.1492,53.611,-2.0752,-0.3145,-6.0028
1287751.0,-11.9135,-0.5076,51.6764,-2.0566,-0.2783,-6.1443
1287761.0,-12.8138,0.0958,50.6996,-2.1721,-0.1564,-6.2417
1287771.0,-13.4841,0.2682,51.8871,-2.1487,-0.008,-6.2704
1287781.0,-14.1641,0.8906,53.1225,-1.6629,0.0521,-6.2816
1287791.0,-14.5567,1.6089,53.1034,-1.3212,0.099,-6.2571
1287801.0,-14.5663,2.0494,54.5303,-1.0616,0.0074,-6.264
1287811.0,-14.1545,3.1699,55.4401,-0.8253,-0.2347,-6.2906
1287821.0,-14.0013,5.0853,55.4497,-0.7593,-0.5741,-6.2289
1287831.0,-13.8959,7.0485,55.0188,-1.1212,-1.0525,-6.1225
1287841.0,-13.6757,8.1116,55.1145,-1.922,-1.6597,-5.9639
1287851.0,-13.5225,8.3797,55.8807,-2.8425,-2.3152,-5.7857
1287861.0,-13.9438,8.3127,58.227,-3.0506,-2.9777,-5.6063
1287871.0,-14.0013,9.2033,58.725,-2.6904,-3.7152,-5.311
1287881.0,-14.1737,10.2472,58.8112,-1.9571,-4.4384,-4.929
1287891.0,-13.5129,11.7124,56.666,-0.9472,-5.1477,-4.4139
1287901.0,-12.153,12.8617,52.6341,-0.5486,-5.6925,-3.8222
1287911.0,-11.0899,13.465,47.4531,-0.6518,-6.1518,-3.2262
1287921.0,-10.7164,13.1968,43.6224,-1.4564,-6.3657,-2.7361
1287931.0,-9.5768,13.0053,40.3567,-2.2907,-6.4279,-2.2535
1287941.0,-8.7245,12.0955,39.4756,-3.0783,-6.1597,-1.8172
1287951.0,-8.3127,10.7643,40.644,-2.5728,-5.8458,-1.3569
1287961.0,-7.8626,10.477,39.5809,-1.79,-5.303,-0.8647
1287971.0,-6.541,8.849,40.0598,-0.8828,-4.8848,-0.3501
1287981.0,-5.8131,7.2784,38.6711,-0.2629,-4.6012,0.0835
1287991.0,-4.0989,4.8746,39.2074,0.1032,-4.342,0.3704
1288001.0,-3.0742,2.8156,39.6959,0.5944,-4.2287,0.4571
1288011.0,-2.1835,2.0877,38.7382,0.5358,-4.2723,0.4182
1288021.0,-2.5857,1.8962,39.6384,0.5289,-4.4469,0.3608
1288031.0,-2.2505,3.2944,38.0199,0.6252,-4.491,0.3485
1288041.0,-2.2697,5.2864,37.1484,0.6864,-4.3623,0.5066
1288051.0,-1.2737,6.9336,37.158,0.8274,-3.8897,0.8221
1288061.0,-1.0247,6.8187,38.834,1.3436,-3.4316,1.2723
1288071.0,-0.4214,7.2496,39.3894,1.3287,-3.2906,1.6969
1288081.0,-0.3831,6.9049,43.2967,1.1685,-3.6141,2.1364
1288091.0,0.3639,6.5027,44.7141,1.2771,-4.258,2.6121
1288101.0,0.4788,5.1332,45.4803,1.5261,-4.9465,3.0442
1288111.0,0.4597,3.2944,44.7045,1.9736,-5.5654,3.4359
1288121.0,0.929,1.9824,41.3048,2.1987,-6.0459,3.6769
1288131.0,1.3791,1.6281,37.6943,1.9443,-6.2944,3.844
1288141.0,1.6089,1.9728,35.032,1.7171,-6.2667,4.0441
1288151.0,1.6951,2.624,32.791,1.4516,-6.0554,4.3958
1288161.0,3.3615,2.2697,30.7894,1.251,-5.7197,4.7805
1288171.0,4.798,1.3408,29.305,0.9408,-5.3924,5.1391
1288181.0,4.6256,-0.1053,28.0792,0.0176,-5.3169,5.4132
1288191.0,5.8419,-1.8579,28.4623,-0.655,-5.4893,5.5872
1288201.0,6.7325,-3.6966,28.242,-0.6545,-5.5702,5.7207
1288211.0,8.0924,-6.4165,26.7097,-0.0905,-5.3046,5.8171
1288221.0,9.9599,-9.9024,24.1814,0.9998,-4.5261,5.725
1288231.0,13.5703,-12.8233,21.136,2.2109,-3.3294,5.3589
1288241.0,15.093,-14.4706,18.7035,2.4914,-1.9853,4.7619
1288251.0,15.0164,-15.2271,20.4561,2.2109,-0.9184,4.1196
1288261.0,15.9645,-14.5951,22.8503,1.9486,-0.2458,3.5258
1288271.0,16.1369,-14.1449,27.0545,1.8704,0.1825,2.975
1288281.0,16.5966,-13.7523,29.6881,1.9518,0.1208,2.4318
1288291.0,15.7443,-11.6837,31.4885,1.5314,-0.3294,1.9204
1288301.0,15.1505,-10.1131,33.356,1.3372,-1.1648,1.5522
1288311.0,15.3229,-8.5617,32.0727,1.4628,-1.9119,1.3234
1288321.0,15.2559,-7.7764,30.2819,2.2322,-2.2615,1.1451
1288331.0,15.7826,-6.4548,27.7632,3.5481,-2.0747,1.0046
1288341.0,15.7347,-5.1811,25.2732,4.7422,-1.9018,0.944
1288351.0,15.7251,-5.0949,22.5342,5.3892,-2.0848,0.7338
1288361.0,15.2175,-2.7007,17.3532,5.0333,-2.8436,0.4172
1288371.0,17.0276,4.0127,10.1801,3.1661,-3.9781,0.2192
1288381.0,17.0946,13.7427,2.3559,0.0506,-5.9911,0.4757
1288391.0,10.5919,22.2469,-10.2663,-5.244,-9.6972,1.2733
1288401.0,-2.1356,26.2596,-25.9819,-11.1483,-15.2445,2.4669
1288411.0,49.694,29.6498,-78.4532,-15.8804,-17.4363,4.4948
1288421.0,-4.4341,13.5608,-78.4532,0.0942,-4.7576,5.377
1288431.0,-26.9108,-2.3176,-78.4532,-0.4997,4.0888,6.6706
1288441.0,7.4699,-14.9111,-78.4532,9.8436,17.4357,5.6947
1288451.0,-46.7061,-38.9106,-78.4532,8.434,17.4357,3.4731
1288461.0,-69.9681,-65.0169,-78.4532,6.4593,17.4357,-1.6687
1288471.0,-78.4532,-78.2712,-11.8657,6.6982,17.4357,-7.1394
1288481.0,-78.4532,-59.0793,71.8931,14.5267,17.4357,-12.4557
1288491.0,-78.4532,7.6423,48.5161,6.2827,17.4357,-14.3096
1288501.0,-78.4532,17.7554,78.4508,15.5356,17.4357,-13.1336
1288511.0,-78.4532,78.4508,78.4508,13.5433,17.4357,-11.0525
1288521.0,-78.4532,78.4508,78.4508,-3.7546,17.4357,-5.8575
1288531.0,-78.4532,78.0893,78.4508,12.3626,9.2018,1.7586
1288541.0,-78.4532,72.6592,78.4508,8.5064,-9.0182,6.869
1288551.0,-78.4532,16.3476,78.4508,4.1361,-17.4363,8.3877
1288561.0,-78.4532,-6.2537,78.4508,5.7048,-17.4363,7.6986
1288571.0,-78.4532,-17.4872,78.4508,0.5374,-17.4363,5.3701
1288581.0,-65.5054,-18.263,40.4237,2.0651,-17.4363,2.6435
1288591.0,-49.1865,5.047,-20.4561,-4.1872,-17.4363,0.9376
1288601.0,-47.1849,5.9089,-32.7335,-6.1901,-17.4363,-0.067
1288611.0,-11.8369,2.4325,-36.9952,-4.1579,-12.6238,-0.7513
1288621.0,-20.0155,8.4276,-22.065,-0.0984,-6.3971,-1.2313
1288631.0,-7.5561,12.8808,-9.0022,0.2416,-0.2341,-1.0222
1288641.0,-9.098,8.5042,20.3316,4.2351,3.0618,-0.8141
1288651.0,-7.7476,14.8441,23.626,4.5123,4.2117,-0.7247
1288661.0,-9.7013,15.7155,35.7023,0.8689,3.3039,-0.5715
1288671.0,-6.0621,13.7523,45.7676,-1.3266,2.2285,-0.563
1288681.0,-7.3263,13.6086,49.1769,-4.4948,0.5412,-0.5997
1288691.0,-6.8666,7.7859,58.0067,-6.62,-2.5813,-0.7247
1288701.0,-5.7174,1.8962,56.5606,-7.2644,-5.2275,-1.0451
1288711.0,-3.6583,-4.7309,50.623,-7.241,-6.2066,-1.7012
1288721.0,-3.6775,-9.0118,47.4914,-6.1533,-5.6462,-2.6627
1288731.0,-3.4668,-7.5848,46.1315,-3.9621,-4.4602,-3.538
1288741.0,-5.3534,-1.7142,46.4667,-2.5259,-3.3805,-4.084
1288751.0,-7.173,5.4109,50.8528,-1.7001,-3.3092,-4.1223
1288761.0,-8.3222,13.6853,52.4426,-1.9491,-4.2005,-3.687
1288771.0,-7.7476,18.8184,53.2854,-3.0474,-5.6223,-2.9149
1288781.0,-7.2688,19.9293,53.5343,-4.1095,-6.8345,-1.931
1288791.0,-7.3646,16.5487,54.9326,-4.3303,-7.7912,-1.0408
1288801.0,-5.8131,10.7643,55.4593,-3.7003,-8.6745,-0.3469
1288811.0,-8.8202,3.4764,55.3156,-2.3136,-9.3013,-0.074
1288821.0,-2.9209,-2.4134,50.5272,-0.9179,-10.0835,-0.0245
1288831.0,-3.3136,-5.2289,49.4834,-0.0319,-10.9445,-0.4417
1288841.0,-3.3902,-6.1962,41.7836,0.2017,-11.3265,-1.0419
1288851.0,-2.8826,-0.7949,38.2593,-1.2824,-12.1939,-1.4958
1288861.0,-1.4844,0.8619,34.9649,-1.7235,-12.709,-1.756
1288871.0,-1.1396,5.9376,27.677,-1.6682,-12.1753,-1.6719
1288881.0,0.747,8.4946,23.7696,-1.508,-10.8615,-1.2835
1288891.0,1.5993,8.8585,23.8846,-0.513,-9.4397,-0.7545
1288901.0,3.3232,8.8969,25.0912,0.522,-8.2674,-0.1969
1288911.0,5.3439,7.0677,25.7329,1.2473,-7.7954,0.282
1288921.0,7.2305,6.8091,25.5605,1.2994,-7.6853,0.6242
1288931.0,9.1363,6.2728,25.1295,1.2324,-7.6374,0.9195
1288941.0,10.9942,5.6216,23.6739,0.9727,-7.6002,1.1557
1288951.0,11.722,6.0908,22.2278,0.3347,-7.506,1.3377
1288961.0,11.5879,6.1962,21.1073,-0.2379,-7.5198,1.5852
1288971.0,11.1666,5.794,18.8472,-0.9945,-7.514,1.9183
1288981.0,12.5839,1.8196,21.0594,-1.0195,-7.3857,2.1529
1288991.0,14.4993,-1.5036,19.0866,-0.0793,-7.2543,2.1327
1289001.0,14.6525,-2.6528,16.8552,0.7998,-6.9026,1.9635
1289011.0,17.1808,-0.3256,13.3596,1.9672,-6.379,1.8565
1289021.0,19.1057,2.9018,7.8913,2.1769,-5.609,1.9459
1289031.0,20.4082,4.1276,2.3655,1.144,-4.9971,2.038
1289041.0,19.575,4.6352,-1.8292,-0.9099,-4.7198,2.1104
1289051.0,20.4944,4.8554,-3.7828,-2.8814,-4.2936,2.2083
1289061.0,20.3603,4.2617,-0.8428,-2.5243,-3.3028,2.4419
1289071.0,20.9828,5.7461,-2.308,-0.9094,-2.1285,2.7936
1289081.0,19.1919,6.7612,-2.4995,-0.0394,-1.648,3.2086
1289091.0,21.6915,6.3973,-3.6775,1.0738,-2.0476,3.5965
1289101.0,21.9117,7.8721,-12.3253,0.7519,-2.8553,3.8871
1289111.0,20.322,9.2512,-20.9636,-0.8785,-3.8477,4.1175
1289121.0,17.0946,12.6318,-32.7814,-2.7766,-5.1439,4.309
1289131.0,15.1888,23.5973,-62.7377,-6.8217,-4.7486,4.7927
1289141.0,-0.4693,27.5812,-61.7608,-5.5542,-3.5955,5.5978
1289151.0,-13.5991,44.58,-78.4532,-4.9667,-1.1749,7.1527
1289161.0,-25.8382,47.6446,-78.4532,-0.2554,3.8956,9.8904
1289171.0,-34.352,33.0687,-78.4532,3.8206,11.5873,12.5084
1289181.0,-46.6678,19.1919,-78.4532,6.9723,17.4357,13.4465
1289191.0,-69.7383,2.0782,-78.4532,6.6429,17.4357,13.2986
1289201.0,-78.4532,-12.8138,-78.4532,3.6397,17.4357,12.3083
1289211.0,-78.4532,-30.5596,-78.4532,2.3636,17.4357,10.2394
1289221.0,-78.4532,-59.8742,17.9565,6.9952,17.4357,6.3018
1289231.0,-78.4532,-45.6718,75.3982,7.9657,17.4357,1.3979
1289241.0,-78.4532,-47.8266,38.6424,-6.9962,17.4357,1.2824
1289251.0,-78.4532,-78.2712,78.4508,17.4086,17.4357,-0.8173
1289261.0,-78.4532,-6.4452,78.4508,1.1456,17.4357,-4.0323
1289271.0,-78.4532,-30.5692,78.4508,-2.1029,17.4357,-2.6691
1289281.0,-78.4532,5.9568,78.4508,17.0186,2.8649,0.0905
1289291.0,-78.4532,11.0038,78.4508,7.3118,-15.6563,1.756
1289301.0,-78.4532,-12.9957,78.4508,13.2709,-17.4363,2.8457
1289311.0,-78.4532,-5.7748,78.4508,5.8234,-17.4363,2.7164
1289321.0,-78.4532,-34.1509,78.4508,0.4938,-17.4363,1.0637
1289331.0,-78.4532,-29.6594,-2.3559,2.7569,-17.4363,-0.9488
1289341.0,-78.4532,0.2873,-78.4532,-3.0863,-17.4363,-2.0524
1289351.0,14.4035,-8.0062,-74.9577,4.6038,-6.5753,-2.6228
1289361.0,-45.7101,6.5601,-50.9199,2.0901,-8.7256,-2.1034
1289371.0,-8.3893,2.4612,-37.0144,-4.4229,2.1652,-1.2882
1289381.0,-8.2265,-23.5302,22.3427,6.1927,10.3656,-1.3862
1289391.0,-14.7962,-11.1666,23.2621,8.0019,12.8255,-2.4232
1289401.0,-7.4412,-10.5345,11.789,-1.4553,7.3458,-3.1251
1289411.0,-47.1466,-27.2077,78.4508,6.7977,11.4495,-4.5038
1289421.0,-47.9511,10.1801,67.1909,1.3952,8.0551,-5.8878
1289431.0,-28.2995,-7.9392,78.4508,-7.3974,2.0598,-6.5625
1289441.0,-16.4242,-5.9855,78.4508,0.9408,-2.7872,-7.3666
1289451.0,-18.7514,15.5049,78.4508,-2.1545,-6.5003,-7.3203
1289461.0,-21.2222,11.2144,78.4508,-1.9055,-12.916,-6.9302
1289471.0,-23.4249,27.3514,78.4508,-1.6927,-17.4363,-6.1193
1289481.0,-26.6618,28.5293,66.7408,-5.137,-17.4363,-4.8401
1289491.0,-25.9436,23.0418,57.0012,-1.318,-17.4363,-3.6955
1289501.0,-23.9133,31.2108,26.0393,-1.4042,-17.4363,-2.3674
1289511.0,-21.5191,26.432,23.8941,-2.3498,-17.4363,-1.044
1289521.0,-18.0906,23.2716,14.1641,-1.8565,-17.133,0.0351
1289531.0,-11.904,17.8799,3.8882,-4.7949,-15.8463,0.8152
1289541.0,-5.2002,3.486,7.2113,-4.2101,-14.276,0.9232
1289551.0,-0.6704,-1.6664,-0.249,-2.5063,-11.9422,0.5635
1289561.0,0.9002,-5.3056,-2.0686,-2.444,-9.7605,0.0245
1289571.0,3.1316,-8.2744,1.4365,-1.0754,-8.1546,-0.6258
1289581.0,6.5984,-6.7516,-0.747,-0.1878,-5.9591,-1.3127
1289591.0,8.1786,-4.051,4.5011,0.6753,-3.562,-1.847
1289601.0,7.6231,2.739,9.165,0.8796,-2.1625,-2.03
1289611.0,6.8091,8.5808,17.4202,-0.3629,-2.1774,-1.8076
1289621.0,6.857,11.6262,26.7959,-0.4986,-3.2501,-1.2058
1289631.0,8.2169,14.4322,26.5756,-0.4289,-4.4165,-0.3501
1289641.0,8.9352,12.4307,25.0529,-0.4576,-5.1365,0.4954
1289651.0,10.4962,9.0501,20.8966,-0.108,-5.2903,1.1281
1289661.0,12.153,4.8842,15.4761,-0.0644,-4.6294,1.499
1289671.0,14.9111,-1.2163,13.4746,0.3017,-3.3124,1.5453
1289681.0,15.6677,-5.4684,11.7603,0.4997,-1.9332,1.202
1289691.0,16.6828,-5.6407,13.7619,0.1336,-0.9626,0.7785
1289701.0,16.8648,-4.0606,15.7634,-0.2948,-0.5396,0.4927
1289711.0,17.5351,-3.0263,18.2438,-0.3549,-0.4879,0.4049
1289721.0,17.0563,-1.8866,17.4011,0.0585,-0.6641,0.4566
1289731.0,16.7403,-0.8236,12.5648,-0.2208,-0.5997,0.6646
1289741.0,16.6828,-3.7158,8.8107,-0.4848,-0.1117,0.7173
1289751.0,17.1712,-4.8842,4.5298,-0.4757,1.4271,0.6566
1289761.0,16.836,-6.7612,5.3726,0.2932,3.6977,0.6247
1289771.0,15.8113,-7.4412,7.4603,1.5474,5.9623,0.4411
1289781.0,13.8576,-5.7269,11.0899,1.8087,7.705,0.298
1289791.0,11.1666,-5.612,17.9374,1.5373,8.6373,0.2453
1289801.0,10.0269,-6.3303,24.871,1.1414,9.0204,0.0915
1289811.0,7.7859,-6.4069,30.7894,1.119,9.1028,-0.0527
1289821.0,5.3439,-7.9775,35.2522,1.6895,9.337,-0.1969
1289831.0,5.3534,-10.0269,38.7286,2.8069,10.2964,-0.5944
1289841.0,3.9648,-8.5904,42.7796,3.9286,11.483,-1.1063
1289851.0,2.0207,-4.8076,49.8281,3.4949,11.7847,-1.5852
1289861.0,-0.9098,0.6225,59.8455,2.0167,10.5513,-1.8704
1289871.0,-2.2793,5.2289,69.6042,0.7428,8.3366,-1.7773
1289881.0,-3.0454,7.5944,75.5418,0.0447,5.8256,-1.4207
1289891.0,-3.1316,9.1075,77.0933,0.0239,3.3278,-0.911
1289901.0,-2.9688,9.596,74.9194,0.5257,1.1366,-0.3155
1289911.0,-2.8156,9.7013,68.2443,1.1957,-0.4768,0.2788
1289921.0,-1.9345,7.604,60.8415,1.9247,-1.2164,0.7944
1289931.0,-0.9768,5.1906,52.2127,2.5494,-1.1403,1.0594
1289941.0,0.6895,3.5913,44.4747,2.1237,-0.6949,1.0488
1289951.0,1.1013,1.9058,41.2473,1.5245,0.0463,0.8248
1289961.0,1.6855,1.6664,39.5618,1.1063,1.0924,0.5603
1289971.0,1.3791,2.308,41.0845,0.6944,1.9646,0.2937
1289981.0,0.4405,3.5147,44.58,0.373,2.3307,0.1144
1289991.0,-1.1205,5.7652,48.7747,0.2629,2.1668,0.1314
1290001.0,-0.8332,7.106,52.0787,0.5763,1.5926,0.3001
1290011.0,-1.1971,8.0062,53.3237,0.5848,0.7226,0.505
1290021.0,-1.1013,7.6136,52.5671,0.215,-0.5726,0.6854
1290031.0,-0.2298,7.0006,49.9622,0.0644,-1.5559,0.8163
1290041.0,0.5842,6.1387,45.011,0.232,-1.856,0.9301
1290051.0,0.431,6.0047,39.648,0.042,-1.6107,0.9972
1290061.0,0.7566,5.1523,36.2865,-0.224,-1.1377,1.0807
1290071.0,0.9194,3.4955,33.8827,-0.5161,-0.4746,1.1185
1290081.0,1.7717,1.7047,32.858,-0.7652,0.5763,1.0658
1290091.0,1.992,-0.6608,35.1086,-0.3549,1.6751,0.9301
1290101.0,1.9345,-0.8236,36.4589,-0.3565,2.4451,0.6971
1290111.0,1.8387,-0.6416,40.8738,-0.5475,2.7782,0.4943
1290121.0,0.9864,0.814,44.3023,-0.6178,2.7452,0.3411
1290131.0,0.1437,2.6624,47.6733,-0.9557,2.4355,0.3555
1290141.0,-0.5459,2.9113,51.0731,-0.7758,1.7336,0.4901
1290151.0,-0.68,2.6049,50.7379,-0.7412,0.9706,0.6391
1290161.0,-0.2107,0.4693,50.8912,-0.596,0.505,0.7066
1290171.0,0.6512,-1.3599,49.6845,-0.2102,0.099,0.5912
1290181.0,0.8428,-1.743,46.888,-0.5922,-0.2969,0.3847
1290191.0,1.1875,-2.0494,46.2464,-0.8296,-0.6806,0.1426
1290201.0,1.0822,-0.431,44.3693,-1.0376,-0.8285,-0.0298
1290211.0,1.1875,0.2969,43.766,-0.9073,-0.7838,-0.0654
1290221.0,1.0822,1.0343,42.0613,-0.5672,-0.6667,-0.0506
1290231.0,1.312,1.3886,40.9121,-0.5933,-0.5353,0.0074
1290241.0,1.7813,-0.067,40.8355,-0.2421,-0.3815,0.0277
1290251.0,2.0207,-0.2777,39.9736,-0.108,-0.224,-0.0357
1290261.0,1.7621,-0.2969,40.4907,-0.1788,-0.1772,-0.1176
1290271.0,1.1971,0.5267,40.2513,-0.0543,-0.1937,-0.1793
1290281.0,1.1492,2.6528,38.7382,-0.3815,-0.2554,-0.1453
1290291.0,1.2737,3.5817,38.2976,-0.9519,-0.2384,-0.0202
1290301.0,1.6951,2.7007,38.7478,-1.2643,-0.166,0.0995
1290311.0,1.9632,1.0822,39.3798,-1.2749,0.0021,0.1591
1290321.0,2.1548,-0.5076,40.3758,-0.8312,0.2836,0.1532
1290331.0,2.49,-1.245,40.1651,-0.1995,0.5305,0.1091
1290341.0,2.059,-1.561,41.0558,0.2522,0.6976,0.0037
1290351.0,2.1165,-1.3024,41.6016,0.5545,0.7295,-0.1245
1290361.0,1.9154,-0.3256,41.7261,0.6343,0.6742,-0.2395
1290371.0,1.8196,0.6608,41.4963,0.5247,0.5726,-0.3272
1290381.0,2.2122,1.2929,40.7876,0.3182,0.5034,-0.3874
1290391.0,1.8292,2.4134,40.4429,0.0128,0.514,-0.4204
1290401.0,1.6664,2.9018,40.7972,-0.2591,0.6093,-0.3682
1290411.0,0.7661,2.5762,41.8506,-0.1506,0.6981,-0.3235
1290421.0,1.1396,3.4764,41.9273,0.0686,0.82,-0.2485
1290431.0,1.1205,3.3327,42.6359,0.1836,0.8775,-0.174
1290441.0,0.9768,3.4955,43.1818,0.165,0.7301,-0.1447
1290451.0,1.0247,2.8252,43.3638,0.0245,0.4752,-0.1176
1290461.0,1.3312,2.2601,42.8849,-0.042,0.3155,-0.1352
1290471.0,1.3886,1.8196,42.3774,-0.0383,0.339,-0.1932
1290481.0,1.2737,2.4995,41.525,-0.0756,0.3948,-0.2671
1290491.0,1.1875,3.2944,41.4388,-0.1671,0.5108,-0.2831
1290501.0,0.7661,3.9744,42.1188,-0.0266,0.6832,-0.2022
1290511.0,0.6704,5.0757,41.7357,-0.0362,0.7726,-0.067
1290521.0,0.5363,4.3,42.6647,-0.2086,0.7019,0.0724
1290531.0,0.9768,3.1029,43.5074,-0.2112,0.538,0.1155
1290541.0,1.0056,2.7677,43.3542,-0.2416,0.3837,0.1117
1290551.0,1.0822,2.6049,43.4979,-0.2442,0.3124,0.0819
1290561.0,0.7853,3.2465,42.8945,-0.3411,0.2176,0.0878
1290571.0,0.8523,3.5338,42.6838,-0.4491,0.1517,0.1532
1290581.0,0.9098,3.0167,42.5019,-0.4672,0.2618,0.2139
1290591.0,0.8428,2.5091,42.2912,-0.4268,0.3113,0.2538
1290601.0,0.8428,1.494,42.6647,-0.4438,0.3219,0.2575
1290611.0,1.0247,0.6129,43.2489,-0.2453,0.2144,0.1687
1290621.0,1.245,0.7661,42.2816,-0.241,0.1889,0.0463
1290631.0,1.0247,1.1684,42.1858,-0.3847,0.2001,-0.0548
1290641.0,0.6321,2.0973,42.7317,-0.3884,0.2517,-0.083
1290651.0,0.4693,3.1508,42.8849,-0.2198,0.1916,-0.0351
1290661.0,0.8523,2.9592,42.6359,-0.1495,0.2091,0.0532
1290671.0,0.929,2.3559,41.9847,-0.1336,0.1314,0.0963
1290681.0,0.9385,2.2984,41.2569,-0.1559,0.0825,0.1101
1290691.0,1.0822,2.557,40.5961,-0.3485,0.1282,0.1314
1290701.0,1.2354,1.7238,41.0941,-0.5028,0.2469,0.1373
1290711.0,1.1779,1.2737,41.9751,-0.5209,0.2708,0.0947
1290721.0,0.8045,0.9577,42.5498,-0.3746,0.3044,0.0772
1290731.0,1.0343,0.3831,43.1052,0.0112,0.2719,0.0325
1290741.0,1.0247,0.249,42.1284,0.1703,0.1697,-0.0415
1290751.0,1.2354,0.9577,41.3048,0.0117,0.1187,-0.132
1290761.0,0.9098,1.8579,40.711,-0.108,0.1634,-0.2017
1290771.0,1.1971,2.739,40.96,-0.274,0.2852,-0.1948
1290781.0,0.4597,3.3519,41.4676,-0.3437,0.299,-0.1399
1290791.0,0.7183,3.9265,41.9081,-0.389,0.2948,-0.0319
1290801.0,0.8619,3.1795,41.9943,-0.3076,0.2661,0.1144
1290811.0,0.7661,2.4517,41.8985,-0.299,0.249,0.1815
1290821.0,0.9002,1.0534,41.6208,-0.223,0.2794,0.1761
1290831.0,1.2546,0.8619,41.4963,-0.1799,0.3884,0.1016
1290841.0,1.2641,0.6608,41.707,-0.2081,0.4895,-0.0064
1290851.0,1.5802,0.6608,42.1858,-0.2581,0.4895,-0.107
1290861.0,0.9002,1.1396,43.1722,-0.3794,0.348,-0.2075
1290871.0,0.6512,2.0303,43.584,-0.4353,0.1517,-0.2469
1290881.0,0.4022,2.2793,43.699,-0.299,0.0117,-0.1687
1290891.0,0.3352,2.2218,43.4404,0.0043,0.0069,-0.1197
1290901.0,0.8428,2.2889,42.5689,0.1963,0.0516,-0.0559
1290911.0,1.0439,1.6855,41.9943,0.3001,0.1777,-0.042
1290921.0,1.3599,1.5419,41.4963,0.1809,0.2719,-0.049
1290931.0,1.3216,1.3024,42.3678,0.0442,0.2634,-0.1224
1290941.0,1.2737,1.7717,42.9232,-0.1043,0.1389,-0.1495
1290951.0,1.0247,1.81,43.1339,-0.2325,-0.0372,-0.1857
1290961.0,1.245,1.6855,42.9328,-0.3044,-0.2166,-0.2341
1290971.0,0.9194,1.5993,41.889,-0.3799,-0.3725,-0.2682
1290981.0,1.4174,2.5666,40.8834,-0.4821,-0.3805,-0.2783
1290991.0,1.1205,2.5283,40.2896,-0.331,-0.1772,-0.2336
1291001.0,1.7909,3.2082,39.4181,-0.1336,0.0532,-0.1894
1291011.0,1.0343,3.5434,39.1883,-0.1266,0.2788,-0.1155
1291021.0,1.1875,3.4189,39.2458,-0.0974,0.4933,-0.0506
1291031.0,1.1588,3.0646,39.648,-0.149,0.7013,-0.016
1291041.0,1.2354,2.1739,40.7685,-0.2586,0.8865,-0.0436
1291051.0,1.3599,1.0918,42.1284,-0.2416,0.9094,-0.1352
1291061.0,1.0151,1.1109,43.1627,-0.3523,0.7418,-0.2682
1291071.0,1.1492,1.8387,44.2448,-0.4315,0.5135,-0.3363
1291081.0,0.6225,2.4421,44.6854,-0.3475,0.2698,-0.3847
1291091.0,0.2682,3.4381,44.7428,-0.2634,-0.0181,-0.3406
1291101.0,0.0575,4.2713,43.9384,-0.2629,-0.2352,-0.2421
1291111.0,-0.1915,5.1619,42.7221,-0.3975,-0.3863,-0.0883
1291121.0,0.3639,4.6352,41.64,-0.4927,-0.3581,0.0724
1291131.0,0.6033,3.4093,41.2473,-0.4417,-0.2283,0.1825
1291141.0,0.8906,2.2793,40.96,-0.2533,-0.0724,0.2421
1291151.0,1.1396,1.7334,40.9983,0.0404,0.0862,0.207
1291161.0,1.5131,0.7949,40.5482,0.0814,0.2767,0.141
1291171.0,1.3599,0.8045,40.3279,-0.075,0.29,0.0053
1291181.0,1.7334,1.3312,40.3279,-0.4369,0.3421,-0.108
1291191.0,1.3791,1.3599,41.1994,-0.4613,0.3283,-0.1761
1291201.0,1.5227,1.6664,41.9177,-0.4161,0.3751,-0.1804
1291211.0,1.4748,1.7142,42.0518,-0.2671,0.3523,-0.1745
1291221.0,1.5802,2.241,41.8602,-0.158,0.3608,-0.1735
1291231.0,1.5897,2.1069,41.2282,-0.3475,0.3789,-0.1666
1291241.0,1.6472,1.7142,41.6591,-0.4784,0.365,-0.1681
1291251.0,1.3408,1.5802,42.3103,-0.4997,0.3528,-0.1761
1291261.0,1.5802,1.5993,43.019,-0.4156,0.2347,-0.1889
1291271.0,1.3216,1.245,43.7564,-0.1469,0.0803,-0.1564
1291281.0,1.0918,1.2737,43.0573,0.2607,-0.1341,-0.1596
1291291.0,1.0918,1.8004,41.6878,0.3938,-0.2852,-0.1735
1291301.0,1.2258,1.992,39.7821,0.1644,-0.2384,-0.2198
1291311.0,1.3408,2.6145,39.4948,-0.0016,-0.0681,-0.248
1291321.0,0.7374,3.7254,38.7382,-0.3113,0.1564,-0.2496
1291331.0,0.6129,3.9073,40.2322,-0.422,0.2841,-0.1282
1291341.0,0.5267,4.0989,41.2952,-0.1155,0.3368,0.0213
1291351.0,1.1205,4.0318,40.8259,0.1394,0.4337,0.1873
1291361.0,1.6664,2.8252,41.3143,0.2804,0.4656,0.3118
1291371.0,2.3655,2.1452,41.0462,0.2363,0.4906,0.3352
1291381.0,3.1125,0.7374,41.276,0.2054,0.5316,0.282
1291391.0,3.122,0.2586,40.9983,0.0926,0.481,0.1229
1291401.0,3.5243,0.7757,40.6248,-0.307,0.4188,-0.0032
1291411.0,3.3232,0.0862,41.2186,-0.3363,0.4933,-0.1336
1291421.0,4.7692,-0.6321,40.7206,-0.0117,0.879,-0.3198
1291431.0,3.984,0.6608,40.7589,0.1128,1.2542,-0.5146
1291441.0,3.371,1.9632,41.8219,-0.1937,1.4511,-0.6061
1291451.0,2.8156,3.0358,42.4348,-0.5853,1.5229,-0.6252
1291461.0,2.6528,3.8211,43.2872,-0.886,2.0066,-0.5726
1291471.0,1.9728,3.6392,45.0301,-0.7524,3.033,-0.464
1291481.0,1.2163,1.8579,49.129,-0.3725,4.1239,-0.4507
1291491.0,-0.498,1.1779,55.1337,-0.0654,4.7683,-0.589
1291501.0,-1.9537,1.8004,61.6076,0.0351,4.8188,-0.7418
1291511.0,-3.1316,2.5953,67.1526,-0.3608,4.2926,-0.9525
1291521.0,-4.7692,2.9592,74.3926,-0.8743,3.0596,-1.1994
1291531.0,-6.4835,4.6256,78.4508,-1.6778,1.2191,-1.3803
1291541.0,-7.2113,5.8035,78.4508,-2.5392,-0.9019,-1.4942
1291551.0,-8.6095,7.7572,78.4508,-3.1166,-2.9415,-1.5006
1291561.0,-9.0501,9.1363,78.4508,-3.3081,-4.7433,-1.2851
1291571.0,-9.3374,9.2033,76.2027,-3.2193,-6.3422,-1.0073
1291581.0,-9.0884,9.1459,70.0543,-3.0905,-7.5443,-0.7093
1291591.0,-8.5042,8.4276,65.3617,-2.5909,-8.3063,-0.3831
1291601.0,-7.8243,8.1116,59.1081,-2.0619,-8.8182,-0.0468
1291611.0,-6.7612,7.0198,53.496,-1.8624,-9.2306,0.1979
1291621.0,-4.865,6.1292,47.252,-1.7405,-9.3987,0.3847
1291631.0,-3.6583,5.1619,41.956,-1.7693,-9.2119,0.5055
1291641.0,-2.4134,4.4245,38.4892,-1.5351,-8.7266,0.5752
1291651.0,-1.6281,4.4341,35.8651,-1.1882,-8.1387,0.6859
1291661.0,-0.5459,4.798,33.0879,-1.0546,-7.5986,0.8269
1291671.0,0.4597,3.4955,31.5652,-0.9982,-7.0563,0.9557
1291681.0,1.7334,2.4134,31.2204,-0.9158,-6.463,1.0115
1291691.0,2.9305,1.5897,31.546,-0.7817,-5.9001,1.0158
1291701.0,3.5051,2.1931,32.8389,-0.8349,-5.6095,1.0339
1291711.0,3.9169,2.0686,34.1222,-1.267,-5.7122,1.1281
1291721.0,4.3862,1.2737,35.7789,-1.4154,-6.0538,1.2249
1291731.0,5.114,0.3256,35.3097,-1.4218,-6.4316,1.3462
1291741.0,6.0334,-1.6664,34.7063,-1.4096,-6.7185,1.3744
1291751.0,7.2305,-3.3232,33.2698,-1.1877,-6.935,1.2984
1291761.0,8.4659,-3.1891,30.8469,-0.9956,-6.934,1.1988
1291771.0,9.5289,-3.055,28.6251,-0.911,-6.6892,1.1297
1291781.0,10.0652,-2.6049,26.3075,-1.044,-6.3375,1.0674
1291791.0,10.8314,-2.6336,25.4552,-1.45,-6.081,1.011
1291801.0,11.2432,-3.0837,25.1583,-1.7533,-5.9128,0.9807
1291811.0,11.7986,-3.7062,24.6986,-1.8039,-5.7303,0.9519
1291821.0,12.4977,-3.5913,23.6356,-1.6426,-5.593,0.9227
1291831.0,13.3118,-3.3232,21.6819,-1.4702,-5.3115,0.9679
1291841.0,15.026,-4.1372,19.2302,-1.3654,-4.7475,1.0578
1291851.0,16.6253,-6.1579,17.7171,-1.1435,-3.9254,1.0296
1291861.0,18.2055,-7.0006,17.7362,-0.9158,-3.0304,0.8934
1291871.0,18.646,-6.79,17.1616,-1.1568,-2.3168,0.7428
1291881.0,18.7897,-7.422,19.4409,-1.6767,-1.9874,0.6614
1291891.0,19.0004,-8.7915,21.0977,-1.9874,-1.9928,0.5459
1291901.0,19.7953,-11.5784,20.8104,-2.2498,-2.1077,0.3672
1291911.0,20.0634,-14.1737,20.6667,-2.0183,-1.8667,-0.0011
1291921.0,21.5191,-13.8959,19.8048,-1.3707,-1.0259,-0.4108
1291931.0,21.5957,-13.1873,20.2933,-0.9206,-0.1027,-0.738
1291941.0,21.5287,-11.5975,22.8407,-0.7263,0.3597,-0.977
1291951.0,21.4616,-9.5002,25.1583,-0.7375,0.2208,-1.0765
1291961.0,21.8064,-8.8202,26.5756,-1.0387,-0.3624,-1.0679
1291971.0,22.3523,-10.8505,26.3554,-1.2622,-1.1148,-1.1254
1291981.0,23.2716,-11.8657,23.6739,-1.0749,-1.416,-1.3164
1291991.0,23.2621,-12.9861,20.2837,-0.7992,-1.1323,-1.5038
1292001.0,24.4113,-15.7922,17.1904,-0.7886,-0.5268,-1.9012
1292011.0,24.8614,-15.9262,14.9015,-1.1004,0.2128,-2.5744
1292021.0,26.6618,-11.9614,15.6677,-1.4633,1.06,-3.0831
1292031.0,25.3211,-10.0748,19.6133,-0.9881,1.4303,-3.2826
1292041.0,26.499,-9.481,19.9676,0.0431,1.1286,-3.488
1292051.0,25.685,-7.3454,16.1944,0.9823,0.8354,-3.7083
1292061.0,24.871,-5.2577,9.4044,1.7081,0.92,-3.9355
1292071.0,23.6547,-1.6568,0.996,1.724,1.6879,-4.1691
1292081.0,22.6875,3.4477,-5.4779,1.3697,3.4635,-4.2707
1292091.0,19.7761,8.2648,-7.6519,0.8093,5.6175,-4.1457
1292101.0,18.5311,11.8657,-6.3782,-0.1628,7.5528,-3.8557
1292111.0,15.9645,13.3118,0.6129,-0.3512,8.7575,-3.4492
1292121.0,15.8305,15.9262,4.4436,-0.2975,9.2694,-3.0341
1292131.0,13.0436,18.0331,9.3565,-0.241,8.8432,-2.5265
1292141.0,10.7452,20.3124,7.2209,-0.2847,7.4969,-2.0156
1292151.0,8.8011,22.5246,-1.312,-0.7785,6.7435,-1.4841
1292161.0,6.8666,23.9995,-11.7029,-0.5757,8.1834,-0.9849
1292171.0,2.9305,27.8589,-20.0443,0.3581,12.1311,-0.4124
1292181.0,-4.118,33.4135,-21.2509,0.7827,16.984,0.2687
1292191.0,-13.2543,40.5386,-14.4131,-0.4555,17.4357,1.1866
1292201.0,-21.5574,44.3023,2.2697,-2.518,17.4357,2.5318
1292211.0,-29.0177,44.7428,18.9429,-3.5497,17.4357,4.0265
1292221.0,-33.356,42.0901,30.6458,-3.0863,17.4357,5.5531
1292231.0,-37.4549,38.6233,39.2841,-0.8604,17.4357,6.8536
1292241.0,-42.023,34.1509,46.9359,1.6623,17.4357,7.6576
1292251.0,-46.1506,34.7542,57.2501,3.372,17.4357,8.1961
1292261.0,-53.8025,38.0582,69.9298,2.9282,17.4357,8.5596
1292271.0,-55.5934,43.8905,78.4508,0.124,17.4357,9.0736
1292281.0,-60.8127,46.8497,78.4508,-3.8488,17.4357,10.0229
1292291.0,-63.1112,45.9495,78.4508,-6.5051,16.1752,11.1951
1292301.0,-65.0169,44.1491,78.4508,-7.9295,11.7075,12.6143
1292311.0,-68.3209,37.5411,78.4508,-7.6789,8.5074,14.1734
1292321.0,-69.6042,30.2914,78.4508,-6.23,6.7876,15.4978
1292331.0,-71.4142,24.8135,78.4508,-4.5001,5.8559,16.6014
1292341.0,-73.7701,20.5997,78.4508,-3.737,5.0247,17.4357
1292351.0,-74.0383,12.6414,78.4508,-4.5565,4.084,17.4357
1292361.0,-72.5922,1.0726,78.4508,-5.4946,3.124,17.4357
1292371.0,-71.1078,-10.0748,78.4508,-6.9813,1.6613,17.4357
1292381.0,-67.3824,-22.381,78.4508,-9.0214,-0.7343,17.4357
1292391.0,-63.6379,-32.8389,78.4508,-10.6045,-4.1058,16.2555
1292401.0,-58.974,-40.8259,78.4508,-11.8219,-7.8103,14.7581
1292411.0,-55.0188,-46.6869,78.4508,-12.3519,-11.3558,13.1155
1292421.0,-51.3796,-50.5177,78.4508,-12.1433,-14.3197,11.4984
1292431.0,-47.386,-52.9693,78.4508,-11.6043,-16.6908,9.9441
1292441.0,-42.7221,-56.0722,74.2203,-11.2052,-17.4363,8.4233
1292451.0,-38.0582,-60.3052,66.894,-9.7738,-17.4363,6.7754
1292461.0,-34.285,-61.3299,57.6141,-7.8487,-17.4363,5.0168
1292471.0,-29.8988,-59.5007,46.0644,-6.4652,-17.4363,3.3411
1292481.0,-26.4128,-57.9205,35.3576,-5.4249,-17.4363,1.6692
1292491.0,-21.8064,-54.741,23.9803,-5.062,-17.4363,0.0011
1292501.0,-18.5886,-52.3181,15.8783,-4.8843,-17.4363,-1.6432
1292511.0,-14.8728,-48.5927,11.2432,-4.2234,-15.6941,-3.2938
1292521.0,-12.5169,-41.2569,10.8793,-2.8958,-12.8372,-4.6661
1292531.0,-12.469,-31.977,14.4993,-1.267,-10.4225,-5.4233
1292541.0,-12.2775,-24.6986,19.9772,0.2762,-9.0427,-5.7585
1292551.0,-13.1873,-17.5447,25.5797,1.5181,-8.5564,-5.7543
1292561.0,-13.3692,-11.6837,29.3721,2.5158,-8.6367,-5.4478
1292571.0,-13.0149,-6.7612,29.5157,2.5297,-9.2066,-5.079
1292581.0,-12.1242,-3.0742,28.3282,0.9307,-10.2229,-4.7039
1292591.0,-11.6071,-2.2601,28.7496,-0.7056,-11.2212,-4.4309
1292601.0,-9.7971,-1.561,26.1543,-2.0422,-11.8799,-4.1803
1292611.0,-7.7955,-3.0167,24.6411,-2.8564,-11.8054,-3.9446
1292621.0,-5.9472,-5.4109,26.3362,-1.9305,-11.1765,-3.7908
1292631.0,-4.1276,-5.3726,25.5797,-0.2187,-10.663,-3.563
1292641.0,-1.8196,-4.1755,23.4823,0.7923,-10.4369,-3.2273
1292651.0,-0.0766,-4.5298,21.3563,1.3117,-10.5763,-2.8612
1292661.0,1.6951,-6.5888,15.5432,0.7146,-11.1584,-2.5935
1292671.0,4.0031,-12.1721,10.0365,-0.7497,-11.7049,-2.75
1292681.0,7.2305,-15.9262,4.367,-1.6394,-11.3319,-3.2826
1292691.0,8.3989,-17.2191,-0.2586,-1.5224,-10.1085,-3.9014
1292701.0,9.7492,-16.3476,-6.2153,-1.4835,-8.7751,-4.4772
1292711.0,11.5688,-14.8824,-11.6454,-2.1316,-7.5273,-4.9822
1292721.0,13.7044,-14.1641,-13.4458,-2.3168,-6.0757,-5.3648
1292731.0,14.9302,-12.0093,-16.0986,-1.5335,-4.4378,-5.6
1292741.0,17.7746,-6.8761,-20.1592,-1.2212,-2.7026,-5.6399
1292751.0,17.8224,-0.9481,-26.997,-2.7936,-1.9741,-5.2285
1292761.0,19.3164,1.9441,-32.3217,-6.1922,-2.1061,-4.6049
1292771.0,18.0044,1.9249,-38.7861,-9.6413,-2.5403,-3.7977
1292781.0,17.3915,-0.7949,-60.6882,-12.6866,-0.9424,-2.7909
1292791.0,16.9988,-13.7906,-53.9749,-9.528,3.2901,-2.2317
1292801.0,9.0309,-22.6683,-65.1606,-5.4132,6.6695,-2.2907
1292811.0,10.3813,-34.8308,-75.7238,-1.425,12.9772,-3.4257
1292821.0,3.6583,-39.4277,-78.4532,0.8344,17.4357,-5.4111
1292831.0,-9.4523,-39.5426,-72.6592,1.3862,17.4357,-7.6832
1292841.0,-26.0681,-35.7311,-59.6444,1.0084,17.4357,-9.9356
1292851.0,-40.4045,-25.1008,-50.0292,0.8961,17.4357,-11.7911
1292861.0,-60.2764,-12.536,-33.2698,0.0984,17.4357,-12.7191
1292871.0,-78.0318,-1.6089,-13.5991,0.1894,17.4357,-12.7414
1292881.0,-78.4532,4.8842,10.5632,0.8056,17.4357,-12.0241
1292891.0,-78.4532,5.7365,45.4707,2.287,17.4357,-11.2808
1292901.0,-78.4532,13.9917,24.8327,-2.1125,17.4357,-10.0362
1292911.0,-78.4532,-12.8233,78.4508,8.6782,17.4357,-9.6318
1292921.0,-78.4532,15.6964,78.4508,7.415,17.4357,-10.7545
1292931.0,-78.4532,6.7133,78.4508,-0.7226,17.4357,-10.5268
1292941.0,-78.4532,6.7325,78.4508,7.2548,17.4357,-9.4131
1292951.0,-70.0065,18.1768,78.4508,3.944,15.932,-8.8421
1292961.0,-63.3123,10.1706,78.4508,2.5648,5.6909,-8.3334
1292971.0,-59.5582,14.4706,78.4508,0.3177,-1.8698,-8.0259
1292981.0,-56.8958,6.8091,78.4508,-3.7514,-5.037,-7.8008
1292991.0,-54.0898,2.9305,78.4508,-0.0601,-4.2574,-7.5188
1293001.0,-52.117,8.3031,78.4508,-0.6274,-1.7645,-7.0734
1293011.0,-51.4562,2.4517,78.4508,-0.5337,-1.4926,-6.777
1293021.0,-48.4299,4.4053,78.4508,1.3292,-2.5408,-6.4109
1293031.0,-45.9304,1.4365,78.4508,2.0279,-3.9217,-5.9597
1293041.0,-43.1818,-2.308,78.4508,4.7661,-6.3188,-5.9086
1293051.0,-40.4524,1.3024,78.4508,4.4948,-9.0374,-6.0533
1293061.0,-38.719,0.8906,78.4508,3.4752,-12.1423,-6.3827
1293071.0,-37.8092,4.7692,78.4508,2.8223,-15.0726,-6.6807
1293081.0,-35.9609,7.422,77.4476,0.8689,-17.0739,-6.8142
1293091.0,-35.4821,6.2824,69.0583,0.0096,-17.4363,-6.9084
1293101.0,-34.17,6.6846,59.3666,-0.1926,-17.4363,-6.9941
1293111.0,-33.4518,6.8187,53.678,-0.1357,-17.4363,-6.9904
1293121.0,-33.7295,8.1594,52.0499,1.8379,-17.4363,-6.7653
1293131.0,-32.7239,12.402,44.2544,3.9547,-17.4363,-6.2454
1293141.0,-30.1765,14.7196,39.0159,5.7101,-17.0313,-5.5185
1293151.0,-28.3857,19.0004,32.475,6.9254,-16.0161,-4.5868
1293161.0,-24.9572,23.4728,26.9108,6.0118,-15.3004,-3.4651
1293171.0,-21.5765,23.0035,27.179,4.4894,-14.929,-2.3275
1293181.0,-18.2055,20.1975,27.562,3.3842,-14.599,-1.3638
1293191.0,-15.6006,15.3995,29.9563,2.2375,-14.4054,-0.6641
1293201.0,-12.9478,9.9407,33.8253,1.9449,-14.5389,-0.3012
1293211.0,-12.1338,5.7748,37.4645,1.9571,-15.2232,-0.1942
1293221.0,-12.3924,2.8635,40.6823,2.66,-16.6195,-0.2144
1293231.0,-11.6933,2.4612,37.5985,4.1478,-17.4363,-0.2373
1293241.0,-10.3334,4.5969,27.8398,4.9066,-17.4363,-0.1495
1293251.0,-7.2018,7.106,15.8113,4.7752,-17.4363,0.0415
1293261.0,-3.802,9.4427,4.9225,3.9775,-17.4363,0.2512
1293271.0,-0.5746,11.9423,-3.6583,2.6403,-17.4363,0.5199
1293281.0,1.81,13.8002,-7.8147,1.2042,-16.3401,0.9147
1293291.0,4.3574,14.4514,-10.3142,-0.5103,-14.9614,1.3074
1293301.0,7.2688,12.0285,-7.92,-1.2223,-13.8434,1.7203
1293311.0,8.3031,8.6574,-7.1539,-0.464,-12.6441,2.063
1293321.0,12.2104,6.5218,-10.4196,0.7386,-11.0695,2.2812
1293331.0,16.8264,5.6024,-14.0396,2.0822,-9.4828,2.3259
1293341.0,20.0059,7.9009,-19.5463,2.5664,-7.547,2.4238
1293351.0,21.2509,9.7588,-21.9979,2.2652,-5.5829,2.6505
1293361.0,22.2565,11.5784,-23.444,1.3909,-3.6992,2.982
1293371.0,22.8407,12.5265,-21.385,0.4092,-1.6128,3.4183
1293381.0,23.0897,12.7755,-17.3436,0.2432,0.4459,3.9951
1293391.0,23.693,11.0899,-10.975,0.1559,2.2673,4.7023
1293401.0,23.9516,6.3303,-2.5187,0.7045,3.1597,5.1955
1293411.0,24.1719,3.371,2.1356,1.1111,3.2752,5.4542
1293421.0,24.5166,0.3639,4.9225,1.0195,2.9963,5.5499
1293431.0,25.0721,-2.1165,6.3398,1.2137,2.5499,5.4973
1293441.0,25.5892,-2.4325,3.486,1.1329,2.3094,5.3605
1293451.0,25.2253,-1.9728,-0.6416,0.4374,2.4557,5.3062
1293461.0,25.3785,-3.0071,-3.1316,-0.6486,2.8143,5.2844
1293471.0,25.1966,-4.7597,-4.3574,-1.9247,3.1975,5.2078
1293481.0,25.0912,-6.6463,-4.4724,-2.7207,3.6939,5.0338
1293491.0,24.2006,-8.3222,-4.4436,-2.5297,4.3506,4.805
1293501.0,23.0993,-8.9064,-5.363,-1.6687,5.4584,4.5331
1293511.0,21.0307,-8.4946,-7.3167,-0.3006,6.893,4.1941
1293521.0,18.4066,-6.7421,-8.7915,0.8359,8.5516,3.8323
1293531.0,15.1792,-4.6352,-9.1075,1.7538,10.0905,3.5098
1293541.0,11.473,-1.2163,-10.0844,1.9066,11.3335,3.1916
1293551.0,8.6479,1.3408,-10.161,1.5543,12.3088,3.0032
1293561.0,4.5873,3.3998,-10.9463,1.4777,13.5439,2.8351
1293571.0,0.3831,5.7365,-13.5703,1.6613,15.6936,2.776
1293581.0,-4.6926,7.5465,-13.0628,1.7783,17.4357,2.6701
1293591.0,-11.6837,11.5879,-8.734,2.1412,17.4357,2.5419
1293601.0,-19.4218,18.5407,-2.5857,1.666,17.4357,2.8207
1293611.0,-27.0162,23.2238,7.4412,0.5784,17.4357,3.5503
1293621.0,-33.0879,25.2923,18.7514,-0.8721,17.4357,4.4995
1293631.0,-38.834,25.7041,28.1845,-2.494,17.4357,5.6452
1293641.0,-45.8346,22.9077,39.2936,-3.1703,17.4357,6.934
1293651.0,-51.7339,16.9701,52.5192,-2.4211,17.4357,7.9854
1293661.0,-58.5239,11.0325,72.3336,-1.0248,17.4357,8.5691
1293671.0,-62.9962,10.161,78.4508,0.6476,17.4357,8.965
1293681.0,-65.3713,9.8833,78.4508,1.9034,17.4357,9.3008
1293691.0,-63.657,11.4443,78.4508,2.5664,17.4357,9.5019
1293701.0,-60.0849,11.5688,78.4508,1.8592,17.4357,9.6211
1293711.0,-58.5143,12.0668,78.4508,0.3214,12.362,9.6642
1293721.0,-58.9069,11.7795,78.4508,-2.5605,6.7802,9.7419
1293731.0,-58.9836,8.4851,78.4508,-4.4149,1.6756,9.9771
1293741.0,-59.3092,5.9089,78.4508,-4.9306,-2.0987,10.2911
1293751.0,-58.0833,3.4189,78.4508,-4.5528,-4.3319,10.7843
1293761.0,-56.3787,0.1915,78.4508,-3.7461,-5.5393,11.2196
1293771.0,-53.8791,-2.9975,78.4508,-3.4151,-6.3987,11.6267
1293781.0,-51.3604,-9.0405,78.4508,-3.5433,-7.4405,11.8741
1293791.0,-48.315,-17.334,78.4508,-3.4869,-8.7086,11.7932
1293801.0,-43.335,-24.5932,78.4508,-3.9014,-9.751,11.401
1293811.0,-38.8531,-33.0113,78.4508,-4.1957,-10.5129,10.6981
1293821.0,-34.9266,-40.4237,75.6951,-4.3293,-11.4276,9.57
1293831.0,-31.4885,-46.3326,73.1381,-4.7725,-12.6212,7.9998
1293841.0,-27.7344,-48.3437,70.265,-5.2535,-13.9355,6.173
1293851.0,-25.6084,-47.1466,66.6929,-5.5308,-15.2743,4.3261
1293861.0,-24.1527,-44.58,62.3929,-4.9843,-16.2608,2.7154
1293871.0,-21.9022,-41.889,54.6644,-3.9153,-16.3545,1.2957
1293881.0,-20.2741,-37.9146,45.9591,-3.1858,-15.5627,0.0921
1293891.0,-17.0276,-34.7447,42.7987,-2.6302,-14.0877,-0.9637
1293901.0,-16.7498,-29.2955,42.0805,-2.4206,-13.0836,-1.7932
1293911.0,-16.4721,-24.4687,43.7469,-3.0346,-13.1368,-2.3211
1293921.0,-14.9302,-21.3946,46.4188,-3.215,-13.8929,-2.6973
1293931.0,-13.1681,-18.7227,44.7524,-3.0698,-14.7949,-2.8431
1293941.0,-11.7412,-19.1249,40.2609,-2.858,-15.56,-3.0011
1293951.0,-9.2512,-20.1113,33.7966,-2.6047,-15.7686,-3.3773
1293961.0,-6.5122,-20.0059,28.1462,-2.2876,-15.2253,-3.9483
1293971.0,-4.5298,-17.4106,24.5837,-1.7847,-14.4681,-4.4219
1293981.0,-4.3862,-13.7906,21.136,-1.6613,-14.0004,-4.7528
1293991.0,-2.7485,-9.912,18.6173,-1.608,-13.7179,-4.8901
1294001.0,-0.2586,-5.679,14.2311,-1.5756,-13.2523,-4.7523
1294011.0,2.3272,-3.4093,8.7819,-1.8267,-12.4243,-4.4208
1294021.0,6.1962,-2.8252,5.0661,-2.0199,-11.2473,-4.0685
1294031.0,9.3661,-2.49,1.8675,-2.3961,-10.008,-3.77
1294041.0,10.9559,-3.6966,-0.316,-3.0724,-9.0523,-3.5045
1294051.0,13.0723,-6.4835,-1.4269,-3.6104,-7.9535,-3.3752
1294061.0,15.9167,-10.228,-1.7813,-3.2624,-6.5471,-3.5928
1294071.0,16.8264,-11.3964,-1.3886,-2.2317,-4.7353,-3.9419
1294081.0,17.3723,-11.1666,1.6185,-0.7593,-2.9814,-4.3011
1294091.0,18.3779,-9.5385,3.6009,0.754,-1.6059,-4.6453
1294101.0,19.7091,-5.9185,4.9895,0.9812,-0.8583,-4.8417
1294111.0,19.5941,-3.2848,7.5944,0.5555,-0.6119,-4.9045
1294121.0,20.5806,-1.2546,9.5768,0.2671,-0.4044,-4.822
1294131.0,20.9253,0.3735,11.224,0.1841,-0.1612,-4.6347
1294141.0,20.2645,1.4653,13.9151,0.3464,-0.0053,-4.3777
1294151.0,20.2166,2.7677,14.7004,0.6513,-0.1681,-4.043
1294161.0,19.4696,4.3096,14.4993,0.4688,-0.6055,-3.653
1294171.0,20.2837,4.2425,14.1258,0.307,-1.3542,-3.2273
1294181.0,21.0594,3.6679,10.5536,0.3257,-1.8906,-2.9069
1294191.0,21.8255,2.8156,6.1675,0.622,-1.8651,-2.6265
1294201.0,22.4672,1.5802,0.6991,1.1925,-1.2829,-2.4929
1294211.0,23.2333,0.2682,-5.9568,1.4287,-0.2905,-2.5174
1294221.0,21.6149,0.0,-11.8848,0.9919,0.9764,-2.6648
1294231.0,19.4792,-0.1532,-15.4187,0.3342,2.4546,-2.8127
1294241.0,17.5926,0.1915,-17.6979,-0.1772,4.1319,-2.9005
1294251.0,16.2423,0.4214,-18.33,-0.6141,5.8027,-2.9287
1294261.0,14.4035,0.4597,-19.6995,-1.3106,7.3724,-2.9123
1294271.0,12.5456,-0.4597,-20.2645,-1.8055,9.3982,-2.933
1294281.0,10.477,-0.5076,-20.1113,-1.6213,12.2524,-2.9208
1294291.0,5.6886,-0.7278,-16.0795,-1.2159,15.4121,-2.8532
1294301.0,0.2873,-0.0958,-9.2129,-0.307,17.4357,-2.8117
1294311.0,-4.9704,1.9824,-0.2682,0.5454,17.4357,-2.5563
1294321.0,-9.7109,3.3806,8.6957,1.0115,17.4357,-2.1167
1294331.0,-13.7236,1.8004,14.3461,0.3214,17.4357,-1.6756
1294341.0,-15.6772,-3.62,18.4545,-0.7652,17.4357,-1.5399
1294351.0,-17.7937,-9.2608,20.7721,-0.8684,17.4357,-1.7943
1294361.0,-23.6356,-13.1106,25.3594,-1.1973,17.4357,-2.2923
1294371.0,-28.4527,-18.7322,37.5698,-1.6543,17.4357,-3.1517
1294381.0,-32.6186,-18.7993,48.88,-1.5282,17.4357,-4.1111
1294391.0,-37.3304,-12.8329,58.6005,-1.4766,17.4357,-4.5937
1294401.0,-38.8818,-9.6917,69.882,-0.531,17.4357,-4.5011
1294411.0,-38.8818,-9.7396,77.7828,0.2277,17.4357,-4.3309
1294421.0,-40.3758,-12.1721,78.4508,0.4603,17.4357,-4.4479
1294431.0,-41.956,-13.2064,78.4508,1.0754,17.4357,-4.7736
1294441.0,-43.1531,-10.8026,78.4508,2.3796,17.4357,-5.0375
1294451.0,-44.2736,-6.6272,78.4508,2.8841,15.3381,-5.0902
1294461.0,-42.4923,-2.7102,78.4508,2.4993,11.9097,-4.9625
1294471.0,-40.3279,-0.9194,78.4508,1.4463,7.7316,-4.6421
1294481.0,-38.6999,-2.1261,78.4508,0.4528,3.2932,-4.3921
1294491.0,-37.8092,-5.4492,78.4508,-0.2155,-0.0873,-4.2644
1294501.0,-35.4821,-12.3445,78.4508,-0.025,-0.8179,-4.4708
1294511.0,-32.791,-17.9661,72.8795,1.4899,0.8796,-5.1125
1294521.0,-33.0783,-17.7841,69.7862,2.8292,2.9484,-6.0145
1294531.0,-35.2714,-13.3788,73.0136,3.1043,3.8828,-6.7977
1294541.0,-37.0718,-7.7189,78.4508,2.3924,3.2533,-7.2883
1294551.0,-36.7271,-4.2808,78.4508,1.5234,1.7044,-7.4932
1294561.0,-35.5778,-1.8292,78.4508,1.0637,-0.1979,-7.598
1294571.0,-34.4095,1.0151,78.4508,0.3299,-2.0545,-7.54
1294581.0,-33.7199,0.8619,78.4508,-0.6034,-3.9169,-7.3783
1294591.0,-31.6226,-2.5762,78.4508,-0.7817,-5.3988,-7.2745
1294601.0,-31.977,-4.4149,78.4508,0.5805,-6.8494,-7.3767
1294611.0,-32.2547,-2.3942,78.4508,1.9247,-8.6926,-7.3756
1294621.0,-31.4215,-1.2163,78.4508,2.3785,-10.7838,-7.4118
1294631.0,-31.23,0.067,75.6089,2.2961,-12.8181,-7.5512
1294641.0,-30.4926,2.2697,67.2005,1.7746,-14.2681,-7.7305
1294651.0,-29.1518,5.679,58.4473,0.8642,-15.0721,-7.92
1294661.0,-27.5716,9.3182,49.9047,-0.6763,-15.3557,-8.0237
