time_ms,ax,ay,az,gx,gy,gz
487031.0,2.0279,2.1189,8.3151,-0.0335,-0.2996,0.0553
487041.0,2.1859,1.9776,8.1259,0.0458,-0.2107,0.0357
487051.0,2.3032,2.0039,7.9631,0.1383,-0.1022,0.0037
487061.0,2.3056,2.162,7.8673,0.1963,-0.0043,-0.0341
487071.0,2.3176,2.3128,7.7069,0.2256,0.0745,-0.0686
487081.0,2.2697,2.5474,7.5537,0.24,0.1559,-0.0942
487091.0,2.1261,2.7629,7.4005,0.232,0.2634,-0.1086
487101.0,2.0279,2.9018,7.4747,0.2379,0.4135,-0.107
487111.0,2.0351,3.0526,7.6519,0.2826,0.5901,-0.0952
487121.0,1.98,3.2154,7.8961,0.365,0.7721,-0.0761
487131.0,1.8723,3.3399,8.2145,0.4454,0.9621,-0.05
487141.0,1.7526,3.4046,8.6335,0.5002,1.1414,-0.0197
487151.0,1.5203,3.3639,9.1243,0.5098,1.2654,0.0059
487161.0,1.3671,3.383,9.5624,0.4826,1.3367,0.0239
487171.0,1.166,3.395,9.979,0.4395,1.4058,0.0436
487181.0,0.905,3.3208,10.4627,0.3666,1.4596,0.067
487191.0,0.6464,3.1101,11.0157,0.273,1.483,0.0878
487201.0,0.316,2.8754,11.4156,0.1948,1.4936,0.1016
487211.0,-0.0407,2.5905,12.0811,0.124,1.524,0.1011
487221.0,-0.2921,2.1668,13.0915,0.1139,1.5687,0.0931
487231.0,-0.6201,1.7765,13.9917,0.1692,1.5782,0.0644
487241.0,-1.0223,1.4629,14.9494,0.2267,1.5176,0.0027
487251.0,-1.2258,1.3001,15.8281,0.2778,1.3989,-0.0931
487261.0,-1.4724,1.4964,16.4314,0.3262,1.2441,-0.2139
487271.0,-1.8531,1.9249,16.9533,0.2895,1.0222,-0.3485
487281.0,-2.1308,2.6432,17.2526,0.1761,0.7364,-0.4784
487291.0,-2.4565,3.6152,17.4011,0.0037,0.4555,-0.5768
487301.0,-2.9018,4.6184,17.8751,-0.2251,0.1862,-0.6263
487311.0,-3.1484,5.3343,18.6556,-0.4321,-0.1155,-0.6034
487321.0,-3.3208,5.7245,19.3499,-0.5726,-0.4746,-0.5263
487331.0,-3.4812,5.8395,19.7378,-0.6747,-0.9232,-0.4172
487341.0,-3.4093,5.7174,19.6013,-0.7173,-1.4298,-0.2943
487351.0,-3.2777,5.4947,18.6915,-0.6816,-1.9199,-0.1703
487361.0,-3.1412,5.1787,17.437,-0.6753,-2.3589,-0.0623
487371.0,-2.8467,4.9967,15.8568,-0.7168,-2.7542,0.017
487381.0,-2.4014,4.9991,14.3628,-0.8657,-3.0815,0.0686
487391.0,-2.138,4.9249,13.0795,-1.0733,-3.339,0.1171
487401.0,-1.8723,4.7094,11.8489,-1.2702,-3.5444,0.1724
487411.0,-1.561,4.1348,11.0828,-1.4415,-3.6822,0.2256
487421.0,-1.1612,3.5889,10.2161,-1.4899,-3.7705,0.273
487431.0,-0.8092,3.0023,9.7588,-1.4846,-3.8046,0.307
487441.0,-0.5938,2.2841,9.3518,-1.3867,-3.8163,0.3352
487451.0,-0.2634,1.6257,8.5617,-1.2111,-3.8413,0.3496
487461.0,0.146,1.0032,7.762,-1.0791,-3.8828,0.3278
487471.0,0.5459,0.7063,6.7301,-0.9642,-3.9195,0.2708
487481.0,0.9002,0.7135,5.6647,-0.8844,-3.91,0.2038
487491.0,1.2713,0.5962,4.6998,-0.7992,-3.8355,0.1517
487501.0,1.8196,0.5243,3.45,-0.7019,-3.6945,0.1133
487511.0,2.5857,0.1963,2.5402,-0.7295,-3.5231,0.0676
487521.0,3.3112,0.0072,2.1787,-0.8035,-3.3199,-0.0112
487531.0,3.6583,0.2849,1.7837,-0.8003,-3.098,-0.0984
487541.0,3.7972,0.6512,1.3838,-0.7944,-2.9085,-0.1639
487551.0,4.1372,0.8475,0.6943,-0.8413,-2.7819,-0.1953
487561.0,4.561,0.7159,0.0982,-0.9381,-2.6712,-0.2176
487571.0,4.8794,0.7207,-0.7518,-0.9849,-2.5345,-0.2453
487581.0,5.3319,0.9673,-1.5538,-0.9653,-2.337,-0.2719
487591.0,5.7437,1.4102,-2.7605,-0.8652,-2.0726,-0.2677
487601.0,6.0094,1.7765,-3.8906,-0.8072,-1.7358,-0.2379
487611.0,6.3039,1.6735,-4.6208,-0.8067,-1.3457,-0.1884
487621.0,6.6702,1.2809,-5.5929,-0.7774,-0.9557,-0.1399
487631.0,7.0413,1.0367,-7.1946,-0.7737,-0.5348,-0.1298
487641.0,6.5817,1.1396,-8.6622,-0.9232,-0.041,-0.1655
487651.0,6.0741,1.5514,-9.4954,-1.2393,0.4848,-0.215
487661.0,5.3439,2.2218,-9.0357,-1.5362,1.1121,-0.2379
487671.0,4.0606,3.2657,-8.2744,-1.6974,1.6927,-0.2118
487681.0,3.8068,4.0342,-7.8721,-1.8188,2.0923,-0.1208
487691.0,3.1843,4.4724,-7.0868,-1.706,2.5776,0.0271
487701.0,2.4876,5.2505,-7.1898,-1.2223,3.1714,0.2219
487711.0,0.7925,6.2608,-7.525,-0.6008,3.8999,0.4651
487721.0,-1.1013,7.1754,-7.5561,-0.0074,4.7656,0.7636
487731.0,-3.5314,6.7038,-6.4045,0.3719,5.6739,1.1095
487741.0,-5.9855,4.9991,-4.13,0.7146,6.6392,1.4335
487751.0,-8.3821,2.6288,-0.7087,1.0722,7.6358,1.6448
487761.0,-10.8338,-0.2394,4.5921,1.5426,8.6096,1.6788
487771.0,-13.6086,-1.2354,11.1881,2.5871,9.6834,1.5123
487781.0,-16.6397,0.565,16.745,3.9594,10.5193,1.2068
487791.0,-18.8424,3.6727,21.3826,4.8087,10.7503,0.8737
487801.0,-20.3483,7.6902,24.8494,4.8938,10.4246,0.6061
487811.0,-20.7936,10.0748,29.5947,4.1787,9.751,0.4858
487821.0,-19.7306,10.75,34.7375,3.024,8.7245,0.4672
487831.0,-19.0195,10.3262,40.5434,1.5777,7.349,0.456
487841.0,-18.6293,9.2416,46.3446,0.1458,5.4749,0.4895
487851.0,-17.1377,8.8442,48.7627,-0.7721,3.1698,0.6199
487861.0,-16.0028,8.1977,47.4866,-1.2058,0.6997,0.8588
487871.0,-14.7028,7.683,41.2282,-1.1871,-1.5772,1.1701
487881.0,-13.7379,6.4308,33.3776,-1.1504,-3.2656,1.4777
487891.0,-12.5959,4.2042,26.2333,-1.0988,-4.2154,1.7342
487901.0,-11.2049,2.2817,20.1711,-1.0179,-4.5794,1.8714
487911.0,-9.7061,0.577,16.5128,-1.0568,-4.5772,1.8927
487921.0,-8.3127,-0.6728,13.9797,-1.0387,-4.4006,1.8395
487931.0,-7.1802,-1.3384,12.8832,-1.0057,-4.1452,1.7475
487941.0,-6.3159,-1.6616,12.6941,-0.9216,-3.944,1.6597
487951.0,-5.5617,-1.8076,12.6198,-0.7412,-3.8413,1.6086
487961.0,-4.9105,-2.0614,12.7036,-0.5209,-3.877,1.5846
487971.0,-4.5657,-2.545,12.3134,-0.2458,-4.0643,1.5766
487981.0,-3.9887,-3.395,10.6111,-0.0064,-4.3596,1.5543
487991.0,-3.2106,-4.1899,8.327,0.0287,-4.6448,1.4521
488001.0,-2.387,-4.9201,6.0478,-0.1538,-4.8215,1.2574
488011.0,-1.4389,-4.9943,4.1372,-0.5231,-4.8821,0.9679
488021.0,-0.9601,-4.4436,3.3088,-1.0004,-4.8789,0.6321
488031.0,-0.2777,-3.7685,2.6193,-1.2521,-4.8422,0.3443
488041.0,0.5483,-2.9521,1.2115,-1.1669,-4.7161,0.1437
488051.0,1.5802,-2.8706,0.4549,-0.8407,-4.367,0.0282
488061.0,2.3894,-2.5833,-0.6464,-0.2379,-3.8514,-0.0474
488071.0,3.0574,-1.9728,-1.585,0.2097,-3.3108,-0.1176
488081.0,3.4141,-1.2163,-2.0087,0.3432,-2.8266,-0.1873
488091.0,3.371,0.1556,-2.7749,0.141,-2.4679,-0.2442
488101.0,3.735,0.4741,-2.7078,-0.5768,-2.2961,-0.2618
488111.0,4.4843,-0.2466,-1.889,-1.3367,-2.212,-0.2666
488121.0,5.2625,-0.4764,-1.6305,-1.5995,-1.9837,-0.2815
488131.0,5.5785,-1.2258,-0.6488,-1.4473,-1.5554,-0.2687
488141.0,5.8754,-2.1021,-0.5531,-1.0004,-1.2239,-0.2586
488151.0,6.2704,-2.8323,-1.4796,-0.6423,-1.0488,-0.3108
488161.0,6.5529,-3.2106,-2.4325,-0.4321,-0.8253,-0.4385
488171.0,6.5218,-2.7102,-4.0007,-0.2256,-0.4794,-0.5992
488181.0,6.1244,-1.9752,-6.2728,-0.3251,-0.1389,-0.7492
488191.0,5.6072,-1.719,-9.1099,-0.9615,0.0883,-0.8764
488201.0,5.5785,-2.071,-11.4491,-1.9486,0.3948,-0.9919
488211.0,4.7549,-2.0303,-11.8944,-2.7532,1.0078,-1.0892
488221.0,3.1987,-1.3168,-11.169,-2.8585,1.8784,-1.1004
488231.0,2.1835,-1.6137,-12.1817,-2.444,2.7053,-0.9727
488241.0,1.2067,-2.3679,-13.7379,-1.9177,3.5912,-0.8817
488251.0,-0.4884,-3.4836,-14.777,-1.2478,4.9268,-0.8051
488261.0,-3.9768,-4.0917,-12.8688,-0.7098,6.5455,-0.8301
488271.0,-8.1139,-4.8291,-9.1794,-0.2618,8.1051,-0.8743
488281.0,-12.6893,-7.4388,-1.6592,0.1729,9.7313,-0.9291
488291.0,-17.1114,-10.0533,7.8147,0.8413,11.0083,-1.1494
488301.0,-20.7865,-11.2288,17.0898,1.8108,11.8102,-1.5846
488311.0,-24.8805,-8.9184,22.0626,2.7829,11.9938,-2.1806
488321.0,-25.7496,-7.0868,28.6011,2.7186,11.6479,-2.7909
488331.0,-25.3043,-2.8299,36.5092,2.5094,10.9897,-3.2847
488341.0,-24.6004,2.4277,43.3686,1.8581,9.2641,-3.6072
488351.0,-22.5797,5.9089,50.3285,0.8849,6.8653,-3.6301
488361.0,-19.6899,8.6167,51.2168,0.4273,4.1691,-3.3688
488371.0,-19.3954,8.2839,50.4027,-0.2219,1.3925,-2.9804
488381.0,-17.2383,7.7165,44.1826,-0.5875,-1.2414,-2.5674
488391.0,-15.8879,5.3056,37.0646,-1.0578,-3.2783,-2.2535
488401.0,-14.3652,3.9121,29.3912,-1.2473,-4.5097,-2.0885
488411.0,-12.9861,3.3351,23.1807,-1.2286,-4.9082,-1.9997
488421.0,-11.4108,2.6145,19.1919,-1.1456,-4.8417,-1.931
488431.0,-10.149,2.2218,16.6086,-1.0094,-4.6017,-1.8938
488441.0,-9.5648,2.3798,15.9334,-0.8546,-4.3569,-1.873
488451.0,-9.2225,2.8252,15.3947,-0.4693,-4.2346,-1.7953
488461.0,-8.4467,2.7581,14.0324,0.0255,-4.2819,-1.649
488471.0,-7.58,2.8515,11.8058,0.4347,-4.3766,-1.5165
488481.0,-6.7062,3.3902,9.5648,0.6061,-4.3686,-1.4149
488491.0,-5.8466,3.4046,8.2552,0.4656,-4.251,-1.3212
488501.0,-5.2529,3.2848,8.0804,0.0686,-4.1382,-1.2712
488511.0,-4.9225,3.2992,9.2775,-0.4986,-4.1537,-1.276
488521.0,-5.2409,2.9784,12.6366,-0.7732,-4.3149,-1.2696
488531.0,-5.5976,3.3495,12.3301,-0.1352,-4.7385,-1.1542
488541.0,-5.0781,3.2801,8.2815,0.6582,-5.2658,-0.945
488551.0,-3.6344,2.4445,3.8307,1.061,-5.5079,-0.7673
488561.0,-1.9848,2.3679,-0.6895,1.1866,-5.3009,-0.696
488571.0,-0.9792,2.7749,-2.8922,0.8391,-4.7603,-0.7152
488581.0,-0.0383,3.9025,-3.7972,0.2613,-4.1303,-0.7482
488591.0,0.4501,4.5633,-2.6432,-0.4789,-3.5284,-0.7338
488601.0,1.0223,3.6272,0.6776,-1.044,-3.0783,-0.6635
488611.0,1.5874,2.7605,2.5786,-1.0185,-2.9069,-0.589
488621.0,2.0183,1.9752,2.8706,-0.687,-2.9224,-0.5316
488631.0,2.557,1.0654,1.1253,-0.339,-3.0314,-0.4975
488641.0,3.5769,0.7398,-1.9273,-0.2426,-3.0916,-0.5396
488651.0,5.047,1.573,-5.4133,-0.4331,-2.933,-0.6635
488661.0,5.193,2.6911,-6.031,-0.6173,-2.1689,-0.7801
488671.0,5.5617,5.2385,-5.4564,-0.687,-1.3266,-0.8131
488681.0,4.9967,6.2632,-2.0279,-1.0291,-0.7897,-0.712
488691.0,5.0661,6.4284,0.9122,-0.9631,-0.5289,-0.5066
488701.0,4.7118,6.4955,1.7621,-0.4927,-0.4741,-0.2677
488711.0,4.7285,6.5242,0.6177,-0.0245,-0.5683,-0.0341
488721.0,4.9823,6.8019,-1.9178,0.2299,-0.6098,0.1724
488731.0,5.1188,7.2449,-4.3215,0.1421,-0.5007,0.3523
488741.0,5.3558,8.0637,-6.3494,-0.0819,-0.1501,0.5236
488751.0,4.7932,9.4691,-7.5346,-0.4145,0.3906,0.7168
488761.0,4.0941,10.8697,-7.1802,-0.9977,0.8301,0.9605
488771.0,3.0933,12.4762,-6.4165,-1.4218,1.1818,1.2989
488781.0,1.8818,14.3772,-6.8402,-1.3877,1.5458,1.7757
488791.0,0.0766,15.6198,-7.7955,-0.9472,2.0518,2.411
488801.0,-2.0494,16.1369,-10.8577,-0.124,2.8255,3.1703
488811.0,-5.1212,15.1385,-12.2799,0.6657,4.1164,3.9541
488821.0,-9.8665,13.5177,-11.5185,1.4543,5.8314,4.6725
488831.0,-15.7347,10.4579,-7.8554,2.0486,7.6704,5.2966
488841.0,-20.9995,4.2952,-0.5243,2.4514,9.487,5.7841
488851.0,-24.8446,-4.9081,10.3046,2.9431,11.0919,5.9155
488861.0,-26.0561,-10.0389,20.9564,3.7546,12.0811,5.3813
488871.0,-24.5525,-5.9041,25.0864,4.2212,11.9688,4.3899
488881.0,-26.0298,0.8835,32.4342,3.852,11.6921,3.5513
488891.0,-25.9508,10.4172,33.1262,2.8143,10.2852,3.1192
488901.0,-26.0369,11.2575,39.8539,-0.3155,7.8492,3.1187
488911.0,-22.4624,4.8818,47.149,-2.0667,5.7277,3.5737
488921.0,-20.7146,-2.0686,49.8066,-2.0635,3.7711,3.936
488931.0,-18.6939,-7.9607,50.2375,-1.8028,1.2068,3.9323
488941.0,-15.1529,-10.4818,41.2186,-1.1323,-1.5484,3.6796
488951.0,-12.4714,-12.1027,33.6385,-0.9211,-3.323,3.1937
488961.0,-10.6901,-9.6223,23.8391,-0.6055,-4.1813,2.5946
488971.0,-9.5648,-6.3614,17.4968,-1.1616,-4.5113,2.0369
488981.0,-8.758,-3.462,14.5639,-2.0172,-4.5884,1.6597
488991.0,-8.2815,-0.4501,12.9287,-2.4232,-4.3548,1.5495
489001.0,-8.1714,-0.0934,14.88,-2.2966,-3.8748,1.7475
489011.0,-8.011,-1.5443,15.4761,-1.3085,-3.4779,2.1614
489021.0,-7.1515,-4.889,15.5144,-0.2953,-3.3449,2.5637
489031.0,-5.8538,-8.5784,14.7052,0.4411,-3.4236,2.742
489041.0,-4.8219,-10.7667,13.3956,0.7322,-3.6072,2.6175
489051.0,-4.1037,-11.7555,12.6653,0.5284,-3.9238,2.2413
489061.0,-3.6129,-10.6949,11.1977,0.1495,-4.3282,1.723
489071.0,-3.1843,-8.6431,9.2919,-0.3544,-4.7433,1.2153
489081.0,-2.6576,-6.6679,6.9983,-0.9067,-5.1163,0.8093
489091.0,-2.0111,-4.9081,5.0374,-1.1988,-5.2025,0.5358
489101.0,-1.2258,-3.7565,3.2034,-0.9461,-4.888,0.4406
489111.0,-0.1987,-3.4931,1.4222,-0.307,-4.2702,0.481
489121.0,0.7757,-3.8092,0.2825,0.3491,-3.5268,0.5507
489131.0,1.2905,-3.9456,-0.3184,0.8679,-2.7819,0.5678
489141.0,1.6712,-3.3016,-0.7685,1.1073,-2.1742,0.5225
489151.0,1.6328,-2.557,-0.7326,0.9833,-1.7443,0.4587
489161.0,1.8364,-1.9824,-1.245,0.6768,-1.4479,0.431
489171.0,2.1596,-2.411,-0.7254,0.2607,-1.1398,0.4337
489181.0,2.7845,-3.1268,-0.5004,0.0889,-0.8173,0.4278
489191.0,2.8587,-3.4764,-0.2729,0.1165,-0.4427,0.3821
489201.0,2.5881,-3.486,0.3639,0.2943,-0.0282,0.3214
489211.0,2.7533,-2.7988,0.8499,0.6236,0.3895,0.2826
489221.0,2.5067,-2.32,1.8364,0.9434,0.8024,0.2852
489231.0,2.2194,-1.9872,2.5379,1.2286,1.1063,0.3118
489241.0,2.0997,-1.7765,3.1196,1.2643,1.1941,0.3246
489251.0,2.0255,-1.9968,3.8978,1.1142,1.118,0.3124
489261.0,2.3463,-2.1428,3.7996,1.0946,1.0328,0.281
489271.0,1.9968,-2.6695,4.3072,1.0536,0.9865,0.2331
489281.0,1.5945,-3.2489,3.6392,0.9844,0.77,0.1729
489291.0,2.3559,-4.4532,1.4796,0.5491,0.2969,0.0883
489301.0,4.0486,-7.1395,-1.391,-0.307,-0.2112,-0.1075
489311.0,3.8068,-9.979,-5.94,-1.2111,-0.4001,-0.5316
489321.0,5.0685,-12.311,-9.3685,-2.1002,-0.0633,-1.2271
489331.0,2.4421,-11.6119,-13.7284,-1.9747,1.4165,-2.0156
489341.0,-1.2043,-11.4682,-13.9223,-1.9475,3.1852,-2.8016
489351.0,-4.0797,-10.6853,-14.6836,-1.126,5.5207,-3.4667
489361.0,-10.1586,-10.2568,-9.1674,-0.0559,8.5441,-4.0611
489371.0,-17.2526,-11.5472,0.3735,0.4379,10.6002,-4.6794
489381.0,-25.4025,-12.0045,10.9894,0.4475,11.5979,-5.4659
489391.0,-30.7248,-9.2464,25.6539,1.0435,12.121,-6.2358
489401.0,-33.6912,1.64,37.0335,2.7436,12.0321,-6.7493
489411.0,-31.3832,13.7643,48.1498,3.4465,10.3735,-6.653
489421.0,-27.5836,17.832,55.1409,2.9479,6.902,-5.9134
489431.0,-26.0226,21.1504,52.6772,2.5611,3.2257,-4.93
489441.0,-23.9348,20.3603,51.3532,1.9811,0.464,-3.8568
489451.0,-20.3938,16.6972,46.4164,1.9582,-1.7773,-2.8074
489461.0,-19.2183,12.6653,39.0877,1.6692,-3.8403,-2.0981
489471.0,-17.2766,8.0565,32.0584,0.9887,-5.6149,-1.7602
489481.0,-15.3109,5.3175,22.6252,0.6933,-6.6211,-1.6692
489491.0,-13.3165,3.6416,16.3428,0.0995,-6.8914,-1.8001
489501.0,-11.7603,3.7972,11.0301,-0.497,-6.8414,-2.0348
489511.0,-10.0748,4.0797,7.3143,-1.2483,-6.6291,-2.2567
489521.0,-8.442,4.209,5.2218,-1.9608,-6.2465,-2.4408
489531.0,-6.6008,4.2425,6.0118,-2.295,-5.5457,-2.5669
489541.0,-6.292,4.1108,8.2935,-1.9358,-4.7848,-2.585
489551.0,-5.7557,4.7573,8.4683,-1.3335,-4.5214,-2.5217
489561.0,-5.1427,4.3862,9.3039,-1.1499,-4.6496,-2.4206
489571.0,-4.2329,5.1858,7.343,-0.928,-4.9258,-2.3248
489581.0,-3.4261,5.7197,5.928,-1.0552,-5.0859,-2.2237
489591.0,-2.1955,6.1866,4.3311,-1.3409,-5.1498,-2.1173
489601.0,-1.2881,6.6056,3.1699,-1.7049,-5.0838,-2.0082
489611.0,-0.6967,6.9791,2.3439,-2.1455,-4.9742,-1.8933
489621.0,-0.1987,7.0461,2.1548,-2.5627,-4.8241,-1.756
489631.0,0.2155,6.6008,2.0806,-2.8351,-4.6485,-1.5862
489641.0,0.6345,5.9735,2.624,-2.924,-4.4554,-1.4223
489651.0,1.5083,5.4588,3.2729,-2.6121,-4.2377,-1.2542
489661.0,2.0494,5.1691,2.4972,-1.88,-3.9962,-1.0413
489671.0,2.6217,4.9153,0.4501,-1.1898,-3.7796,-0.8014
489681.0,3.6512,4.3359,-1.7454,-0.803,-3.4896,-0.5763
489691.0,4.8004,3.7254,-3.9696,-0.6737,-3.0314,-0.4071
489701.0,5.1882,2.4253,-3.8714,-0.795,-2.344,-0.3006
489711.0,5.5689,1.5993,-2.9664,-0.9764,-1.7751,-0.274
489721.0,5.4755,1.2115,-1.2378,-1.2031,-1.4654,-0.3139
489731.0,6.1004,0.8811,-0.7661,-1.1653,-1.3819,-0.331
489741.0,6.7971,0.8667,-1.5419,-0.803,-1.2531,-0.3352
489751.0,7.4388,1.4796,-3.6823,-0.315,-0.9647,-0.3358
489761.0,7.6782,1.7597,-4.221,0.0319,-0.4092,-0.3251
489771.0,7.3143,2.4924,-3.7254,0.3629,0.2139,-0.3044
489781.0,6.6702,3.4069,-2.6983,0.53,0.6135,-0.2607
489791.0,6.4356,4.2329,-1.5179,0.7029,0.8716,-0.1687
489801.0,5.8586,5.5043,-1.4916,1.003,1.0456,-0.0234
489811.0,5.4061,6.8259,-2.3798,1.1871,1.1478,0.1644
489821.0,4.4748,8.4036,-3.5865,1.2302,1.3255,0.3911
489831.0,3.9816,10.1634,-4.458,1.1126,1.5921,0.663
489841.0,3.2178,11.8992,-4.9752,0.8881,1.9177,0.9903
489851.0,1.7358,14.0444,-4.7645,0.7072,2.3344,1.375
489861.0,0.3328,17.1904,-5.6431,0.5161,2.6733,1.8438
489871.0,-2.4517,19.9605,-5.2912,0.0192,2.9495,2.4488
489881.0,-6.1603,22.7258,-5.3558,-0.2336,3.2682,3.2624
489891.0,-8.8825,24.191,-5.7844,-0.133,3.7769,4.3106
489901.0,-14.9638,23.3243,-5.8849,0.2783,4.6241,5.5744
489911.0,-20.2956,16.1249,-3.4764,1.4936,6.1619,6.9116
489921.0,-24.9739,6.2848,-0.6608,3.3842,8.3659,7.9029
489931.0,-28.9603,-6.5697,7.5729,4.9109,10.87,8.2371
489941.0,-30.787,-16.4338,15.1768,5.8687,12.8686,7.5523
489951.0,-29.8748,-14.9614,23.5302,5.3296,13.7509,5.8431
489961.0,-32.3265,-2.7174,37.2107,4.3202,13.9834,4.1638
489971.0,-31.1103,11.8441,40.9313,2.2897,11.7405,3.3433
489981.0,-33.04,12.1841,51.1521,-1.4793,8.4249,3.48
489991.0,-30.1741,5.387,56.1464,-2.2391,6.1512,4.3958
490001.0,-26.6499,-9.2584,61.0402,-1.7214,4.2048,5.1806
490011.0,-21.7657,-19.5319,58.0211,-1.5724,0.5412,4.9987
490021.0,-16.9845,-24.8327,48.3533,-1.6873,-3.3401,4.085
490031.0,-14.4777,-22.5725,34.9721,-1.4021,-5.6558,2.833
490041.0,-13.2543,-16.2638,22.2134,-1.5101,-6.5551,1.6325
490051.0,-12.5648,-9.5313,16.2686,-2.4083,-6.5865,0.7231
490061.0,-12.0021,-3.1556,13.5153,-2.8026,-6.1193,0.3358
490071.0,-11.4778,0.7398,13.2016,-2.3211,-5.3371,0.4864
490081.0,-11.1953,2.5929,12.4451,-1.0999,-4.5421,1.0052
490091.0,-10.9702,1.233,10.9104,0.0,-3.9861,1.6687
490101.0,-9.2105,-3.7804,10.0054,0.3735,-3.7982,2.1721
490111.0,-7.2927,-8.4874,9.007,0.2485,-3.8275,2.228
490121.0,-5.8442,-11.1498,8.8609,-0.1219,-3.8142,1.8619
490131.0,-5.0901,-10.5393,9.4379,-0.4427,-3.7482,1.2563
490141.0,-5.2457,-7.1227,10.2185,-0.7247,-3.8365,0.6619
490151.0,-5.8012,-3.4548,10.738,-0.9897,-4.1952,0.2932
490161.0,-5.5115,-0.6656,9.9383,-0.9743,-4.6453,0.2054
490171.0,-4.9871,0.8308,7.8626,-0.6071,-4.9109,0.3544
490181.0,-4.1372,0.395,4.877,-0.0782,-4.9103,0.6396
490191.0,-2.8611,-1.3575,1.9106,0.307,-4.6485,0.895
490201.0,-1.6185,-2.6312,-0.0575,0.3868,-4.1962,0.9892
490211.0,-0.4717,-3.3399,-0.3879,0.2128,-3.6609,0.9615
490221.0,0.4262,-3.7637,0.3783,-0.0633,-3.1937,0.8796
490231.0,0.8882,-3.8092,1.3743,-0.3278,-2.8904,0.7657
490241.0,1.4988,-3.4548,2.2458,-0.4576,-2.7244,0.6614
490251.0,1.8244,-3.134,2.3128,-0.3618,-2.593,0.6082
490261.0,2.1596,-3.3878,1.2546,-0.1777,-2.4743,0.6098
490271.0,2.806,-4.3981,-0.2466,-0.1383,-2.3349,0.6103
490281.0,3.5674,-5.5474,-1.6424,-0.2112,-2.0731,0.5475
490291.0,4.3934,-6.1387,-2.4277,-0.2458,-1.5889,0.4119
490301.0,4.6088,-6.1866,-2.1572,-0.2038,-0.9535,0.24
490311.0,4.5801,-5.5426,-1.1995,-0.1538,-0.406,0.0633
490321.0,4.5035,-4.7884,0.3136,-0.1123,-0.0399,-0.0734
490331.0,4.3,-4.3527,1.8651,0.041,0.1628,-0.1495
490341.0,4.3096,-3.8762,2.1428,0.2097,0.1245,-0.1846
490351.0,4.1587,-4.0869,2.3415,0.1687,-0.1054,-0.199
490361.0,4.4867,-4.3455,0.0455,0.0809,-0.531,-0.2155
490371.0,4.5442,-5.0829,-2.8443,-0.2932,-0.9583,-0.2772
490381.0,5.6455,-6.1483,-9.9359,-0.6923,-1.2882,-0.3751
490391.0,5.2002,-7.829,-15.3037,-1.2643,-0.6029,-0.5215
490401.0,5.3199,-8.9447,-17.9062,-2.2833,0.3608,-0.7082
490411.0,4.0701,-10.9894,-19.2207,-3.5566,1.0046,-0.8966
490421.0,1.2522,-12.208,-22.2804,-4.0121,1.7953,-1.061
490431.0,-1.8603,-12.548,-28.0337,-3.6173,3.1161,-1.152
490441.0,-8.0972,-13.6948,-31.6322,-2.6616,5.452,-1.2159
490451.0,-14.607,-14.0396,-33.8444,-1.1526,8.683,-1.4575
490461.0,-25.2636,-16.2686,-25.2804,0.132,12.5318,-2.005
490471.0,-37.8595,-17.2263,-13.7691,1.5048,15.8538,-2.9133
490481.0,-49.5097,-17.7698,3.4884,1.9209,17.4357,-4.1265
490491.0,-56.6181,-17.9062,24.1527,1.4511,17.4357,-5.3573
490501.0,-60.3075,-17.2646,44.2664,1.2292,17.4357,-6.3135
490511.0,-56.4553,-9.912,63.238,2.3136,16.5184,-6.9265
490521.0,-48.4969,-1.4413,76.5402,2.709,12.2173,-7.1266
490531.0,-41.0558,3.4453,78.221,2.0156,6.2773,-6.943
490541.0,-36.7342,6.4332,71.0144,1.1595,1.3377,-6.5407
490551.0,-34.0575,5.9233,62.1176,-0.083,-2.4935,-6.1369
490561.0,-31.692,5.0015,49.5265,-1.3329,-5.7979,-5.8229
490571.0,-30.2459,2.6743,41.3215,-1.9167,-7.6677,-5.5063
490581.0,-29.2428,24.5525,32.6354,-0.5337,-8.1876,-4.8342
490591.0,-24.3083,3.0406,25.7712,0.9562,-7.8119,-3.5545
490601.0,-20.65,0.6033,14.4993,2.966,-7.5081,-3.2262
490611.0,-19.2302,2.9377,9.56,3.5875,-7.3554,-2.9974
490621.0,-14.4011,2.9975,1.9393,3.7626,-7.2793,-2.734
490631.0,-11.145,4.9153,-3.0167,3.0554,-6.7578,-2.5978
490641.0,-9.3326,4.4101,-2.9808,1.6655,-6.231,-2.5227
490651.0,-6.2968,3.0358,-4.1348,0.5502,-5.8692,-2.5185
490661.0,-5.1092,2.047,-3.122,-0.4901,-5.3632,-2.7095
490671.0,-4.4628,4.6711,-1.5993,-1.2228,-4.9572,-2.9798
490681.0,-4.4293,7.1874,2.4612,-1.3266,-4.5432,-3.0756
490691.0,-3.4692,11.0852,2.5666,-0.4374,-4.3298,-2.8825
490701.0,-2.6001,14.0396,1.3431,0.4358,-4.2979,-2.3652
490711.0,-1.1277,15.6198,-2.988,1.0531,-4.3782,-1.6033
490721.0,2.4086,14.9877,-6.9719,1.3234,-4.0159,-0.7678
490731.0,3.3471,11.9662,-5.6048,1.831,-2.5903,0.0474
490741.0,4.5059,9.4427,-3.8379,2.1162,-1.665,0.688
490751.0,5.023,6.5864,-0.9361,1.7209,-1.3622,1.1009
490761.0,5.4085,4.9871,0.2682,1.4692,-1.2595,1.3574
490771.0,5.375,3.7757,1.0199,1.3292,-1.1552,1.5335
490781.0,5.2577,2.7869,0.9002,1.2707,-1.0648,1.6708
490791.0,5.2146,1.7837,0.0694,1.1462,-0.9865,1.7687
490801.0,5.3295,0.4357,-0.6321,0.9147,-0.8514,1.822
490811.0,5.9448,-0.9457,-1.8148,0.7035,-0.5433,1.8278
490821.0,6.2441,-2.4732,-1.336,0.24,-0.1357,1.7384
490831.0,6.5122,-3.6152,0.3472,-0.2235,0.2112,1.5708
490841.0,6.5457,-3.9217,1.8842,-0.4821,0.4683,1.3627
490851.0,6.2991,-4.0941,3.8116,-0.597,0.5906,1.1744
490861.0,6.2034,-3.6559,4.6328,-0.4028,0.6157,1.0248
490871.0,6.11,-3.225,4.7333,-0.0117,0.6721,0.9269
490881.0,5.9975,-2.6935,4.0223,0.3544,0.737,0.8578
490891.0,5.8275,-1.8866,3.213,0.4555,0.7998,0.7865
490901.0,5.2888,-1.1636,2.6384,0.2687,0.8418,0.7285
490911.0,5.0996,-0.0862,1.403,-0.1559,0.7886,0.7008
490921.0,5.5258,0.1125,2.0135,-0.6795,0.8514,0.7231
490931.0,5.0039,1.0439,2.0806,-0.7082,1.0568,0.7966
490941.0,4.5226,2.6815,1.1995,-0.5199,1.2856,0.9296
490951.0,3.8714,3.7469,1.1756,-0.4257,1.5346,1.1403
490961.0,3.1268,5.1978,0.0982,-0.224,1.7741,1.3995
490971.0,1.5802,6.9216,-1.2498,-0.2299,1.9986,1.6751
490981.0,-0.4956,8.9184,-2.0518,-0.3927,2.237,1.9821
490991.0,-2.1117,12.2918,-5.2768,-0.5273,2.4642,2.3594
491001.0,-4.0318,15.8855,-7.3717,-0.8721,3.0538,2.8622
491011.0,-8.1355,18.8352,-6.3015,-0.9264,4.2915,3.5928
491021.0,-8.1355,18.8352,-6.3015,-0.9264,4.2915,3.5928
491031.0,-12.5265,18.4593,-1.9058,-0.7333,5.6862,4.565
491041.0,-16.2973,11.461,6.4979,-0.1841,7.1697,5.5909
491051.0,-19.5463,4.7453,14.4729,0.7471,8.2935,6.2417
491061.0,-21.3395,-1.4844,22.7569,1.4266,8.9124,6.4269
491071.0,-20.899,-6.5098,30.7487,1.9443,9.0523,6.2066
491081.0,-20.0802,-5.7533,37.2657,2.0524,8.5952,5.5946
491091.0,-19.8336,-4.1276,43.7756,0.513,6.4503,4.8805
491101.0,-18.4761,-1.5419,44.5178,-1.2654,3.4007,4.3937
491111.0,-19.1823,-0.103,42.7437,-2.5031,0.8604,4.2713
491121.0,-18.9118,-6.3614,43.2872,-2.6478,-0.8046,4.5623
491131.0,-18.5599,-11.9112,39.4133,-1.3792,-2.1476,4.7959
491141.0,-16.8935,-17.5878,35.9633,-0.0772,-3.2943,4.7619
491151.0,-15.6485,-21.227,30.2555,1.3904,-4.0425,4.4527
491161.0,-14.449,-20.2837,23.3961,2.1402,-4.5581,3.8429
491171.0,-13.2591,-18.0786,19.338,1.657,-5.0615,3.1341
491181.0,-11.9207,-14.9709,13.7284,0.7982,-5.4558,2.5483
491191.0,-10.6446,-13.5464,11.3772,-0.5417,-5.5217,2.1061
491201.0,-9.7205,-13.5009,11.3437,-1.5277,-5.3206,1.7948
491211.0,-8.995,-14.3844,13.5344,-1.6511,-4.9071,1.5724
491221.0,-8.9136,-15.8017,16.9031,-0.7056,-4.474,1.4112
491231.0,-8.7987,-16.1585,16.1297,0.8961,-4.3516,1.2574
491241.0,-8.4108,-16.1369,14.8656,1.7113,-4.6299,0.9849
491251.0,-7.841,-14.4753,12.56,1.7091,-5.2291,0.564
491261.0,-7.0605,-11.6023,8.8011,1.1249,-5.9006,0.0958
491271.0,-6.5817,-9.2296,6.7828,0.1777,-6.3375,-0.3459
491281.0,-6.6367,-6.0382,4.2329,-0.3954,-6.5774,-0.6923
491291.0,-5.782,-3.8188,1.9537,-0.6125,-6.6493,-0.853
491301.0,-4.2497,-2.7485,-1.4772,-0.1506,-6.388,-0.8216
491311.0,-1.8675,-2.7677,-5.4396,0.8429,-5.5058,-0.6726
491321.0,-1.0271,-2.1069,-7.0605,1.7916,-4.1191,-0.5188
491331.0,0.1796,-0.9074,-7.4795,2.0901,-3.0964,-0.3645
491341.0,1.506,-1.3288,-7.082,1.6144,-2.4541,-0.1937
491351.0,3.0861,-2.2793,-7.0701,0.7822,-2.1178,-0.1038
491361.0,4.379,-3.4477,-5.9951,0.1059,-1.5862,-0.107
491371.0,4.7238,-4.537,-4.6184,-0.2623,-1.0185,-0.1634
491381.0,5.1404,-6.3327,-1.8483,-0.5199,-0.6295,-0.2873
491391.0,5.1691,-7.908,0.893,-0.157,-0.2661,-0.4858
491401.0,5.0446,-8.3366,1.2043,0.6886,-0.0208,-0.7487
491411.0,4.6591,-8.0732,1.1205,1.3212,0.1383,-1.0664
491421.0,4.561,-6.6272,-0.0886,1.5766,0.1564,-1.3941
491431.0,4.4101,-5.3079,-1.6783,1.2185,-0.0144,-1.6847
491441.0,4.7932,-3.7278,-5.0925,0.4587,-0.2996,-1.9257
491451.0,4.9488,-2.6839,-9.3925,-0.5055,-0.3304,-2.0678
491461.0,4.8435,-2.3583,-13.1035,-1.4133,0.1309,-2.0997
491471.0,4.3383,-3.2082,-14.4251,-1.996,1.1244,-2.0385
491481.0,3.055,-5.7652,-13.7451,-1.9231,2.4472,-1.9401
491491.0,1.0463,-7.6543,-14.1952,-1.2733,3.8099,-1.9912
491501.0,-1.9728,-8.7173,-13.939,-0.7386,5.2791,-2.2471
491511.0,-6.098,-8.3725,-12.129,-0.6151,6.7807,-2.6382
491521.0,-11.2767,-6.0765,-10.4674,-1.2169,7.971,-3.0469
491531.0,-16.2782,-5.4444,-7.2544,-2.7159,8.9427,-3.2187
491541.0,-20.8152,-10.3621,4.7046,-4.135,10.3336,-3.1049
491551.0,-24.4352,-17.6524,21.6508,-3.472,11.7767,-3.0501
491561.0,-26.6259,-19.4936,30.5907,-0.7162,12.2386,-3.5151
491571.0,-26.8175,-16.6996,35.415,2.0002,11.8549,-4.4548
491581.0,-28.1678,-6.0478,36.2315,3.1895,10.9099,-5.5558
491591.0,-28.072,-1.142,41.8315,0.4342,8.4627,-6.4934
491601.0,-27.3561,-2.3104,52.0116,-3.0304,5.8261,-7.0473
491611.0,-26.3506,-1.312,51.3484,-4.4564,3.7743,-7.2452
491621.0,-25.0481,-8.1954,55.2366,-6.5434,1.8182,-7.3426
491631.0,-25.5605,-14.2024,60.2285,-7.7055,-0.2086,-7.5257
491641.0,-29.2547,-8.8274,74.1748,-5.8256,-1.5282,-7.5544
491651.0,-31.048,6.1004,65.3449,0.7072,-3.6519,-6.5051
491661.0,-27.4591,14.9877,41.9871,5.1141,-6.8563,-4.7576
491671.0,-23.9013,12.6629,29.6019,5.5276,-8.9464,-3.3225
491681.0,-20.7649,11.5353,12.1889,5.5957,-9.802,-2.394
491691.0,-18.0762,5.6096,8.2001,3.9839,-9.6504,-2.0034
491701.0,-16.915,2.9808,4.4077,3.3449,-9.0661,-1.9954
491711.0,-15.0643,7.9152,-1.8938,2.7015,-8.5681,-2.1545
491721.0,-13.8864,12.2009,-0.1293,0.547,-8.4335,-2.27
491731.0,-12.3852,14.9662,0.3208,-0.6965,-8.4553,-2.1045
491741.0,-11.2312,15.5575,1.1684,-0.9482,-8.2877,-1.7283
491751.0,-11.4227,14.2024,2.4038,-0.1362,-8.0924,-1.2388
491761.0,-9.9216,13.4123,-7.1108,1.4447,-8.2642,-0.6119
491771.0,-6.1914,8.4731,-12.4379,1.8773,-7.8795,-0.0692
491781.0,-3.0478,7.2209,-16.5104,2.7122,-6.5391,0.2448
491791.0,-1.2163,9.2751,-16.9893,3.248,-4.8678,0.5369
491801.0,-0.249,9.9264,-12.5983,3.1145,-3.5816,0.9519
491811.0,0.5291,10.987,-12.2799,3.0905,-2.8846,1.4718
491821.0,1.5131,9.0237,-11.2887,2.419,-2.4999,2.0098
491831.0,3.1125,5.2577,-9.4715,1.9247,-2.0923,2.4451
491841.0,4.4436,2.1644,-8.5473,2.4349,-1.3776,2.7335
491851.0,5.284,0.1437,-9.1698,3.3241,-0.5348,2.908
491861.0,5.9352,-1.4964,-9.098,3.7322,0.2772,2.982
491871.0,5.928,-3.2082,-7.8003,3.5385,0.9259,2.9681
491881.0,6.1244,-5.0015,-5.1523,3.0953,1.4729,2.8686
491891.0,5.3415,-6.0861,-2.3224,2.7361,1.9039,2.6685
491901.0,4.8363,-7.0102,0.4645,2.4371,2.055,2.4051
491911.0,4.8746,-7.5274,1.47,2.4158,1.9906,2.0955
491921.0,5.6096,-6.0693,0.6512,2.7989,2.0965,1.7592
491931.0,6.1723,-3.1532,0.2322,3.3363,2.5717,1.5064
491941.0,5.1427,0.4214,-0.2801,3.5519,3.0032,1.4218
491951.0,4.0893,1.7885,-0.091,3.1198,3.2166,1.533
491961.0,3.1603,-0.0144,1.1684,2.4557,3.4672,1.7373
491971.0,1.9297,-2.3894,2.9784,1.8587,3.7253,1.8475
491981.0,0.3639,-4.7429,6.4763,1.3979,3.8775,1.8129
491991.0,-0.5794,-5.8706,7.7285,1.4521,3.8126,1.6884
492001.0,-2.0877,-5.0589,5.1475,1.3228,3.3853,1.4968
492011.0,-2.569,-4.6376,-0.9912,0.199,2.4972,1.3494
492021.0,-3.1603,-4.1492,-11.5712,-1.6432,1.7171,1.3388
492031.0,-3.0646,-6.2201,-18.2366,-3.1852,2.6308,1.6033
492041.0,-6.9552,-10.7117,-16.7427,-3.4018,5.5233,2.1151
492051.0,-13.0029,-20.6763,-5.9256,-3.4688,8.3478,2.6361
492061.0,-15.7658,-34.7614,10.5417,-3.3635,9.9814,2.7271
492071.0,-14.5208,-42.3103,26.4056,-2.121,10.4353,1.9848
492081.0,-13.7978,-44.3574,32.2882,0.1091,9.6227,0.5747
492091.0,-12.9431,-41.8147,33.526,1.9018,8.3084,-1.3329
492101.0,-14.2263,-32.3696,33.2962,3.0426,7.2011,-3.1741
492111.0,-16.3979,-22.3116,31.6873,3.3199,6.1363,-4.5363
492121.0,-16.8241,-14.3006,33.3895,2.6552,5.2929,-5.4893
492131.0,-17.1353,-5.7557,37.328,2.1364,4.8438,-6.0161
492141.0,-17.7865,1.3527,44.5896,1.8432,4.3112,-6.1172
492151.0,-17.4035,7.1227,50.7714,1.7799,2.9149,-5.8825
492161.0,-17.3149,11.3964,53.6732,1.7895,0.6513,-5.4845
492171.0,-18.1983,15.3851,50.6613,1.7182,-2.2152,-5.0918
492181.0,-19.5989,19.7378,42.4755,1.259,-5.1226,-4.781
492191.0,-21.8902,24.2724,33.7151,0.3895,-7.4602,-4.4873
492201.0,-22.776,29.8006,25.5629,-0.1788,-8.981,-4.002
492211.0,-22.3906,34.5747,18.6245,0.149,-9.702,-3.1075
492221.0,-21.7274,37.2035,9.0142,1.4293,-9.8584,-1.7522
492231.0,-21.9309,39.0135,-6.6343,2.2833,-9.9186,-0.158
492241.0,-11.4586,33.4422,-22.0889,1.2765,-9.6738,1.3968
492251.0,-13.9893,28.1941,-24.9739,0.4448,-7.1436,2.5281
492261.0,-8.9615,24.2868,-32.6162,-0.0788,-5.3786,3.5987
492271.0,-7.1036,12.7036,-25.6634,-1.4995,-3.3826,4.5022
492281.0,-4.3503,5.5545,-25.2301,-0.7418,-1.6448,5.1168
492291.0,-5.4803,-1.7334,-21.488,0.3624,0.4725,5.5622
492301.0,-4.4772,-7.7189,-21.1121,1.1557,2.1295,5.8735
492311.0,-4.8459,-17.1305,-14.6525,0.8849,3.9435,6.0608
492321.0,-4.2473,-29.0536,-5.7604,0.2549,5.3616,5.9362
492331.0,-2.7677,-41.367,6.687,-0.5337,6.222,5.136
492341.0,-0.577,-47.5584,17.3628,-1.0099,6.098,3.5173
492351.0,1.3599,-47.7476,26.5206,-1.1653,5.1381,1.5304
492361.0,1.1085,-41.774,29.6426,-0.1639,4.1702,-0.3427
492371.0,-2.3798,-31.7974,32.7048,0.9642,3.4311,-1.9278
492381.0,-4.4891,-21.3371,35.2379,1.8257,2.4142,-3.0495
492391.0,-6.4404,-10.4028,35.7694,2.6164,1.3473,-3.6982
492401.0,-6.5553,-0.4956,35.6018,2.8213,0.0266,-3.8903
492411.0,-6.0956,8.193,34.2299,2.4536,-1.5149,-3.6716
492421.0,-5.5976,13.2998,32.5851,1.8635,-3.0001,-3.0581
492431.0,-4.5993,15.3804,27.6315,1.2164,-4.6022,-2.2498
492441.0,-4.2425,13.6996,23.377,0.4236,-6.0081,-1.474
492451.0,-3.7062,11.6119,16.7953,0.3741,-6.993,-0.8179
492461.0,-3.0358,9.9599,9.0621,0.7189,-7.4395,-0.3044
492471.0,-2.4014,7.7572,2.4588,1.1153,-7.3751,0.0958
492481.0,0.7494,6.7493,-8.0062,1.4484,-7.0292,0.3996
492491.0,3.2561,3.9289,-11.497,1.0552,-5.8607,0.5608
492501.0,4.8626,4.3814,-13.9438,0.9184,-4.5384,0.5699
492511.0,5.1523,5.6599,-12.2559,0.5773,-3.2901,0.5651
492521.0,5.3893,7.2281,-9.6127,0.3714,-2.4376,0.6619
492531.0,5.3175,7.6638,-7.7596,0.3661,-1.9944,0.9115
492541.0,5.3463,6.2393,-8.2313,0.39,-1.9795,1.2574
492551.0,6.3398,4.7214,-11.8705,0.3496,-2.1098,1.5836
492561.0,7.75,2.4349,-15.4881,0.0713,-2.0779,1.8821
492571.0,9.6391,0.7733,-21.8208,-0.3049,-2.1029,2.1992
492581.0,11.2958,-1.81,-29.7336,-1.0201,-2.1348,2.56
492591.0,11.6238,-5.9568,-39.9353,-1.7235,-2.0545,2.917
492601.0,15.2391,-15.2319,-49.0716,-1.4404,-1.1531,3.1725
492611.0,15.931,-21.8591,-57.2549,0.4906,2.0896,2.9617
492621.0,10.1993,-28.1079,-53.0316,1.8954,5.9756,2.1535
492631.0,2.8252,-30.9642,-42.3893,2.8968,9.2071,0.7599
492641.0,-7.4699,-26.6403,-30.6051,3.3087,11.7533,-0.8961
492651.0,-18.9669,-18.6939,-15.366,3.264,13.8674,-2.2423
492661.0,-33.0376,-7.5944,0.498,3.1384,15.5733,-3.0932
492671.0,-46.5648,-5.3295,24.1336,2.9671,17.0936,-3.2943
492681.0,-52.4067,-7.5178,43.9073,4.2223,17.4357,-3.479
492691.0,-51.4418,-6.3111,55.1696,3.9877,16.7647,-4.4985
492701.0,-52.0428,0.7566,78.4508,2.3477,14.1505,-5.799
492711.0,-47.5057,8.6191,78.4508,-0.8567,6.3343,-6.8541
492721.0,-46.4044,21.8734,78.4508,-1.011,0.1894,-6.6237
492751.0,-78.4532,18.3109,78.4508,0.0,0.0,0.0
492761.0,-78.4532,-26.6618,44.1108,-2.1205,-5.2211,2.9138
492771.0,-64.4519,-58.5526,-69.451,-0.7221,-17.4363,2.7223
492781.0,-54.3963,-78.4532,-78.4532,5.0652,-17.4363,-3.6125
492791.0,-40.7397,-40.7397,-78.4532,-1.1307,-16.7243,-9.1385
492801.0,-31.8237,-9.8067,-78.4532,-0.7306,-5.3206,-11.7751
492811.0,-18.7322,44.0437,-58.5526,4.7156,1.7267,-10.6811
492821.0,-4.4724,78.4508,-25.2253,3.1709,3.4875,-5.3084
492831.0,1.5036,78.4508,0.1532,3.9701,2.9165,1.8337
492841.0,2.9113,58.2749,4.2521,0.4241,1.1233,6.8717
492851.0,-0.814,12.5839,18.5311,0.1431,-1.7219,9.4498
492861.0,4.5107,-26.9683,4.9512,2.6095,-0.829,9.6296
492871.0,5.5354,-59.0697,-2.6719,3.3358,1.7049,7.0271
492881.0,12.2679,-69.3744,-0.814,0.8498,3.8573,2.5398
492891.0,16.2135,-60.1615,22.9077,0.5151,5.1046,-1.3947
492901.0,16.3668,-33.9211,37.0431,1.5612,4.3617,-3.5742
492911.0,16.5775,-9.6726,35.281,-1.5958,1.7134,-3.9408
492921.0,16.6349,-2.1548,43.3925,-2.8335,-0.4294,-3.3576
492931.0,14.9877,4.0414,36.7175,-1.8624,-1.3877,-2.3871
492941.0,11.4347,0.0862,31.3257,-0.2703,-1.425,-1.4915
492951.0,13.0436,-5.4205,20.322,2.892,0.5507,-1.1387
492961.0,14.0779,-7.6327,16.8839,4.4304,4.175,-1.351
492971.0,11.8274,-4.4628,25.6563,5.0024,6.4364,-1.7336
492981.0,11.5975,2.873,37.8858,3.7461,7.2016,-1.7836
492991.0,10.7643,7.5369,52.6629,2.0816,5.9597,-1.4968
493001.0,8.9543,8.8298,62.2205,-0.1612,3.4076,-0.9935
493011.0,7.106,4.6448,68.139,-0.8099,0.5577,-0.5763
493021.0,5.679,1.4748,63.2261,0.0798,-1.6378,-0.3629
493031.0,6.0142,0.3543,52.0499,0.8349,-2.6164,-0.4039
493041.0,7.4603,0.8332,42.3295,1.1568,-2.3312,-0.5491
493051.0,8.5329,5.5641,34.2658,0.5071,-1.5133,-0.5869
493061.0,10.5536,7.288,36.0088,0.1623,-0.4119,-0.281
493071.0,11.7603,7.9871,36.6887,0.306,0.2607,0.1618
493081.0,12.5552,6.8474,35.1756,-1.2388,0.0506,0.6492
493091.0,13.4554,-0.1724,38.4317,-2.5201,-0.1282,0.8253
493101.0,12.3732,-7.3263,43.0669,-1.6762,0.1426,0.6907
493111.0,10.6973,-11.8274,42.7317,-0.0596,0.0149,0.2416
493121.0,10.8984,-12.5743,37.8092,0.6055,0.1719,-0.5039
493131.0,10.7548,-10.1227,37.7135,1.1611,0.7742,-1.2797
493141.0,10.3717,-1.9537,36.3631,1.2318,1.1866,-1.6203
493151.0,10.161,4.2329,37.9912,0.3757,1.4271,-1.4899
493161.0,10.6303,6.7038,41.7453,0.0032,1.3069,-1.0578
493171.0,10.3717,7.2688,43.1148,-0.5523,1.035,-0.481
493181.0,9.7492,3.3232,46.2464,-0.5342,0.7146,-0.0623
493191.0,10.1131,-0.2011,47.1754,0.3001,0.2528,0.165
493201.0,9.9503,-2.806,45.0206,0.6939,0.0686,0.1495
493211.0,10.6686,-3.9169,43.6415,0.9296,0.0298,-0.0447
493221.0,11.2432,-2.1644,42.5593,0.6194,-0.0074,-0.2357
493231.0,11.8848,0.4118,42.9616,0.2097,-0.1809,-0.2666
493241.0,11.6071,1.8483,42.1954,-0.1532,-0.4124,-0.083
493251.0,11.5113,0.9098,41.8506,-0.5954,-0.6779,0.0851
493261.0,12.1913,-1.3312,42.0901,-0.3432,-0.7423,0.1772
493271.0,11.4251,-3.4764,40.4429,0.5002,-0.6513,0.1447
493281.0,12.4115,-3.5721,36.4972,0.6486,-0.091,-0.0527
493291.0,12.4115,-2.7964,37.0622,0.6997,0.6566,-0.2453
493301.0,12.0668,-2.2122,39.7725,0.7641,1.1526,-0.381
493311.0,11.2815,0.1245,42.4348,0.39,0.9158,-0.5066
493321.0,11.157,2.6528,43.6702,-0.5108,0.2347,-0.4262
493331.0,11.5017,1.9058,44.8386,-1.2872,-0.4688,-0.2698
493341.0,11.8752,0.68,43.3255,-1.3702,-1.0206,-0.2033
493351.0,11.9614,0.2011,39.7725,-1.3872,-1.019,-0.1463
493361.0,11.5113,-0.9194,39.3224,-0.8684,-0.4832,-0.1256
493371.0,11.157,-1.1109,39.4277,0.0644,0.1628,-0.1192
493381.0,10.6494,-1.1301,39.2841,0.6721,0.589,-0.1373
493391.0,11.1857,0.0766,39.8012,0.8125,0.7652,-0.2086
493401.0,12.0955,2.7007,40.7493,0.4331,0.762,-0.1735
493411.0,11.722,3.7924,41.4676,-0.2794,0.3948,0.0165
493421.0,11.2432,3.0358,41.6878,-1.2111,-0.1511,0.2107
493431.0,10.6686,0.5459,41.9081,-1.4436,-0.5507,0.3203
493441.0,11.0229,-1.4844,40.8068,-0.9328,-0.4566,0.3139
493451.0,10.7739,-2.1644,38.5371,-0.4065,-0.0601,0.1772
493461.0,10.4866,-1.6376,37.6177,-0.2857,0.3927,0.0383
493471.0,11.0612,-0.5938,40.0311,-0.0681,0.6353,-0.0543
493481.0,11.0229,1.5419,40.2896,-0.0213,0.4475,-0.0378
493491.0,11.4539,3.2274,39.5235,-0.5768,0.116,0.1038
493501.0,12.0668,3.1029,39.4086,-1.1265,-0.1554,0.2799
493511.0,11.5496,2.0303,38.3455,-1.5272,-0.373,0.4683
493521.0,11.9423,-0.5842,38.4413,-1.4638,-0.183,0.5816
493531.0,11.7795,-3.7637,39.3894,-0.3677,0.3336,0.5928
493541.0,11.2623,-5.1906,38.8531,0.6486,0.9828,0.4326
493551.0,12.153,-4.616,39.0255,1.0472,1.2324,0.1751
493561.0,12.7276,-2.308,39.7821,0.6609,1.3638,0.0516
493571.0,12.1338,-1.5802,41.8315,0.307,1.1983,0.0516
493581.0,12.1242,-0.7183,42.5306,-0.6093,0.8131,0.0591
493591.0,11.0325,-0.8236,44.8099,-1.3377,0.0825,0.0905
493601.0,11.5496,-1.4844,45.2696,-1.293,-0.3475,0.1575
493611.0,10.6494,-2.8635,46.3134,-0.2022,-0.4789,0.2682
493621.0,11.1378,-3.7924,41.8506,0.6018,-0.6412,0.2597
493631.0,12.0476,-5.2768,39.2362,0.4358,-0.5369,0.0937
493641.0,12.6031,-4.7884,38.3264,0.4954,-0.1575,-0.1751
493651.0,12.8329,-2.4038,36.9856,0.0069,0.0639,-0.3166
493661.0,12.3349,-1.3982,38.3647,-0.8062,0.0144,-0.3544
493671.0,12.1913,-0.8428,39.1596,-1.2185,-0.1873,-0.3656
493681.0,11.5592,-0.1628,39.9832,-1.3872,-0.2251,-0.34
493691.0,11.157,-0.4405,40.8259,-0.6981,-0.2182,-0.1921
493701.0,11.1474,-0.6225,38.4413,-0.074,-0.0027,-0.1219
493711.0,11.4443,-0.3735,37.7901,0.0128,0.2921,-0.1091
493721.0,11.7795,0.3926,38.2593,0.0011,0.5741,-0.0426
493731.0,12.2487,1.0151,39.4756,-0.1804,0.737,0.0628
493741.0,11.4443,0.6991,41.0749,-0.3746,0.6061,0.2049
493751.0,11.3868,0.0096,41.5155,-0.7231,0.2011,0.2778
493761.0,10.6973,-1.3982,42.5785,-0.8588,-0.0867,0.3182
493771.0,10.7931,-2.624,42.2433,-0.2522,-0.1719,0.3049
493781.0,10.9367,-3.3806,40.711,0.3656,-0.0165,0.2623
493791.0,11.224,-3.6009,38.9393,0.7678,0.2192,0.1586
493801.0,12.8233,-2.2889,37.6368,0.4709,0.5805,0.0857
493811.0,13.0819,-1.6089,39.6001,0.0745,0.8764,0.0952
493821.0,13.2543,-1.5131,40.9408,-0.6401,0.7673,0.1772
493831.0,12.8521,-3.8307,43.584,-1.2712,0.3863,0.1703
493841.0,12.3158,-5.9376,43.9958,-1.1786,-0.1506,0.0484
493851.0,11.9231,-7.3358,42.5498,-0.9711,-0.4422,-0.157
493861.0,12.0859,-7.8243,40.7876,-0.2458,-0.2905,-0.456
493871.0,11.5879,-6.6846,39.5043,0.4991,0.2049,-0.795
493881.0,11.5975,-3.2848,37.474,0.5119,0.5385,-1.011
493891.0,11.3294,0.0096,37.7135,0.0915,0.7003,-1.0765
493901.0,10.975,3.0358,39.1308,-0.2826,0.8657,-0.9168
493911.0,10.4291,4.3766,41.6208,-0.4454,0.9158,-0.6119
493921.0,10.1227,4.1659,41.8315,-0.5369,0.687,-0.3006
493931.0,9.8928,2.6815,43.268,-0.596,0.5694,-0.0383
493941.0,9.9695,0.4405,44.0629,-0.0479,0.4278,0.0963
493951.0,9.7588,-0.1341,42.9807,0.0974,0.3363,0.0905
493961.0,10.1227,-0.4884,41.7357,-0.1655,0.0596,0.0468
493971.0,11.2144,0.1053,41.5059,-0.5082,0.0415,0.0234
493981.0,11.5113,0.5171,41.4101,-0.4789,0.1325,0.0921
493991.0,11.7986,0.8236,41.5921,-0.6401,0.2235,0.224
494001.0,11.6262,0.2203,41.9943,-0.6199,0.1394,0.3421
494011.0,11.8369,-0.8715,42.2337,-0.489,0.2591,0.4337
494021.0,11.473,-3.0837,43.3542,0.0921,0.3421,0.4454
494031.0,11.4251,-4.2042,42.5976,0.364,0.3762,0.3262
494041.0,10.7931,-4.8459,43.4979,0.4294,0.2586,0.1059
494051.0,10.9942,-3.6009,44.0054,0.5055,-0.0745,-0.0894
494061.0,11.3102,-1.3408,42.4157,0.1405,-0.5263,-0.157
494071.0,12.0572,-0.3735,40.7876,-0.4395,-0.8024,-0.1282
494081.0,12.2966,-0.2969,39.0351,-0.8168,-0.8567,-0.0553
494091.0,12.7084,-0.9098,37.5219,-1.1595,-0.746,-0.0053
494101.0,12.0189,-1.6376,38.0103,-1.0084,-0.389,0.075
494111.0,12.0668,-3.2274,38.9201,-0.1889,0.1203,0.1171
494121.0,11.4539,-4.6064,39.2458,0.572,0.5135,0.0442
494131.0,11.4826,-4.3096,39.5522,0.8599,0.6971,-0.1607
494141.0,11.7986,-2.4612,39.715,0.5268,0.6529,-0.3555
494151.0,11.1666,-0.316,40.8068,-0.0277,0.4182,-0.4193
494161.0,11.1091,1.6759,41.4771,-0.845,0.0537,-0.4007
494171.0,10.8984,2.5091,43.9863,-1.135,-0.2464,-0.2272
494181.0,10.5441,2.806,44.8769,-0.5582,-0.5135,0.0665
494191.0,10.41,1.5227,43.7085,0.2421,-0.7003,0.3118
494201.0,11.5688,0.7087,40.462,0.779,-0.629,0.4651
494211.0,11.9902,0.9098,37.3687,0.4842,-0.3374,0.5523
494221.0,12.8808,-0.0958,37.2059,-0.0867,-0.0463,0.5843
494231.0,13.1011,-1.2641,39.0255,-0.6364,0.1538,0.5635
494241.0,12.967,-2.8635,41.5633,-0.7189,0.0426,0.5289
494251.0,12.8617,-4.2042,42.5498,-0.7801,-0.315,0.4204
494261.0,12.4594,-5.9376,43.3925,-0.3821,-0.6939,0.2405
494271.0,12.6797,-5.679,41.8602,0.2315,-0.7354,0.0122
494281.0,12.8904,-4.5969,39.4852,0.7269,-0.6492,-0.1575
494291.0,13.2639,-2.2793,36.4972,0.4784,-0.3794,-0.3033
494301.0,13.1873,-0.8428,36.9186,0.0239,-0.0346,-0.3294
494311.0,13.3118,0.1532,37.6943,-0.2857,0.1421,-0.3251
494321.0,12.651,0.0192,39.3128,-0.8397,0.1862,-0.2905
494331.0,12.0572,-0.5171,42.4827,-0.7487,-0.0905,-0.2458
494341.0,11.6837,-0.4022,42.9232,-0.3624,-0.5199,-0.2049
494351.0,11.8178,-0.2011,41.0366,0.1373,-0.804,-0.1437
494361.0,12.3924,0.8619,37.2059,0.3283,-0.7056,-0.0835
494371.0,12.6701,0.9385,34.1988,-0.0378,-0.2826,-0.0287
494381.0,13.4075,0.6991,33.9881,-0.4209,0.3789,0.0154
494391.0,12.8521,0.4788,36.4685,-0.6157,1.0376,0.0729
494401.0,12.2392,-0.1341,40.6344,-0.4688,1.3058,0.1522
494411.0,11.4443,0.249,43.9863,-0.2112,1.1398,0.2336
494421.0,10.5824,-0.0096,45.3653,-0.0431,0.6566,0.3187
494431.0,11.3006,-0.4597,44.6567,-0.1761,0.2586,0.3198
494441.0,11.1666,-1.3695,44.4747,-0.1389,0.0117,0.298
494451.0,12.1338,-0.8236,43.1435,-0.2921,-0.075,0.2863
494461.0,12.4115,-0.7566,43.3925,-0.4268,-0.0841,0.3241
494471.0,13.0245,-1.4174,44.1395,-0.522,-0.066,0.357
494481.0,12.5839,-2.2984,44.9727,-0.5438,-0.3778,0.3507
494491.0,12.2775,-3.5243,45.5952,-0.4385,-0.7125,0.2826
494501.0,12.536,-4.2234,44.7333,-0.0234,-1.0956,0.1639
494511.0,12.8617,-3.8499,41.6783,0.0442,-1.1994,-0.0112
494521.0,13.1777,-2.988,40.4141,0.1591,-1.1542,-0.1745
494531.0,13.3788,-0.7566,38.4892,0.2304,-0.8727,-0.207
494541.0,13.8098,1.3216,37.5602,-0.0601,-0.5172,-0.0873
494551.0,13.4554,1.4174,39.1883,-0.2873,-0.3081,0.1133
494561.0,13.3501,0.2777,40.5482,-0.4933,-0.2528,0.2735
494571.0,13.0915,-1.3695,42.138,-0.6279,-0.505,0.3283
494581.0,13.2735,-3.3806,42.8754,-0.3704,-0.8381,0.2964
494591.0,13.0915,-4.6926,42.4827,-0.0027,-1.1297,0.1628
494601.0,12.6031,-4.7118,40.4141,0.2442,-1.4229,-0.0521
494611.0,13.4746,-3.0071,36.4206,0.0724,-1.5,-0.2682
494621.0,14.0396,-0.7661,34.2754,-0.2661,-1.2648,-0.3459
494631.0,15.1984,1.4461,32.858,-0.6609,-0.6604,-0.273
494641.0,15.1409,2.0399,33.8732,-0.9759,-0.0138,-0.0809
494651.0,14.8441,1.3791,36.6696,-1.0621,0.3964,0.1149
494661.0,14.0683,-1.0343,41.3526,-0.4597,0.4555,0.2948
494671.0,13.5129,-3.1603,43.0573,0.3794,0.2618,0.3363
494681.0,13.5033,-4.5298,42.9616,0.9211,0.0724,0.2097
494691.0,13.4267,-4.5777,41.8794,1.0834,-0.0883,-0.0426
494701.0,13.1873,-2.6336,41.1324,0.522,-0.2251,-0.2714
494711.0,13.2735,-1.1013,42.5114,0.0995,-0.3767,-0.3895
494721.0,13.6853,1.312,42.3103,-0.2927,-0.6657,-0.4273
494731.0,13.3118,3.0358,42.3486,-1.1249,-1.0121,-0.2496
494741.0,13.2926,1.8483,43.1722,-1.4484,-1.3803,-0.0255
494751.0,12.7946,-1.2067,43.8139,-1.4037,-1.5394,0.0958
494761.0,12.9095,-3.9648,44.7237,-0.2927,-1.724,0.0617
494771.0,12.7755,-4.4915,41.3239,0.7482,-1.7836,-0.066
494781.0,13.4937,-3.9265,39.5235,1.0387,-1.5586,-0.2575
494791.0,13.3788,-2.0399,38.47,1.3164,-1.3718,-0.4017
494801.0,12.9957,0.2586,37.8858,0.7822,-1.2824,-0.4794
494811.0,12.536,1.4557,39.8204,0.3858,-1.3516,-0.4417
494821.0,12.1625,1.9249,40.9025,0.5859,-1.1616,-0.3155
494831.0,11.3485,1.3503,43.335,1.2526,-0.5507,-0.2182
494841.0,10.2089,1.9441,47.0125,1.7831,-0.1953,-0.1059
494851.0,10.0269,2.1165,51.6286,1.6937,-0.6534,-0.0702
494861.0,8.0828,2.308,54.8368,1.235,-1.8757,-0.0149
494871.0,8.734,1.5131,56.6277,0.3108,-3.7945,-0.1043
494881.0,9.8067,1.1588,55.172,-0.8817,-6.1044,-0.3108
494891.0,11.904,1.6472,48.5544,-2.4791,-8.252,-0.5529
494901.0,14.1449,4.1659,37.8475,-4.7789,-9.8388,-0.7753
494911.0,15.1409,3.9265,29.9179,-7.2452,-10.2857,-0.8524
494921.0,15.8975,1.3312,29.238,-7.9737,-9.6195,-0.9003
494931.0,15.0835,-1.6472,35.2043,-5.6574,-8.8091,-0.8312
494941.0,13.7427,-3.6105,35.5587,-1.3675,-8.4984,-0.5859
494951.0,16.0795,-6.6942,32.0057,2.8585,-8.2972,-0.3459
494961.0,20.3986,-7.9104,20.1783,5.1716,-8.5553,-0.5167
494971.0,23.626,-6.0813,5.9568,4.2713,-8.6128,-0.8721
494981.0,27.1981,-4.6256,-4.7118,2.2897,-7.5906,-1.2856
494991.0,28.8358,-4.0701,-9.1459,0.5002,-5.17,-1.7081
495001.0,27.1407,-2.1165,-7.4699,-0.588,-2.8175,-2.0673
495011.0,25.12,-0.747,0.3448,-0.9966,-0.8014,-2.2333
495021.0,22.8215,-2.1261,11.7795,0.1708,0.5108,-2.2961
495031.0,21.5287,-2.988,20.3124,2.063,0.6588,-2.4908
495041.0,21.5382,0.2682,19.8527,3.2336,-0.2304,-2.7287
495051.0,21.883,5.4684,14.4897,2.7994,-0.862,-2.8697
495061.0,23.626,10.8697,7.9392,1.8177,-1.0573,-2.8096
495071.0,25.4935,18.0619,-0.1915,-0.3379,-0.3922,-2.4823
495081.0,24.0761,21.6723,-1.0822,-2.7521,0.6359,-1.7826
495091.0,21.3946,21.452,2.9784,-3.8307,1.7129,-0.8205
495101.0,22.9748,19.8719,4.5969,-3.6609,2.7281,0.1437
495111.0,23.377,18.5982,5.7557,-3.5082,3.9866,1.0531
495121.0,22.2948,15.6772,10.7835,-2.6419,5.103,1.9997
495131.0,24.0186,11.7986,12.3541,-1.2962,6.0054,2.8755
495141.0,23.5111,7.5178,12.2487,-0.7066,6.9004,3.3816
495151.0,22.9365,3.6392,13.8193,-0.274,7.8364,3.6173
495161.0,21.2605,0.6704,15.8496,0.4518,9.0342,3.6423
495171.0,18.512,-1.6568,18.2821,0.8386,10.2501,3.5332
495181.0,16.4051,-5.0757,23.693,1.0238,11.1536,3.1778
495191.0,14.6812,-6.1579,28.8453,1.0993,11.5596,2.5706
495201.0,14.0779,-3.2657,34.1988,0.7125,11.5995,2.0204
495211.0,13.8864,0.5459,39.0255,0.5747,11.442,1.7347
495221.0,13.0436,5.296,42.8371,0.3884,11.0743,1.7123
495231.0,12.038,10.1801,45.3845,0.2528,10.5992,1.9805
495241.0,10.1418,12.0668,46.2751,0.3624,10.821,2.5318
495251.0,7.1922,12.0285,50.1633,0.0724,10.8455,3.0256
495261.0,4.4915,8.351,57.5949,-0.0298,10.3065,3.4619
495271.0,1.9537,2.9784,63.1495,0.5119,9.1731,3.5407
495281.0,1.2354,-0.7661,65.1989,1.0749,7.8295,3.2539
495291.0,1.7047,0.3065,62.4312,1.3031,6.5998,2.7595
495301.0,2.7102,5.679,56.1297,0.1341,5.8027,2.4419
495311.0,2.7294,11.473,53.3907,-1.5,5.3089,2.5047
495321.0,2.2793,15.9262,52.7586,-3.0506,5.0923,3.0309
495331.0,0.929,16.022,54.0611,-3.8999,4.673,3.8408
495341.0,0.5363,12.9191,55.4497,-3.4726,4.5522,4.6634
495351.0,-0.814,9.4715,56.4265,-2.0183,4.9103,5.36
495361.0,-1.6855,6.2153,57.1257,0.1165,5.2493,5.9501
495371.0,-2.308,3.4381,54.5495,1.582,5.534,6.2736
495381.0,-2.8922,2.3559,52.1361,1.9555,5.6755,6.3071
495391.0,-2.6432,4.0414,50.9582,1.4133,5.8101,6.3146
495401.0,-3.6679,6.0908,51.8393,0.7231,5.7378,6.553
495411.0,-4.3287,7.3263,51.9638,-0.0537,5.5153,6.9606
495421.0,-5.8419,5.8035,53.6205,-0.737,5.2727,7.431
495431.0,-6.8474,1.4461,54.6261,-0.5816,5.0482,7.7667
495441.0,-7.1443,-3.371,55.9573,-0.423,5.137,7.8151
495451.0,-8.2744,-6.2824,56.3404,-0.2043,4.6932,7.5693
495461.0,-7.3167,-6.3973,57.547,-0.5257,4.1345,7.1809
495471.0,-6.5984,-3.2944,55.7657,-1.0658,3.6253,6.9685
495481.0,-6.4356,0.316,55.2294,-1.7118,3.0373,7.0606
495491.0,-6.8761,3.6966,54.1856,-2.5504,2.6324,7.4969
495501.0,-8.5808,3.0071,53.362,-2.6909,2.3668,8.2291
495511.0,-8.0924,-2.8252,54.2335,-2.5903,2.8181,8.8448
495521.0,-8.5425,-11.3389,58.2461,-2.0843,3.0506,8.9576
495531.0,-9.6055,-17.4585,63.1878,-1.7171,2.5132,8.551
495541.0,-9.5098,-20.8104,69.4031,-0.8801,1.1105,7.962
495551.0,-7.9966,-20.3794,68.2252,-0.0899,-0.4252,7.4028
495561.0,-6.4356,-19.0578,66.5875,0.0899,-1.5825,7.1122
495571.0,-5.8035,-18.5599,64.653,0.2554,-2.6356,6.992
495581.0,-5.7652,-19.2685,61.7417,-0.4337,-3.6184,6.868
495591.0,-5.9472,-22.2086,60.8606,-1.0797,-4.9428,6.5796
495601.0,-6.5314,-24.4496,59.6922,-1.7171,-6.3247,6.1869
495611.0,-5.4492,-28.6059,58.2078,-1.5202,-7.5235,5.692
495621.0,-3.2848,-32.6378,55.3827,-0.622,-8.3041,4.9119
495631.0,-1.1588,-33.6337,50.0388,0.29,-8.8458,4.0137
495641.0,0.6608,-32.4079,43.8905,0.8195,-8.9368,3.1836
495651.0,2.0111,-31.0863,40.2417,1.4782,-8.6075,2.5254
495661.0,3.2753,-30.301,36.6696,1.9396,-8.0211,1.9507
495671.0,3.9169,-29.8605,35.0703,2.3014,-7.623,1.3734
495681.0,4.8363,-29.5828,33.1357,2.3301,-7.4161,0.738
495691.0,5.4588,-29.9946,32.8293,2.3264,-7.2809,0.0591
495701.0,6.1675,-30.8565,31.8333,2.6489,-7.2708,-0.7263
495711.0,6.7995,-31.2012,28.3761,2.8484,-7.2979,-1.607
495721.0,7.6423,-31.4311,26.001,3.1804,-7.0558,-2.5978
495731.0,9.2129,-29.487,22.0075,3.5843,-6.3274,-3.6279
495741.0,10.0173,-25.7137,17.6117,3.4848,-5.4957,-4.5352
495751.0,10.5632,-21.9979,14.8919,2.7665,-4.8534,-5.3126
495761.0,11.3006,-18.1672,11.789,1.9076,-4.2037,-5.9277
495771.0,11.5496,-14.2694,9.1746,1.1446,-3.2092,-6.3263
495781.0,11.6646,-11.3006,6.8187,0.4656,-1.8518,-6.5519
495791.0,11.904,-9.0022,6.2824,-0.0335,-0.2458,-6.6599
495801.0,12.038,-7.9487,6.6655,-0.3086,1.5852,-6.7248
495811.0,11.1378,-6.6942,9.6822,-0.3193,3.3768,-6.8009
495821.0,9.845,-5.2864,13.3405,-0.1607,4.9008,-6.8589
495831.0,8.7245,-2.8922,17.2574,-0.0341,6.1635,-6.8637
495841.0,6.3207,-0.6512,22.5151,0.0883,7.1383,-6.7749
495851.0,5.1523,0.2777,28.1941,0.3656,7.8386,-6.5748
495861.0,4.1946,-0.0862,33.0783,0.4119,8.1759,-6.4976
495871.0,2.8826,0.182,37.2825,0.0543,8.0636,-6.5397
495881.0,3.0454,-0.5171,41.4867,-0.3427,7.8529,-6.579
495891.0,2.2793,-1.4748,44.1012,-0.8195,7.6465,-6.7743
495901.0,1.2833,-0.8428,46.9359,-1.5963,7.3687,-7.0617
495911.0,-1.312,1.2354,49.311,-2.6052,7.0484,-7.2681
495921.0,-3.4285,3.3615,51.9733,-4.0026,6.6264,-7.3224
495931.0,-4.2904,5.296,54.9421,-5.8389,6.024,-7.2596
495941.0,-4.5107,4.5011,62.0002,-7.4081,5.1796,-7.0904
495951.0,-5.0853,3.3232,72.1517,-7.481,3.7807,-6.818
495961.0,-4.798,2.988,77.0837,-5.8357,1.8682,-6.3949
495971.0,-3.7924,3.0933,75.6089,-3.6178,0.1815,-5.9134
495981.0,-2.8539,3.735,68.9817,-1.9316,-1.2478,-5.4792
495991.0,-1.1205,4.1372,59.8167,-1.5852,-2.2977,-5.1876
496001.0,0.3831,4.2042,50.69,-2.0822,-2.8856,-5.0274
496011.0,1.1779,4.4819,43.0956,-3.1043,-2.717,-4.929
496021.0,1.6185,4.0031,37.8667,-3.9387,-1.8422,-4.7177
496031.0,2.2793,1.2737,35.9034,-4.2154,-0.4103,-4.5198
496041.0,3.2178,-2.0877,37.905,-4.084,1.1275,-4.4501
496051.0,3.3806,-5.0374,42.2146,-3.5513,2.1896,-4.6203
496061.0,3.2561,-5.8514,45.26,-3.2049,2.7957,-4.9008
496071.0,2.1165,-5.6216,48.4203,-2.8218,2.9809,-5.1626
496081.0,1.9058,-4.0414,50.3644,-2.7638,2.9862,-5.3972
496091.0,0.7853,-2.9113,54.1856,-2.585,2.8234,-5.5143
496101.0,-0.0958,-1.0726,56.4936,-2.154,2.4866,-5.4685
496111.0,-1.0822,-2.4325,59.472,-1.5798,2.196,-5.3839
496121.0,-0.8811,-2.4421,62.0386,-0.6311,1.5777,-5.4446
496131.0,-0.6704,-3.7541,62.5557,-0.7114,0.6396,-5.617
496141.0,-1.3408,-4.1084,65.0552,-0.5896,-0.679,-5.9815
496151.0,-0.4788,-0.3926,61.4161,-0.6976,-2.0449,-6.23
496161.0,-0.7566,2.2314,58.1216,-1.8533,-2.9389,-6.3566
496171.0,0.0287,4.2713,55.737,-2.4695,-3.554,-6.3364
496181.0,1.0534,6.5505,53.1225,-3.3699,-3.6514,-6.1693
496191.0,1.4461,7.0964,53.3428,-3.9297,-3.7897,-5.9123
496201.0,2.4038,7.3167,53.496,-4.3442,-4.01,-5.6042
496211.0,2.2793,6.2153,54.9804,-4.7065,-4.4958,-5.3089
496221.0,2.3176,4.5203,55.5838,-4.6938,-5.2605,-5.1051
496231.0,2.9784,2.7964,54.7602,-4.4203,-5.9533,-4.9731
496241.0,3.1891,1.4557,53.5439,-3.6455,-6.4215,-4.9524
496251.0,4.0414,2.4995,50.3644,-2.9107,-6.8318,-4.9795
496261.0,4.1468,3.5817,49.3301,-2.2311,-7.2154,-4.9045
496271.0,4.7309,6.1483,46.0357,-1.3617,-7.6757,-4.7135
496281.0,6.1292,8.3797,41.4293,-0.7503,-7.837,-4.3255
496291.0,7.3071,9.3948,37.3017,-0.3884,-7.5565,-3.8312
496301.0,7.9104,9.73,34.5723,-0.0314,-7.1803,-3.2975
496311.0,9.7683,8.7436,32.475,0.1623,-6.6142,-2.7978
496321.0,9.7109,7.5178,31.6035,0.2081,-6.1688,-2.4701
496331.0,10.0556,7.8817,31.2491,-0.0474,-6.0395,-2.2109
496341.0,10.343,8.2073,31.2779,-0.1336,-6.1331,-1.9007
496351.0,11.2049,8.8969,30.3489,0.19,-6.0528,-1.5181
496361.0,12.1817,9.3565,28.0217,0.77,-5.7649,-1.0823
496371.0,13.9247,9.3948,25.7233,1.0632,-5.4318,-0.6609
496381.0,15.1984,8.8777,23.6356,1.1196,-4.9886,-0.3139
496391.0,16.1273,8.8777,21.136,1.0334,-4.3968,-0.0314
496401.0,15.9262,9.1171,20.0347,0.6843,-3.7769,0.2331
496411.0,16.5296,9.0884,19.9006,0.4619,-3.2454,0.522
496421.0,16.9701,8.8969,20.2645,0.323,-2.8899,0.779
496431.0,17.1042,9.3757,18.7322,-0.0952,-2.6473,1.0488
496441.0,17.7267,9.9407,17.085,-0.5608,-2.3525,1.3505
496451.0,19.4313,10.1514,15.3229,-1.0499,-1.5639,1.7198
496461.0,20.0059,9.4427,16.3859,-0.7753,-0.4198,2.1407
496471.0,20.1113,9.5577,16.7115,-0.6625,0.803,2.5313
496481.0,18.9621,8.8202,20.4465,-0.6816,1.6362,2.9208
496491.0,17.5064,8.2169,25.5413,-0.0734,2.0156,3.3002
496501.0,16.7786,8.6479,26.9874,0.422,2.0188,3.6407
496511.0,16.5008,9.3853,28.0217,0.7184,1.872,3.9956
496521.0,16.5583,10.5632,26.2596,0.9833,1.9007,4.4421
496531.0,16.0124,10.6686,25.1678,1.1116,2.286,4.8853
496541.0,15.4953,11.1857,24.938,1.0616,2.8042,5.3355
496551.0,15.093,11.5017,24.5262,0.6279,3.2092,5.8181
496561.0,14.1545,10.0844,26.3841,0.1447,3.5205,6.3061
496571.0,13.1873,8.0732,27.7632,-0.0676,3.6189,6.7578
496581.0,12.3924,5.3534,30.5117,0.0862,3.5822,7.1234
496591.0,11.9519,2.988,30.1574,0.7923,3.5061,7.4086
496601.0,11.5592,2.2218,27.3035,1.3074,3.8025,7.6209
496611.0,10.1993,1.8675,25.1678,1.7012,4.4894,7.8029
496621.0,9.9599,2.7677,21.6436,1.55,5.5707,8.0014
496631.0,7.5082,2.7964,22.8215,0.994,6.7791,8.1956
496641.0,5.4013,2.5379,26.7193,0.8333,7.8173,8.4382
496651.0,3.122,3.1508,31.4502,0.8274,8.5021,8.6665
496661.0,0.6416,4.5873,35.7119,1.0653,8.7362,9.0156
496671.0,-0.8811,4.8554,39.2936,1.4372,8.9081,9.5003
496681.0,-2.5666,4.1563,40.7493,1.6043,8.9634,9.9819
496691.0,-4.3383,2.5762,43.3063,1.326,9.2029,10.3773
496701.0,-6.4452,-0.316,48.1426,1.6613,9.1768,10.6917
496711.0,-8.1499,-1.6089,49.8569,1.3244,8.9517,10.8881
496721.0,-10.1706,-4.2521,53.8121,1.052,8.5271,10.9754
496731.0,-11.0038,-5.612,55.0571,0.646,8.0737,10.9429
496741.0,-13.1011,-5.8897,58.2844,0.0809,7.4198,10.886
496751.0,-13.9343,-6.8953,61.531,0.1878,6.8392,10.9211
496761.0,-15.7538,-8.4276,65.6107,1.0382,6.2475,11.036
496771.0,-16.8552,-10.6398,69.2595,2.3743,5.6548,11.1573
496781.0,-17.0371,-14.6429,71.5483,4.1095,5.0902,11.1903
496791.0,-16.9318,-17.516,70.1405,5.0806,4.4841,10.9354
496801.0,-16.7211,-19.4218,68.6178,4.7236,3.7157,10.3528
496811.0,-15.8592,-19.7665,68.2443,3.4912,2.8021,9.668
496821.0,-16.8073,-19.393,69.8437,1.9773,1.6378,8.9767
496831.0,-16.6828,-18.9429,70.0065,0.4182,0.1846,8.401
496841.0,-16.9701,-18.7418,70.0927,-1.0089,-1.4202,7.8657
496851.0,-17.2287,-18.8472,70.6098,-1.4676,-2.6909,7.4996
496861.0,-17.1521,-18.7514,69.518,-1.0062,-3.67,7.373
496871.0,-16.769,-18.828,67.4111,-0.34,-4.416,7.4123
496881.0,-15.6964,-20.8391,66.0608,0.3837,-5.0423,7.4405
496891.0,-14.3556,-23.3866,64.0401,0.9972,-5.8064,7.3628
496901.0,-13.034,-26.8917,61.5693,1.0871,-6.8366,7.0861
496911.0,-12.6031,-29.8318,57.5279,0.7402,-8.0072,6.5503
496921.0,-10.5153,-33.0496,53.5631,0.397,-8.9177,5.8107
496931.0,-8.3318,-35.3097,46.7061,-0.0575,-9.4067,4.8108
496941.0,-5.5545,-36.6026,41.9177,-0.6263,-9.1731,3.678
496951.0,-3.1699,-37.5985,39.2362,-0.6401,-8.5596,2.4083
496961.0,-1.494,-35.9705,38.3168,-0.4853,-7.8657,1.1717
496971.0,-1.0534,-32.6665,39.2553,0.1266,-7.3857,0.1793
496981.0,-0.3831,-28.3665,38.7286,1.0206,-7.0111,-0.4943
496991.0,0.431,-24.373,37.3304,1.6038,-6.8286,-0.9248
497001.0,1.8675,-22.2948,35.5683,1.8204,-6.6376,-1.1728
497011.0,2.988,-22.0554,33.6625,1.7522,-6.4018,-1.499
497021.0,4.4245,-21.5095,31.3353,1.0738,-6.0773,-1.9662
497031.0,4.9321,-20.9062,32.0344,0.489,-5.7734,-2.4892
497041.0,5.1715,-19.326,34.3329,0.4667,-5.5616,-2.9016
497051.0,5.612,-17.6692,35.2905,1.0195,-5.4462,-3.1421
497061.0,6.5505,-16.702,33.7774,1.7794,-5.352,-3.2709
497071.0,7.0868,-16.5583,33.0113,2.2184,-5.1189,-3.4614
497081.0,7.6136,-15.6006,31.1438,2.3227,-4.9657,-3.7024
497091.0,7.8817,-14.5759,31.2108,2.0705,-4.9183,-3.9786
497101.0,7.3646,-13.0723,29.985,1.6575,-5.1482,-4.2356
497111.0,7.4124,-11.0421,28.0409,0.9871,-5.4116,-4.4511
497121.0,7.7189,-8.9639,26.116,0.4166,-5.4653,-4.5453
497131.0,8.2456,-8.6,24.5837,0.3767,-5.4196,-4.5522
497141.0,9.4236,-8.2361,21.3946,0.3863,-5.0524,-4.5474
497151.0,10.0461,-8.1594,18.6077,0.3954,-4.5442,-4.607
497161.0,12.22,-7.4603,15.4187,-0.1117,-3.8701,-4.7411
497171.0,10.4579,-5.6407,13.3788,-0.704,-3.4076,-4.7555
497181.0,10.975,-5.3534,13.2735,-1.3063,-2.6265,-4.7619
497191.0,12.0285,-5.8419,12.2392,-1.035,-1.8044,-4.7289
497201.0,12.8425,-6.5122,9.5672,-1.2989,-0.6561,-4.8433
497211.0,13.0532,-7.7476,10.3525,-1.2494,0.5534,-5.0327
497221.0,14.1641,-7.8817,11.2144,-0.8737,1.9954,-5.2961
497231.0,13.7619,-7.0773,12.2583,-0.3352,3.4449,-5.5398
497241.0,12.5743,-4.549,13.3692,-0.3443,4.7028,-5.7351
497251.0,10.7835,-3.5051,18.1959,-0.1841,5.7718,-5.7665
497261.0,9.9982,-2.9688,22.8503,0.622,6.7115,-5.7165
497271.0,8.4276,-2.2793,26.183,1.2749,7.3016,-5.6989
497281.0,7.288,-1.5323,30.052,1.4782,7.4756,-5.6266
497291.0,7.1251,-1.8292,32.475,1.5075,7.2362,-5.6548
497301.0,7.9392,-1.8292,32.4845,1.2042,7.1292,-5.7665
497311.0,7.6136,-1.3886,32.7239,0.6391,7.3549,-5.9708
497321.0,6.5505,0.6704,32.8101,-0.3432,7.6204,-6.1757
497331.0,5.2194,2.7581,34.6968,-1.7267,7.8024,-6.2278
497341.0,3.2082,2.9688,39.9449,-2.6446,7.7891,-6.1645
497351.0,2.2027,2.5953,44.7716,-2.7196,7.3341,-6.0219
497361.0,1.8771,1.561,46.1506,-2.2524,6.8749,-5.9373
497371.0,2.8252,1.1492,45.7197,-1.2659,7.0069,-5.9245
497381.0,2.7964,1.6089,44.6375,-0.0122,7.772,-5.9038
497391.0,1.2833,2.6528,45.6335,0.7758,8.6021,-5.957
497401.0,-0.2969,2.9401,50.2687,1.1696,8.8591,-6.0182
497411.0,-2.5857,2.873,55.4497,1.2425,8.4452,-6.1166
497421.0,-3.5626,0.3352,61.1479,1.723,7.8923,-6.2247
497431.0,-4.1946,-3.5434,65.5532,2.8457,7.1229,-6.6323
497441.0,-3.8595,-5.1044,67.2005,3.0863,6.1358,-7.3996
497451.0,-4.6926,-3.3998,69.7096,3.0421,4.5889,-8.2733
497461.0,-5.8802,1.5036,68.8285,2.5387,3.0969,-8.9411
497471.0,-5.8419,6.7229,66.6642,1.8709,1.8549,-9.279
497481.0,-6.4643,12.0476,64.3561,1.1015,0.9626,-9.2965
497491.0,-8.8969,17.1904,61.9524,0.0261,0.2719,-8.964
497501.0,-9.2703,22.3618,60.1998,-1.3282,-0.6854,-8.2706
497511.0,-5.6503,22.7832,60.2285,-3.2661,-1.2153,-7.5549
497521.0,-8.0924,24.7752,60.2477,-3.439,-2.0965,-6.3454
497531.0,0.3926,21.6149,59.1368,-3.9919,-1.7294,-5.4249
497541.0,-2.375,17.2574,61.8087,-2.8574,-1.9268,-4.7177
497551.0,-2.4229,15.5144,58.9261,-2.4318,-1.7219,-4.1893
497561.0,-1.5036,12.6988,60.8989,-1.6176,-1.6985,-3.8232
497571.0,-1.6281,12.967,58.0738,-2.1157,-1.905,-3.5604
497581.0,-3.371,9.7683,62.8717,-3.0256,-2.6143,-3.3576
497591.0,-2.3559,7.0006,62.9962,-3.3635,-3.5572,-3.3438
497601.0,-2.557,2.7773,66.2907,-3.3204,-4.2516,-3.5774
497611.0,-4.0031,1.0822,66.3481,-2.1487,-5.2764,-3.935
497621.0,-3.3519,0.6129,65.4575,-1.6996,-6.239,-4.3851
497631.0,-2.7964,0.498,61.7704,-1.0903,-7.7114,-4.9114
497641.0,-1.5419,3.3806,54.7123,-1.5484,-8.6106,-5.4978
497651.0,-0.9194,6.608,48.8034,-1.9896,-9.064,-5.9522
497661.0,-0.4405,11.9135,43.2776,-2.5898,-8.849,-6.0389
497671.0,-0.4788,15.0356,41.774,-3.2134,-8.5202,-5.8745
497681.0,0.565,16.7498,42.2624,-3.397,-8.0615,-5.4861
497691.0,0.8715,17.0754,44.3502,-2.9969,-7.7625,-4.9311
497701.0,1.5993,15.6006,47.9894,-2.2311,-7.7976,-4.3915
497711.0,2.557,14.6429,49.6749,-1.0749,-8.4654,-3.9738
497721.0,2.7007,16.3763,48.0564,-0.6263,-9.4658,-3.5907
497731.0,2.988,18.2055,46.6103,-0.1697,-10.4879,-3.0394
497741.0,4.1276,20.0634,41.3622,0.4608,-11.2664,-2.311
497751.0,4.7501,21.9213,32.0631,-0.008,-11.6985,-1.4835
497761.0,7.3741,19.3643,25.3019,-1.2691,-11.5474,-0.6955
497771.0,10.5919,14.212,20.7051,-2.2684,-10.6524,-0.2049
497781.0,12.7372,9.5768,18.5311,-3.0948,-9.2971,-0.0729
497791.0,13.5991,5.43,19.5175,-3.9281,-8.1881,-0.2331
497801.0,14.212,2.3367,23.1663,-4.6113,-7.6023,-0.5401
497811.0,14.9111,0.68,25.9244,-4.8028,-7.5076,-0.9913
497821.0,15.6293,1.0343,26.8629,-4.8901,-7.6199,-1.4122
497831.0,16.338,3.8211,27.5142,-4.4123,-7.655,-1.6778
497841.0,15.9167,6.3782,26.7193,-3.2821,-7.399,-1.5208
497851.0,16.089,5.5545,25.0146,-2.3769,-7.1601,-1.2308
497861.0,16.4721,3.2082,20.3411,-2.6962,-7.2633,-1.1616
497871.0,19.7091,-0.4022,18.081,-3.8387,-7.0186,-1.4803
497881.0,22.199,-2.5953,18.6269,-4.7363,-6.4487,-2.1237
497891.0,23.5781,-0.9768,17.6309,-7.1425,-6.5556,-3.0102
497901.0,20.0826,-0.067,25.0146,-10.1032,-7.9019,-4.1654
497911.0,16.4146,5.5354,28.673,-12.1215,-10.4549,-5.435
497921.0,7.9296,17.3723,30.4734,-13.2118,-13.6492,-6.2683
497931.0,-2.6432,32.2451,27.3609,-10.1873,-17.0058,-6.0294
497941.0,-7.355,54.2335,-12.4403,-6.3093,-17.4363,-4.4687
497951.0,0.6608,74.4884,-58.7346,-3.2954,-15.4148,-2.3025
497961.0,10.1323,78.4508,-78.4532,-2.2471,-9.0608,0.7221
497971.0,-5.5067,78.4508,-78.4532,-6.6769,-0.879,4.3851
497981.0,-4.0893,78.4508,-78.4532,-2.9649,11.3649,10.0287
497991.0,-22.065,78.4508,-74.5746,1.6453,17.4357,16.4817
498001.0,-44.5513,78.4508,-43.1148,4.076,17.4357,17.4357
498011.0,-69.6904,78.4508,-12.2009,7.6087,17.4357,17.4357
498021.0,-78.4532,78.4508,8.3127,11.6144,17.4357,17.4357
498031.0,-78.4532,55.9094,34.5435,15.063,17.4357,17.4357
498041.0,-78.4532,0.929,78.4508,17.4357,17.4357,17.4357
498051.0,-78.4532,-54.3196,78.4508,16.281,17.4357,17.4357
498061.0,-78.4532,-78.4532,78.4508,12.7345,17.4357,17.4357
498071.0,-78.4532,-78.4532,78.4508,17.4357,17.4357,17.4357
498081.0,-78.4532,-50.0675,78.4508,14.334,17.4357,17.4357
498091.0,-78.4532,-38.6041,78.4508,4.8518,10.4486,17.4357
498101.0,-78.4532,-47.1275,78.4508,8.145,-0.9259,17.4357
498111.0,-75.5897,-78.4532,78.4508,7.4634,-7.8401,17.4357
498121.0,-61.2916,-78.4532,78.4508,8.2536,-14.3489,17.4357
498131.0,-46.888,-78.4532,78.4508,5.3355,-16.9084,17.4357
498141.0,-34.7638,-78.4532,78.4508,5.2216,-17.0723,11.9943
498151.0,-35.099,-78.4532,78.4508,6.8834,-16.9228,6.5939
498161.0,-30.5979,-78.4532,73.0136,1.9183,-17.4363,2.3333
498171.0,-26.0393,-78.4532,69.1062,-3.3736,-17.4363,-0.961
498181.0,-29.4295,-78.4532,50.8145,-4.5506,-17.4363,-2.7931
498191.0,-29.6306,-78.4532,16.1752,-12.2498,-17.4363,-3.729
498201.0,-50.0867,-78.4532,-16.6349,-17.4363,-17.4363,-4.4506
498211.0,-16.9318,-78.4532,-78.4532,-13.3092,-17.4363,-5.7894
498221.0,-19.326,-78.4532,-78.4532,-4.9465,-15.94,-8.4946
498231.0,-10.4483,-78.4532,-78.4532,-5.5579,0.6247,-12.2349
498241.0,-22.6108,-78.4532,-78.4532,0.671,17.4357,-17.4363
498251.0,-46.6678,-78.4532,-78.4532,5.998,17.4357,-17.4363
498261.0,-70.763,-71.51,-64.155,12.5057,17.4357,-17.4363
498271.0,-78.4532,-27.4376,-23.0035,13.1575,17.4357,-17.4363
498281.0,-78.4532,15.6581,17.4681,10.8402,17.4357,-17.4363
498291.0,-78.4532,42.023,64.9212,6.1278,17.4357,-17.4363
498301.0,-78.4532,36.6504,78.4508,1.6964,17.4357,-17.4363
498311.0,-78.4532,19.2973,78.4508,3.6397,17.4357,-17.4363
498321.0,-78.4532,30.7511,78.4508,11.9406,17.4357,-17.4363
498331.0,-78.4532,51.8393,78.4508,5.8692,1.0594,-17.4363
498341.0,-78.4532,68.8764,78.4508,10.1564,-17.4363,-17.4363
498351.0,-78.4532,78.4508,78.4508,5.5659,-17.4363,-17.4363
498361.0,-78.4532,78.4508,78.4508,-0.0154,-17.4363,-17.4363
498371.0,-78.4532,78.4508,78.4508,-8.6027,-17.4363,-16.147
498381.0,-78.4532,78.4508,57.0682,-15.4563,-17.4363,-11.8762
498391.0,-78.4532,78.4508,22.0937,-17.4363,-17.4363,-8.6857
498401.0,-78.4532,78.4508,-9.3087,-15.5191,-17.4363,-5.5749
498411.0,-78.4532,78.4508,-70.3225,-10.4927,-17.4363,-3.1485
498421.0,-57.3172,78.4508,-78.4532,-2.2609,-17.4363,-1.1132
498431.0,-53.5248,78.4508,-78.4532,-1.1201,-17.4363,0.2277
498441.0,-14.0013,78.4508,-78.4532,0.547,-13.3981,2.7766
498451.0,-8.3797,78.4508,-78.4532,-1.6831,-0.4661,5.8564
498461.0,-10.2376,78.4508,-78.4532,-2.4802,8.6921,9.8813
498471.0,-17.3723,78.4508,-74.0766,-1.0834,12.129,14.1302
498481.0,-23.6643,78.4508,-36.5547,6.1831,11.3654,17.4357
498491.0,-29.4391,78.4508,-56.6755,13.2911,12.8878,17.4357
498501.0,-34.7159,78.4508,-78.4149,13.0245,17.4357,17.4357
498511.0,-49.3876,61.0426,-60.6691,10.5555,17.4357,17.4357
498521.0,-64.7967,25.5413,-11.5879,7.8077,17.4357,17.4357
498531.0,-69.2882,-19.6133,51.9063,10.7955,17.4357,17.4357
498541.0,-75.8004,-49.2248,78.4508,14.0951,17.4357,17.4357
498551.0,-78.4532,-62.6706,78.4508,15.5457,17.4357,17.4357
498561.0,-58.4185,-56.0147,78.4508,17.1984,17.4357,17.4357
498571.0,-73.3679,-39.6001,78.4508,17.4357,17.4357,17.4357
498581.0,-74.2586,-21.8351,78.4508,13.1512,17.4357,17.4357
498591.0,-73.2817,-21.4329,78.4508,10.0218,16.2055,17.0973
498601.0,-71.51,-17.8703,78.4508,10.0426,14.3282,17.4357
498611.0,-73.7414,-35.9226,78.4508,7.4416,10.5321,17.4357
498621.0,-73.3296,-66.1183,78.4508,4.8247,2.9272,17.2772
498631.0,-68.7136,-78.4532,78.4508,-0.1399,-8.5548,14.3782
498641.0,-64.8637,-78.4532,78.4508,-4.2798,-17.4363,10.5773
498651.0,-60.7265,-78.4532,78.4508,-6.9164,-17.4363,6.6674
498661.0,-60.5829,-78.0893,78.4508,-11.8001,-17.4363,3.2257
498671.0,-62.3737,-58.792,64.1359,-15.0056,-17.4363,1.3372
498681.0,-61.4927,-43.7947,12.718,-17.3527,-17.4363,1.3031
498691.0,-3.4668,-57.48,-78.4532,-17.4363,-17.4363,1.7054
498701.0,-28.7113,-78.4532,-78.4532,-9.4865,-17.4363,0.298
498711.0,-1.0918,-71.8835,-78.4532,-8.5064,-12.5962,-1.8177
498721.0,8.8202,-78.4532,-78.4532,-4.2787,3.9978,-4.2973
498731.0,-14.1545,-78.4532,-78.4532,-4.3862,15.4478,-6.6477
498741.0,-14.8536,-78.4532,-78.4532,-1.3111,17.4357,-9.1768
498751.0,-28.6825,-71.4238,-66.147,0.4943,17.4357,-11.4681
498761.0,-47.6255,-65.5341,-15.3325,3.3906,17.4357,-13.8307
498771.0,-56.302,-52.8257,17.0946,4.0387,17.4357,-16.0985
498781.0,-65.2276,-43.6128,58.2557,6.6179,17.4357,-17.4363
498791.0,-76.8826,-20.4752,78.4508,5.7085,17.4357,-17.4363
498801.0,-78.4532,-1.9058,78.4508,3.3603,17.4357,-17.4363
498811.0,-78.4532,13.6948,78.4508,1.7645,17.4357,-17.4363
498821.0,-78.4532,32.7527,78.4508,3.0192,17.4357,-17.4363
498831.0,-78.4532,53.7355,78.4508,-5.0497,17.4357,-17.4363
498841.0,-78.4532,65.6969,78.4508,0.4805,3.5997,-17.4363
498851.0,-78.4532,78.4508,78.4508,0.6135,-9.1353,-16.2002
498861.0,-78.4532,78.4508,78.4508,6.4747,-17.4363,-12.6999
498871.0,-78.4532,78.4508,78.4508,4.1941,-17.4363,-9.8957
498881.0,-78.4532,73.4158,78.4508,-2.9011,-17.4363,-8.6857
498891.0,-74.498,64.0114,78.4508,-4.4745,-17.4363,-8.0354
498901.0,-62.4025,59.2134,37.7997,-11.2595,-17.4363,-8.0429
498911.0,-52.1936,50.1346,11.7986,-16.537,-17.4363,-8.4382
498921.0,-40.0023,45.193,-3.7445,-17.4363,-17.4363,-8.649
498931.0,-19.6995,37.5985,-16.0986,-12.9809,-17.4363,-8.4718
498941.0,-22.3331,43.1148,-36.8132,-6.2842,-17.4363,-8.0253
498951.0,-7.92,55.3827,-68.1294,-6.927,-17.4363,-7.2043
498961.0,7.422,62.5078,-78.4532,-11.4229,-17.4363,-6.6158
498971.0,8.2456,78.4508,-78.4532,-16.1241,-17.4363,-6.0081
498981.0,4.9895,78.4508,-78.4532,-17.4363,-14.8608,-4.3048
498991.0,-1.4078,78.4508,-78.4532,-17.4363,-10.8333,-0.9168
499001.0,-0.6704,78.4508,-78.4532,-7.0574,-5.9474,3.6003
499011.0,-4.8842,78.4508,-78.4532,1.5282,3.6279,9.2322
499021.0,-15.1026,78.4508,-78.4532,7.2431,17.2793,15.0322
499031.0,-35.348,78.4508,-78.4532,9.6131,17.4357,17.4357
499041.0,-62.5461,73.1477,-77.3806,13.7221,17.4357,17.4357
499051.0,-78.4532,35.3193,-16.7594,17.4357,17.4357,17.4357
499061.0,-78.4532,18.5886,31.7758,17.4357,17.4357,17.4357
499071.0,-78.4532,2.739,78.4508,12.2232,17.4357,17.4357
499081.0,-78.4532,7.3454,78.4508,10.6763,17.4357,17.4357
499091.0,-78.4532,10.6494,78.4508,13.9962,17.4357,17.1058
499101.0,-78.4532,28.558,78.4508,1.5623,17.4357,15.7841
499111.0,-78.4532,17.4968,78.4508,-5.7867,17.4357,16.1033
499121.0,-78.4532,4.7309,78.4508,-8.5894,7.308,17.1511
499131.0,-78.4532,-12.1051,78.4508,-2.278,-6.6168,17.4357
499141.0,-78.4532,-13.1873,78.4508,1.0046,-17.4363,17.4357
499151.0,-78.4532,-30.0999,78.4508,-2.4483,-17.4363,17.4357
499161.0,-78.4532,-44.446,78.4508,-0.6609,-17.4363,17.4357
499171.0,-75.4844,-48.1522,58.5143,-1.6666,-17.4363,17.4357
499181.0,-61.2916,-53.1225,31.6035,-3.6593,-17.4363,16.8408
499191.0,-48.6023,-52.1936,12.3062,-5.476,-17.4363,15.2908
499201.0,-37.0431,-53.4003,5.9855,-6.7999,-17.4363,14.0339
499211.0,-27.9739,-57.48,9.8258,-5.5898,-15.4084,12.9857
499221.0,-22.5917,-61.8757,16.2901,-2.3626,-12.0795,11.9699
499231.0,-19.7665,-67.3537,23.5781,0.886,-10.448,10.8359
499241.0,-13.4075,-72.7263,23.4536,3.8381,-9.8898,9.1571
499251.0,-7.0006,-73.4637,17.6213,4.921,-9.313,6.9153
499261.0,-2.1931,-68.1007,13.6469,4.8374,-8.3393,4.5309
499271.0,-1.5802,-57.0778,8.916,3.2001,-7.3607,2.3307
499281.0,-0.9768,-45.2025,8.9735,0.0708,-6.9063,0.7237
499291.0,-0.7661,-35.1469,12.5456,-2.3972,-6.8174,-0.2772
499301.0,-0.4693,-27.6961,17.5543,-3.9328,-6.2938,-0.7013
499311.0,-0.7183,-24.756,25.3498,-2.3189,-5.9331,-0.5146
499321.0,-0.0383,-23.3387,24.3059,0.5002,-5.7037,-0.1655
499331.0,2.4038,-25.3977,20.7912,2.1998,-5.3424,0.0149
499341.0,4.7405,-29.2476,15.3995,3.5561,-4.921,-0.2352
499351.0,8.8298,-31.977,8.8298,3.2113,-3.5944,-1.0121
499361.0,10.1514,-34.0743,8.9735,2.0194,-1.8879,-2.2753
499371.0,9.165,-27.3514,12.1147,-0.2187,-0.8647,-3.6402
499381.0,7.8817,-18.4832,21.452,-2.8383,-1.1552,-4.4655
499391.0,6.0142,-11.971,30.2436,-3.5683,-1.9411,-4.6065
499401.0,5.8323,-7.6423,35.9705,-2.3865,-2.7191,-4.1398
499411.0,6.2058,-9.4427,35.7215,0.0521,-3.5683,-3.6428
499421.0,8.0541,-8.7053,28.5772,1.9608,-3.6753,-3.3566
499431.0,9.8641,-10.7452,22.5917,3.5205,-3.1783,-3.1863
499441.0,11.7699,-12.9383,13.2926,3.2475,-2.3844,-3.3635
499451.0,13.9438,-15.8688,9.2129,1.2239,-1.5766,-4.0185
499461.0,12.6605,-13.8672,9.9216,-0.4198,-0.8418,-4.6278
499471.0,12.8042,-11.3677,10.8793,-2.3126,-0.1815,-4.9465
499481.0,12.22,-12.2679,15.6964,-2.6473,0.2953,-5.1764
499491.0,11.8369,-10.9846,19.8431,-1.5804,1.293,-5.1535
499501.0,9.4523,-14.5089,22.6013,1.0754,1.5197,-5.0476
499511.0,11.3294,-11.8369,14.0875,2.3663,1.7288,-5.2259
499521.0,12.5456,-9.1267,11.1474,2.9181,3.1432,-5.2706
499531.0,11.6071,-6.7229,7.3646,3.7455,4.8827,-5.2573
499541.0,11.7603,-4.6543,6.8761,2.5845,6.7185,-5.3509
499551.0,9.4332,-3.62,12.2009,0.9067,7.4687,-5.5239
499561.0,7.3263,-3.2753,19.1919,-1.0531,7.821,-5.5851
499571.0,6.9432,-5.2577,29.5732,-1.4984,8.0216,-5.6457
499581.0,4.9704,-4.9799,37.1197,-0.5853,7.9412,-5.526
499591.0,3.1699,-6.9815,42.8754,1.2627,7.2309,-5.3797
499601.0,3.0167,-7.6136,39.7437,2.2876,6.5716,-5.4504
499611.0,2.375,-9.4044,37.4549,2.5158,6.412,-5.7138
499621.0,2.3176,-7.671,33.7487,2.5573,6.8941,-6.2076
499631.0,1.2163,-4.4532,33.2124,1.6022,7.6704,-6.5413
499641.0,-1.0056,-2.739,36.842,0.8008,8.1988,-6.8243
499651.0,-1.1875,1.4748,40.4141,0.1224,8.6059,-6.893
499661.0,-4.6448,3.2082,46.5912,-0.5944,8.3659,-6.6237
499671.0,-4.2042,1.6759,48.0277,-1.8805,7.2165,-6.4657
499681.0,-4.6448,-0.9864,51.7914,-3.1315,6.5764,-6.3412
499691.0,-5.6024,-7.5082,54.5399,-2.1519,6.1773,-6.2747
499701.0,-5.5641,-10.1227,52.9214,-1.0169,6.4694,-6.6514
499711.0,-6.3207,-8.3318,55.0858,1.2803,6.9302,-6.9505
499721.0,-7.6519,-2.3176,51.0061,2.1758,7.0728,-7.1096
499731.0,-7.8051,1.8196,49.7707,1.1967,6.8078,-7.1543
499741.0,-7.7189,3.9744,50.5177,-0.0639,6.5168,-7.0478
499751.0,-9.73,3.7541,51.3796,-1.9976,6.3779,-6.868
499761.0,-8.1882,0.6321,55.919,-3.7259,6.545,-6.7302
499771.0,-9.7875,-5.3822,63.8294,-3.7083,6.6418,-6.5476
499781.0,-11.7029,-11.1857,72.1325,-1.9608,6.4029,-6.6573
499791.0,-15.4474,-12.4977,78.1755,1.3063,5.5824,-6.9308
499801.0,-15.5623,-6.9719,75.4078,3.6977,4.3772,-7.2027
499811.0,-16.4913,-0.68,69.5468,3.8126,2.8378,-7.4826
499821.0,-14.8153,6.2249,63.5421,1.9204,1.7964,-7.598
499831.0,-12.6797,9.2512,63.274,0.2325,1.2478,-7.5203
499841.0,-11.4251,9.7492,61.7512,-1.0206,1.1584,-7.3485
499851.0,-11.971,7.7955,59.9317,-3.7173,1.0009,-7.4453
499861.0,-15.3804,4.8746,70.9354,-5.1567,1.1126,-7.5842
499871.0,-18.0523,4.6543,78.4508,-2.1348,1.0041,-7.3139
499881.0,-20.5327,9.1937,78.4508,2.4578,-0.7056,-6.7323
499891.0,-21.7298,14.3748,78.4508,3.9839,-2.8064,-6.114
499901.0,-17.8799,18.148,76.2888,4.1558,-4.2569,-5.6952
499911.0,-16.4242,23.9707,67.9187,3.2677,-4.5873,-5.2817
499921.0,-17.4394,26.7768,66.1087,1.3542,-4.7528,-4.7278
499931.0,-16.4913,23.7505,67.2675,-1.1079,-5.7085,-4.2702
499941.0,-15.84,18.2917,72.3624,-2.6164,-6.9361,-4.1154
499951.0,-16.9605,13.3692,77.5147,-1.6123,-8.0998,-4.0159
499961.0,-19.1632,12.0668,78.4149,0.348,-9.694,-3.8903
499971.0,-18.8088,14.0396,70.3416,1.8816,-11.6996,-3.7365
499981.0,-18.5694,17.5447,62.527,2.5057,-12.7787,-3.5742
499991.0,-17.7554,24.6124,51.4466,2.768,-13.1102,-3.1203
500001.0,-16.4913,30.8277,42.6359,1.3446,-12.9899,-2.3807
500011.0,-16.4817,32.8006,39.2074,-0.0261,-13.1144,-1.5069
500021.0,-16.3763,33.3656,33.1932,-2.4717,-13.2368,-0.6061
500031.0,-15.2271,27.993,37.7613,-4.2079,-13.2799,0.1208
500041.0,-16.8073,20.8008,43.6224,-1.9757,-14.1201,0.9046
500051.0,-15.706,18.4354,34.0839,0.2804,-15.3663,1.6714
500061.0,-10.6877,12.8233,21.7872,1.6511,-15.7553,2.22
500071.0,-4.3383,11.1187,5.3917,2.4999,-14.6267,2.444
500081.0,-0.6512,12.8521,-6.8283,0.9557,-12.2695,2.6356
500091.0,4.2617,10.0461,-6.1675,-0.0873,-9.8297,2.834
500101.0,6.7708,9.6151,-6.043,-1.1669,-7.9099,2.9208
500111.0,7.7668,9.0884,2.9592,-2.3924,-6.8467,3.0634
500121.0,10.9942,6.8187,10.3046,-1.4952,-6.811,3.3885
500131.0,13.2735,5.4205,11.4634,0.3672,-6.7419,3.7631
500141.0,14.9015,2.2314,6.9911,1.9938,-6.512,4.0169
500151.0,17.2861,1.2929,-0.7661,1.5926,-5.625,3.968
500161.0,21.2988,1.2833,-6.7229,-0.05,-4.8805,3.9355
500171.0,22.3044,-2.3942,-6.5984,-2.6685,-3.7854,3.869
500181.0,25.4743,-9.8354,-0.2586,-2.7542,-2.8016,3.5795
500191.0,27.3322,-11.904,-2.1931,-2.7404,-2.0885,3.0543
500201.0,25.7999,-13.3692,3.8499,-2.3216,-1.6799,2.4733
500211.0,26.9204,-8.4563,3.4955,-0.0553,-1.3308,2.1465
500221.0,26.3075,-1.6281,-3.7062,1.0525,-0.8035,2.1418
500231.0,27.8589,2.6432,-9.5385,1.3521,0.2549,2.3322
500241.0,31.5268,6.9911,-17.5543,0.3001,1.9278,2.6212
500251.0,34.1317,7.8817,-18.3683,-2.1274,3.4715,2.9165
500261.0,34.6585,7.8051,-15.8305,-4.6618,3.9642,3.2054
500271.0,37.1389,7.0006,-13.2447,-6.7812,3.6843,3.53
500281.0,35.2043,4.9225,-11.1282,-7.1048,2.4765,3.7743
500291.0,25.9436,8.7532,-21.4233,-5.974,0.6146,3.9962
500301.0,30.3106,15.6198,-53.3237,-4.2702,2.8218,4.4559
500311.0,17.3628,21.1935,-71.7303,0.4273,7.8444,5.0024
500321.0,6.857,28.1175,-78.4532,-0.1862,13.8333,5.7537
500331.0,-10.6973,25.4264,-78.4532,-1.9592,17.4357,6.3103
500341.0,-21.9692,24.9284,-77.4093,-1.1643,17.4357,7.167
500351.0,-40.3279,22.5725,-51.1785,3.7392,17.4357,8.2499
500361.0,-60.9372,20.9924,-12.9957,10.5188,17.4357,9.2135
500371.0,-78.4532,20.6763,27.6482,17.25,17.4357,10.158
500381.0,-78.4532,12.0093,75.2929,17.4357,17.4357,10.3022
500391.0,-78.4532,-0.3735,78.4508,17.4357,17.4357,8.9097
500401.0,-78.4532,-9.2703,78.4508,17.4357,17.4357,6.0262
500411.0,-78.4532,28.1271,78.4508,9.1869,17.4357,2.6632
500421.0,-78.4532,-0.2203,78.4508,-6.7153,17.4357,0.7471
500431.0,-78.4532,21.0786,78.4508,1.1382,10.5587,2.4882
500441.0,-78.4532,29.238,78.4508,-2.1364,-9.4924,4.3229
500451.0,-78.4532,8.5042,78.4508,-3.3512,-17.4363,5.2232
500461.0,-78.4532,0.5267,78.4508,-4.3564,-17.4363,5.4563
500471.0,-78.4532,-11.6262,78.4508,-3.4305,-17.4363,5.0593
500481.0,-73.435,-11.2527,49.8664,-2.9123,-17.4363,4.2702
500491.0,-49.4834,-10.2663,-1.6568,-5.6665,-17.4363,3.2422
500501.0,-45.1546,-10.3238,-30.8182,-5.6713,-17.4363,2.4945
500511.0,-4.3862,-15.4665,-47.4722,-5.4233,-17.4363,1.7209
500521.0,-16.4051,-14.6142,-25.8286,0.2176,-12.303,1.1542
500531.0,-2.5857,-10.0078,-21.2222,1.3021,-6.6636,0.9397
500541.0,-4.0701,-15.3133,9.1267,7.4751,-3.9483,0.7689
500551.0,2.6528,-1.9249,-6.2153,8.6591,-2.6457,0.4624
500561.0,0.6512,-0.9098,10.5536,5.4536,-1.3542,0.2661
500571.0,3.0358,3.2657,17.4681,5.5297,-1.3282,0.1618
500581.0,-0.8619,8.9639,19.5846,1.955,-1.6378,0.191
500591.0,2.2122,9.0597,27.4376,-0.9647,-2.9591,0.2767
500601.0,3.304,11.1091,25.2349,-3.538,-3.9749,0.4544
500611.0,2.2697,8.7436,32.044,-5.0285,-4.4277,0.7886
500621.0,4.051,5.7652,31.5173,-3.2475,-4.9018,1.2425
500631.0,4.2425,3.5817,23.4728,-2.4451,-4.5512,1.55
500641.0,5.612,-2.0399,19.8623,-1.7932,-3.7072,1.5836
500651.0,7.9009,-7.173,16.3093,-0.8179,-1.7693,1.1526
500661.0,8.7053,-7.4124,16.4242,-0.5087,0.431,0.397
500671.0,7.9009,-3.0646,23.4823,-0.9493,2.1178,-0.223
500681.0,5.6312,0.8619,33.7295,-0.9695,2.6909,-0.4214
500691.0,4.9704,6.1579,41.3239,-1.3611,2.3503,-0.3847
500701.0,3.6488,9.5289,50.058,-1.2217,1.4442,-0.0011
500711.0,2.9113,12.0189,53.3141,-0.4464,-0.0176,0.671
500721.0,2.6145,11.7124,50.6613,-0.6029,-1.7943,1.318
500731.0,3.7062,6.5601,47.003,-0.8248,-3.0799,1.7501
500741.0,5.6695,0.8906,40.4429,-0.7764,-3.5625,1.8273
500751.0,6.9145,-4.5873,34.534,-1.0807,-3.4332,1.4255
500761.0,7.5657,-6.5218,30.0041,-1.6517,-2.9192,0.7604
500771.0,7.7381,-4.367,28.5006,-2.0582,-1.9247,0.1415
500781.0,7.8817,-1.1205,28.2803,-2.1088,-0.919,-0.141
500791.0,6.426,1.7813,31.7471,-2.0731,0.0112,-0.1171
500801.0,4.9991,2.5379,35.3001,-1.2281,0.2219,0.0734
500811.0,5.0087,2.8826,35.4629,-0.7519,0.2581,0.3214
500821.0,4.8267,0.6416,36.411,-0.0873,0.3246,0.4161
500831.0,5.7652,-0.5171,33.7199,0.241,0.6231,0.3108
500841.0,6.1196,-0.2873,32.3505,-0.4182,1.1531,0.0899
500851.0,5.5737,1.1779,33.3177,-1.3015,1.5884,-0.0915
500861.0,5.4779,2.9497,36.1429,-2.402,1.8991,-0.0766
500871.0,4.0318,1.8387,42.9328,-2.5595,1.7262,0.0649
500881.0,3.5721,1.5802,45.6143,-2.2684,1.069,0.2501
500891.0,2.9688,-0.565,47.3669,-1.7608,0.1479,0.3427
500901.0,4.0127,-1.7047,43.8618,-0.7487,-0.3799,0.3634
500911.0,4.7597,-2.375,37.7997,-0.6944,-0.1868,0.1868
500921.0,5.4109,-4.3574,36.1812,-0.7934,0.2033,-0.1245
500931.0,5.4396,-3.3423,34.0168,-1.3814,0.5736,-0.5433
500941.0,5.2194,-1.81,35.2618,-2.1444,1.152,-0.8439
500951.0,5.3822,0.3639,36.9473,-2.2413,1.6283,-0.9216
500961.0,4.5298,3.0263,38.9585,-2.8809,1.9007,-0.8216
500971.0,3.7541,2.6815,46.4188,-2.5291,1.7831,-0.5507
500981.0,3.6966,2.5666,48.1905,-1.3904,1.1845,-0.2458
500991.0,3.6488,1.3886,47.5393,-0.9408,0.5103,-0.0112
501001.0,5.612,-1.1301,46.2177,-0.5007,0.0346,-0.0266
501011.0,7.2018,-1.1492,42.2146,-0.7189,-0.1426,-0.2517
501021.0,7.4508,1.3408,41.4293,-1.608,-0.1905,-0.3586
501031.0,8.1211,2.6624,41.6112,-2.3131,-0.2533,-0.2474
501041.0,8.4084,2.3176,42.9903,-2.9138,-0.3932,0.0032
501051.0,7.9104,-0.0096,46.256,-2.7095,-0.6971,0.2512
501061.0,8.1882,-2.4708,46.572,-2.0236,-1.3649,0.4299
501071.0,9.1459,-4.8554,44.8673,-1.4511,-2.0438,0.4603
501081.0,10.6973,-7.0964,41.0653,-0.821,-2.3025,0.2607
501091.0,11.8561,-7.422,36.7462,-0.7013,-2.0875,-0.0234
501101.0,12.9191,-7.4891,33.9498,-1.0344,-1.7501,-0.4161
501111.0,13.5129,-6.6942,33.8923,-1.3851,-1.5059,-0.721
501121.0,13.8193,-4.4053,33.4231,-1.6916,-1.3239,-0.8588
501131.0,13.5033,-2.7773,33.7104,-1.7475,-1.1132,-0.8131
501141.0,12.8617,-1.7526,35.1373,-1.4351,-0.9876,-0.6476
501151.0,11.8944,-1.2833,36.0375,-0.6226,-1.0488,-0.3815
501161.0,11.9997,-2.2314,34.3233,0.223,-1.1318,-0.1373
501171.0,13.5608,-4.4245,30.2819,0.7471,-0.9126,-0.0633
501181.0,14.9302,-7.0677,27.4471,0.762,-0.1187,-0.2597
501191.0,15.9262,-7.6806,27.246,0.6385,0.8711,-0.6439
501201.0,15.6293,-6.0717,30.301,0.4422,1.6198,-0.8908
501211.0,14.6334,-4.5681,32.858,0.2778,1.8443,-1.0499
501221.0,13.7427,-2.624,35.2043,-0.2309,1.8762,-1.0866
501231.0,12.5743,-1.3982,39.2362,-0.0798,1.6985,-1.0137
501241.0,11.7699,0.498,41.9368,0.4081,1.6368,-0.7897
501251.0,11.5401,-0.6225,44.6567,1.7214,1.2888,-0.4268
501261.0,12.6318,-1.2163,42.521,2.3913,0.8945,-0.2677
501271.0,13.8098,-1.2833,41.5059,2.4679,0.5757,-0.2203
501281.0,15.0835,-0.996,40.529,2.6755,0.4379,-0.0921
501291.0,15.5719,-1.4461,38.1827,2.378,0.4087,-0.0096
501301.0,15.5432,-2.3846,36.9952,1.5703,0.3081,-0.0516
501311.0,15.5815,-3.3806,37.5698,1.0286,0.1974,-0.1389
501321.0,15.208,-3.7541,36.7462,0.9269,0.1527,-0.2522
501331.0,15.3229,-3.7445,35.8556,1.0296,0.4773,-0.3177
501341.0,15.3229,-4.4724,36.095,1.4814,0.9259,-0.3507
501351.0,15.2846,-5.7269,35.3671,1.4277,1.1164,-0.4597
501361.0,15.2654,-7.9296,35.4342,1.1935,1.0759,-0.7301
501371.0,15.7443,-9.2703,35.9226,1.4213,1.1866,-1.1483
501381.0,14.7866,-8.5329,35.2426,1.847,1.4766,-1.5719
501391.0,14.0204,-6.3686,34.6489,2.2822,1.8214,-1.939
501401.0,12.8904,-2.8635,33.3273,2.5196,2.1705,-2.1737
501411.0,12.4882,0.3639,32.0919,2.3392,2.5983,-2.2615
501421.0,11.7507,1.9537,34.5052,2.2109,3.1224,-2.1992
501431.0,11.1187,2.9018,36.0567,2.3956,3.3693,-2.0768
501441.0,11.1187,2.4134,38.0103,2.1056,3.3603,-2.0098
501451.0,11.0804,1.0247,40.0023,2.0742,3.0165,-2.112
501461.0,10.9559,1.9632,39.7725,1.9678,2.784,-2.3094
501471.0,9.912,3.9935,40.0502,2.1535,2.8308,-2.4552
501481.0,9.4332,7.4891,40.1651,2.3594,2.9963,-2.4403
501491.0,8.7724,10.7835,40.9696,2.3067,3.0586,-2.2083
501501.0,8.6479,12.9478,40.7014,2.2854,2.9027,-1.7852
501511.0,8.7053,13.0053,41.0558,2.1588,2.6047,-1.2648
501521.0,9.8067,10.659,40.4429,2.0188,2.3051,-0.919
501531.0,10.8601,7.4412,39.6767,2.1476,2.1487,-0.8062
501541.0,11.4634,6.9049,36.6792,2.2093,2.2572,-0.9211
501551.0,11.9135,7.8147,34.7734,2.2727,2.6925,-1.0706
501561.0,11.8178,10.1706,34.0839,2.2434,3.4199,-1.1552
501571.0,11.0229,12.536,34.5435,2.1332,4.0478,-1.0674
501581.0,11.4922,14.0683,37.5507,2.0194,4.4415,-0.8849
501591.0,11.6933,14.777,40.1268,2.1503,4.4016,-0.5348
501601.0,14.7196,13.5703,42.1858,2.4153,4.309,-0.1756
501611.0,17.9852,10.5441,42.9807,2.6941,4.2984,-0.0426
501621.0,22.4097,8.0732,41.8602,2.7308,4.4336,-0.2426
501631.0,25.5126,9.1075,41.0749,2.2375,4.6618,-0.5475
501641.0,27.3418,10.6111,42.0996,1.9874,5.4653,-0.8189
501651.0,26.7576,14.461,43.8905,2.2024,6.7153,-0.763
501661.0,25.867,12.3158,50.0388,2.9069,8.3132,-0.505
501671.0,25.2732,8.8873,54.4633,3.869,9.7669,-0.6093
501681.0,21.6436,7.9009,62.1918,4.2234,11.4612,-0.9887
501691.0,15.1505,6.8091,75.7334,5.236,12.9633,-1.4771
501701.0,5.8897,8.1499,78.4508,5.9895,13.3135,-2.2269
501711.0,-5.3534,12.3349,78.4508,6.164,12.4983,-3.1203
501721.0,-22.0554,20.2741,78.4508,7.5363,10.4688,-3.8115
501731.0,-34.4286,33.9402,78.4508,8.4319,7.9636,-4.0973
501741.0,-50.9007,47.7021,78.4508,7.1106,3.7705,-4.0621
501751.0,-62.2684,61.9045,78.4508,3.4614,-2.4754,-3.5231
501761.0,-69.2499,69.9298,78.4508,-0.3672,-8.7389,-2.5552
501771.0,-74.9768,78.4508,78.4508,-2.2003,-15.0013,-0.6923
501781.0,-78.4532,78.4508,78.4508,-2.6914,-17.4363,2.0167
501791.0,-78.4532,72.0272,78.4508,-2.4131,-17.4363,4.8614
501801.0,-78.4532,60.3147,78.4508,-1.8587,-17.4363,7.572
501811.0,-78.4532,44.9248,65.9172,-0.5263,-17.4363,9.735
501821.0,-78.4532,28.9124,28.558,-1.8257,-17.4363,10.9855
501831.0,-78.4532,12.718,-3.7254,-4.9875,-17.4363,11.1105
501841.0,-54.2813,1.6472,-48.2863,-9.9074,-17.4363,10.182
501851.0,-44.513,-14.3173,-43.584,-10.8562,-17.4363,8.5963
501861.0,-32.1972,-8.6957,-57.1544,-9.2843,-17.4363,7.3634
501871.0,-23.9324,-16.089,-49.3972,-7.6635,-15.0577,6.6014
501881.0,-13.5608,-19.0578,-48.6214,-1.2702,-10.464,5.767
501891.0,-8.5042,-15.4474,-56.5127,1.4144,-5.4419,5.0013
501901.0,-3.3998,-15.6485,-47.4627,3.6615,-0.2863,4.3261
501911.0,-0.6704,-8.2456,-42.138,4.2377,3.5183,3.7785
501921.0,1.2067,-1.4174,-23.1854,2.7111,6.5828,3.5955
501931.0,2.4134,6.1483,-2.5379,1.6884,7.3543,3.9206
501941.0,3.9744,11.4347,14.8632,-0.1868,6.8685,4.7943
501951.0,4.3096,7.9009,30.9522,-1.1877,5.2764,5.8187
501961.0,6.1196,0.4693,36.8516,-1.3835,3.1937,6.5205
501971.0,7.6327,-8.5617,38.1061,-2.626,0.8796,6.5891
501981.0,9.0309,-18.3875,39.0446,-3.2603,-1.4473,6.0576
501991.0,11.7507,-25.5797,32.3696,-3.3747,-3.149,4.9859
502001.0,14.1449,-28.1462,24.1814,-3.8818,-3.7583,3.4486
502011.0,16.52,-22.065,16.2997,-4.6847,-3.9307,1.9853
502021.0,17.4202,-13.1011,11.9902,-5.8756,-3.264,1.2297
