time_ms,ax,ay,az,gx,gy,gz
322871.0,-1.9992,1.3575,10.4267,-0.1277,0.0298,0.0788
322881.0,-2.0207,1.2689,10.5105,-0.1846,0.0059,0.0878
322891.0,-2.0087,1.1588,10.5584,-0.2219,-0.0287,0.0974
322901.0,-1.9513,1.1109,10.4866,-0.2261,-0.0585,0.107
322911.0,-1.8747,1.0391,10.3477,-0.2097,-0.0766,0.1187
322921.0,-1.7741,0.8978,10.1299,-0.1772,-0.0803,0.133
322931.0,-1.743,0.8428,9.9264,-0.1495,-0.066,0.1368
322941.0,-1.7142,0.9194,9.8713,-0.1639,-0.0468,0.1261
322951.0,-1.6951,1.0965,9.8019,-0.2139,-0.0426,0.1155
322961.0,-1.6735,1.2067,9.7324,-0.2746,-0.0431,0.1128
322971.0,-1.6089,1.2234,9.6175,-0.315,-0.0426,0.116
322981.0,-1.5395,1.3384,9.5409,-0.3331,-0.0234,0.1272
322991.0,-1.4317,1.3623,9.5241,-0.3187,0.0271,0.1532
323001.0,-1.3838,1.2474,9.5672,-0.2746,0.0846,0.1878
323011.0,-1.3527,1.1756,9.572,-0.224,0.1463,0.2134
323021.0,-1.5371,1.3838,9.7468,-0.2123,0.2171,0.2251
323031.0,-1.7047,1.5874,10.173,-0.2597,0.2474,0.2379
323041.0,-1.7119,1.7095,10.3477,-0.3081,0.2155,0.2586
323051.0,-1.6089,1.7885,10.5249,-0.3549,0.1756,0.2847
323061.0,-1.4605,2.0542,10.4148,-0.3805,0.1453,0.315
323071.0,-1.3455,2.2098,10.4674,-0.4055,0.1149,0.3555
323081.0,-1.233,2.478,10.2687,-0.3954,0.0894,0.415
323091.0,-1.0822,2.4373,10.1562,-0.3954,0.0846,0.4943
323101.0,-1.1779,2.3343,10.0748,-0.3656,0.0995,0.5688
323111.0,-1.3096,2.3272,10.0844,-0.298,0.1314,0.6369
323121.0,-1.3934,2.3415,9.8785,-0.1862,0.1788,0.696
323131.0,-1.5179,2.545,9.754,-0.0968,0.2469,0.737
323141.0,-1.5802,2.964,9.7252,-0.0665,0.3081,0.7721
323151.0,-1.4269,3.0742,9.9024,-0.1091,0.357,0.8141
323161.0,-1.3024,2.8419,10.1562,-0.1862,0.4097,0.853
323171.0,-1.4102,2.4469,10.6901,-0.3108,0.4379,0.8572
323181.0,-1.6376,2.0423,11.6023,-0.4507,0.4385,0.8253
323191.0,-1.9872,1.8459,12.7611,-0.5757,0.4087,0.7599
323201.0,-2.5402,2.059,14.1138,-0.7019,0.2804,0.6742
323211.0,-2.9664,2.4852,15.0428,-0.7918,0.0032,0.6114
323221.0,-3.1364,2.6743,15.1888,-0.8014,-0.331,0.6013
323231.0,-3.1723,2.6456,14.9159,-0.7705,-0.6284,0.6183
323241.0,-3.2106,2.4565,14.6765,-0.7301,-0.8801,0.6455
323251.0,-3.0047,1.7406,14.8129,-0.6034,-1.0701,0.6896
323261.0,-3.0239,0.996,15.2678,-0.3331,-1.2281,0.7263
323271.0,-3.4692,0.6297,14.6094,0.0186,-1.4873,0.7444
323281.0,-3.383,0.577,14.2263,0.2081,-1.8544,0.7338
323291.0,-2.7725,1.2881,11.552,0.4997,-2.1886,0.7333
323301.0,-2.4229,1.4222,9.2033,0.5906,-2.3785,0.7407
323311.0,-1.4509,1.4341,6.0142,0.572,-2.3844,0.7482
323321.0,-0.6297,0.735,4.9584,0.3065,-2.1386,0.6997
323331.0,-0.4046,0.5986,4.8028,0.0537,-1.7911,0.5848
323341.0,-0.4932,0.8428,5.1691,-0.191,-1.5128,0.4518
323351.0,-0.5219,1.1037,5.5138,-0.4071,-1.351,0.3576
323361.0,-0.5962,1.2426,5.928,-0.4704,-1.1898,0.3304
323371.0,-0.4405,1.1564,6.0693,-0.3879,-1.0318,0.3634
323381.0,-0.4573,0.905,6.1794,-0.2485,-0.886,0.4177
323391.0,-0.5698,0.2658,6.6176,-0.0484,-0.7497,0.4848
323401.0,-0.5698,-0.6536,6.6272,0.3209,-0.6274,0.5587
323411.0,-0.3639,-1.4748,6.438,0.7487,-0.5209,0.5843
323421.0,-0.0718,-1.4557,5.4779,1.2042,-0.4108,0.547
323431.0,0.2418,-0.8523,4.3958,1.5554,-0.2448,0.481
323441.0,0.4477,0.0646,3.4141,1.7006,0.0346,0.423
323451.0,0.0886,0.6177,4.1994,1.6054,0.4055,0.3943
323461.0,-0.3519,0.8404,5.6503,1.4064,0.6353,0.3948
323471.0,-0.5004,0.5076,6.9839,1.16,0.6715,0.4135
323481.0,-0.4477,-0.2298,7.8697,0.9642,0.6024,0.4284
323491.0,-0.1939,-1.1205,8.0397,0.8721,0.5066,0.4161
323501.0,0.1149,-2.1332,8.1858,0.8982,0.5114,0.364
323511.0,0.1532,-2.2769,8.5712,1.0323,0.6151,0.2496
323521.0,-0.0551,-1.5036,8.9352,1.1031,0.6625,0.0984
323531.0,-0.2921,-0.4262,9.2775,1.0307,0.5853,-0.0298
323541.0,-0.2897,0.7374,9.2608,0.879,0.4363,-0.0979
323551.0,-0.1556,1.5586,9.3087,0.6838,0.2655,-0.0937
323561.0,0.2586,2.2314,8.4348,0.5412,0.0543,-0.0261
323571.0,0.6225,3.0382,6.7876,0.3837,-0.1288,0.0825
323581.0,0.905,4.2066,4.6615,0.1485,-0.2246,0.2368
323591.0,0.7733,5.624,1.719,-0.216,-0.2128,0.4581
323601.0,0.5124,6.3351,-1.5993,-0.9131,-0.1751,0.7407
323611.0,0.3448,6.5912,-5.1236,-1.8581,-0.025,1.0355
323621.0,-0.6967,6.1363,-8.2791,-2.7877,0.4087,1.3713
323631.0,-1.2234,3.0909,-9.9479,-3.3917,1.2435,1.7943
323641.0,-2.2075,0.7949,-8.9807,-3.3699,2.6185,2.1263
323651.0,-4.8937,-2.0566,-4.9991,-2.8558,4.2867,2.3567
323661.0,-7.4699,-5.5354,1.4533,-2.2998,5.4275,2.4403
323671.0,-8.6119,-10.4674,6.9145,-1.3207,6.1581,2.303
323681.0,-9.3182,-10.4986,12.6127,0.009,6.727,1.8321
323691.0,-11.6909,-6.2465,16.6229,1.4489,6.9254,1.2579
323701.0,-13.1609,-0.656,16.8695,2.6989,6.6929,0.8705
323711.0,-13.2591,4.4269,14.6166,3.3252,6.3955,0.6274
323721.0,-14.7363,8.5832,11.6957,2.9261,6.3673,0.5028
323731.0,-16.3859,8.3653,14.0085,1.1547,6.3838,0.48
323741.0,-16.6253,3.9002,22.029,-0.8817,6.2651,0.4986
323751.0,-16.338,-2.3727,32.9825,-1.9108,5.8389,0.4917
323761.0,-15.2487,-6.3901,43.0094,-1.5139,4.8204,0.3549
323771.0,-15.433,-5.035,46.6438,-0.0543,3.0447,0.1304
323781.0,-14.2024,-0.8308,41.209,1.5415,0.5981,-0.0064
323791.0,-12.287,3.1101,28.637,2.4775,-1.5059,0.0048
323801.0,-10.2352,5.3558,16.4051,2.2115,-2.5494,0.0367
323811.0,-8.849,5.8203,8.6383,0.9025,-2.6531,0.0245
323821.0,-7.6782,4.4365,6.2393,-0.853,-2.2876,-0.0394
323831.0,-7.1611,1.9513,7.8578,-2.2189,-1.7613,-0.1282
323841.0,-7.1012,-0.3304,11.0564,-2.7069,-1.3255,-0.2097
323851.0,-7.2832,-1.5227,13.5919,-2.3381,-1.1148,-0.2677
323861.0,-7.2616,-1.5299,14.6238,-1.4415,-1.1158,-0.29
323871.0,-7.0366,-0.5746,13.7786,-0.3347,-1.1728,-0.2618
323881.0,-6.7708,0.4046,12.0716,0.5257,-1.2127,-0.2102
323891.0,-6.4141,1.0798,10.5919,0.8711,-1.2382,-0.1692
323901.0,-6.177,1.1037,10.2544,0.7567,-1.2829,-0.1639
323911.0,-6.1794,0.7781,10.3597,0.447,-1.4032,-0.199
323921.0,-6.0406,-0.1221,10.7476,0.1469,-1.5958,-0.2634
323931.0,-5.6838,-0.7302,10.4459,0.0176,-1.8246,-0.3704
323941.0,-5.5426,-0.6967,9.73,-0.0005,-2.0007,-0.513
323951.0,-5.3726,-0.4094,8.849,-0.0223,-2.1449,-0.6556
323961.0,-5.0302,0.0215,7.9368,-0.0436,-2.2311,-0.7859
323971.0,-4.8698,0.395,7.4939,-0.0937,-2.2226,-0.8998
323981.0,-4.7597,0.3567,7.92,-0.1772,-2.1827,-0.9871
323991.0,-4.8028,0.4286,8.5066,-0.19,-2.1705,-1.0648
324001.0,-4.774,0.7949,8.8226,-0.1501,-2.2716,-1.1307
324011.0,-4.6304,1.4054,8.2049,-0.0484,-2.453,-1.1611
324021.0,-4.2186,1.8172,6.8019,0.0968,-2.6031,-1.1408
324031.0,-3.7086,2.0758,5.035,0.2363,-2.6031,-1.0887
324041.0,-3.4261,2.3152,3.7278,0.2559,-2.4568,-1.0312
324051.0,-2.8922,2.2027,3.2178,0.1187,-2.2386,-0.9743
324061.0,-2.3296,1.6975,3.6488,-0.125,-2.0178,-0.9466
324071.0,-1.81,1.008,4.525,-0.3826,-1.8943,-0.9849
324081.0,-1.2953,0.4453,5.0015,-0.4619,-1.8262,-1.0562
324091.0,-0.9888,0.3926,5.1619,-0.3097,-1.7091,-1.1361
324101.0,-0.9816,1.2402,4.9392,-0.0122,-1.558,-1.1988
324111.0,-1.0104,2.7246,4.1946,0.2969,-1.3739,-1.1941
324121.0,-0.8595,4.0031,3.5865,0.4475,-1.1664,-1.0988
324131.0,-0.4334,4.0007,3.6919,0.4374,-0.9227,-0.9216
324141.0,-0.1676,3.0574,4.5131,0.4417,-0.6295,-0.7354
324151.0,-0.1413,1.7933,5.8586,0.5172,-0.3682,-0.6029
324161.0,-0.1101,1.0391,7.0461,0.6428,-0.2559,-0.5529
324171.0,-0.2322,1.0439,7.75,0.8556,-0.2762,-0.5603
324181.0,-0.2442,1.9656,6.8402,1.1632,-0.3241,-0.5534
324191.0,-0.1556,3.0694,5.2768,1.3319,-0.2953,-0.514
324201.0,-0.0886,3.9935,3.7182,1.2334,-0.1623,-0.4454
324211.0,-0.1748,4.5586,2.9042,0.8668,0.0452,-0.3677
324221.0,-0.3567,4.5083,3.0765,0.4017,0.3129,-0.2655
324231.0,-0.4046,3.4429,4.3742,0.0543,0.6194,-0.1341
324241.0,-0.6728,2.4948,5.5809,-0.0202,0.8546,-0.033
324251.0,-0.7183,2.0518,5.9759,0.1235,0.9977,0.0357
324261.0,-0.747,2.0494,5.7102,0.357,1.1297,0.0883
324271.0,-0.8332,2.2721,4.9991,0.571,1.3159,0.1325
324281.0,-0.9792,2.4876,4.379,0.6396,1.5426,0.1618
324291.0,-1.4341,2.6695,3.9337,0.4816,1.7544,0.1708
324301.0,-1.6328,2.2314,4.3551,0.1346,1.9427,0.1724
324311.0,-1.9537,1.5897,5.1571,-0.1937,2.1045,0.1666
324321.0,-2.2793,1.1037,5.9137,-0.4129,2.1806,0.1511
324331.0,-2.5929,1.0367,6.0621,-0.4092,2.2024,0.1501
324341.0,-2.9592,1.324,4.8842,-0.2043,2.2514,0.1772
324351.0,-3.0622,1.8244,2.7629,-0.0202,2.4323,0.2043
324361.0,-3.8355,3.0023,0.984,-0.0942,2.8101,0.2027
324371.0,-4.8507,4.9584,0.0982,-0.5289,3.2454,0.2086
324381.0,-6.5793,7.1611,-0.2251,-1.2244,3.6641,0.3118
324391.0,-8.7364,8.0756,0.419,-2.0194,4.0802,0.6167
324401.0,-9.5744,3.984,4.7381,-2.544,4.7002,1.1371
324411.0,-10.6949,-1.573,11.6669,-2.2285,5.361,1.5447
324421.0,-11.406,-5.4181,18.1169,-1.0924,5.6063,1.6208
324431.0,-11.6909,-6.766,22.7234,0.4246,5.3664,1.4128
324441.0,-11.3629,-5.6,24.9572,1.8278,4.6879,1.0328
324451.0,-11.0181,-2.6552,23.863,2.8058,3.762,0.589
324461.0,-10.8745,1.5155,20.4872,2.9697,2.8372,0.1591
324471.0,-10.8888,5.0422,17.5567,2.0598,2.0066,-0.1729
324481.0,-10.7739,6.8666,16.2327,0.5295,1.3388,-0.3555
324491.0,-10.726,6.766,16.8384,-0.8849,0.8897,-0.3805
324501.0,-10.896,5.5617,18.2295,-1.6448,0.6002,-0.2655
324511.0,-10.7548,3.2226,19.9533,-1.6905,0.34,-0.0766
324521.0,-10.5058,1.7669,20.2286,-1.1712,0.0239,0.0681
324531.0,-10.0509,1.6113,19.0531,-0.4986,-0.3464,0.1442
324541.0,-9.2584,2.0303,16.9773,0.0053,-0.6721,0.1846
324551.0,-8.6742,2.1691,15.2271,0.1878,-0.8679,0.2043
324561.0,-8.2408,1.9297,14.3987,0.0921,-1.0185,0.1862
324571.0,-8.0206,1.5826,13.8744,-0.1697,-1.2223,0.1277
324581.0,-7.6447,1.245,13.374,-0.4486,-1.466,0.041
324591.0,-7.3358,1.0247,12.718,-0.6465,-1.6905,-0.0516
324601.0,-7.015,0.9433,11.7747,-0.7646,-1.8693,-0.1373
324611.0,-6.8067,1.0726,10.8362,-0.8556,-1.9976,-0.2128
324621.0,-6.4572,1.3168,9.7683,-0.9445,-2.0955,-0.2714
324631.0,-6.1746,1.5155,8.9304,-1.0621,-2.1316,-0.3145
324641.0,-5.8562,1.4389,8.497,-1.1802,-2.113,-0.3437
324651.0,-5.7628,1.2139,8.4898,-1.2249,-2.0949,-0.3698
324661.0,-5.7006,0.9673,8.3103,-1.1132,-2.0838,-0.3826
324671.0,-5.2481,0.5411,8.0325,-0.8631,-2.0396,-0.3847
324681.0,-5.0637,0.3136,7.6279,-0.5406,-1.9635,-0.4065
324691.0,-4.9081,0.2514,7.2137,-0.2629,-1.8656,-0.4422
324701.0,-4.7405,0.0168,7.2329,-0.1011,-1.7735,-0.4986
324711.0,-4.8195,0.3424,7.2209,-0.0341,-1.7384,-0.5875
324721.0,-4.7549,1.0534,7.039,-0.0926,-1.7735,-0.6715
324731.0,-4.5131,1.403,7.0222,-0.2155,-1.8209,-0.7162
324741.0,-4.3479,1.7789,7.1323,-0.2549,-1.79,-0.7247
324751.0,-4.4269,2.138,7.6686,-0.2357,-1.7209,-0.7013
324761.0,-4.604,2.138,8.3558,-0.2065,-1.7491,-0.6407
324771.0,-4.3694,1.9537,7.999,-0.1022,-1.8943,-0.5667
324781.0,-3.8164,1.5203,6.9001,0.0144,-2.0023,-0.5039
324791.0,-3.2729,1.0223,5.679,0.0527,-1.9874,-0.4837
324801.0,-2.9497,0.6943,5.047,-0.0192,-1.8619,-0.514
324811.0,-2.7653,0.9625,4.786,-0.1809,-1.7262,-0.5837
324821.0,-2.466,1.4102,4.9009,-0.3815,-1.607,-0.6486
324831.0,-2.3272,1.8914,5.3678,-0.4938,-1.4601,-0.663
324841.0,-2.1189,2.217,5.9783,-0.4778,-1.3234,-0.6247
324851.0,-2.0925,2.5283,6.5553,-0.3581,-1.2505,-0.5475
324861.0,-2.0351,2.9185,6.3422,-0.1442,-1.2201,-0.4289
324871.0,-1.7789,2.9473,5.6719,0.0527,-1.1829,-0.2751
324881.0,-1.5203,2.9066,4.5921,0.1447,-1.1169,-0.132
324891.0,-1.0678,2.2601,4.3981,0.1187,-0.9381,-0.0074
324901.0,-1.063,1.8052,4.4125,0.1133,-0.7061,0.0772
324911.0,-1.0894,1.4078,4.8339,0.1336,-0.4986,0.1293
324921.0,-0.9218,1.415,4.6448,0.2235,-0.3272,0.1644
324931.0,-0.8188,1.7095,4.2784,0.298,-0.1325,0.1942
324941.0,-0.656,1.7837,4.3574,0.3193,0.1421,0.2416
324951.0,-0.8068,1.6137,5.3558,0.3006,0.4677,0.2932
324961.0,-0.8739,1.0415,7.0916,0.2911,0.7168,0.3379
324971.0,-1.2186,0.577,8.7987,0.3406,0.8056,0.3523
324981.0,-1.5323,0.3089,9.5026,0.4518,0.7035,0.3448
324991.0,-1.3958,-0.4214,9.0549,0.5667,0.5193,0.3299
325001.0,-1.1492,-0.6009,7.3741,0.6912,0.415,0.2613
325011.0,-1.0391,-0.431,5.8203,0.6715,0.5103,0.1501
325021.0,-1.1325,-0.0575,5.5402,0.4608,0.8003,0.0202
325031.0,-1.5754,0.5028,7.2042,0.1676,1.1573,-0.0995
325041.0,-2.2505,1.2617,9.5672,-0.0293,1.3681,-0.1666
325051.0,-2.4493,1.6568,11.5831,-0.1128,1.3218,-0.1719
325061.0,-2.7581,2.2194,12.5121,-0.0937,1.0685,-0.1426
325071.0,-2.7821,2.6049,12.0907,0.0043,0.6822,-0.0628
325081.0,-2.3439,2.9688,9.9,0.2565,0.339,0.0628
325091.0,-2.2266,3.5338,6.2297,0.5688,0.2214,0.215
325101.0,-1.7526,2.8683,2.3056,0.7029,0.3629,0.3746
325111.0,-1.5538,2.9329,-1.2785,0.5805,0.8498,0.4289
325121.0,-2.0111,3.9816,-3.1029,-0.0069,1.4968,0.3943
325131.0,-3.2394,5.4684,-3.6775,-0.8711,2.105,0.3959
325141.0,-4.6519,6.7253,-3.9217,-1.7352,2.6058,0.5332
325151.0,-5.849,5.8395,-3.3327,-2.2764,3.1544,0.8817
325161.0,-7.2999,4.0127,-2.2841,-1.9976,4.0813,1.3191
325171.0,-9.9862,2.6312,0.1508,-1.3952,5.0913,1.6719
325181.0,-11.5257,-1.1708,5.3271,-0.7827,5.8958,1.9513
325191.0,-12.0572,-4.9656,10.8386,0.1208,6.4731,1.9725
325201.0,-12.6605,-6.0861,17.1233,1.0158,6.7456,1.6224
325211.0,-12.9431,-5.0542,24.0498,1.6873,6.496,1.1132
325221.0,-13.6422,-2.557,29.5397,2.1982,5.6367,0.6306
325231.0,-13.7284,0.8763,30.9163,2.362,4.0744,0.2469
325241.0,-12.8856,3.8834,27.5477,1.9938,2.1705,0.0149
325251.0,-11.7076,5.679,21.6244,1.2031,0.6316,-0.0782
325261.0,-10.8194,5.4636,16.6708,0.1559,-0.248,-0.0825
325271.0,-10.2208,3.6057,13.7379,-0.8088,-0.6082,-0.0617
325281.0,-9.6151,1.5395,12.7012,-1.4112,-0.6433,-0.0756
325291.0,-9.256,0.0646,12.7515,-1.5469,-0.5598,-0.1325
325301.0,-8.8633,-0.2801,13.0891,-1.2813,-0.4629,-0.1979
325311.0,-8.6646,-0.0455,13.5368,-0.7716,-0.4135,-0.2208
325321.0,-8.1666,0.1006,13.0963,-0.1038,-0.4496,-0.1841
325331.0,-7.7596,0.6345,11.655,0.4784,-0.5018,-0.1447
325341.0,-7.2042,1.0534,10.41,0.712,-0.5401,-0.1266
325351.0,-7.1108,1.2139,9.7588,0.6449,-0.5672,-0.1336
325361.0,-7.0318,0.9912,9.2368,0.4395,-0.5933,-0.1554
325371.0,-7.003,0.2969,9.4595,0.1447,-0.6444,-0.2065
325381.0,-6.8953,-0.4214,9.7803,-0.0239,-0.6806,-0.2863
325391.0,-6.9743,-0.8452,10.343,-0.0218,-0.6721,-0.3842
325401.0,-7.0629,-0.7398,10.9654,0.0846,-0.6582,-0.4901
325411.0,-7.4867,0.012,11.655,0.1373,-0.721,-0.5986
325421.0,-7.7093,0.7638,11.8561,0.0591,-0.969,-0.6758
325431.0,-7.5489,1.2163,11.2863,-0.0383,-1.2819,-0.7093
325441.0,-7.3215,1.3838,10.0317,-0.099,-1.4889,-0.7098
325451.0,-7.0629,1.1133,9.0285,-0.2065,-1.5777,-0.712
325461.0,-6.9001,0.917,8.3199,-0.3288,-1.5761,-0.7434
325471.0,-6.7636,0.8571,8.3175,-0.473,-1.5112,-0.795
325481.0,-6.9671,1.2594,8.8178,-0.5768,-1.4202,-0.8514
325491.0,-7.0725,1.2977,9.8976,-0.671,-1.4149,-0.8743
325501.0,-6.7924,1.1325,10.5656,-0.6242,-1.5176,-0.8652
325511.0,-6.6415,1.3455,10.6686,-0.4315,-1.6192,-0.8524
325521.0,-6.4835,1.6592,10.501,-0.2389,-1.7097,-0.8253
325531.0,-6.4572,2.059,10.2735,-0.107,-1.8102,-0.7913
325541.0,-6.3566,2.4134,9.7564,-0.0601,-1.9364,-0.7455
325551.0,-6.1292,2.5498,9.177,-0.0931,-2.0603,-0.6912
325561.0,-5.8059,2.4397,8.6048,-0.1458,-2.1269,-0.638
325571.0,-5.6072,2.3894,7.9775,-0.2283,-2.1386,-0.5944
325581.0,-5.2553,1.9704,7.7117,-0.4049,-2.1492,-0.5593
325591.0,-4.7429,1.2091,7.829,-0.5497,-2.1274,-0.5385
325601.0,-4.5562,0.9433,8.1139,-0.5422,-2.0598,-0.5555
325611.0,-4.5777,0.9409,8.3103,-0.4587,-2.0396,-0.5763
325621.0,-4.379,0.7901,8.2049,-0.3171,-2.0614,-0.5773
325631.0,-4.0055,0.6919,7.7045,-0.1336,-2.0678,-0.5795
325641.0,-3.6344,0.7302,7.0509,0.0112,-2.0359,-0.6008
325651.0,-3.2681,1.2785,6.3925,0.0564,-1.9693,-0.6369
325661.0,-3.0167,1.9968,6.1028,-0.0388,-1.8688,-0.6572
325671.0,-2.9137,2.5594,6.2058,-0.2214,-1.7895,-0.6369
325681.0,-2.9113,2.6767,6.3327,-0.4214,-1.7592,-0.5816
325691.0,-2.7414,2.2601,6.2225,-0.5513,-1.7629,-0.5076
325701.0,-2.3367,1.3001,5.5809,-0.5773,-1.7315,-0.4427
325711.0,-1.7526,0.0575,5.3295,-0.5603,-1.5878,-0.4321
325721.0,-1.5131,-0.5435,5.5354,-0.5316,-1.3963,-0.5103
325731.0,-1.4461,-0.0168,6.0334,-0.4922,-1.2505,-0.6306
325741.0,-1.4245,1.0487,6.6535,-0.3863,-1.1313,-0.7056
325751.0,-1.4988,2.1859,7.0797,-0.2155,-1.0546,-0.6923
325761.0,-1.5874,3.2322,6.845,-0.0952,-1.0871,-0.6013
325771.0,-1.5706,3.8259,6.1052,-0.0931,-1.1563,-0.455
325781.0,-1.3144,3.62,5.0757,-0.1772,-1.185,-0.2788
325791.0,-1.0247,2.8323,4.0773,-0.3076,-1.1339,-0.125
325801.0,-0.8045,1.9704,3.4357,-0.4337,-0.9732,-0.0186
325811.0,-0.5195,1.1492,3.3686,-0.5263,-0.754,0.0426
325821.0,-0.2729,0.7877,3.541,-0.4768,-0.5146,0.0724
325831.0,-0.1532,1.1396,3.1436,-0.2325,-0.2474,0.1075
325841.0,0.0934,1.585,2.2458,-0.0463,0.0096,0.1666
325851.0,0.4262,1.8483,1.2833,-0.0527,0.2905,0.2336
325861.0,0.3735,1.901,0.8715,-0.2458,0.6188,0.2911
325871.0,-0.0048,1.8435,0.6847,-0.5475,0.8876,0.3469
325881.0,-0.1389,1.4892,-0.0263,-0.8163,1.0275,0.4156
325891.0,-0.4405,1.2139,-1.5275,-0.7944,1.2201,0.5199
325901.0,-0.8787,1.4293,-3.893,-0.2708,1.6863,0.6715
325911.0,-1.1995,1.798,-7.1347,0.6109,2.5126,0.854
325921.0,-3.122,2.9568,-9.9527,1.3792,3.7168,0.9865
325931.0,-5.8395,3.6583,-10.2424,1.4825,5.0194,1.1015
325941.0,-8.0565,1.9896,-6.6295,1.0264,6.2864,1.2217
325951.0,-10.9343,0.6488,0.1556,0.5252,7.3756,1.1919
325961.0,-13.6015,0.8811,8.7771,0.2171,7.9099,1.0536
325971.0,-14.5855,1.7621,16.8025,0.3129,7.7454,0.9833
325981.0,-14.3796,3.0071,22.6444,0.8966,7.1085,1.0477
325991.0,-13.702,3.5937,26.0872,1.7624,6.1906,1.2244
326001.0,-12.7491,3.4189,26.2333,2.5712,5.1338,1.3931
326011.0,-12.4882,3.9002,23.9636,2.6217,3.9174,1.3723
326021.0,-11.9447,3.8259,21.1552,1.7661,2.6435,1.2329
326031.0,-11.0085,1.8914,18.7729,0.6848,1.6453,1.0754
326041.0,-10.24,-0.0838,16.4841,-0.05,1.069,0.8695
326051.0,-9.7779,-1.2426,15.1074,-0.4837,0.7662,0.6039
326061.0,-9.3757,-1.3862,14.2048,-0.6029,0.6029,0.3347
326071.0,-9.2296,-0.5171,13.3549,-0.3863,0.5465,0.1139
326081.0,-8.9088,0.4621,12.038,0.0133,0.5901,-0.0176
326091.0,-8.6622,1.3767,11.3988,0.2985,0.705,-0.0984
326101.0,-8.6239,2.3511,11.7579,0.3895,0.821,-0.1479
326111.0,-8.6766,2.7581,12.9024,0.3709,0.845,-0.1442
326121.0,-8.5736,2.909,13.7619,0.3528,0.7205,-0.1123
326131.0,-8.5952,3.0239,14.2072,0.2581,0.473,-0.0825
326141.0,-8.5234,2.727,14.3508,0.0756,0.1117,-0.05
326151.0,-8.2241,2.2625,13.6565,-0.0362,-0.2634,-0.0218
326161.0,-7.9248,1.9632,12.3637,-0.0718,-0.5481,-0.0144
326171.0,-7.8793,1.7669,11.1211,-0.107,-0.7088,-0.0208
326181.0,-7.6255,1.47,10.4459,-0.1075,-0.7551,-0.0255
326191.0,-7.4843,1.3431,10.137,-0.0144,-0.7008,-0.0325
326201.0,-7.5753,1.4653,10.2017,0.0873,-0.6247,-0.0426
326211.0,-7.4723,1.6879,10.4052,0.0905,-0.6359,-0.0521
326221.0,-7.4771,1.8387,10.75,0.0197,-0.7199,-0.0623
326231.0,-7.434,1.901,10.4411,-0.0734,-0.8854,-0.0649
326241.0,-7.185,1.4341,9.9168,-0.2065,-1.0685,-0.0702
326251.0,-7.0366,1.1372,9.2009,-0.2778,-1.1669,-0.0963
326261.0,-6.924,0.9744,8.6933,-0.2687,-1.1691,-0.1288
326271.0,-7.0773,0.8691,8.5018,-0.2006,-1.1121,-0.1634
326281.0,-7.2113,0.9888,8.2337,-0.1235,-1.0552,-0.2033
326291.0,-7.185,1.2115,8.2696,-0.1213,-1.0052,-0.249
326301.0,-7.2592,1.6041,8.7221,-0.1681,-0.9615,-0.2969
326311.0,-7.3789,2.1739,9.2392,-0.2251,-0.9605,-0.3267
326321.0,-7.5393,2.5355,9.8833,-0.3049,-1.0286,-0.323
326331.0,-7.4005,2.5402,9.9431,-0.3688,-1.1861,-0.29
326341.0,-7.3239,2.399,9.7133,-0.4241,-1.3473,-0.2581
326351.0,-7.118,1.9082,9.73,-0.4645,-1.4378,-0.2299
326361.0,-7.1227,1.3264,10.6135,-0.4097,-1.4591,-0.215
326371.0,-7.2999,1.233,11.2958,-0.1995,-1.5155,-0.2171
326381.0,-7.4268,1.4269,11.6095,0.017,-1.6927,-0.2272
326391.0,-7.2353,1.9034,10.9128,0.158,-1.9912,-0.2368
326401.0,-6.7157,2.2721,9.1913,0.1692,-2.2711,-0.2309
326411.0,-6.177,2.4828,7.6758,0.0271,-2.3982,-0.2214
326421.0,-5.6958,2.6743,6.6224,-0.2187,-2.3711,-0.2118
326431.0,-5.442,2.5594,7.0581,-0.4938,-2.2407,-0.1884
326441.0,-5.4947,2.2458,8.327,-0.6119,-2.1242,-0.1532
326451.0,-5.5593,1.6879,9.3661,-0.5247,-2.1242,-0.0995
326461.0,-5.2672,0.7805,9.6869,-0.2921,-2.2551,-0.0511
326471.0,-4.8602,0.6321,8.7245,0.0303,-2.4206,-0.0537
326481.0,-4.3574,1.1756,6.9216,0.2666,-2.5153,-0.0809
326491.0,-3.7661,1.9489,5.3534,0.3171,-2.4653,-0.1006
326501.0,-3.3591,2.8108,4.5729,0.1841,-2.2934,-0.1054
326511.0,-3.0718,3.3279,4.7525,-0.0623,-2.1034,-0.074
326521.0,-2.8204,3.2106,5.6743,-0.2336,-1.9342,0.0037
326531.0,-2.8323,2.7869,6.5218,-0.2187,-1.8283,0.1043
326541.0,-2.6432,2.308,6.2058,-0.1059,-1.8549,0.1948
326551.0,-2.2266,2.0087,4.8291,-0.0495,-1.9177,0.2512
326561.0,-1.549,1.7573,3.2561,-0.0857,-1.8512,0.2756
326571.0,-0.996,1.4389,2.5379,-0.1532,-1.5665,0.2746
326581.0,-0.9098,1.4605,2.7797,-0.2134,-1.1653,0.2528
326591.0,-0.9601,1.2713,4.4819,-0.249,-0.7843,0.2373
326601.0,-1.3815,1.4006,6.2297,-0.1139,-0.5401,0.2363
326611.0,-1.5538,1.652,7.1108,0.1144,-0.5098,0.2554
326621.0,-1.4102,1.7885,6.4931,0.3272,-0.6008,0.2964
326631.0,-1.0534,1.5969,4.8219,0.3975,-0.6651,0.3251
326641.0,-0.4405,1.1803,3.0191,0.2767,-0.6061,0.3076
326651.0,-0.0646,1.2522,1.7238,0.1032,-0.3384,0.2496
326661.0,0.1125,1.3096,1.5131,-0.0851,0.0591,0.1905
326671.0,0.0527,1.3575,1.9752,-0.2001,0.4688,0.1527
326681.0,-0.3519,2.0183,2.4876,-0.1942,0.837,0.1288
326691.0,-0.8188,2.6312,2.5187,-0.2086,1.0594,0.1485
326701.0,-1.1492,3.2274,1.2594,-0.2969,1.1855,0.2043
326711.0,-1.142,2.988,0.2562,-0.5146,1.3196,0.3001
326721.0,-1.1157,2.9042,-1.5155,-0.505,1.6006,0.4172
326731.0,-1.8076,3.5338,-3.5841,-0.2916,2.0864,0.5417
326741.0,-2.739,4.2138,-5.7652,-0.0607,2.659,0.7114
326751.0,-3.9025,4.1252,-7.9057,0.1548,3.4268,0.9355
326761.0,-5.533,3.134,-8.8083,0.2512,4.4304,1.1526
326771.0,-7.5346,0.577,-6.7014,0.1756,5.6,1.301
326781.0,-9.8306,-2.1069,-1.5682,0.0788,6.6456,1.2797
326791.0,-12.1123,-4.0869,5.6982,0.1985,7.2995,1.0935
326801.0,-13.4458,-5.6743,12.2416,0.7364,7.4155,0.8046
326811.0,-13.872,-5.9807,16.5751,1.5894,7.1255,0.3916
326821.0,-14.5089,-3.4046,18.6173,2.2482,6.5891,-0.1564
326831.0,-15.366,1.2665,20.5303,2.2258,5.8873,-0.688
326841.0,-16.4051,6.7588,22.1464,1.5745,5.0082,-1.0025
326851.0,-16.8456,10.2496,24.4496,0.3991,3.8913,-0.9908
326861.0,-16.7929,10.6087,26.1567,-0.6258,2.6733,-0.6726
326871.0,-16.283,8.1139,25.9124,-1.0493,1.4915,-0.2054
326881.0,-15.4857,5.1427,23.4464,-0.8727,0.5071,0.2038
326891.0,-14.3915,3.3112,19.6277,-0.331,-0.1091,0.4768
326901.0,-13.1657,2.0063,16.35,0.249,-0.3187,0.6364
326921.0,-11.5544,0.4405,14.4011,1.3377,0.0468,0.7221
326931.0,-11.1713,0.6776,14.5639,1.7427,0.1421,0.6806
326941.0,-10.9104,0.905,14.2742,1.9209,0.0048,0.6353
326951.0,-10.2376,0.5459,13.3165,1.8821,-0.2629,0.5832
326961.0,-9.6917,-0.0335,12.1841,1.7315,-0.4571,0.4858
326971.0,-9.3446,-0.4453,11.4036,1.5117,-0.5475,0.332
326981.0,-9.3182,-0.4453,11.1833,1.2866,-0.5992,0.1501
326991.0,-9.2895,-0.2466,11.0852,1.1291,-0.6598,-0.0261
327001.0,-9.2033,0.3998,11.1522,1.036,-0.6933,-0.191
327011.0,-9.4715,1.6089,11.5879,0.9637,-0.7114,-0.3272
327021.0,-9.6438,2.818,12.038,0.8647,-0.8439,-0.3959
327031.0,-9.7971,3.8164,12.1242,0.7833,-1.0174,-0.3991
327041.0,-10.0389,4.7046,11.6334,0.6353,-1.2137,-0.357
327051.0,-9.6917,4.3886,11.7483,0.3512,-1.4064,-0.2788
327061.0,-9.5433,3.8188,11.7076,0.1474,-1.5325,-0.2123
327071.0,-9.3446,3.0957,12.1697,-0.0612,-1.6267,-0.1958
327081.0,-9.3182,2.3918,12.8545,-0.2863,-1.7586,-0.2389
327091.0,-9.5696,2.2817,13.6398,-0.5422,-1.9789,-0.3555
327101.0,-9.9072,2.4325,14.1928,-0.8466,-2.3732,-0.4997
327111.0,-9.7803,2.3391,13.8696,-1.0062,-2.8298,-0.613
327121.0,-9.5313,2.1237,12.6869,-0.9535,-3.1395,-0.7013
327131.0,-9.177,2.229,11.5975,-0.8562,-3.2975,-0.7992
327141.0,-8.9711,3.146,10.7571,-0.7966,-3.3672,-0.8918
327151.0,-8.9256,4.0414,10.3453,-0.8423,-3.4364,-0.9371
327161.0,-8.8155,4.4796,9.7588,-0.9317,-3.5582,-0.9253
327171.0,-8.4276,4.4436,8.8178,-1.0653,-3.6817,-0.8918
327181.0,-8.1379,3.9241,8.0996,-1.2675,-3.7604,-0.8695
327191.0,-7.6088,3.1819,7.5824,-1.4197,-3.7663,-0.8705
327201.0,-6.9025,2.2793,7.3023,-1.4473,-3.6817,-0.8934
327211.0,-6.2776,1.3408,7.4747,-1.3713,-3.5252,-0.9488
327221.0,-6.0071,0.9385,7.9535,-1.2648,-3.389,-1.0499
327231.0,-5.9233,1.1229,8.497,-1.1499,-3.3401,-1.177
327241.0,-6.0813,2.071,8.351,-1.0062,-3.3981,-1.2882
327251.0,-5.7341,3.0885,7.331,-0.8892,-3.4896,-1.3313
327261.0,-5.2936,3.6727,6.3398,-0.8237,-3.4555,-1.3015
327271.0,-4.6017,3.814,5.7437,-0.8003,-3.2805,-1.2271
327281.0,-4.1492,3.6703,6.2369,-0.8402,-3.0336,-1.1499
327291.0,-3.9121,3.5027,7.2688,-0.8838,-2.8585,-1.0786
327301.0,-3.644,3.3184,7.9823,-0.9152,-2.8644,-1.0174
327311.0,-2.9544,3.1316,7.8889,-0.8955,-2.9559,-0.9535
327321.0,-2.3774,2.9951,7.616,-0.8338,-2.9649,-0.8955
327331.0,-2.1284,2.9928,7.4962,-0.7551,-2.8926,-0.8423
327341.0,-2.0758,2.8563,7.7357,-0.7162,-2.8574,-0.7944
327351.0,-2.071,2.7916,7.2544,-0.721,-2.9591,-0.7604
327361.0,-1.6137,2.8252,5.9759,-0.7854,-3.1214,-0.7529
327371.0,-1.0295,3.1149,4.0654,-0.837,-3.131,-0.7508
327381.0,-0.395,3.6129,2.648,-0.9222,-2.9415,-0.7418
327391.0,0.0958,4.1755,2.0806,-1.0179,-2.6111,-0.7024
327401.0,0.4621,4.6088,2.2577,-1.0791,-2.2296,-0.6204
327411.0,0.8068,4.6591,2.7605,-1.1025,-1.8879,-0.4943
327421.0,1.1636,4.2617,3.8044,-1.0605,-1.607,-0.3496
327431.0,1.3288,3.8307,4.8147,-0.8349,-1.3654,-0.199
327441.0,1.4389,3.2058,5.7844,-0.4842,-1.1877,-0.041
327451.0,1.7023,2.3631,6.3997,-0.0915,-1.1201,0.1011
327461.0,1.9345,1.81,6.1746,0.281,-1.1361,0.199
327471.0,2.3439,1.4269,5.296,0.5066,-1.2031,0.2453
327481.0,2.7749,1.1947,3.8762,0.5608,-1.2334,0.2458
327491.0,3.1891,0.9697,2.7102,0.4502,-1.1669,0.2054
327501.0,3.5267,0.8547,2.241,0.2506,-1.0142,0.1357
327511.0,3.4884,0.9625,2.5786,0.1341,-0.82,0.0713
327521.0,3.3782,1.3599,2.6528,0.2283,-0.6508,0.0426
327531.0,3.1053,2.2458,1.6927,0.389,-0.5678,0.0474
327541.0,3.0358,3.1819,-0.1676,0.4001,-0.5789,0.0841
327551.0,3.395,3.7972,-3.2322,0.2788,-0.5768,0.158
327561.0,4.8626,3.7924,-6.3279,0.1314,-0.3379,0.2453
327571.0,2.9544,4.6328,-9.9814,0.0064,0.2368,0.3416
327581.0,3.6392,4.7501,-11.9878,-0.248,0.9557,0.4629
327591.0,2.8204,5.0661,-12.1266,-0.1692,2.1444,0.6401
327601.0,0.7973,5.1571,-9.8857,0.0851,3.4641,0.8732
327611.0,-1.0127,4.4388,-5.8083,0.1745,4.4059,1.1148
327621.0,-2.6935,3.9337,-1.9992,0.3767,4.9864,1.3319
327631.0,-4.0701,3.3495,-0.067,0.6385,5.2317,1.5128
327641.0,-4.5777,2.0399,0.2059,0.8572,5.3924,1.6586
327651.0,-5.521,0.6608,1.0511,1.0658,5.8357,1.7129
327661.0,-7.1658,-0.0838,3.3399,1.1616,6.412,1.6474
327671.0,-8.8418,-0.735,7.5202,1.1164,6.818,1.5091
327681.0,-10.6518,-1.1899,11.5951,1.1829,7.0457,1.3516
327691.0,-9.8713,-2.6073,16.9174,1.2372,7.0856,1.1414
327701.0,-10.7907,-2.6312,21.7154,1.3127,6.9175,0.8359
327711.0,-11.4874,-2.4995,27.0545,1.0898,6.2103,0.4816
327721.0,-11.0253,-1.3192,29.3218,0.9392,5.0689,0.1596
327731.0,-11.0971,0.4214,28.7879,0.8434,3.9025,-0.0793
327741.0,-10.738,1.154,26.7408,0.5768,2.7931,-0.2059
327751.0,-9.9503,0.9744,24.6794,0.34,2.0369,-0.2607
327761.0,-9.7803,1.2594,23.6499,0.2746,1.7012,-0.3065
327771.0,-9.9431,2.3607,23.3052,0.2011,1.4324,-0.3421
327781.0,-9.8426,2.6671,23.7601,-0.016,0.9844,-0.3235
327791.0,-9.3182,2.7653,23.0155,-0.1043,0.448,-0.2613
327801.0,-8.8945,2.6073,21.5239,-0.1,-0.0335,-0.1889
327811.0,-8.4635,2.5259,19.508,-0.0979,-0.4188,-0.1314
327821.0,-8.0445,2.1907,17.7003,-0.1735,-0.7066,-0.0937
327831.0,-7.5537,1.8124,16.2255,-0.2528,-0.8711,-0.0756
327841.0,-7.1706,1.4772,15.4019,-0.306,-0.9519,-0.0793
327851.0,-6.8761,1.2426,14.9231,-0.3065,-1.0259,-0.0878
327861.0,-6.5218,1.3144,14.1641,-0.29,-1.1446,-0.1054
327871.0,-6.1148,1.5562,13.283,-0.323,-1.2984,-0.1261
327881.0,-5.7341,1.6999,12.0045,-0.4177,-1.4734,-0.1415
327891.0,-5.3582,1.7502,10.6686,-0.5422,-1.6049,-0.1522
327901.0,-5.0087,1.5682,9.5098,-0.6407,-1.6469,-0.1532
327911.0,-4.537,1.2354,8.4803,-0.6204,-1.566,-0.1421
327921.0,-4.2234,0.8068,8.1379,-0.513,-1.367,-0.1378
327931.0,-3.9863,0.6704,8.023,-0.3884,-1.1669,-0.1543
327941.0,-3.8834,0.7278,8.4324,-0.3517,-1.0296,-0.1937
327951.0,-3.7876,1.0151,8.8083,-0.3512,-0.9796,-0.2304
327961.0,-3.7733,1.3982,9.1411,-0.3555,-0.9727,-0.2512
327971.0,-3.7661,1.9034,9.2895,-0.3672,-0.9988,-0.2432
327981.0,-3.6655,2.1332,9.3374,-0.4284,-1.0605,-0.2086
327991.0,-3.6081,2.1835,9.3589,-0.48,-1.1121,-0.1575
328001.0,-3.3399,1.5754,9.8976,-0.522,-1.1079,-0.0958
328011.0,-3.2585,0.6345,11.0277,-0.5066,-1.0727,-0.0585
328021.0,-3.1963,0.1149,12.3182,-0.4864,-1.1946,-0.1054
328031.0,-3.5219,0.7422,12.0165,-0.4273,-1.532,-0.1963
328041.0,-3.3639,1.4078,10.7117,-0.356,-1.8395,-0.2309
328051.0,-2.9257,1.4629,9.4116,-0.2698,-1.9337,-0.1979
328061.0,-2.5953,1.0774,9.0932,-0.1783,-1.8145,-0.1511
328071.0,-2.6863,0.8332,9.5481,-0.1399,-1.6969,-0.1346
328081.0,-2.8802,0.7566,9.9838,-0.2033,-1.7634,-0.1426
328091.0,-2.5163,0.4956,10.161,-0.274,-1.9342,-0.1447
328101.0,-2.3894,0.2921,10.0413,-0.2341,-2.0438,-0.1447
328111.0,-2.2817,0.2897,9.6151,-0.125,-2.1327,-0.1421
328121.0,-2.0734,0.3041,8.9711,-0.0388,-2.2189,-0.1378
328131.0,-1.8579,0.6967,7.8482,0.0266,-2.2955,-0.1373
328141.0,-1.3288,0.8595,6.6894,0.0357,-2.2923,-0.1187
328151.0,-0.9409,0.7901,6.0094,0.0346,-2.1577,-0.0867
328161.0,-0.3519,0.316,6.2273,0.0447,-1.9481,-0.0559
328171.0,-0.3232,-0.0335,7.2951,0.1261,-1.7139,-0.0415
328181.0,-0.4549,0.1221,7.999,0.2331,-1.6639,-0.0479
328191.0,-0.2298,0.1891,7.6878,0.2783,-1.839,-0.049
328201.0,0.5195,0.1772,5.7485,0.3363,-2.0151,-0.0388
328211.0,1.3767,0.1077,3.6344,0.3528,-1.9571,-0.0447
328221.0,1.9201,-0.1508,2.6911,0.3235,-1.5905,-0.0623
328231.0,1.9752,-0.3448,3.1173,0.2033,-1.1919,-0.1155
328241.0,1.9968,-0.1365,4.2641,0.0777,-0.9243,-0.1905
328251.0,1.7957,0.5507,5.1092,0.0724,-0.7737,-0.2421
328261.0,1.7166,1.3336,4.9991,0.1277,-0.7466,-0.2458
328271.0,2.0925,1.6161,3.6392,0.0968,-0.8019,-0.2022
328281.0,2.4948,1.3384,2.4062,0.0372,-0.7178,-0.1607
328291.0,2.7126,1.7933,0.9409,0.0995,-0.3837,-0.1325
328301.0,2.6193,1.7047,0.9673,0.0553,0.0213,-0.091
328311.0,2.648,1.4198,1.4437,0.1378,0.4188,-0.0346
328321.0,2.3248,1.561,1.9058,0.3512,0.7918,0.0106
328331.0,1.7334,2.0853,1.7717,0.5284,1.0084,0.05
328341.0,1.2977,2.6217,0.6752,0.5497,1.0685,0.0905
328351.0,1.0822,3.201,-2.6264,0.3741,1.0765,0.1293
328361.0,1.142,2.8228,-5.94,-0.1208,1.235,0.1607
328371.0,0.8859,2.308,-8.3175,-0.5039,1.8565,0.2022
328381.0,-0.2801,1.9297,-8.5281,-0.5513,2.8878,0.2703
328391.0,-2.3272,1.719,-7.0725,-0.2341,4.0648,0.3698
328401.0,-4.7525,2.0135,-5.6048,0.2559,5.1195,0.4826
328411.0,-6.8809,1.6161,-3.8642,0.5726,5.9772,0.5827
328421.0,-9.0956,0.893,-1.221,0.7646,6.8664,0.6252
328431.0,-11.6693,-0.0718,3.1388,0.7295,7.6401,0.5699
328441.0,-14.3796,-1.0223,9.7276,0.5704,8.0684,0.4257
328451.0,-14.3173,-1.3455,15.6006,0.6923,8.0849,0.2357
328461.0,-15.1314,-0.3855,21.8303,1.003,7.9295,0.016
328471.0,-15.1505,1.4557,28.6155,1.2861,7.4576,-0.19
328481.0,-15.7323,4.3742,33.4422,1.1595,6.2954,-0.3592
328491.0,-14.868,5.5569,35.4222,0.4528,4.4006,-0.4209
328501.0,-13.5248,5.2816,33.2555,-0.3001,2.4057,-0.3778
328511.0,-11.8824,3.96,28.8669,-0.7859,0.8663,-0.2873
328521.0,-10.9487,2.3463,23.8654,-0.9482,-0.0878,-0.2176
328531.0,-10.082,1.415,18.4713,-0.8977,-0.6204,-0.199
328541.0,-9.2296,0.9026,14.1018,-0.8125,-0.7189,-0.2246
328551.0,-8.7197,0.8404,11.4922,-0.6667,-0.3698,-0.2639
328561.0,-8.7364,1.1588,11.7029,-0.5209,0.2192,-0.2996
328571.0,-9.1626,1.822,14.3293,-0.4156,0.7013,-0.3139
328581.0,-9.5409,2.4804,17.4729,-0.2953,0.812,-0.2767
328591.0,-9.5217,2.6671,19.824,-0.1995,0.5098,-0.1905
328601.0,-9.2751,2.624,20.5686,-0.1107,-0.067,-0.0851
328611.0,-8.8609,2.3128,19.5295,-0.0692,-0.7471,0.0138
328621.0,-8.2217,1.719,17.2215,-0.1479,-1.3984,0.0772
328631.0,-7.4412,1.1205,14.5615,-0.2794,-1.8523,0.0942
328641.0,-6.9073,0.4788,12.2272,-0.4166,-2.0731,0.0686
328651.0,-6.5266,0.1796,10.5105,-0.547,-2.138,0.0085
328661.0,-6.1507,0.1437,9.4188,-0.6194,-2.0928,-0.058
328671.0,-5.8035,0.1269,8.7293,-0.6215,-1.9944,-0.1059
328681.0,-5.375,0.1365,8.2361,-0.5646,-1.8608,-0.1389
328691.0,-5.0757,0.1293,8.1642,-0.4981,-1.7022,-0.1644
328701.0,-4.8602,0.0383,8.406,-0.4432,-1.5681,-0.1852
328711.0,-4.7573,-0.0694,8.7604,-0.4161,-1.492,-0.2123
328721.0,-4.5801,-0.2274,9.0309,-0.4113,-1.4936,-0.249
328731.0,-4.4029,-0.2274,8.9878,-0.3932,-1.5282,-0.2959
328741.0,-4.4245,-0.0431,8.849,-0.3799,-1.557,-0.3395
328751.0,-4.2641,0.1293,8.7819,-0.3331,-1.5676,-0.3602
328761.0,-4.1827,0.3136,8.7412,-0.2293,-1.5256,-0.356
328771.0,-3.8547,0.1556,9.0405,-0.1256,-1.4569,-0.3432
328781.0,-3.8188,0.1293,9.8617,-0.0096,-1.3808,-0.3549
328791.0,-3.9887,0.5267,10.6159,0.0463,-1.425,-0.397
328801.0,-4.2497,1.4006,10.5345,-0.0404,-1.6676,-0.4422
328811.0,-4.039,1.9345,9.7851,-0.223,-1.9773,-0.4342
328821.0,-3.6344,2.1165,8.4563,-0.3251,-2.1418,-0.3704
328831.0,-3.2944,1.7717,7.4555,-0.3203,-2.1018,-0.2735
328841.0,-2.9951,1.3144,6.8857,-0.2522,-1.9177,-0.1799
328851.0,-2.7318,0.431,7.4675,-0.2075,-1.6602,-0.1059
328861.0,-2.478,-0.498,9.0836,-0.1437,-1.4144,-0.0734
328871.0,-2.4181,-0.893,11.3078,-0.016,-1.2856,-0.1043
328881.0,-2.806,-0.6943,13.0723,0.1022,-1.4452,-0.1841
328891.0,-2.9377,-0.5219,13.2663,0.1873,-1.8938,-0.2852
328901.0,-3.0574,0.9577,11.2192,0.2629,-2.3934,-0.3539
328911.0,-2.3104,1.2665,8.758,0.1607,-2.726,-0.3278
328921.0,-1.6352,1.4245,6.292,-0.017,-2.7829,-0.2927
328931.0,-1.0534,0.9984,5.6,-0.224,-2.5174,-0.2506
328941.0,-0.7135,-0.0239,6.8738,-0.4129,-2.1747,-0.2139
328951.0,-0.9577,-0.7733,9.0597,-0.4214,-1.9906,-0.2283
328961.0,-0.9337,-0.9457,10.2185,-0.1564,-2.1136,-0.2634
328971.0,-0.6871,-0.5746,9.5648,0.3326,-2.369,-0.2831
328981.0,-0.328,0.2107,7.094,0.8312,-2.6068,-0.2863
328991.0,1.2737,0.5291,4.0606,1.1116,-2.726,-0.2873
329001.0,0.7063,2.0399,0.589,1.1137,-2.5999,-0.3012
329011.0,1.3503,2.5091,-1.7789,0.7721,-2.3168,-0.257
329021.0,2.1596,2.162,-3.0047,0.4081,-1.798,-0.1852
329031.0,2.8706,1.0199,-2.6719,0.2368,-1.0153,-0.1091
329041.0,2.8611,-0.0455,-1.0846,0.1708,-0.2804,-0.1048
329051.0,2.5953,-0.3926,0.9361,0.1836,0.2363,-0.1873
329061.0,2.2003,0.1748,2.6791,0.3368,0.5545,-0.2895
329071.0,1.7789,1.1468,3.5578,0.6066,0.7157,-0.3549
329081.0,1.4605,2.2841,3.2298,0.8594,0.738,-0.3735
329091.0,1.3599,3.3303,1.992,0.9291,0.6997,-0.3491
329101.0,1.2139,4.1851,0.4621,0.8088,0.7189,-0.29
329111.0,1.0534,4.6448,-1.0367,0.5694,0.8344,-0.2006
329121.0,0.7326,4.7956,-2.1045,0.307,1.0557,-0.091
329131.0,0.316,5.047,-3.8762,0.0628,1.3069,0.0388
329141.0,0.5052,4.8507,-6.6846,-0.2437,1.59,0.1862
329151.0,0.1245,4.5274,-10.0676,-0.5821,2.2242,0.3283
329161.0,-2.308,4.2401,-12.7443,-1.1196,3.1937,0.4709
329171.0,-3.5434,2.0446,-11.8728,-1.6958,4.5219,0.6502
329181.0,-7.1084,-0.3232,-7.3574,-1.8257,6.3034,0.8248
329191.0,-10.319,-3.802,2.7078,-1.7991,7.7518,0.9067
329201.0,-13.5703,-6.3446,14.4083,-1.0759,8.5761,0.8306
329211.0,-14.2359,-6.6918,21.8662,0.1325,8.3414,0.5491
329221.0,-13.2639,-5.102,23.444,1.0291,7.3128,0.1107
329231.0,-13.2399,-1.4126,20.9349,1.1845,6.2012,-0.3586
329241.0,-12.9718,1.8938,19.496,0.5635,5.4701,-0.7008
329251.0,-13.0005,3.6176,21.6101,-0.2395,5.3009,-0.8136
329261.0,-14.1785,3.4955,29.5133,-0.853,5.2621,-0.746
329271.0,-15.196,3.5195,36.6983,-1.0222,4.3905,-0.5805
329281.0,-14.6286,3.3543,38.1899,-0.8902,2.5525,-0.339
329291.0,-12.7228,3.0478,33.1453,-0.4587,0.6917,-0.0564
329301.0,-11.0516,2.8108,25.843,-0.0947,-0.439,0.1692
329311.0,-10.4148,2.5786,20.3411,-0.1309,-0.9057,0.29
329321.0,-10.0197,1.9848,16.8576,-0.5028,-1.1041,0.3374
329331.0,-9.5481,1.2474,14.7124,-0.8902,-1.1499,0.3384
329341.0,-9.098,0.7566,13.6326,-1.1866,-1.0919,0.3001
329351.0,-8.8969,0.5698,13.441,-1.351,-1.0243,0.2623
329361.0,-8.6598,0.5339,13.3213,-1.3,-0.9982,0.2528
329371.0,-8.4324,0.3711,12.8329,-1.1643,-1.0749,0.265
329381.0,-7.8051,0.0718,11.9112,-0.9919,-1.1797,0.282
329391.0,-7.2496,0.0886,10.6374,-0.8445,-1.2127,0.2794
329401.0,-6.8522,0.1413,9.7683,-0.8397,-1.1973,0.2543
329411.0,-6.6487,0.3567,9.1961,-0.9381,-1.185,0.223
329421.0,-6.3183,0.1437,8.8322,-1.069,-1.1744,0.2086
329431.0,-5.7844,-0.6728,8.6431,-1.1318,-1.1323,0.2011
329441.0,-5.3343,-1.7262,8.5952,-1.102,-1.0515,0.1618
329451.0,-4.9871,-2.7749,8.8394,-1.0153,-0.9445,0.0702
329461.0,-4.6831,-3.3639,9.2201,-0.8546,-0.8072,-0.0729
329471.0,-4.7597,-3.146,10.149,-0.6896,-0.6737,-0.2559
329481.0,-5.126,-2.4205,11.2384,-0.589,-0.6965,-0.4331
329491.0,-5.2481,-1.2354,11.485,-0.5167,-0.878,-0.5672
329501.0,-5.3319,-0.1437,11.3006,-0.5225,-1.1153,-0.6396
329511.0,-5.1164,0.6321,10.884,-0.5795,-1.3271,-0.6444
329521.0,-5.0566,0.8978,10.7619,-0.6673,-1.4755,-0.6013
329531.0,-4.8794,0.5148,10.9918,-0.6981,-1.5958,-0.5231
329541.0,-4.7381,0.0024,11.2863,-0.6263,-1.6974,-0.4491
329551.0,-4.6711,-0.3112,11.5784,-0.5013,-1.8438,-0.3991
329561.0,-4.4772,-0.3903,11.5137,-0.3267,-2.0556,-0.3586
329571.0,-4.4436,-0.0431,10.5776,-0.0937,-2.2684,-0.3113
329581.0,-4.2162,0.431,9.2201,0.0623,-2.4392,-0.2485
329591.0,-3.9768,0.7374,7.9392,0.0921,-2.5307,-0.1666
329601.0,-3.3567,0.237,7.3741,0.0729,-2.5078,-0.0676
329611.0,-3.1053,-0.7063,7.5705,0.1176,-2.3642,0.0128
329621.0,-2.7533,-1.6807,8.2073,0.1671,-2.2902,0.0287
329631.0,-2.4636,-2.4445,8.8777,0.2134,-2.3243,-0.0271
329641.0,-2.3631,-2.3631,8.8705,0.3012,-2.444,-0.1288
329651.0,-2.1045,-1.8172,8.1786,0.3656,-2.6223,-0.2309
329661.0,-2.0303,-0.8499,6.8594,0.3815,-2.7829,-0.2996
329671.0,-1.6568,-0.0479,5.1547,0.3464,-2.8793,-0.3118
329681.0,-0.9481,-0.0072,3.6344,0.3496,-2.7978,-0.2639
329691.0,-0.2322,-0.6177,2.6336,0.431,-2.4791,-0.1969
329701.0,0.431,-1.8962,3.1891,0.4874,-2.0428,-0.1708
329711.0,0.4573,-2.4804,4.3335,0.5396,-1.7139,-0.2448
329721.0,0.5626,-1.81,4.865,0.5986,-1.6102,-0.3704
329731.0,0.656,-0.2035,4.5945,0.7343,-1.5506,-0.4464
329741.0,0.8236,1.1803,3.9959,0.8599,-1.467,-0.4177
329751.0,1.312,1.4198,3.6799,0.9259,-1.3207,-0.2959
329761.0,1.3838,0.9649,3.7781,0.9104,-1.151,-0.1756
329771.0,1.731,-0.2298,4.1635,0.7849,-1.0477,-0.1149
329781.0,2.0446,-1.2043,4.3096,0.6598,-0.9477,-0.1437
329791.0,2.1237,-1.3934,4.0725,0.5071,-0.9376,-0.2639
329801.0,2.4014,-0.8835,3.1244,0.5257,-0.8152,-0.381
329811.0,2.3942,0.0694,2.3487,0.7109,-0.4661,-0.4406
329821.0,2.1165,0.9242,2.3727,0.8828,-0.0537,-0.4454
329831.0,1.7262,1.7238,2.8802,1.019,0.2964,-0.4103
329841.0,1.5443,2.5379,2.6408,1.0813,0.4459,-0.3576
329851.0,1.8651,3.0071,1.3695,1.0483,0.5108,-0.2799
329861.0,1.9561,3.0861,0.3112,1.0206,0.8072,-0.1878
329871.0,1.6209,3.0502,0.0335,0.9961,1.2627,-0.1054
329881.0,0.9313,3.4022,0.3639,0.9264,1.6948,-0.0394
329891.0,0.1413,4.1515,0.0742,0.7354,1.9406,0.0229
329901.0,-0.5866,4.786,-1.4437,0.3528,2.0396,0.107
329911.0,-0.8332,4.707,-3.6871,-0.1697,2.1982,0.2267
329921.0,-1.0151,3.9816,-6.7612,-0.7386,2.5137,0.3512
329931.0,-2.3655,3.3758,-9.335,-1.1957,3.2943,0.4709
329941.0,-4.4676,1.6089,-9.232,-1.5484,4.5182,0.63
329951.0,-7.3717,-1.6592,-4.9536,-1.6985,6.023,0.7753
329961.0,-10.149,-5.2146,3.5075,-1.5703,7.3549,0.7923
329971.0,-12.323,-8.0349,15.0523,-0.9296,8.1961,0.6385
329981.0,-13.9151,-7.5561,23.863,0.241,8.0785,0.3092
329991.0,-14.0635,-4.8435,26.997,1.1749,6.8893,-0.0803
330001.0,-13.046,-1.2689,23.6475,1.4362,5.2684,-0.4198
330011.0,-12.2152,1.7813,17.3723,0.8397,4.084,-0.6619
330021.0,-10.8433,1.1229,16.3356,-0.3938,3.894,-0.7561
330031.0,-12.1266,-1.2043,23.8199,-1.2568,4.4815,-0.7902
330041.0,-14.2263,-1.9297,33.0376,-1.4053,4.341,-0.8301
330051.0,-14.4562,-2.4445,38.3192,-1.1339,2.8883,-0.8088
330061.0,-12.967,-1.6544,35.2163,-0.2708,1.0179,-0.7136
330071.0,-11.3054,-0.1508,27.416,0.5848,-0.2841,-0.6013
330081.0,-10.4938,1.3767,20.8703,0.7849,-0.804,-0.53
330092.0,-10.1562,2.0949,17.5064,0.3416,-0.9147,-0.4826
330101.0,-9.9311,1.47,17.1018,-0.2671,-0.8721,-0.4257
330111.0,-9.8354,0.4693,18.2199,-0.5513,-0.795,-0.3597
330121.0,-9.8928,-0.1077,19.5702,-0.464,-0.8524,-0.2927
330131.0,-9.821,0.2274,19.6875,-0.191,-1.1579,-0.2304
330141.0,-9.4978,0.8954,18.2366,0.0255,-1.6229,-0.1618
330151.0,-8.8131,1.0175,15.9813,0.0239,-2.0811,-0.0968
330161.0,-8.0541,0.8619,13.5081,-0.1564,-2.428,-0.0718
330171.0,-7.4651,0.747,11.3581,-0.4369,-2.6265,-0.0921
330181.0,-6.8833,0.5555,9.7995,-0.6715,-2.6787,-0.1245
330191.0,-6.3925,0.6129,8.8418,-0.7466,-2.5962,-0.1447
330201.0,-6.0549,0.68,8.3414,-0.688,-2.4222,-0.1298
330211.0,-5.7102,0.2059,8.7293,-0.5593,-2.2322,-0.0862
330221.0,-5.4444,-0.0527,8.9471,-0.3219,-2.1151,-0.0521
330231.0,-5.1763,-0.1772,8.6838,-0.1405,-2.1141,-0.0458
330241.0,-4.6471,-0.1221,7.6758,-0.0756,-2.1763,-0.0628
330251.0,-4.1252,0.1245,6.517,-0.1602,-2.188,-0.1064
330261.0,-3.7206,0.1389,5.782,-0.3421,-2.1018,-0.1517
330271.0,-3.3208,-0.2155,5.9544,-0.5087,-1.9358,-0.191
330281.0,-3.3064,-0.4142,6.7349,-0.5396,-1.7272,-0.2256
330291.0,-3.2154,-0.6345,7.944,-0.4544,-1.5756,-0.2506
330301.0,-3.1173,-0.9194,9.1626,-0.2873,-1.5218,-0.2714
330311.0,-3.1388,-0.7326,10.0126,-0.107,-1.5878,-0.3097
330321.0,-3.0526,-0.2682,10.3908,0.0245,-1.7682,-0.3427
330331.0,-3.0933,0.261,10.003,0.1378,-2.0273,-0.3512
330341.0,-2.9497,0.7374,8.442,0.2554,-2.2572,-0.3182
330351.0,-2.6001,0.6536,7.3598,0.2932,-2.3163,-0.2533
330361.0,-2.5163,0.4812,7.0246,0.3347,-2.1912,-0.1809
330371.0,-2.5546,0.3352,7.2999,0.3597,-2.0853,-0.1197
330381.0,-2.1093,-0.0599,7.6854,0.4342,-2.0279,-0.0575
330391.0,-1.7406,-0.3136,7.7021,0.5773,-1.9949,-0.0144
330401.0,-1.3001,-0.3065,7.1515,0.6524,-2.0327,-0.0043
330411.0,-0.7518,-0.2466,6.1842,0.6098,-2.0705,-0.0144
330421.0,-0.2705,-0.0479,5.2601,0.5209,-2.0087,-0.0319
330431.0,0.0838,0.1173,4.8818,0.4289,-1.8395,-0.0415
330441.0,0.2203,-0.0072,5.0613,0.3608,-1.6267,-0.0314
330451.0,0.6297,-0.8619,5.8945,0.3501,-1.4101,-0.0138
330461.0,0.7949,-1.6712,6.7756,0.4252,-1.2356,-0.042
330471.0,0.9002,-2.2242,7.5992,0.4981,-1.1744,-0.1346
330481.0,1.0127,-1.889,7.4436,0.5156,-1.2574,-0.2826
330491.0,1.1803,-0.8906,6.6726,0.4486,-1.3697,-0.4347
330501.0,1.3958,0.2777,5.7916,0.3922,-1.3548,-0.5231
330511.0,1.6424,0.893,5.4396,0.3922,-1.177,-0.5263
330521.0,1.8507,0.316,6.2153,0.4518,-0.8902,-0.4794
330531.0,1.5538,-0.3711,7.3095,0.5252,-0.6864,-0.4821
330541.0,1.3719,-0.6584,8.0014,0.4837,-0.7093,-0.5582
330551.0,1.4772,-0.419,7.9559,0.3916,-0.8594,-0.6726
330561.0,1.6472,0.656,6.5912,0.4039,-0.9764,-0.7758
330571.0,2.0135,1.7286,5.7365,0.5023,-0.8455,-0.8062
330581.0,1.7789,2.7342,6.0717,0.7061,-0.506,-0.7497
330591.0,1.4102,3.8116,6.9959,0.9158,-0.2549,-0.629
330601.0,1.3048,4.2186,7.8865,1.0669,-0.1623,-0.4427
330611.0,1.4365,4.1899,7.999,1.1313,-0.2155,-0.2448
330621.0,1.9848,3.8858,6.9815,1.0089,-0.3927,-0.0947
330631.0,2.5498,3.565,5.3702,0.7104,-0.5044,-0.0101
330641.0,3.0574,3.395,3.6823,0.3437,-0.439,0.0362
330651.0,3.4117,2.7581,2.8012,-0.0404,-0.2389,0.0702
330661.0,3.3399,1.9178,2.6217,-0.2565,0.0862,0.0937
330671.0,3.0191,1.403,2.3152,-0.2975,0.3682,0.0878
330681.0,2.8802,1.2737,1.1109,-0.2405,0.5726,0.0612
330691.0,3.2226,1.5826,-1.494,-0.0984,0.8434,0.0372
330701.0,3.3639,1.8124,-4.2234,0.05,1.4298,0.0245
330711.0,2.6121,1.968,-5.4181,0.0809,2.3663,0.016
330721.0,1.0511,2.411,-4.7142,-0.116,3.3481,0.0027
330731.0,-1.1732,2.8395,-2.375,-0.4459,4.1851,0.0197
330741.0,-2.9856,2.6121,-0.2682,-0.6742,4.78,0.1144
330751.0,-5.0326,2.1117,1.4174,-0.7093,5.2951,0.2246
330761.0,-6.8115,1.4964,2.6911,-0.6726,5.7771,0.3193
330771.0,-8.3821,0.1077,5.2744,-0.6151,6.3305,0.3884
330781.0,-10.1778,-1.1229,8.995,-0.4629,6.8589,0.3751
330791.0,-11.7651,-1.9513,13.0005,-0.3406,7.0728,0.2772
330801.0,-12.4882,-2.2529,17.1616,-0.3044,6.9233,0.1304
330811.0,-12.141,-3.1029,22.472,-0.1261,6.669,0.0032
330821.0,-12.0093,-4.0989,28.6418,0.4262,6.2646,-0.1437
330831.0,-12.3038,-3.4405,33.1669,1.1983,5.4377,-0.3613
330841.0,-12.3756,-1.2282,34.7016,1.6533,4.0302,-0.6109
330851.0,-11.9973,1.9058,32.2954,1.5878,2.3216,-0.8131
330861.0,-11.3389,4.6256,28.0385,0.9621,0.8365,-0.9094
330871.0,-10.7955,5.928,24.3347,-0.0644,-0.2001,-0.8902
330881.0,-10.6063,5.5522,22.4768,-1.1552,-0.8934,-0.7918
330891.0,-10.4507,4.3934,21.8375,-1.8831,-1.4505,-0.6455
330901.0,-10.1251,3.1723,20.9181,-1.9087,-1.9204,-0.4443
330911.0,-9.6343,2.4277,18.5263,-1.2952,-2.2503,-0.2086
330921.0,-8.8226,1.8603,15.3899,-0.5241,-2.4318,0.0053
330931.0,-7.8554,1.391,12.2607,0.0788,-2.4621,0.1501
330941.0,-6.9576,1.233,9.8067,0.3581,-2.3615,0.1926
330951.0,-6.2656,1.2881,8.3749,0.315,-2.2147,0.1469
330961.0,-5.6814,1.6185,7.5872,0.0649,-2.0933,0.0474
330971.0,-5.3439,2.1141,7.4508,-0.274,-2.0002,-0.0665
330981.0,-5.1308,2.557,7.9918,-0.5215,-1.9278,-0.1378
330991.0,-4.8842,2.8898,8.1762,-0.4794,-1.8682,-0.1304
331001.0,-4.4556,2.715,7.932,-0.207,-1.8044,-0.0623
331011.0,-3.96,2.478,7.1204,0.1112,-1.7118,0.0133
331021.0,-3.5386,1.9656,6.8378,0.3124,-1.5367,0.0649
331031.0,-3.0765,1.1971,7.3837,0.381,-1.359,0.066
331041.0,-2.9784,0.7278,8.1834,0.3432,-1.2941,-0.0096
331051.0,-3.0598,0.8859,8.6072,0.2033,-1.4064,-0.1447
331061.0,-3.1939,1.4605,8.8609,0.0867,-1.5548,-0.2607
331071.0,-2.9353,1.1899,9.6295,0.157,-1.6144,-0.3006
331081.0,-3.1244,0.8068,10.501,0.4789,-1.6229,-0.3155
331091.0,-2.9688,0.5674,11.1857,0.8764,-1.7368,-0.3475
331101.0,-3.3184,1.1372,11.4658,1.2366,-1.9108,-0.39
331111.0,-3.3471,1.8627,11.4802,1.4537,-2.1694,-0.4001
331121.0,-3.2753,3.0478,10.75,1.5335,-2.5222,-0.3852
331131.0,-3.3567,4.9416,8.9639,1.4654,-2.9181,-0.3336
331141.0,-3.2058,6.6343,6.505,1.2606,-3.2475,-0.1873
331151.0,-2.6983,7.4436,3.7996,1.0036,-3.4013,0.0506
331161.0,-1.6352,7.3957,1.3671,0.7897,-3.3151,0.3315
331171.0,-0.8691,7.0725,-0.5746,0.6114,-3.0091,0.6024
331181.0,0.2227,6.3686,-1.257,0.4432,-2.5467,0.8578
331191.0,0.4621,5.545,-0.407,0.4198,-1.964,1.0951
331201.0,0.5962,4.142,1.4772,0.6135,-1.4229,1.2941
331211.0,0.5866,2.9736,3.0119,0.9504,-1.0903,1.4085
331221.0,0.4693,2.2146,3.6248,1.1291,-1.0461,1.4213
331231.0,0.8356,1.7119,2.9736,1.0648,-1.2271,1.3441
331241.0,1.5155,2.0662,1.0606,0.8615,-1.4016,1.201
331251.0,1.9752,2.9233,-1.3024,0.563,-1.367,1.0653
331261.0,2.6695,3.122,-2.7438,0.1889,-1.0536,1.0009
331271.0,3.5578,2.6863,-2.8515,-0.1043,-0.5614,0.9881
331281.0,3.8427,2.296,-1.6376,-0.1038,0.1022,0.9961
331291.0,3.3543,1.8603,0.6704,0.2123,0.8689,1.0429
331301.0,2.5762,0.8045,4.0965,0.6082,1.4383,1.0797
331311.0,2.0734,-0.6177,7.197,1.0302,1.6304,1.0589
331321.0,1.7789,-1.561,8.7077,1.4766,1.5421,0.9317
331331.0,1.6233,-1.6616,8.8011,1.8028,1.2739,0.7093
331341.0,1.7262,-1.1492,7.8266,1.997,0.9738,0.4475
331351.0,2.4301,0.3232,5.0518,2.0694,0.6955,0.2017
331361.0,3.1843,1.482,2.1141,2.0247,0.745,0.0303
331371.0,3.0933,2.8946,0.2322,1.9183,1.2984,-0.0766
331381.0,2.3679,3.9145,1.2306,1.4825,1.9773,-0.1383
331391.0,1.1205,4.5705,4.4532,0.9892,2.5579,-0.1421
331401.0,0.0646,3.8116,8.6167,0.6625,2.8963,-0.0814
331411.0,-0.8284,1.7933,12.4929,0.539,2.892,-0.0474
331421.0,-1.2306,0.2825,15.2391,0.571,2.5057,-0.1453
331431.0,-1.6041,0.5674,16.0196,0.8402,1.9247,-0.3384
331441.0,-1.3599,2.6911,13.6685,1.2361,1.243,-0.5055
331451.0,-0.6704,4.9033,9.4403,1.5171,0.8333,-0.5342
331461.0,-0.2921,5.9328,6.2584,1.4883,1.0477,-0.4353
331471.0,-0.9002,5.8945,5.8849,0.8375,1.4862,-0.3395
331481.0,-1.9082,5.9448,8.0852,-0.3618,1.6629,-0.3278
331491.0,-2.4469,5.5929,11.0038,-1.4803,1.4936,-0.2836
331501.0,-2.4397,5.2218,12.3397,-1.8188,1.1675,-0.1362
331511.0,-2.2793,6.3901,10.0437,-1.3606,0.9253,0.0851
331521.0,-1.8555,7.9847,6.2249,-0.8838,0.7455,0.3704
331531.0,0.996,10.2975,-0.486,-0.5699,0.6689,0.7301
331541.0,-1.482,11.6071,-6.3446,-0.7556,1.0754,1.1903
331551.0,-3.9576,9.4715,-12.062,-1.0259,1.9353,1.7927
331561.0,-6.4476,7.8721,-16.6325,-1.1568,3.4795,2.3152
331571.0,-9.5888,2.569,-15.1002,-1.5298,5.8234,2.6691
331581.0,-15.4211,-6.8019,-7.5896,-2.6286,7.8226,2.7085
331591.0,-19.6564,-15.7155,1.5203,-4.0334,8.7831,2.1567
331601.0,-18.3156,-22.9556,15.0284,-4.64,9.2449,1.0413
331611.0,-21.1647,-18.3132,25.3187,-3.4417,9.2274,-0.3331
331621.0,-22.4816,-7.6303,29.9754,-1.2622,8.4968,-1.3457
331631.0,-21.4975,3.5147,29.5325,0.8354,7.2905,-1.707
331641.0,-20.2454,12.8856,25.5006,2.2737,6.2199,-1.4974
331651.0,-19.5846,17.437,22.1799,2.3785,5.3573,-0.9126
331661.0,-17.7769,13.9845,23.6451,1.3335,4.6751,-0.1777
331671.0,-17.0826,7.8913,28.6993,0.1756,3.9004,0.307
331681.0,-16.1321,3.4477,32.2547,-0.3767,2.6409,0.4784
331691.0,-14.8752,1.6999,31.0791,-0.2719,1.0706,0.4667
331701.0,-13.5392,2.7509,25.6419,0.0527,-0.3602,0.3847
331711.0,-12.3613,4.0773,19.3906,0.1921,-1.375,0.3501
331721.0,-10.7763,5.126,12.3038,0.2107,-1.8895,0.4049
331731.0,-9.1937,4.5753,7.7524,-0.0362,-1.8576,0.5007
331741.0,-7.9009,3.043,5.4372,-0.3012,-1.4468,0.5662
331751.0,-7.1347,1.3719,5.2577,-0.5805,-0.9339,0.5369
331761.0,-6.8618,0.1796,6.8666,-0.787,-0.5023,0.4225
331771.0,-6.7277,-0.3615,8.8346,-0.7263,-0.2304,0.282
331781.0,-6.7253,-0.3496,9.9216,-0.4007,-0.1213,0.1517
331791.0,-6.7133,0.2921,10.0604,-0.0564,-0.1352,0.0357
331801.0,-6.5673,0.3112,9.8928,0.0841,-0.2368,-0.058
331811.0,-6.2728,0.1077,9.596,0.1107,-0.3038,-0.1639
331821.0,-6.3973,0.1317,9.8258,0.0378,-0.2911,-0.307
331831.0,-6.8091,0.4405,10.9511,-0.1362,-0.3092,-0.4784
331841.0,-7.3981,0.984,12.2009,-0.3038,-0.4848,-0.6332
331851.0,-7.8171,1.6568,12.5432,-0.3799,-0.8253,-0.746
331861.0,-8.1163,2.0399,11.8202,-0.3789,-1.1717,-0.7987
331871.0,-7.9727,1.5634,11.1977,-0.3129,-1.3611,-0.8195
331881.0,-8.1403,2.2194,10.3046,-0.2203,-1.3856,-0.8838
331891.0,-8.5952,3.213,10.5441,-0.414,-1.4543,-0.9562
331901.0,-8.7317,3.8978,11.078,-0.6529,-1.6203,-0.9653
331911.0,-8.7556,4.0199,11.1402,-0.712,-1.8092,-0.9115
331921.0,-8.6167,3.5506,10.635,-0.655,-1.9598,-0.8242
331931.0,-8.2815,2.4828,11.0445,-0.5699,-2.0183,-0.7508
331941.0,-8.4539,1.8459,12.0404,-0.3267,-1.9949,-0.7263
331951.0,-8.5066,1.8675,13.1968,-0.0372,-2.0907,-0.7327
331961.0,-8.8035,2.296,14.0133,0.2432,-2.3785,-0.7263
331971.0,-8.6335,3.122,13.0077,0.5672,-2.8085,-0.6816
331981.0,-8.3366,3.7158,10.671,0.7726,-3.2172,-0.5976
331991.0,-7.7716,3.9145,7.7596,0.7402,-3.4821,-0.5044
332001.0,-7.106,3.6464,5.5569,0.4752,-3.5268,-0.4406
332011.0,-6.3758,2.7605,4.3718,0.1213,-3.3842,-0.4145
332021.0,-5.7389,1.4916,4.5346,-0.2192,-3.1501,-0.4464
332031.0,-5.0566,0.2586,5.7317,-0.3996,-2.9107,-0.5459
332041.0,-4.8722,-0.2011,7.1635,-0.3038,-2.7372,-0.7019
332051.0,-5.0901,0.5507,7.4531,-0.0484,-2.7196,-0.8562
332061.0,-4.8315,1.7214,6.857,0.1751,-2.8383,-0.9578
332071.0,-4.5226,3.2944,5.1715,0.365,-2.8798,-0.9833
332081.0,-4.0438,4.47,3.9265,0.3975,-2.7558,-0.9323
332091.0,-3.632,5.1906,3.3255,0.2256,-2.5419,-0.8349
332101.0,-3.0287,4.8171,3.79,-0.1405,-2.3583,-0.7237
332111.0,-3.2729,4.4269,5.1691,-0.4475,-2.2237,-0.6465
332121.0,-2.7821,4.4676,5.4684,-0.4246,-2.1391,-0.5401
332131.0,-2.3296,4.276,5.7174,-0.3214,-2.0896,-0.4166
332141.0,-1.9513,4.2114,5.0996,-0.133,-2.0188,-0.2916
332151.0,-1.7549,4.1587,4.6663,-0.0106,-1.8954,-0.1846
332161.0,-1.6568,4.1899,4.5562,-0.0069,-1.7336,-0.0878
332171.0,-1.4174,3.316,5.4708,-0.125,-1.5772,0.0027
332181.0,-1.403,2.411,6.5122,-0.2437,-1.5341,0.0351
332191.0,-1.2833,1.8364,7.1682,-0.3097,-1.6182,0.009
332201.0,-1.1396,1.9225,6.8163,-0.2528,-1.764,-0.0335
332211.0,-0.6871,2.3535,5.3486,-0.1623,-1.872,-0.0559
332221.0,-0.17,2.7007,4.1468,-0.132,-1.8182,-0.0426
332231.0,0.0838,3.0933,3.1723,-0.1054,-1.6549,0.0016
332241.0,0.2945,3.1173,2.7964,-0.1144,-1.4473,0.0718
332251.0,0.4741,3.2154,2.3439,-0.0814,-1.2356,0.1501
332261.0,0.6728,3.5889,1.7358,-0.0676,-1.0419,0.2379
332271.0,0.8308,4.0725,1.3695,-0.0926,-0.8306,0.348
332281.0,0.6704,5.2792,0.6057,-0.1224,-0.6109,0.4975
332291.0,1.3862,6.0549,0.0215,-0.3278,-0.5231,0.7199
332301.0,0.3998,6.0693,-1.3982,-0.6236,-0.6109,1.0185
332311.0,0.8212,4.64,-5.3486,-0.8104,-0.9057,1.3909
332321.0,1.0223,3.8618,-11.8968,-0.5082,-0.8359,1.7592
332331.0,2.1811,3.1915,-20.8272,0.8971,0.1942,2.1178
332341.0,-2.4062,4.5418,-29.2547,2.402,2.344,2.3775
332351.0,-3.4644,4.4939,-35.8915,2.8165,4.6342,2.5392
332361.0,-10.3142,2.478,-33.6002,2.651,7.8641,2.5185
332371.0,-19.5606,-1.063,-23.0466,1.9113,10.7423,2.3211
332381.0,-24.0737,-9.1674,-9.3565,1.0749,12.6786,1.9305
332391.0,-32.0919,-17.3029,7.4579,0.5177,14.1212,1.0169
332401.0,-32.0033,-18.9022,18.8974,-0.6753,13.388,-0.3746
332411.0,-30.2483,-17.1999,48.2743,-1.0962,12.3956,-1.7906
332421.0,-31.2946,1.664,46.4092,3.9664,11.1786,-2.4706
332431.0,-32.1326,12.876,52.8951,4.9295,8.3813,-2.7579
332441.0,-25.2947,22.9269,45.1115,4.001,4.5506,-2.5515
332451.0,-23.0226,25.3498,37.5076,1.873,1.6533,-1.9752
332461.0,-19.4074,20.7338,30.1478,-0.8306,-0.5694,-1.2978
332471.0,-17.0108,14.5903,24.9212,-2.4866,-1.6011,-0.7253
332481.0,-14.9159,9.6151,21.4784,-2.9341,-1.9566,-0.3092
332491.0,-12.6462,6.4835,18.2749,-2.5339,-2.0508,-0.0309
332501.0,-10.963,5.1427,15.5599,-1.5969,-1.8725,0.1862
332511.0,-9.6414,4.7166,13.2136,-0.5561,-1.6054,0.3964
332521.0,-8.3079,3.8331,11.0947,0.2879,-1.3824,0.6008
332531.0,-6.9312,3.0454,8.3414,0.8062,-1.1488,0.7428
332541.0,-6.3303,1.8723,8.442,0.7673,-0.8743,0.7476
332551.0,-5.861,1.6137,8.2648,0.7056,-0.6439,0.6795
332561.0,-5.7988,1.1229,9.2919,0.4784,-0.5635,0.5805
332571.0,-5.5593,0.8021,9.6726,0.3592,-0.6529,0.4848
332581.0,-5.3654,0.6057,9.0429,0.3485,-0.7976,0.3991
332591.0,-5.0829,0.3783,7.8817,0.3725,-0.8955,0.3241
332601.0,-4.8387,0.1269,6.7349,0.3879,-0.879,0.2421
332611.0,-4.7333,-0.1077,6.1244,0.381,-0.7556,0.1426
332621.0,-4.8219,0.0311,5.442,0.3427,-0.5933,0.0176
332631.0,-4.6376,0.4812,5.4971,0.1681,-0.4337,-0.1266
332641.0,-4.9752,1.3934,6.3829,-0.017,-0.1958,-0.2639
332651.0,-5.5761,2.3703,8.4204,-0.1804,-0.0096,-0.3443
332661.0,-6.213,2.9664,10.4531,-0.2698,-0.0325,-0.3432
332671.0,-6.4691,2.8084,11.5281,-0.2671,-0.2661,-0.2794
332681.0,-6.4476,2.162,11.6454,-0.2219,-0.5603,-0.2214
332691.0,-6.2584,1.1995,11.5736,-0.1729,-0.8083,-0.2192
332701.0,-6.2465,0.8954,11.2192,-0.1027,-0.9668,-0.3038
332711.0,-6.5434,1.7142,11.2025,-0.1628,-1.0914,-0.4571
332721.0,-6.8809,2.8778,11.5975,-0.3741,-1.3074,-0.5901
332731.0,-7.0222,3.7948,11.4084,-0.5875,-1.6155,-0.6444
332741.0,-6.9145,4.1851,10.999,-0.7641,-1.9124,-0.6226
332751.0,-6.7971,4.3191,10.1275,-0.7907,-2.1194,-0.5406
332761.0,-6.4452,3.7876,9.3254,-0.704,-2.2285,-0.4188
332771.0,-6.1387,2.9664,8.5856,-0.5066,-2.22,-0.3001
332781.0,-5.8562,2.1356,8.2791,-0.2538,-2.1332,-0.2171
332791.0,-5.5162,1.3575,8.3103,0.049,-2.022,-0.1761
332801.0,-5.3295,1.221,8.0876,0.3517,-1.9348,-0.1905
332811.0,-5.1858,1.4844,8.0613,0.506,-1.9225,-0.2416
332821.0,-4.9105,1.9321,7.7165,0.5859,-1.9497,-0.2826
332831.0,-4.6735,2.4445,7.2257,0.5571,-1.9896,-0.3044
332841.0,-4.4173,2.909,6.7947,0.4156,-2.0375,-0.3145
332851.0,-4.1539,3.5961,6.0478,0.2027,-2.08,-0.3017
332861.0,-3.9217,4.1061,5.6814,-0.1219,-2.1189,-0.2522
332871.0,-3.5123,4.2042,5.6312,-0.3815,-2.0885,-0.1543
332881.0,-3.1891,4.0582,5.6958,-0.5044,-1.9741,-0.0261
332891.0,-3.0119,3.4405,6.0334,-0.6321,-1.897,0.0899
332901.0,-2.8323,2.7701,6.1435,-0.7657,-1.8874,0.1623
332911.0,-2.5331,2.1835,6.0238,-0.9535,-1.9156,0.1777
332921.0,-2.3224,1.6927,5.691,-1.1467,-1.947,0.1532
332931.0,-1.9848,0.9337,5.3271,-1.2936,-1.931,0.1059
332941.0,-1.5969,0.2083,5.0398,-1.3516,-1.8432,0.0202
332951.0,-1.3743,0.0455,4.9392,-1.2845,-1.6703,-0.1091
332961.0,-1.4533,0.4405,5.387,-1.0946,-1.4191,-0.2437
332971.0,-1.8411,1.3408,6.1148,-0.8088,-1.1765,-0.3432
332981.0,-2.1691,2.6073,6.4165,-0.4975,-1.0531,-0.3831
332991.0,-2.1452,3.6823,6.177,-0.2485,-0.9966,-0.3443
333001.0,-1.8866,4.3024,5.7269,-0.0665,-0.9099,-0.24
333011.0,-1.7502,4.3814,5.4947,0.0394,-0.7764,-0.1054
333021.0,-1.5706,4.0175,5.7772,0.1256,-0.5997,0.0325
333031.0,-1.5754,3.6248,6.3135,0.2586,-0.439,0.1548
333041.0,-1.5874,3.4548,6.5577,0.4246,-0.3704,0.2549
333051.0,-1.4174,3.4117,6.1316,0.5795,-0.3634,0.3432
333061.0,-1.1684,3.3279,5.4181,0.6662,-0.3528,0.423
333071.0,-1.0774,3.0478,4.8028,0.6928,-0.281,0.4885
333081.0,-1.1277,2.8395,4.64,0.6694,-0.1926,0.5209
333091.0,-1.5658,3.1915,4.0127,0.5885,-0.2097,0.5273
333101.0,-1.6999,3.5745,2.1045,0.3863,-0.3783,0.539
333111.0,0.6752,2.9544,-0.7135,0.0819,-0.564,0.5342
333121.0,-1.245,3.4333,-2.2841,0.0814,-0.3533,0.489
333131.0,-0.7087,6.043,-10.75,0.2192,-0.1878,0.522
333141.0,-0.6009,7.1754,-18.1576,-0.6157,0.3406,0.63
333151.0,-2.2841,6.699,-19.6301,-1.6362,1.7725,0.8764
333161.0,-6.3758,8.7963,-18.4569,-2.0853,3.5699,1.2499
333171.0,-9.0094,8.5736,-12.2416,-1.7554,5.2589,1.8347
333181.0,-11.904,4.5921,-7.5681,-0.3613,6.8297,2.5914
333191.0,-14.552,-1.5203,-3.0095,1.019,8.0977,3.0607
333201.0,-20.6596,-1.3527,1.7765,2.0976,9.2279,2.9596
333211.0,-18.8759,-12.9311,-0.6488,2.0763,9.7717,2.4775
333221.0,-24.452,-17.8823,22.2014,-0.4672,10.3751,1.0999
333231.0,-21.0139,-7.3909,25.254,0.7827,10.2086,-0.1969
333241.0,-27.2005,-4.695,43.6367,0.8338,9.014,-1.0174
333251.0,-19.4649,3.3016,36.9186,2.0556,6.3758,-1.2324
333261.0,-21.9141,7.0797,40.7349,2.0215,4.4804,-1.2819
333271.0,-19.9006,12.402,29.5492,2.5898,2.5749,-0.9216
333281.0,-17.5615,10.307,26.1686,1.6256,1.2904,-0.5002
333291.0,-16.0052,8.7676,20.6045,1.0898,0.738,-0.1298
333301.0,-14.8273,6.4931,20.4872,0.3735,0.6566,0.0883
333311.0,-14.6884,5.3726,21.725,0.1586,0.6715,0.2586
333321.0,-14.8081,3.8427,23.6595,0.2309,0.3272,0.4374
333331.0,-14.0875,2.6743,22.2852,0.6731,-0.3092,0.5981
333341.0,-13.1633,1.7262,19.5247,1.0435,-0.886,0.6635
333351.0,-12.2416,0.7781,16.8336,1.2276,-1.2648,0.63
333361.0,-11.3318,-0.0646,14.516,1.2973,-1.4277,0.5092
333371.0,-10.6446,-0.6871,13.0676,1.2042,-1.4984,0.3044
333381.0,-10.1011,-0.7207,12.0524,1.0483,-1.5681,0.0548
333391.0,-9.584,-0.2179,11.1546,0.8604,-1.6293,-0.1953
333401.0,-9.5313,0.6488,10.7835,0.6795,-1.6112,-0.4119
333411.0,-9.4355,1.9393,10.8888,0.4885,-1.6001,-0.5853
333421.0,-9.8138,3.1077,11.1833,0.2384,-1.6799,-0.6912
333431.0,-9.9335,3.4788,11.3006,-0.0165,-1.8571,-0.7168
333441.0,-9.754,3.0765,11.0564,-0.1948,-2.055,-0.7082
333451.0,-9.3541,2.3272,10.671,-0.2905,-2.1939,-0.7285
333461.0,-8.916,1.7573,10.3932,-0.3597,-2.286,-0.8056
333471.0,-8.8705,1.6855,10.2639,-0.4214,-2.3769,-0.9259
333481.0,-8.6335,2.3631,9.7779,-0.4645,-2.4631,-1.0552
333491.0,-8.9423,3.2681,10.0006,-0.5928,-2.535,-1.1605
333501.0,-9.1195,4.13,9.8857,-0.7269,-2.6638,-1.2063
333511.0,-9.0597,4.4293,9.9479,-0.8673,-2.7925,-1.2004
333521.0,-8.8825,4.3886,10.2448,-0.9456,-2.8516,-1.1786
333531.0,-8.7149,4.1779,11.1737,-1.0057,-2.9032,-1.1595
333541.0,-8.7771,4.1372,11.9686,-1.0664,-3.1017,-1.1605
333551.0,-8.8945,4.3479,12.2152,-1.119,-3.4401,-1.1685
333561.0,-8.8729,4.9488,11.2551,-1.1424,-3.811,-1.1611
333571.0,-8.8107,5.6623,9.9383,-1.2473,-4.1292,-1.1345
333581.0,-8.7245,6.2058,8.3079,-1.4191,-4.3553,-1.0754
333591.0,-8.1427,6.2321,7.082,-1.6054,-4.4511,-0.9844
333601.0,-7.4196,5.9185,6.3255,-1.6815,-4.3702,-0.87
333611.0,-6.699,5.1858,6.2968,-1.6448,-4.1962,-0.7497
333621.0,-6.1555,4.3024,6.8498,-1.5309,-4.0398,-0.655
333631.0,-5.7772,3.8403,6.9623,-1.3718,-3.9978,-0.5944
333641.0,-5.545,3.6847,6.6774,-1.2638,-4.0563,-0.5598
333651.0,-5.2026,3.7924,5.6599,-1.1706,-4.1329,-0.5151
333661.0,-4.4891,3.2753,5.114,-1.0962,-4.0962,-0.4353
333671.0,-3.8403,2.6145,4.7046,-0.9562,-3.9669,-0.3661
333681.0,-3.3519,2.3583,4.0462,-0.8487,-3.8631,-0.348
333691.0,-2.8467,2.6193,3.1603,-0.8854,-3.8089,-0.3672
333701.0,-2.2505,2.8539,2.1644,-1.0291,-3.7466,-0.3794
333711.0,-1.6257,2.9042,0.893,-1.2212,-3.6391,-0.3704
333721.0,-0.8356,2.5235,0.2586,-1.3803,-3.4156,-0.348
333731.0,0.0072,2.047,0.0359,-1.3175,-3.0336,-0.3017
333741.0,0.6512,1.0918,0.9888,-1.0515,-2.5334,-0.2384
333751.0,0.996,0.1556,1.8555,-0.5896,-2.0827,-0.191
333761.0,1.336,-0.3831,2.4157,-0.1889,-1.8017,-0.1953
333771.0,1.336,-0.3831,2.4157,-0.1889,-1.8017,-0.1953
333781.0,1.6999,-0.3089,2.6169,0.1149,-1.6362,-0.241
333791.0,2.0375,0.4525,2.0997,0.3618,-1.4841,-0.2762
333801.0,2.3583,1.0774,1.6616,0.4794,-1.3031,-0.2671
333811.0,2.6911,1.889,0.9313,0.5497,-1.0706,-0.2182
333821.0,2.9568,2.3966,0.8164,0.4826,-0.779,-0.1309
333831.0,3.055,2.1763,1.2019,0.3384,-0.4757,-0.0122
333841.0,3.0957,1.1827,2.1428,0.1804,-0.2097,0.0979
333851.0,3.3734,-0.2274,3.7685,0.0782,0.0192,0.1602
333861.0,3.3351,-1.3599,5.6743,0.1639,0.2006,0.1543
333871.0,2.976,-1.9106,6.7588,0.3448,0.1602,0.0729
333881.0,3.0215,-1.549,5.9783,0.4826,-0.0947,-0.0559
333891.0,3.4524,-0.5507,3.8211,0.4784,-0.331,-0.1825
333901.0,3.8475,0.6823,1.5131,0.373,-0.2948,-0.2586
333911.0,3.7613,1.6065,0.4908,0.1932,0.0048,-0.2671
333921.0,3.4381,2.1787,0.2777,0.0229,0.3421,-0.2097
333931.0,3.1915,2.2745,-0.0048,-0.0532,0.6391,-0.091
333941.0,3.2944,2.0375,-0.9266,0.0234,0.9386,0.0601
333951.0,3.1771,1.8028,-2.1931,0.2081,1.3925,0.2049
333961.0,2.8371,1.9082,-3.4572,0.3326,1.9784,0.3134
333971.0,2.217,1.8938,-3.7134,0.224,2.5717,0.397
333981.0,1.0678,2.0303,-3.6344,0.1431,3.2257,0.4789
333991.0,-0.1365,1.9369,-3.043,0.0857,3.8908,0.5821
334001.0,-1.4796,1.5778,-1.4964,0.1197,4.6257,0.6981
334011.0,-3.5195,1.561,1.5993,0.3586,5.4424,0.8109
334021.0,-5.6431,1.7166,5.3103,0.7753,6.0427,0.9323
334031.0,-7.4053,1.8555,8.7245,1.3952,6.4492,1.0738
334041.0,-8.7269,1.5897,12.1841,2.0997,6.778,1.2031
334051.0,-9.3326,-0.0431,17.1138,2.7383,7.0116,1.2622
334061.0,-10.07,-1.4916,22.6875,3.3262,7.0377,1.143
334071.0,-13.1633,-0.8068,27.5333,3.4763,6.4779,0.7875
334081.0,-9.5553,-0.6991,29.0512,2.8851,5.0391,0.3081
334091.0,-10.4172,0.9266,30.2531,1.7799,3.6301,-0.2496
334101.0,-10.4794,3.5386,28.5652,0.6774,2.353,-0.687
334111.0,-10.5943,4.3335,29.4247,-0.7253,1.1919,-0.9748
334121.0,-10.3932,5.5234,28.1343,-1.5511,0.1543,-1.0754
334131.0,-10.0533,5.6144,26.6666,-1.9651,-0.7567,-1.0105
334141.0,-9.2296,5.8754,23.1615,-1.8172,-1.4144,-0.8221
334151.0,-8.3701,5.7197,19.6947,-1.516,-1.7698,-0.572
334161.0,-7.4699,5.126,16.7929,-1.1903,-1.8651,-0.3022
334171.0,-6.6918,3.9313,14.8273,-0.9014,-1.7879,-0.0511
334181.0,-5.8897,2.7007,13.714,-0.6784,-1.6416,0.1224
334191.0,-5.3582,1.5467,13.5201,-0.5316,-1.5197,0.2091
334201.0,-4.798,0.7566,13.3477,-0.4108,-1.4766,0.2299
334211.0,-4.3886,0.0958,13.4219,-0.3379,-1.5192,0.1979
334221.0,-3.984,-0.0934,12.4834,-0.2975,-1.6655,0.1235
334231.0,-3.3255,-0.2586,11.1546,-0.4129,-1.8518,0.016
334241.0,-2.6312,-0.589,9.8857,-0.6268,-1.9518,-0.1139
334251.0,-2.2434,-0.7661,9.1004,-0.82,-1.9241,-0.2634
334261.0,-2.059,-0.5171,8.8921,-0.944,-1.8315,-0.4113
334271.0,-1.992,0.0862,8.7197,-0.9264,-1.7389,-0.5119
334281.0,-1.9513,0.6129,8.4132,-0.8115,-1.6394,-0.5444
334291.0,-1.652,1.2091,8.1523,-0.6321,-1.5112,-0.5199
334301.0,-1.5203,1.8124,7.9823,-0.422,-1.3191,-0.448
334311.0,-1.561,1.8004,8.588,-0.3038,-1.151,-0.348
334321.0,-1.4629,1.3575,9.0764,-0.1825,-1.0642,-0.2469
334331.0,-1.4916,0.8164,9.584,-0.1101,-1.0408,-0.1894
334341.0,-1.3791,0.1006,10.0533,-0.0756,-1.0775,-0.1799
334351.0,-1.3384,-0.1939,10.1227,-0.0708,-1.1632,-0.2299
334361.0,-1.3479,0.0383,10.058,-0.1548,-1.2989,-0.3283
334371.0,-1.3527,0.6823,9.7659,-0.2639,-1.4362,-0.4156
334381.0,-1.3815,1.4222,9.3901,-0.3608,-1.5495,-0.4587
334391.0,-1.2689,1.9824,8.7125,-0.423,-1.6373,-0.4454
334401.0,-1.0487,2.3463,7.9057,-0.4289,-1.6511,-0.3831
334411.0,-0.7159,2.375,7.1898,-0.4065,-1.5857,-0.2889
334421.0,-0.3831,1.9704,6.9743,-0.3448,-1.4287,-0.1793
334431.0,-0.0239,1.1444,7.2233,-0.248,-1.2372,-0.0825
334441.0,0.1532,0.2897,8.169,-0.1,-1.0371,-0.0261
334451.0,0.261,-0.4501,9.3972,0.0942,-0.9073,-0.0117
334461.0,0.0622,-0.6608,10.5082,0.3171,-0.9009,-0.0399
334471.0,0.1125,-0.2969,10.6781,0.5193,-1.0483,-0.0889
334481.0,0.2131,0.4357,10.0628,0.6167,-1.2249,-0.1341
334491.0,0.3256,1.2953,8.8466,0.5454,-1.3947,-0.1596
334501.0,0.6464,1.6879,7.6183,0.2788,-1.5202,-0.1634
334511.0,1.0942,1.7478,6.687,-0.0394,-1.5128,-0.1501
334521.0,1.3599,1.4461,6.4117,-0.3299,-1.3862,-0.1304
334531.0,1.5395,0.8045,6.8235,-0.5417,-1.2217,-0.1096
334541.0,1.822,-0.2993,8.3031,-0.5859,-1.0472,-0.0974
334551.0,1.6568,-0.7949,9.3781,-0.3092,-0.936,-0.1064
334561.0,1.7573,-0.7207,9.4164,0.0596,-0.9951,-0.1314
334571.0,2.1548,-0.2442,8.0685,0.423,-1.0839,-0.1495
334581.0,2.5738,0.6153,6.2106,0.6646,-1.0397,-0.1607
334591.0,2.8754,1.4413,4.9033,0.638,-0.8604,-0.1644
334601.0,2.988,2.0327,4.6591,0.397,-0.613,-0.1527
334611.0,2.8443,2.3774,5.3127,0.0803,-0.3805,-0.1181
334621.0,2.5355,2.3966,6.3566,-0.2059,-0.2703,-0.0548
334631.0,2.5115,1.9944,6.5577,-0.3821,-0.339,0.033
334641.0,2.7198,1.5658,5.4277,-0.4119,-0.455,0.116
334651.0,3.0191,1.2091,3.4141,-0.3704,-0.4555,0.1793
334661.0,3.4812,0.7949,1.4269,-0.2703,-0.2464,0.2309
334671.0,3.6655,0.2466,-0.1173,-0.1022,0.2022,0.2671
334681.0,3.5889,-0.1844,-1.0894,0.0341,0.7641,0.2639
334691.0,3.2441,-0.2322,-0.9673,0.0761,1.3649,0.2139
334701.0,2.5666,0.2418,0.1939,0.0873,1.9438,0.1538
334711.0,1.7382,0.8619,1.4964,0.0995,2.3785,0.1235
334721.0,1.1564,1.3072,1.9297,-0.0011,2.568,0.1261
334731.0,0.7542,1.4461,1.8962,-0.215,2.6904,0.1421
334741.0,0.158,1.7166,1.6233,-0.3831,2.9335,0.182
334751.0,-0.6488,1.6568,2.1596,-0.4842,3.3145,0.2602
334761.0,-1.7621,1.1349,3.8978,-0.4252,3.8275,0.3757
334771.0,-2.8539,0.2418,6.8091,-0.2097,4.2941,0.4901
334781.0,-3.7852,-0.9625,10.2448,0.2128,4.6666,0.5741
334791.0,-4.6926,-2.0734,13.2256,0.6886,4.8146,0.5672
334801.0,-5.3271,-3.0909,15.8448,1.0153,4.7124,0.4401
334811.0,-5.8179,-3.3375,17.5639,1.193,4.4607,0.1932
334821.0,-6.3422,-2.7102,19.4074,1.1611,4.1478,-0.1314
334831.0,-6.8354,-1.3695,21.3491,1.028,3.787,-0.4464
334841.0,-7.4627,0.5028,23.298,0.8546,3.347,-0.6854
334851.0,-11.3677,2.9592,24.2197,0.6119,2.7404,-0.8051
334861.0,-5.6551,3.1603,23.3459,0.2118,1.8017,-0.8093
334871.0,-7.5657,4.1061,24.3155,-0.2368,1.3356,-0.7838
334881.0,-7.6112,4.5753,23.2812,-0.3954,0.7226,-0.6375
334891.0,-7.3765,4.0031,22.6515,-0.6497,0.0383,-0.4741
334901.0,-6.8307,3.893,20.1783,-0.6731,-0.5167,-0.3102
334911.0,-6.2489,3.2825,17.9781,-0.7104,-0.8844,-0.158
334921.0,-5.6958,2.8347,15.7395,-0.6689,-1.0451,-0.0314
334931.0,-5.2409,2.2841,14.4873,-0.6678,-1.0903,0.0623
334941.0,-4.8052,1.6735,13.611,-0.6497,-1.1089,0.1277
334951.0,-4.3862,1.0606,12.8353,-0.6194,-1.135,0.1639
334961.0,-3.9624,0.5507,12.0548,-0.605,-1.184,0.157
334971.0,-3.5889,0.3879,11.1211,-0.6151,-1.2196,0.1144
334981.0,-3.1316,0.3041,10.4148,-0.6433,-1.2228,0.0607
334991.0,-2.8204,0.3017,9.6965,-0.6417,-1.1643,0.0101
335001.0,-2.569,0.2298,9.3757,-0.663,-1.0711,-0.0341
335011.0,-2.4684,0.2753,9.4715,-0.6928,-0.9892,-0.0745
335021.0,-2.375,0.395,9.5792,-0.6582,-0.9222,-0.0963
335031.0,-2.2649,0.5794,9.5936,-0.5768,-0.8716,-0.0931
335041.0,-2.1979,0.6345,9.663,-0.5071,-0.8322,-0.074
335051.0,-2.0518,0.6129,9.7181,-0.472,-0.8179,-0.0506
335061.0,-1.9369,0.1915,10.0006,-0.4832,-0.8136,-0.0319
335071.0,-1.7478,-0.486,10.5417,-0.5007,-0.8019,-0.0346
335081.0,-1.7478,-1.245,11.6837,-0.5209,-0.8152,-0.0788
335091.0,-2.0135,-1.5203,12.4858,-0.5539,-0.9993,-0.1783
335101.0,-1.9872,-1.2091,11.9997,-0.5704,-1.3356,-0.2873
335111.0,-1.7454,-0.7685,10.817,-0.5491,-1.5995,-0.3613
335121.0,-1.3455,-0.3089,9.505,-0.4603,-1.6671,-0.3863
335131.0,-1.0534,-0.158,9.0812,-0.3528,-1.5421,-0.3698
335141.0,-1.0942,-0.2562,9.742,-0.2187,-1.3521,-0.3272
335151.0,-1.2977,-0.5794,10.6949,-0.1203,-1.293,-0.2905
335161.0,-1.2258,-0.9481,11.1618,-0.1091,-1.4532,-0.2868
335171.0,-1.0511,-0.9912,10.7021,-0.1368,-1.6974,-0.315
335181.0,-0.7207,-0.9984,9.8904,-0.1905,-1.8922,-0.348
335191.0,-0.2586,-1.2163,9.2895,-0.2049,-1.9619,-0.3666
335201.0,-0.0766,-1.3575,8.8609,-0.1272,-1.9268,-0.3783
335211.0,0.2658,-1.9273,9.1339,-0.0064,-1.8507,-0.3863
335221.0,0.4812,-2.4828,9.2895,0.1894,-1.798,-0.422
335231.0,0.6177,-2.6815,9.232,0.3139,-1.8273,-0.5215
335241.0,0.5938,-1.8794,8.5497,0.3331,-1.9225,-0.6683
335251.0,0.668,-0.3472,7.3741,0.2081,-2.0087,-0.7918
335261.0,0.929,0.8835,6.268,-0.0793,-2.0252,-0.8391
335271.0,1.312,1.4317,5.8945,-0.4198,-1.9656,-0.8051
335281.0,1.6807,1.4198,5.9807,-0.5678,-1.8161,-0.705
335291.0,2.0901,1.0127,6.0047,-0.4262,-1.5995,-0.5619
335301.0,2.375,0.3065,6.0549,-0.1442,-1.3665,-0.4236
335311.0,2.5833,-0.3663,5.9161,0.1586,-1.177,-0.3379
335321.0,2.7677,-0.6345,5.6,0.4129,-1.0174,-0.3214
335331.0,2.9856,-0.3065,5.1667,0.5922,-0.8503,-0.3517
335341.0,2.9018,0.589,4.9752,0.6465,-0.6513,-0.3948
335351.0,2.7581,1.7142,5.0398,0.588,-0.4879,-0.4039
335361.0,2.8395,2.4948,5.0326,0.4597,-0.3927,-0.3491
335371.0,3.0263,2.6959,4.7477,0.3363,-0.2756,-0.2389
335381.0,3.1603,2.49,4.4915,0.2762,-0.0995,-0.1096
335391.0,3.213,2.0159,4.3072,0.2543,0.1336,0.0064
335401.0,3.0837,1.585,4.3814,0.2256,0.3725,0.0809
335411.0,2.9305,1.5179,4.47,0.2049,0.5848,0.124
335421.0,2.7222,1.4245,4.5825,0.1655,0.7678,0.1591
335431.0,2.8132,1.0247,4.5897,0.1043,0.9237,0.19
335441.0,2.6504,0.6776,5.3534,0.0889,1.1925,0.1921
335451.0,2.1907,0.7302,6.5074,0.107,1.4399,0.1724
335461.0,1.913,0.5842,7.8434,0.0788,1.5298,0.1586
335471.0,1.6017,0.9385,8.4611,0.0782,1.5261,0.1453
335481.0,1.3647,1.4629,8.904,0.0138,1.474,0.1442
335491.0,1.1205,1.9058,8.9136,-0.1117,1.3633,0.1815
335501.0,0.5794,2.2098,8.8562,-0.2788,1.2233,0.249
335511.0,0.51,2.2338,7.4531,-0.4528,0.9573,0.3406
335521.0,1.0606,1.9752,4.4245,-0.6449,0.7141,0.4273
335531.0,1.3862,2.0518,0.7757,-0.7982,0.8833,0.5044
335541.0,0.9768,1.5467,-0.6847,-0.9365,1.5091,0.5976
335551.0,0.0622,0.9984,-1.4198,-0.9626,2.3583,0.7136
335561.0,-1.4413,-0.0694,0.3304,-1.0962,3.2454,0.8147
335571.0,-2.6456,-1.731,3.3782,-1.0791,4.0111,0.9073
335581.0,-3.9696,-2.9904,6.7636,-0.7354,4.6549,0.9349
335591.0,-5.2337,-3.0957,9.6486,-0.2368,5.0641,0.8785
335601.0,-6.3853,-2.2889,12.0045,0.1485,5.2088,0.7764
335611.0,-6.9288,-1.2713,14.3269,0.3288,5.1461,0.6917
335621.0,-7.4699,-1.6089,16.5607,0.5773,5.0732,0.6848
335631.0,-7.8793,-2.5259,19.5487,0.7497,4.9348,0.647
335641.0,-9.8976,-3.2178,23.3818,0.8897,4.6714,0.5353
335651.0,-6.9623,-4.0318,26.3123,1.1286,4.052,0.3501
335661.0,-7.9655,-2.9592,28.1103,1.3015,3.339,0.0814
335671.0,-8.2049,-1.1779,28.5413,1.1196,2.2982,-0.1756
335681.0,-8.1594,0.3759,27.1838,0.6204,1.0791,-0.3645
335691.0,-7.6854,1.6113,23.9827,0.0298,0.0245,-0.4768
335701.0,-7.3789,1.8076,21.4161,-0.6556,-0.7407,-0.53
335711.0,-7.1108,1.8579,18.8088,-1.0584,-1.2015,-0.5247
335721.0,-6.7469,1.5036,16.9294,-1.2185,-1.4527,-0.4704
335731.0,-6.2752,1.1995,15.038,-1.0679,-1.5213,-0.3746
335741.0,-5.8299,0.9912,13.714,-0.7471,-1.4394,-0.2639
335751.0,-5.4492,1.0367,12.8066,-0.3677,-1.2829,-0.1511
335761.0,-5.1906,1.2402,12.1937,-0.0399,-1.1419,-0.0426
335771.0,-4.889,1.3264,11.6286,0.1235,-1.0855,0.0474
335781.0,-4.4819,1.0798,11.2288,0.1117,-1.094,0.1139
335791.0,-4.1013,0.3496,11.2001,0.0218,-1.1068,0.1474
335801.0,-3.7373,-0.4884,11.4874,-0.0803,-1.1105,0.1272
335811.0,-3.5338,-1.4581,12.3732,-0.1511,-1.126,0.0474
335821.0,-3.7278,-1.4605,12.8401,-0.215,-1.2404,-0.0968
335831.0,-3.7421,-0.7446,13.4985,-0.4135,-1.5293,-0.2634
335841.0,-3.8259,0.158,12.7084,-0.4619,-1.8768,-0.3592
335851.0,-3.45,0.6967,10.9367,-0.489,-2.1604,-0.3773
335861.0,-2.8611,0.9864,9.2871,-0.5683,-2.253,-0.3634
335871.0,-2.4995,0.9194,8.3821,-0.629,-2.1449,-0.3241
335881.0,-2.2625,0.2993,8.4252,-0.7279,-1.9912,-0.2889
335891.0,-2.1332,-0.2418,9.0309,-0.7971,-1.8778,-0.2831
335901.0,-2.0782,-0.5938,9.6893,-0.7721,-1.8741,-0.2927
335911.0,-1.7789,-0.6393,9.4068,-0.5912,-1.9342,-0.2905
335921.0,-1.3886,-0.4357,8.6191,-0.4033,-1.9497,-0.2799
335931.0,-1.0487,-0.0503,7.9152,-0.3299,-1.9103,-0.2692
335941.0,-0.9242,0.1125,7.7764,-0.3847,-1.839,-0.2522
335951.0,-0.7566,-0.0359,7.9799,-0.4864,-1.7868,-0.224
335961.0,-0.5531,-0.6871,8.5832,-0.5481,-1.7868,-0.1985
335971.0,-0.431,-1.0582,8.5018,-0.4959,-1.8496,-0.1995
335981.0,-0.1556,-1.3216,8.0517,-0.3421,-1.9124,-0.2118
335991.0,0.431,-1.1588,6.8187,-0.0548,-1.9028,-0.2086
336001.0,0.9816,-0.7949,5.3295,0.2086,-1.7618,-0.1942
336011.0,1.4054,-0.5626,4.9129,0.3852,-1.4527,-0.1596
336021.0,1.5778,-0.6105,5.3463,0.5119,-1.0695,-0.1048
336031.0,1.5538,-0.8236,6.505,0.5326,-0.8157,-0.074
336041.0,1.3216,-0.6129,7.7835,0.4954,-0.7391,-0.0793
336051.0,1.3312,-0.4022,7.9942,0.4965,-0.8296,-0.0681
336061.0,1.5419,-0.6512,7.2856,0.4816,-0.9839,-0.0431
336071.0,1.9632,-0.8236,6.1699,0.4358,-1.0286,-0.0452
336081.0,2.3248,-1.0558,5.3774,0.3884,-0.9216,-0.0692
336091.0,2.5977,-1.3096,5.1451,0.2873,-0.7423,-0.1117
336101.0,2.6695,-1.4245,5.7221,0.1458,-0.5465,-0.1815
336111.0,2.4397,-0.9912,6.426,0.0298,-0.4289,-0.2666
336121.0,2.2458,-0.3591,6.6559,-0.075,-0.4571,-0.3267
336131.0,2.1979,0.2155,6.2776,-0.0958,-0.5172,-0.3283
336141.0,2.4995,0.3855,5.2337,0.016,-0.4677,-0.2634
336151.0,2.794,-0.0527,4.4077,0.1745,-0.2448,-0.1761
336161.0,2.9137,-0.7685,4.0725,0.2841,0.0873,-0.1176
336171.0,2.8539,-1.549,4.6878,0.2772,0.4305,-0.1272
336181.0,2.6001,-2.2913,6.0142,0.2022,0.6971,-0.2091
336191.0,2.1428,-2.4445,7.5753,0.1458,0.8381,-0.3539
336201.0,1.5419,-1.7645,8.6766,0.1016,0.779,-0.5225
336211.0,1.3096,-0.6919,8.7364,0.041,0.5321,-0.6582
336221.0,1.0846,0.6991,7.5298,-0.0149,0.232,-0.7359
336231.0,1.9632,2.1787,3.6392,-0.1618,-0.0314,-0.7184
336241.0,3.7326,2.0135,1.4772,-0.5938,0.0681,-0.6588
336251.0,1.8316,3.3136,0.0,-0.978,0.5247,-0.5875
336261.0,1.5299,3.6009,0.2227,-1.3819,0.9222,-0.4347
336271.0,1.075,3.9887,0.4884,-1.491,1.3101,-0.2027
336281.0,0.5794,4.3718,0.2442,-1.2478,1.7762,0.1155
336291.0,-0.7853,4.2114,0.0048,-1.0036,2.1402,0.4656
336301.0,-2.1739,4.221,-2.5043,-0.6588,2.4866,0.821
336311.0,-1.9537,3.1963,-5.114,-0.522,3.008,1.1435
336321.0,-3.3639,1.5203,-5.6168,-0.2623,4.1877,1.4229
336331.0,-6.1651,-0.4166,-3.6009,-0.0708,5.5984,1.6245
336341.0,-8.6311,-2.5522,1.1133,-0.2001,6.6695,1.6911
336351.0,-10.3358,-3.8235,9.6151,-0.0702,7.5794,1.6283
336361.0,-14.267,-3.7397,18.4545,1.0695,8.1568,1.5282
336371.0,-14.9542,-4.4604,23.2501,2.2876,7.8907,1.4718
336381.0,-12.1171,-6.7253,30.0161,3.1033,7.3676,1.2409
336391.0,-12.3134,-6.1938,35.6712,3.8871,6.6855,0.8136
336401.0,-12.2487,-4.2976,40.1675,3.9765,5.1902,0.2331
336411.0,-13.0149,0.8619,38.1061,3.3183,2.991,-0.3618
336421.0,-12.3828,4.0845,34.4119,1.4963,0.5981,-0.8077
336431.0,-11.2623,5.5522,27.9044,-0.3108,-1.2159,-1.0185
336441.0,-10.4914,4.9057,23.8678,-1.8379,-2.1907,-1.0648
336451.0,-9.9359,3.9241,20.8176,-2.494,-2.5951,-0.9653
336461.0,-9.3685,3.1173,18.3013,-2.3551,-2.6531,-0.7503
336471.0,-8.5281,2.4134,16.4673,-1.7012,-2.4695,-0.4566
336481.0,-7.9152,1.7454,15.7562,-0.7279,-2.0806,-0.124
336491.0,-7.6806,1.3719,15.3181,0.282,-1.7081,0.1804
336501.0,-7.4005,1.0175,15.2223,0.9094,-1.5772,0.3922
336511.0,-6.9264,0.7015,14.789,1.0658,-1.7118,0.4853
336521.0,-6.5481,0.407,14.212,0.8583,-1.989,0.4693
336531.0,-6.2225,0.2705,13.1418,0.4284,-2.3402,0.3714
336541.0,-5.6719,0.1628,12.1099,-0.0947,-2.6707,0.2325
336551.0,-5.0374,0.1772,10.829,-0.5231,-2.8984,0.0915
336561.0,-4.5586,0.2251,9.9383,-0.8615,-2.9883,-0.0394
336571.0,-4.1444,0.3879,9.821,-1.0743,-2.9878,-0.1415
336581.0,-3.9049,0.6728,9.5984,-1.0637,-2.982,-0.1862
336591.0,-3.5889,0.8452,8.8609,-0.9019,-3.0107,-0.1756
336601.0,-2.9736,1.0463,7.3717,-0.6518,-2.9985,-0.1197
336611.0,-2.2386,1.1037,5.679,-0.4145,-2.85,-0.0388
336621.0,-1.6065,1.0439,4.5107,-0.2751,-2.5488,0.0372
336631.0,-0.9625,0.395,4.6495,-0.2501,-2.1476,0.0968
336641.0,-0.8068,-0.3926,5.9592,-0.2634,-1.7608,0.1133
336651.0,-0.7925,-1.1708,8.1379,-0.2857,-1.5261,0.0734
336661.0,-1.0534,-1.4293,9.9527,-0.2538,-1.5373,-0.0106
336671.0,-1.3264,-1.1971,10.2807,-0.2001,-1.8108,-0.1086
336681.0,-0.8859,-0.7159,8.9112,-0.1426,-2.1487,-0.1783
336691.0,-0.2035,-0.1987,6.9959,-0.0601,-2.2562,-0.2097
336701.0,0.2682,0.2945,5.7293,-0.0303,-2.1029,-0.2198
336711.0,0.5267,0.6464,5.9233,-0.0772,-1.831,-0.2139
336721.0,0.4717,0.905,6.9767,-0.1213,-1.6096,-0.1825
336731.0,0.34,0.9529,7.7859,-0.1474,-1.5788,-0.1277
336741.0,0.6943,0.5004,7.695,-0.1405,-1.6916,-0.05
336751.0,1.2498,-0.1293,6.6319,-0.0873,-1.7735,0.0122
336761.0,2.0111,-0.7326,5.6407,-0.017,-1.6793,0.0341
336771.0,2.3894,-1.1013,5.6695,0.0713,-1.3957,0.0149
336781.0,2.2817,-0.9792,6.4332,0.1639,-1.1275,-0.0372
336791.0,2.0351,-0.407,7.2401,0.2315,-1.0185,-0.0883
336801.0,1.9585,0.2658,7.4771,0.2416,-1.0546,-0.1107
336811.0,2.0566,0.7494,6.9408,0.1591,-1.1611,-0.0995
336821.0,2.5809,0.6249,6.0597,-0.058,-1.2648,-0.0734
336831.0,3.0909,0.1413,5.1906,-0.3443,-1.2744,-0.0718
336841.0,3.4931,-0.407,4.8578,-0.6077,-1.1584,-0.1011
336851.0,3.7326,-1.1732,5.545,-0.7407,-0.912,-0.1394
336861.0,3.5027,-1.5538,7.118,-0.6875,-0.6635,-0.2049
336871.0,3.4333,-1.0439,7.9607,-0.422,-0.5656,-0.2655
336881.0,3.3543,-0.4142,8.3151,-0.0809,-0.5518,-0.2783
336891.0,3.5171,0.1221,7.5298,0.282,-0.5678,-0.2373
336901.0,3.9409,0.4525,6.1363,0.547,-0.5385,-0.1788
336911.0,4.2234,0.7207,5.0589,0.6396,-0.3608,-0.1341
336921.0,4.1348,1.0463,4.6567,0.5406,-0.1203,-0.1133
336931.0,4.0773,1.0511,4.6448,0.3134,0.0628,-0.0905
336941.0,4.0318,0.8882,4.8554,0.1038,0.2485,-0.0639
336951.0,3.7565,0.6823,5.5378,-0.0309,0.4512,-0.0399
336961.0,3.4812,0.7661,5.8754,-0.0277,0.5779,-0.0128
336971.0,3.2657,1.1157,5.2505,0.0255,0.6311,0.0186
336981.0,3.3016,1.3647,3.8235,0.0149,0.6412,0.0612
336991.0,3.4644,1.549,1.8842,-0.009,0.7987,0.1128
337001.0,3.3088,1.7095,0.5483,-0.0649,1.1962,0.165
337011.0,3.6105,1.1827,0.1628,-0.1336,1.723,0.2283
337021.0,0.7566,1.1085,0.4764,-0.2432,2.27,0.2735
337031.0,0.9577,0.5555,0.9433,-0.3719,2.5909,0.3129
337041.0,0.0862,0.4717,1.1899,-0.2336,3.0272,0.3618
337051.0,-0.9409,1.1564,1.1468,0.0979,3.5061,0.4156
337061.0,-1.9609,2.6073,0.0527,0.3459,3.9089,0.4933
337071.0,-3.5721,4.2665,-0.4908,0.3491,4.408,0.6215
337081.0,-4.9129,3.9049,0.4549,0.1288,5.0492,0.8562
337091.0,-6.4691,1.2019,4.0247,-0.232,5.7468,1.0834
337101.0,-7.7692,-1.6903,9.3805,-0.5757,6.1411,1.1393
337111.0,-8.5497,-3.6344,15.1146,-0.5938,6.1565,1.0546
337121.0,-8.8226,-4.1731,19.3763,-0.0841,5.8538,0.9099
337131.0,-8.5784,-3.4524,21.3994,0.7194,5.3291,0.7492
337141.0,-8.4539,-1.8268,21.6699,1.4952,4.7672,0.5928
337151.0,-8.6957,0.4932,20.7529,1.9773,4.2963,0.4613
337161.0,-8.3797,2.5091,20.3244,1.8917,3.8812,0.3672
337171.0,-9.6175,3.292,21.6963,1.2898,3.4901,0.3528
337181.0,-9.5481,0.9385,23.9612,0.5917,2.9543,0.4033
337191.0,-9.3805,-1.6616,26.1016,0.0197,2.2482,0.3187
337201.0,-9.3039,-2.6408,27.1933,-0.2166,1.4388,0.1038
337211.0,-9.1171,-2.2122,25.8286,-0.1086,0.5928,-0.1261
337221.0,-8.6239,-0.9218,22.6324,-0.0271,-0.1777,-0.3347
337231.0,-8.0278,0.7542,19.2374,-0.1713,-0.7035,-0.5039
337241.0,-7.7309,2.2984,17.0946,-0.4965,-0.9264,-0.5986
337251.0,-7.6686,3.1508,16.3117,-0.8583,-1.0099,-0.5944
337261.0,-7.5824,3.3255,16.4266,-1.1387,-1.0988,-0.5092
337271.0,-7.5058,2.9928,17.0419,-1.1866,-1.243,-0.364
337281.0,-7.2449,2.5115,16.4123,-0.953,-1.4819,-0.1868
337291.0,-6.8043,1.8244,15.0883,-0.6699,-1.7453,-0.0266
337301.0,-6.2201,0.8691,13.4602,-0.4145,-1.9316,0.0841
337311.0,-5.6503,-0.0934,12.1697,-0.2469,-1.9832,0.1091
337321.0,-5.0182,-0.68,12.0548,-0.1889,-1.922,0.0394
337331.0,-5.296,-0.8068,13.5655,-0.2304,-1.8321,-0.1064
337341.0,-5.8442,-0.3136,15.0883,-0.4023,-2.0476,-0.2943
337351.0,-5.9759,0.3855,15.3181,-0.7567,-2.701,-0.4826
337361.0,-5.4851,1.4006,13.4003,-1.0578,-3.4273,-0.6316
337371.0,-5.0829,2.6001,10.6422,-1.2808,-3.9068,-0.7184
337381.0,-4.7238,3.6583,8.3773,-1.4191,-4.0914,-0.7184
337391.0,-4.4676,4.3646,6.4404,-1.4718,-4.1494,-0.6295
337401.0,-3.9576,4.3359,5.2864,-1.4154,-4.1047,-0.4746
337411.0,-3.4931,3.9887,4.944,-1.1052,-3.9116,-0.2857
337421.0,-3.1939,3.6368,5.2481,-0.5821,-3.6476,-0.0867
337431.0,-2.7701,3.802,6.3159,0.0633,-3.4422,0.116
337441.0,-3.2777,4.5538,6.3135,0.77,-3.4385,0.364
337451.0,-4.1372,4.7836,5.1523,1.4479,-3.6189,0.6854
337461.0,-2.8036,4.3479,0.9361,2.0933,-3.8174,1.035
337471.0,-1.4868,3.2609,-3.0813,2.2381,-3.6577,1.3079
337481.0,-0.8523,1.9848,-4.3287,1.9417,-3.1671,1.4037
337491.0,-0.3567,1.1732,-5.1739,1.5027,-2.7122,1.359
337501.0,1.0032,-0.1748,-4.6974,0.9126,-2.2913,1.2228
337511.0,1.2881,-0.6153,-3.043,0.4097,-1.8262,0.9951
337521.0,1.3647,-0.565,-0.5962,0.0894,-1.5378,0.7583
337531.0,1.9345,-0.1413,2.2625,0.207,-1.4473,0.5784
337541.0,2.0925,1.0487,-0.4836,1.0882,-1.4718,0.5321
337551.0,4.0869,0.8571,-3.146,1.4878,-1.4617,0.5433
337561.0,4.4867,2.0686,-6.6295,1.8113,-0.928,0.5337
337571.0,3.9504,2.6145,-6.9168,1.8102,-0.1325,0.5598
337581.0,4.6663,2.2745,-6.9911,1.6011,0.5789,0.6407
337591.0,3.9696,0.8452,-4.2593,1.4064,1.4175,0.6907
337601.0,3.6631,-1.0511,-1.1923,1.4197,1.9949,0.6699
337611.0,3.9983,-2.5474,0.7159,1.648,2.4078,0.5438
337621.0,3.4979,-3.0215,3.0957,1.9119,2.858,0.3198
337631.0,3.3782,-2.2936,5.7581,1.9981,3.1256,0.0367
337641.0,1.9369,-0.6057,8.4156,2.0875,3.2235,-0.2123
337651.0,1.3455,1.5514,8.9974,2.1348,3.0857,-0.3288
337661.0,0.9984,2.8491,9.4547,1.9773,2.9415,-0.3235
337671.0,0.4764,2.411,10.5058,1.9092,2.8926,-0.2283
337681.0,0.2921,0.9457,10.6087,2.0066,2.8042,-0.1676
337691.0,0.3543,-0.2418,9.6295,2.0838,2.7361,-0.2437
337701.0,0.1149,-0.5626,9.7229,1.9587,2.8692,-0.4491
337711.0,-0.8739,0.3543,11.2408,1.7379,3.1554,-0.687
337721.0,-2.0925,1.3743,13.8361,1.301,3.2368,-0.8764
337731.0,-3.2226,2.5905,16.0842,0.7396,2.9969,-0.9897
337741.0,-3.9289,3.2274,17.5184,0.1032,2.436,-1.0115
337751.0,-3.8355,3.3184,16.611,-0.4092,1.6176,-0.9514
337761.0,-3.0406,3.0837,11.5568,-0.688,0.7551,-0.8562
337771.0,-1.9872,3.4165,3.9361,-0.9562,0.3326,-0.7998
337781.0,-1.9609,4.1324,-4.0534,-1.4697,0.4895,-0.7748
337791.0,-1.1085,5.1643,-11.0923,-2.1604,1.2441,-0.7301
337801.0,-4.7333,7.853,-16.0675,-2.6547,2.9213,-0.563
337811.0,-9.7899,8.7412,-14.7219,-3.5316,4.8624,-0.1123
337821.0,-14.947,6.7852,-7.8266,-4.0478,6.7344,0.6045
337831.0,-20.5446,1.0247,-0.8356,-3.4337,8.2781,1.4202
337841.0,-24.7417,-7.6399,7.9392,-2.3557,9.4168,1.8741
337851.0,-24.61,-14.2335,18.1097,-0.7407,10.3991,1.6549
337861.0,-25.1391,-15.105,34.6872,0.953,10.8716,0.687
