time_ms,ax,ay,az,gx,gy,gz
1436441.0,-9.7205,4.3287,37.7326,-3.6828,-0.6236,-0.8769
1436451.0,-6.8953,1.743,42.3486,-5.4749,-1.0286,-0.886
1436461.0,-4.0127,1.81,40.5195,-6.437,-0.6965,-0.861
1436471.0,-1.7142,-2.375,44.264,-6.7222,-0.464,-0.9929
1436481.0,0.8811,-1.9537,42.3391,-3.6216,0.0835,-1.0525
1436491.0,-0.0479,-0.3352,41.3335,-4.077,0.0261,-1.2441
1436501.0,2.6719,-2.6719,42.3103,-2.875,0.414,-1.0174
1436511.0,0.8906,-2.2027,42.8179,-2.7452,0.4438,-0.8477
1436521.0,-1.6089,-5.0566,38.6424,-1.8581,0.3741,-0.7444
1436531.0,-1.2354,-6.1866,40.0694,0.8732,1.1946,-0.588
1436541.0,-0.3543,-5.0374,41.3239,2.4403,1.7751,-0.5992
1436551.0,-1.0343,-4.5011,37.7422,4.233,2.0726,-0.58
1436561.0,-0.4214,-3.2465,42.2816,5.7777,2.6074,-0.4555
1436571.0,8.8681,2.3463,42.5402,6.1991,2.0619,-0.1719
1436581.0,-0.3543,-5.3056,41.2856,5.1423,3.1921,0.0106
1436591.0,-3.3232,-3.2082,42.8275,8.5213,3.4795,0.1298
1436601.0,-4.051,-1.9728,43.5266,8.8879,3.3757,0.1681
1436611.0,-8.1403,-13.8289,78.4508,7.9631,0.9695,0.3022
1436621.0,-27.3801,-12.9957,44.1778,2.842,0.7577,0.1101
1436631.0,8.4467,17.8416,15.8017,2.0609,2.428,-0.0713
1436641.0,-12.2104,-0.0575,46.2943,-0.1809,2.6478,0.183
1436651.0,1.3791,5.6216,26.5661,-0.1325,1.665,0.1788
1436661.0,-4.0318,3.8786,41.4867,-1.8289,2.7324,-0.1995
1436671.0,-5.5162,5.2864,29.5636,-3.033,2.6712,-0.4864
1436681.0,-9.7875,0.5842,42.1284,-3.2017,1.2255,-0.5694
1436691.0,1.9824,-12.3541,78.4508,0.8615,0.0878,-0.5273
1436701.0,-15.1409,-4.5394,53.8121,1.6022,1.16,-0.622
1436711.0,-1.3886,5.2864,40.8642,2.833,-0.2347,-0.596
1436721.0,-8.9064,-0.1724,53.9366,3.7285,-0.2985,-0.6279
1436731.0,-5.7365,1.4174,43.7277,4.4501,0.1442,-0.4922
1436741.0,-7.8913,2.3655,40.7685,5.0348,-0.4028,-0.1495
1436751.0,-6.79,4.549,32.1972,3.6386,0.2405,0.0665
1436761.0,-3.5147,7.0102,31.0097,2.1806,0.4917,-0.0947
1436771.0,-6.1387,7.106,30.0041,0.364,1.0163,-0.1086
1436781.0,-9.414,6.7229,31.9865,-1.2627,1.2489,-0.2033
1436791.0,-6.9623,7.7285,28.4431,-2.7452,1.0632,-0.2799
1436801.0,-7.3741,7.0198,32.5324,-4.2058,0.8088,-0.4683
1436811.0,-2.6049,5.3151,40.1843,-4.9444,0.8775,-0.5938
1436821.0,-0.8523,3.2178,36.4781,-5.303,0.7652,-0.5933
1436831.0,-6.1962,1.0056,45.9399,-5.998,1.1898,-0.3634
1436841.0,-11.3198,-3.1603,64.2795,-3.0767,0.1756,0.1123
1436851.0,-0.4884,2.9497,44.1108,-0.1793,2.2769,0.4321
1436861.0,-5.7557,-3.1125,50.0963,3.1533,0.5624,0.6508
1436871.0,-7.7285,-1.7142,47.5584,3.2001,1.7161,0.447
1436881.0,-6.4643,2.7869,43.833,4.1845,1.2185,0.4475
1436891.0,-6.426,2.988,42.5306,4.2798,1.5192,0.39
1436901.0,-5.1332,3.6966,42.454,4.2926,2.1545,0.2975
1436911.0,-7.8626,3.1316,44.7907,4.6517,2.4722,0.2943
1436921.0,-12.3924,4.9416,39.964,5.0072,2.2902,0.5896
1436931.0,-7.6806,5.7461,32.9825,4.715,1.7554,0.5938
1436941.0,-4.7405,7.0102,31.7184,3.2352,1.9582,0.3618
1436951.0,-5.679,7.1251,32.2451,1.914,1.9566,0.2192
1436961.0,-5.8514,8.0732,30.0616,0.3959,2.1045,0.0484
1436971.0,-5.9185,8.5712,29.4391,-1.4952,2.6803,-0.2081
1436981.0,-7.7572,7.4891,32.475,-3.1969,3.3571,-0.4608
1436991.0,-9.0884,5.296,35.0128,-4.1867,3.5423,-0.6492
1437001.0,-9.912,3.9935,39.3703,-4.425,3.3763,-0.8466
1437011.0,-9.9407,4.4436,43.9575,-3.8355,2.8511,-0.97
1437021.0,-9.8545,5.2577,44.0629,-3.0698,2.5861,-0.9019
1437031.0,-10.659,4.9895,43.3159,-2.4392,2.4562,-0.7907
1437041.0,-12.402,4.7884,39.217,-2.0864,2.0689,-0.6726
1437051.0,-9.4715,4.2329,31.862,-2.6622,2.013,-0.7524
1437061.0,-11.0133,4.0989,34.2754,-3.5247,1.8736,-0.8881
1437071.0,-12.2104,4.5298,33.2028,-4.9348,2.6063,-0.9812
1437081.0,-12.7084,2.6911,39.6767,-5.3967,2.8463,-0.9935
1437091.0,-13.6278,1.6376,47.3765,-5.1562,2.8809,-1.0355
1437101.0,-12.8712,2.0016,53.7929,-2.9931,2.7776,-0.9535
1437111.0,-14.7004,5.0182,54.8559,-3.1458,3.1059,-0.879
1437121.0,-12.9861,5.114,47.5967,-2.6957,3.6232,-0.6045
1437131.0,-17.1904,5.6216,47.0508,-2.9309,3.1437,-0.3171
1437141.0,-14.7579,5.4109,44.9823,-3.8897,1.9278,-0.1628
1437151.0,-14.6046,3.2465,47.3286,-3.8525,1.3228,0.0325
1437161.0,-14.8728,3.8403,45.0493,-4.424,1.2382,0.1655
1437171.0,-15.4282,1.743,48.8896,-4.7869,0.4656,0.2847
1437181.0,-14.1737,0.8523,48.382,-4.6347,-0.1043,0.3783
1437191.0,-14.6717,-0.4597,48.5736,-4.051,-0.4246,0.4959
1437201.0,-14.5376,-2.1548,47.2137,-3.5423,-0.5289,0.5497
1437211.0,-14.3652,-3.2657,47.0796,-3.2842,-0.6316,0.4645
1437221.0,-13.2735,-5.5162,49.4546,-2.8718,-0.9509,0.3214
1437231.0,-12.3253,-6.857,50.6517,-2.4876,-1.3665,0.1176
1437241.0,-12.6988,-8.2839,53.4482,-1.7187,-1.7416,-0.1171
1437251.0,-12.4211,-8.6383,54.4633,-0.9972,-2.4105,-0.4305
1437261.0,-13.4267,-8.9352,54.0036,-0.6577,-3.6141,-0.7849
1437271.0,-12.718,-8.2361,50.8145,-0.2049,-4.292,-1.1722
1437281.0,-13.1777,-6.5218,47.319,0.497,-4.2234,-1.4798
1437291.0,-13.9821,-3.0071,43.2967,0.1437,-4.2282,-1.5756
1437301.0,-13.283,-1.5897,43.5457,-0.0404,-4.4532,-1.5064
1437311.0,-11.9997,-0.0575,41.7453,-0.2272,-4.4038,-1.3558
1437321.0,-12.2009,0.4214,40.4045,-0.3693,-4.2042,-1.1121
1437331.0,-11.7124,0.4788,38.5945,-0.6412,-3.72,-0.8594
1437341.0,-11.1761,-0.929,38.8723,-0.5981,-3.4593,-0.6625
1437351.0,-8.916,-1.8962,36.3727,-0.5933,-2.9761,-0.5933
1437361.0,-7.7859,-2.4517,35.0703,-0.5502,-2.0731,-0.6417
1437371.0,-7.7285,-1.6951,36.2865,-0.6513,-1.1802,-0.6848
1437381.0,-8.4755,0.0862,37.7997,-1.0456,-0.8429,-0.597
1437391.0,-8.5904,0.8619,39.1596,-1.4473,-0.6859,-0.4055
1437401.0,-9.3278,1.3216,40.0023,-1.5889,-0.2799,-0.075
1437411.0,-9.5002,0.7661,41.2952,-1.1132,0.4236,0.4161
1437421.0,-8.3031,-1.2737,44.082,-0.713,1.3957,0.7322
1437431.0,-8.5425,-3.3423,49.6174,-0.0335,1.3659,0.9583
1437441.0,-7.5944,-4.8459,52.1649,0.1213,1.0094,1.002
1437451.0,-7.2496,-6.4548,54.1377,0.8535,0.6524,1.0041
1437461.0,-6.608,-5.7748,52.4713,1.0413,0.1825,1.0068
1437471.0,-6.1483,-6.359,50.8145,0.5933,-0.3145,0.9163
1437481.0,-6.5027,-5.8323,47.6542,0.2363,-0.3155,0.8163
1437491.0,-7.6998,-4.8267,46.7923,-0.4997,0.4576,0.7748
1437501.0,-9.2895,-5.8993,51.4849,-0.473,1.2717,0.8333
1437511.0,-10.4387,-6.8283,56.9724,-0.2543,1.5202,0.8168
1437521.0,-11.0516,-7.039,63.8103,0.3746,1.1957,0.7875
1437531.0,-11.1666,-5.1523,67.1526,1.127,0.3171,0.8365
1437541.0,-11.6358,-3.486,69.8149,1.6815,-0.9929,1.028
1437551.0,-11.1857,-1.5897,68.1103,1.6629,-2.494,1.2904
1437561.0,-11.3964,-1.7238,66.9036,1.3643,-4.134,1.5516
1437571.0,-11.0038,-2.7581,63.4751,1.3079,-5.3387,1.7783
1437581.0,-12.0764,-4.9129,60.2573,1.5213,-5.6441,1.8411
1437591.0,-11.4251,-7.8626,58.2366,2.594,-5.767,1.7735
1437601.0,-8.667,-9.2033,53.9174,2.4914,-5.9857,1.4282
1437611.0,-7.4316,-9.8067,57.3172,3.2624,-5.8894,0.8908
1437621.0,-6.1675,-4.9416,51.1689,3.8674,-5.8495,0.6114
1437631.0,-7.2113,-1.6855,49.694,2.8692,-6.1826,0.4331
1437641.0,-6.7516,1.1013,47.1658,2.2221,-6.2662,0.4033
1437651.0,-7.0198,2.2889,45.3941,1.318,-6.0996,0.4864
1437661.0,-7.0581,1.5802,44.2448,0.655,-5.5531,0.4757
1437671.0,-7.2592,1.2163,44.9248,0.0521,-4.7805,0.3278
1437681.0,-9.2512,1.312,50.7571,-0.2123,-4.2101,0.2661
1437691.0,-10.2568,0.8428,57.5183,0.5225,-4.3521,0.3475
1437701.0,-9.7492,1.7334,61.1671,1.1717,-5.0524,0.4773
1437711.0,-9.6726,1.9824,64.7584,1.8102,-6.238,0.6896
1437721.0,-8.8107,2.2697,63.8294,1.9789,-7.821,0.8328
1437731.0,-10.3142,2.2793,60.4009,1.6128,-9.4636,0.8093
1437741.0,-10.0652,2.3846,56.8383,1.2558,-10.5167,0.7013
1437751.0,-10.0365,4.7692,53.496,1.3995,-11.1823,0.655
1437761.0,-11.224,6.4069,52.2702,1.872,-11.7283,0.87
1437771.0,-11.0995,8.102,48.9375,2.5823,-12.594,1.2691
1437781.0,-9.8545,9.5768,43.6224,2.875,-13.1331,1.7427
1437792.0,-7.6998,10.6494,37.8667,2.941,-13.4768,2.2897
1437801.0,-5.9185,10.9176,30.483,2.1274,-13.9674,2.7649
1437811.0,-4.0606,8.3318,24.9284,0.6971,-14.5767,3.0298
1437821.0,-0.8811,3.0742,19.3451,0.6018,-14.3319,3.2076
1437831.0,1.8483,-1.6089,13.7619,2.0242,-12.7196,3.1911
1437841.0,4.9033,-4.0031,9.8354,3.7557,-10.1442,2.9655
1437851.0,5.545,-2.2601,9.4906,4.5442,-8.1834,2.6074
1437861.0,5.7174,3.8403,10.7452,3.8615,-7.2463,2.3982
1437871.0,5.4971,8.6383,14.0204,2.7994,-6.8999,2.5281
1437881.0,6.359,10.8314,15.2367,1.2372,-6.8068,2.7936
1437891.0,6.8378,10.4483,18.4832,0.1437,-6.9818,3.0831
1437901.0,6.7325,9.5481,20.8008,-0.4177,-7.0782,3.3528
1437911.0,6.8953,9.1937,21.7298,-0.2267,-7.4512,3.6343
1437921.0,7.5944,9.7109,20.0059,0.1926,-7.7843,4.0308
1437931.0,9.1746,9.4427,17.2574,0.8195,-7.7124,4.5022
1437941.0,10.2759,8.8298,13.2735,1.3207,-7.5113,4.9524
1437951.0,11.3677,6.7708,9.0597,1.1808,-7.3325,5.3142
1437961.0,12.6318,3.0263,2.7102,-0.1203,-7.606,5.393
1437971.0,14.8153,-3.4477,-3.7541,-2.1354,-7.9397,5.1109
1437981.0,18.7035,-8.2073,-14.2982,-3.9669,-7.5778,4.3873
1437991.0,21.4233,-11.2527,-21.4042,-5.51,-5.709,3.4018
1438001.0,22.7545,-11.971,-20.5039,-4.9109,-3.5109,2.46
1438011.0,22.6875,-7.4316,-21.9979,-3.0926,-1.649,1.922
1438021.0,20.3411,-3.2082,-20.4178,-0.9174,-0.5044,1.8246
1438031.0,19.8048,0.0192,-27.2364,1.3872,-0.8269,2.0492
1438041.0,13.5703,5.7269,-48.6023,1.8358,-1.7586,2.337
1438051.0,8.9256,10.2185,-75.2258,1.2584,-1.9321,2.801
1438061.0,5.0853,15.275,-78.4532,0.1128,-0.0202,3.497
1438071.0,-4.3958,12.402,-78.4532,-4.8108,2.1944,3.7078
1438081.0,-18.2342,14.8345,-78.4532,-7.5576,6.0379,3.5103
1438091.0,-44.3981,26.5661,-78.4532,-4.6469,14.0552,4.7619
1438101.0,-72.0367,34.7351,-78.4532,2.3189,17.4357,7.0601
1438111.0,-78.4532,33.3752,-78.4532,9.1811,17.4357,9.9218
1438121.0,-78.4532,13.9247,-78.4532,12.2264,17.4357,11.898
1438131.0,-78.4532,-15.1409,-78.4532,10.1628,17.4357,12.0337
1438141.0,-78.4532,-55.0092,-78.4532,8.3866,17.4357,7.946
1438151.0,-78.4532,-76.6815,-78.4532,9.0145,17.4357,1.342
1438161.0,-78.4532,-73.6552,49.9526,17.4357,17.4357,-4.632
1438171.0,-78.4532,-19.1536,78.4508,17.4357,17.4357,-10.4305
1438181.0,-78.4532,40.5099,78.4508,17.4357,17.4357,-12.9261
1438191.0,-78.4532,78.4508,78.4508,12.9995,17.4357,-12.4195
1438201.0,-78.4532,52.7586,78.4508,3.2805,17.4357,-9.9968
1438211.0,-78.4532,36.1429,78.4508,5.832,17.4357,-6.6754
1438221.0,-78.4532,9.5002,78.4508,6.8967,17.4357,-3.7567
1438231.0,-78.4532,16.0795,78.4508,14.3867,-1.881,-3.2932
1438241.0,-78.4532,45.2313,78.4508,17.4357,-17.4363,0.6822
1438251.0,-78.4532,58.3036,78.4508,10.3123,-17.4363,-0.381
1438261.0,-78.4532,44.0342,78.4508,8.7948,-17.4363,-0.3182
1438271.0,-78.4532,49.0716,78.4508,8.4132,-17.4363,0.3523
1438281.0,-78.4532,47.9606,38.3168,3.5774,-17.4363,0.2283
1438291.0,-78.4532,53.8791,-9.9407,0.3693,-17.4363,0.6476
1438301.0,-58.9931,57.7673,-53.3045,-5.5749,-17.4363,1.6863
1438311.0,-56.2063,34.1126,-20.8487,-4.4485,-17.0798,2.6372
1438321.0,-49.6462,29.1518,-12.8042,-1.8459,-13.7317,3.4641
1438331.0,-41.6878,12.0572,10.094,0.5161,-8.5963,4.0925
1438341.0,-38.8627,-1.1684,24.8518,5.6723,-6.5386,3.9898
1438351.0,-35.0894,-4.7309,29.0752,5.5457,-6.4503,2.9511
1438361.0,-32.6665,-8.2169,34.5531,4.1425,-8.145,1.5522
1438371.0,-27.6195,-5.363,26.7001,-0.0958,-10.4996,-0.2932
1438381.0,-24.5932,-2.3367,25.1391,-3.5721,-11.5639,-1.9752
1438391.0,-23.7026,7.6327,18.5215,-5.4047,-10.8205,-2.9724
1438401.0,-23.7409,15.2463,23.7984,-5.7468,-8.7538,-3.0841
1438411.0,-27.1886,22.946,31.3162,-4.4219,-7.6693,-2.3243
1438421.0,-28.1175,24.2006,38.9297,-3.363,-7.7571,-1.0403
1438431.0,-27.5812,19.9581,45.8825,-0.5752,-7.946,0.3799
1438441.0,-26.4799,16.6062,46.1506,1.3287,-8.2775,1.4372
1438451.0,-26.6139,11.7124,47.5776,2.9261,-9.0688,2.2147
1438461.0,-24.0282,10.2663,41.9464,2.6265,-9.9734,2.4924
1438471.0,-23.2716,8.1499,39.2458,0.7529,-10.8546,2.4456
1438481.0,-21.8638,4.2904,35.7598,-1.5144,-11.7586,2.0683
1438491.0,-20.5901,-0.0287,34.9266,-3.8812,-12.1694,1.3138
1438501.0,-20.2358,-2.806,37.8667,-4.4788,-12.0758,0.4581
1438511.0,-21.5382,-1.0822,40.4812,-4.0393,-12.2226,-0.2054
1438521.0,-22.9173,2.5283,42.6838,-3.0463,-12.983,-0.5268
1438531.0,-22.2948,7.3263,39.8395,-1.731,-13.5635,-0.4502
1438541.0,-21.0307,12.153,35.9322,0.1963,-13.6939,0.0596
1438551.0,-19.8431,16.4434,28.6059,0.879,-13.4289,0.7439
1438561.0,-17.4489,17.2861,24.2102,0.6188,-13.2714,1.4197
1438571.0,-14.9781,18.1768,18.2821,-0.6971,-12.8,1.9518
1438581.0,-14.1449,15.84,16.5487,-3.0352,-12.3807,2.3067
1438591.0,-12.0764,9.7109,20.1688,-4.085,-11.9917,2.5004
1438601.0,-10.7548,5.2672,21.6723,-4.1984,-11.2276,2.3998
1438611.0,-9.6055,3.1987,26.3171,-4.0536,-10.7045,2.104
1438621.0,-11.473,3.8116,32.5994,-3.4763,-11.2207,1.8954
1438631.0,-11.0804,7.1251,33.6146,-2.8101,-12.6159,1.9076
1438641.0,-10.2185,9.8737,31.0672,-2.2327,-13.7131,2.1519
1438651.0,-9.3087,12.402,25.4073,-1.4638,-14.3138,2.5988
1438661.0,-8.3701,13.8576,19.8336,-1.1589,-14.3575,3.1788
1438671.0,-7.6614,12.1817,15.591,-1.2643,-14.4618,3.8413
1438681.0,-5.6599,6.8666,11.1091,-1.6352,-14.8566,4.267
1438691.0,-1.3216,1.4269,6.0813,-1.2643,-14.5852,4.3628
1438701.0,1.81,-0.8523,0.2873,-0.2841,-13.4225,4.2734
1438711.0,4.2808,-1.6855,-2.7773,0.8083,-11.8049,4.1468
1438721.0,5.4109,-2.059,-3.8978,2.2758,-10.3102,4.1781
1438731.0,7.1539,-2.4517,-9.1267,2.7436,-9.3811,4.2835
1438741.0,8.9064,-6.0621,-14.4514,2.2721,-8.5681,4.1824
1438751.0,12.5743,-9.7205,-22.2086,1.8427,-6.6307,3.8264
1438761.0,14.2599,-13.0915,-25.2828,1.5894,-3.7035,3.2767
1438771.0,13.9438,-15.1122,-23.2525,1.4058,-1.6229,2.4908
1438781.0,15.6581,-12.4594,-20.9445,1.0754,-0.6082,1.6948
1438791.0,11.0804,-4.9512,-18.4066,0.1213,-1.1217,1.2654
1438801.0,3.8116,3.3615,-14.9781,0.4007,-5.4744,1.5128
1438811.0,-10.7835,17.7746,-58.4951,-2.253,-14.2771,2.4924
1438821.0,-21.5765,21.3275,-78.4532,-7.8295,-17.4363,3.5561
1438831.0,1.3216,31.6226,-78.4532,-9.7196,-10.5917,4.3942
1438841.0,-40.8259,33.0304,-78.4532,-7.4145,-1.914,6.6519
1438851.0,-59.0219,25.2636,-78.4532,1.4378,16.6115,9.3593
1438861.0,-78.4532,10.4674,-78.4532,15.2908,17.4357,10.8993
1438871.0,-78.4532,-15.7538,-78.4532,17.4357,17.4357,9.6972
1438881.0,-78.4532,-27.811,-78.4532,17.4357,17.4357,5.4424
1438891.0,-78.4532,-69.2403,-78.4532,17.4357,17.4357,-3.0985
1438901.0,-78.4532,-78.4532,16.7307,17.4357,17.4357,-15.1923
1438911.0,-78.4532,-10.0844,78.4508,6.6456,17.4357,-17.4363
1438921.0,-78.4532,8.5138,78.4508,0.8008,17.4357,-17.4363
1438931.0,-78.4532,78.4508,78.4508,4.4607,17.4357,-17.4363
1438941.0,-78.4532,78.4508,78.4508,-16.3077,17.4357,-15.1338
1438951.0,-78.4532,78.4508,78.4508,7.0329,6.412,-2.5414
1438961.0,-78.4532,78.4508,78.4508,16.0246,-6.8499,8.3648
1438971.0,-78.4532,34.352,78.4508,17.4357,-17.4363,15.1705
1438981.0,-78.4532,0.3543,78.4508,17.4357,-17.4363,15.5856
1438991.0,-78.4532,-33.4326,78.4508,14.8843,-17.4363,10.9237
1439001.0,-78.4532,-45.3941,78.4508,12.85,-17.4363,5.2174
1439011.0,-78.4532,-26.183,38.652,3.0847,-17.4363,-1.2116
1439021.0,-78.4532,-2.0111,19.0483,-1.0456,-17.4363,-5.5547
1439031.0,-65.1989,33.7391,-17.7937,-2.6451,-17.4363,-6.8361
1439041.0,-54.0515,53.6588,-19.9676,-4.541,-16.5897,-5.9708
1439051.0,-51.4849,59.4911,-2.059,-0.2214,-8.7846,-3.3486
1439061.0,-51.7339,62.4599,4.7214,1.1116,-4.5155,-0.4044
1439071.0,-47.7978,48.315,22.9556,2.054,-2.3189,2.0864
1439081.0,-43.8522,31.4598,32.3696,2.8702,-1.2547,3.3406
1439091.0,-40.3662,17.7554,43.2201,1.9757,-1.5846,3.3055
1439101.0,-38.403,9.2225,51.5424,0.5151,-3.0639,2.4483
1439111.0,-36.7845,5.6599,57.1065,-1.4841,-5.1514,1.2302
1439121.0,-37.0431,6.6272,61.1671,-2.9617,-7.7412,0.0734
1439131.0,-38.4221,11.8274,62.3546,-3.1698,-9.9,-0.5976
1439141.0,-37.2825,20.5422,57.5566,-2.5584,-11.0025,-0.5023
1439151.0,-39.8778,26.5182,54.7698,-1.8645,-11.8081,0.2171
1439161.0,-39.2362,28.06,50.7762,-1.2499,-12.6829,1.2888
1439171.0,-37.3208,23.7696,45.6909,-1.3101,-13.0517,2.1843
1439181.0,-35.3959,18.895,42.7987,-2.1402,-13.4986,2.5712
1439191.0,-34.7542,13.6086,40.4429,-3.7551,-14.6416,2.6004
1439201.0,-32.2355,7.7764,38.0774,-5.1503,-15.7431,2.1934
1439211.0,-31.3257,6.426,38.0391,-4.6751,-15.7809,1.7432
1439221.0,-31.115,10.4291,35.0894,-2.991,-15.5276,1.6538
1439231.0,-31.1725,15.5719,30.0807,-2.627,-15.5047,1.8177
1439241.0,-31.0863,16.9414,28.5772,-2.6898,-15.759,2.1939
1439251.0,-30.0137,15.6198,27.3897,-2.5584,-15.9793,2.4972
1439261.0,-27.7249,16.5775,24.9476,-2.4169,-15.9666,2.8106
1439271.0,-26.1447,17.4298,22.7641,-3.1118,-16.1209,3.165
1439281.0,-24.8805,17.0563,22.4097,-4.1537,-17.1032,3.4758
1439291.0,-23.1184,16.3093,17.5543,-5.7479,-17.4363,3.7046
1439301.0,-19.2685,12.0764,15.2559,-5.6803,-17.4363,4.0664
1439311.0,-15.6293,7.4029,8.9543,-3.7088,-17.4363,4.4783
1439321.0,-12.9287,0.5746,4.3191,-2.0066,-15.7218,4.5634
1439331.0,-9.6055,-2.6528,0.7949,-1.0217,-14.2063,4.2202
1439341.0,-7.4699,-1.7621,-1.7142,-1.7491,-13.1352,3.687
1439351.0,-4.0797,-1.5227,-0.4597,-2.8042,-12.784,3.1836
1439361.0,-1.0056,-0.3065,-2.2027,-4.3138,-12.7515,2.7276
1439371.0,2.4325,0.249,-2.8443,-5.3967,-12.6834,2.2987
1439381.0,4.7309,2.0111,-7.0964,-5.5499,-12.1848,2.2524
1439391.0,6.2345,-0.9481,-9.9982,-5.2323,-11.2292,2.2689
1439401.0,9.2608,-3.3902,-12.7563,-3.0463,-9.4588,2.2913
1439411.0,10.5824,-2.1261,-16.2806,0.3161,-6.4183,2.5094
1439421.0,9.3757,1.3695,-13.0149,4.1845,-3.9861,3.0905
1439431.0,10.5728,5.1619,-14.7387,5.27,-3.4018,3.8137
1439441.0,13.0053,4.4532,-17.583,3.1991,-5.0508,4.3569
1439451.0,13.7331,3.3902,-31.5939,-0.9716,-9.2784,4.3734
1439461.0,13.9726,2.4708,-62.7568,-4.5533,-13.0799,4.6884
1439471.0,22.7545,-16.836,-78.4532,0.1522,-13.745,4.7794
1439481.0,15.5623,-5.1715,-78.4532,-0.0192,-9.686,4.0057
1439491.0,12.3732,1.9537,-78.4532,2.4626,-2.9676,3.6471
1439501.0,-5.612,7.7955,-78.4532,5.4504,10.3975,4.1973
1439511.0,-51.5615,14.8728,-78.4532,8.8384,17.4357,5.7729
1439521.0,-78.4532,-7.039,-78.4532,15.2041,17.4357,6.6317
1439531.0,-78.4532,-29.6402,-78.4532,17.4357,17.4357,3.9791
1439541.0,-78.4532,-33.4039,-78.4532,17.4357,17.4357,-1.2936
1439551.0,-78.4532,-16.6158,-78.4532,17.4357,17.4357,-7.9992
1439561.0,-78.4532,-0.1341,-69.202,17.4357,17.4357,-12.7154
1439571.0,-78.4532,18.9046,24.5741,3.5433,17.4357,-17.4363
1439581.0,-78.4532,40.529,52.4617,-9.4407,17.4357,-17.4363
1439591.0,-78.4532,-12.8712,78.4508,-3.1975,17.4357,-15.211
1439601.0,-78.4532,78.4508,78.4508,3.1772,17.4357,-11.1355
1439611.0,-78.4532,78.4508,78.4508,-6.2976,5.6154,-5.3472
1439621.0,-78.4532,78.4508,78.4508,17.4357,3.5396,4.3463
1439631.0,-78.4532,78.4508,78.4508,15.2583,-10.0447,9.445
1439641.0,-78.4532,13.216,78.4508,14.3617,-17.4363,11.26
1439651.0,-78.4532,6.6463,78.4508,13.82,-17.4363,10.6556
1439661.0,-78.4532,-14.5855,78.4508,7.1505,-17.4363,7.6161
1439671.0,-78.4532,-16.4242,58.8495,7.1963,-17.4363,4.5708
1439681.0,-78.4532,-11.9614,-8.4276,-1.359,-17.4363,0.2565
1439691.0,-78.4532,-6.1579,-29.7647,-0.5667,-17.4363,-3.4449
1439701.0,-72.8316,20.3124,-78.4532,-0.7641,-17.4363,-5.4584
1439711.0,-65.4383,35.8364,-45.1355,4.5581,-14.3745,-5.3233
1439721.0,-50.2495,54.5208,-47.003,-0.0761,-11.4404,-4.233
1439731.0,-44.2448,48.9566,-7.5753,0.8455,-5.0577,-2.6473
1439741.0,-39.9832,58.4856,-3.0933,1.4915,-2.684,-0.9498
1439751.0,-39.3894,54.8559,10.9654,-3.4784,-2.4786,0.373
1439761.0,-35.099,42.2241,26.8821,-5.485,-3.2448,1.3537
1439771.0,-31.9099,29.5253,36.9761,-6.5088,-3.0091,1.7113
1439781.0,-29.4774,16.5296,51.686,-6.1182,-4.0047,1.4372
1439791.0,-27.8877,9.9695,59.9412,-5.6122,-5.9017,0.7519
1439801.0,-29.3816,9.2608,66.5013,-4.3011,-8.4734,0.1479
1439811.0,-32.226,17.5256,56.9533,-4.1617,-11.7395,-0.2602
1439821.0,-31.2012,28.8932,44.197,-6.3997,-14.1223,-0.2799
1439831.0,-31.9578,39.0063,29.8222,-8.1919,-15.1759,0.4124
1439841.0,-27.6961,44.8099,16.9318,-11.1866,-14.4708,1.608
1439851.0,-26.3171,35.6066,13.7523,-12.6196,-13.3193,2.9564
1439861.0,-21.5861,16.3572,17.7362,-13.0506,-10.9551,3.4949
1439871.0,-20.0443,-3.3615,39.8012,-8.6474,-8.9746,3.4167
1439881.0,-24.0952,-7.853,49.9239,-3.4119,-9.486,2.9128
1439891.0,-24.0761,-3.9648,50.8816,-1.5745,-12.1167,2.3184
1439901.0,-24.5837,1.7047,48.0181,-0.8737,-14.6262,1.881
1439911.0,-26.9012,10.4674,36.8994,-2.4105,-17.0351,1.5804
1439921.0,-25.9436,16.8552,31.5747,-4.5458,-17.4363,1.6948
1439931.0,-25.2157,18.828,20.2358,-6.0028,-17.4363,2.2891
1439941.0,-21.3371,14.5951,10.4004,-7.6395,-17.4363,2.9107
1439951.0,-16.1369,4.7597,3.3327,-6.0102,-17.4363,3.5785
1439961.0,-10.3238,-5.4013,-5.6407,-3.339,-17.4363,4.0478
1439971.0,-5.1332,-17.5256,-9.5768,-0.3278,-16.0783,3.91
1439981.0,-0.9385,-19.2973,-18.3779,1.384,-14.0552,3.2459
1439991.0,3.1029,-18.8567,-20.6667,1.591,-11.5846,2.5456
1440001.0,7.173,-16.4146,-19.5271,1.5591,-9.1587,1.9007
1440011.0,7.4986,-11.971,-16.8552,-0.2985,-8.0221,1.3037
1440021.0,8.1307,-9.6343,-11.0325,-1.9901,-7.7194,0.8769
1440031.0,8.5617,-6.7421,-3.7158,-1.657,-6.9515,0.8375
1440041.0,8.8873,-4.9895,2.739,1.1387,-6.6147,1.3218
1440051.0,6.3111,-7.2592,2.6432,5.0348,-6.5939,2.1987
1440061.0,6.0238,-14.8632,-6.2345,7.431,-7.3442,2.5887
1440071.0,4.8842,-27.7632,-9.7013,9.5057,-7.5954,2.1343
1440081.0,15.6581,-33.4709,-27.1598,10.4464,-9.0135,0.6055
1440091.0,19.8623,-33.9306,-45.825,8.1312,-10.6204,-1.5862
1440101.0,26.0968,-30.7224,-78.4532,7.1154,-13.4305,-3.6758
1440111.0,21.5382,-20.638,-78.4532,7.8066,-14.4,-5.9384
1440121.0,6.6846,6.4835,-78.4532,4.8795,-10.0692,-6.8398
1440131.0,-15.9645,22.7162,-78.4532,4.1952,-2.3333,-5.4366
1440141.0,-40.8642,13.0245,-78.4532,6.4668,8.4888,-3.3619
1440151.0,-66.1279,-12.2104,-78.4532,10.5757,17.4357,-2.4355
1440161.0,-78.4532,-39.5522,-78.4532,15.65,17.4357,-5.0013
1440171.0,-78.4532,-61.8949,-78.4532,16.7376,17.4357,-10.7114
1440181.0,-78.4532,-51.2263,-78.4532,17.4357,17.4357,-17.3724
1440191.0,-78.4532,-34.6393,-26.5852,17.4357,17.4357,-17.4363
1440201.0,-78.4532,62.0769,72.6592,17.4357,17.4357,-17.4363
1440211.0,-78.4532,78.4508,1.5131,-0.6279,17.4357,-17.4363
1440221.0,-78.4532,78.4508,78.4508,11.202,17.4357,-17.4363
1440231.0,-78.4532,78.4508,78.4508,-8.6287,17.4357,-17.1202
1440241.0,-78.4532,78.4508,78.4508,0.5438,17.4357,-6.4742
1440251.0,-78.4532,78.4508,78.4508,17.4357,12.8149,4.4586
1440261.0,-78.4532,35.2043,78.4508,17.4357,-10.0745,5.2892
1440271.0,-78.4532,2.0016,78.4508,12.5376,-17.4363,1.6778
1440281.0,-78.4532,13.4746,78.4508,4.193,-17.4363,-3.4162
1440291.0,-78.4532,30.8469,78.4508,-5.6298,-17.4363,-8.0104
1440301.0,-78.4532,67.1909,75.6089,-11.5213,-17.4363,-9.6403
1440311.0,-78.4532,78.4508,33.9977,-12.0976,-17.4363,-7.4294
1440321.0,-78.4532,78.4508,-1.3216,-8.6261,-17.4363,-2.8143
1440331.0,-72.008,78.4508,-32.2547,-8.1073,-17.4363,1.0903
1440341.0,-53.9078,37.0718,-21.9213,-2.3025,-13.1331,2.7861
1440351.0,-45.8921,16.453,-25.1583,0.4677,-4.8992,2.1199
1440361.0,-44.082,5.0566,-5.3726,-2.1242,-0.1165,-0.1463
1440371.0,-46.7827,8.4755,29.7551,-1.6059,1.3037,-2.1673
1440381.0,-49.0811,31.5173,46.7061,-2.2285,-0.6832,-3.2299
1440391.0,-51.303,54.6931,64.9882,-4.2601,-4.3809,-2.7649
1440401.0,-50.7858,69.518,74.0096,-5.2679,-8.8027,-0.8524
1440411.0,-52.8448,69.02,73.4158,-7.9668,-14.1851,1.4442
1440421.0,-51.5903,52.615,70.8013,-9.213,-17.4363,3.2299
1440431.0,-51.2359,38.0774,55.3444,-7.7912,-17.4363,4.6586
1440441.0,-44.7716,20.8296,35.5874,-5.1051,-17.4363,5.5829
1440451.0,-36.5642,7.0006,18.6269,-2.2673,-17.4363,5.4068
1440461.0,-30.8182,3.5051,6.1387,-3.5683,-17.3884,4.3532
1440471.0,-28.3186,2.4134,8.734,-6.7467,-16.512,2.834
1440481.0,-26.7672,7.8626,15.5719,-8.699,-16.148,1.7091
1440491.0,-24.7752,16.1561,22.563,-8.758,-15.4233,1.5155
1440501.0,-28.4335,22.7928,26.8534,-8.6575,-15.6649,2.0401
1440511.0,-29.0656,24.8901,30.2819,-9.8377,-16.9999,2.8729
1440521.0,-30.4255,19.0578,39.5139,-7.9758,-17.4363,4.0797
1440531.0,-31.2683,13.0053,37.4645,-4.2707,-17.4363,5.386
1440541.0,-30.4351,4.1372,29.2284,-2.1231,-17.4363,6.2784
1440551.0,-30.483,-5.0949,20.8391,-1.1174,-17.4363,6.3955
1440561.0,-27.0449,-8.5521,9.1459,-1.6341,-17.4363,5.8697
1440571.0,-26.1543,-7.0485,-2.5857,-3.4944,-17.4363,5.1913
1440581.0,-23.7505,-5.8227,-13.3596,-5.7468,-17.4363,4.5655
1440591.0,-19.3164,-7.9009,-22.0458,-6.5014,-17.4363,4.1643
1440601.0,-18.9333,-11.6262,-31.8429,-5.3392,-17.4363,3.9163
1440611.0,-7.7668,-19.0291,-24.5741,-1.3532,-15.4504,3.6865
1440621.0,-10.0748,-21.4137,-24.871,3.0586,-14.085,3.5247
1440631.0,-5.2194,-27.2939,-22.065,5.8208,-12.6957,3.1065
1440641.0,1.2929,-28.8645,-21.2126,9.4088,-12.163,2.1971
1440651.0,-3.9935,-19.1057,-33.0687,9.3705,-15.5435,1.4537
1440661.0,-1.8579,-7.5178,-78.4532,-2.6095,-17.4363,-0.2267
1440671.0,-7.2305,-16.7881,-78.4532,-14.209,-17.4363,-3.0102
1440681.0,23.2142,5.2864,-78.4532,-8.7926,-14.8412,-4.7683
1440691.0,-3.1603,7.3263,-78.4532,3.6977,-6.2965,-4.5735
1440701.0,-11.3964,13.8002,-78.4532,15.7846,5.7638,-3.8472
1440711.0,-26.4224,15.0643,-78.4532,17.4357,17.4357,-3.4529
1440721.0,-59.9125,8.3606,-78.4532,17.4357,17.4357,-4.6842
1440731.0,-78.4532,7.9296,-78.4532,15.2131,17.4357,-6.7983
1440741.0,-78.4532,16.7498,-78.4532,9.9819,17.4357,-8.1456
1440751.0,-78.4532,21.883,-78.4532,5.8809,17.4357,-8.7171
1440761.0,-78.4532,35.5012,-78.4532,12.3844,17.4357,-7.3389
1440771.0,-78.4532,38.0008,-14.1258,17.4357,17.4357,-5.1338
1440781.0,-78.4532,42.1284,57.4321,17.4357,17.4357,-5.7207
1440791.0,-78.4532,56.8862,78.4508,17.4357,17.4357,-8.8783
1440801.0,-78.4532,52.0978,78.4508,17.4357,17.4357,-10.9663
1440811.0,-78.4532,78.4508,78.4508,17.0068,17.4357,-17.4363
1440821.0,-78.4532,73.9234,78.4508,-13.5667,17.4357,-17.4363
1440831.0,-78.4532,73.8563,78.4508,17.4357,1.1302,-13.1927
1440841.0,-78.4532,78.4508,78.4508,7.1543,-17.4363,-8.2648
1440851.0,-78.4532,78.4508,78.4508,-1.8682,-17.4363,-6.4412
1440861.0,-78.4532,78.4508,78.4508,6.6817,-17.4363,-0.3943
1440871.0,-78.4532,78.4508,78.4508,-1.7182,-17.4363,1.9656
1440881.0,-78.4532,78.4508,78.4508,-2.9596,-17.4363,3.4923
1440911.0,-78.4532,78.4508,-44.9152,0.0,0.0,0.0
1440921.0,-78.4532,78.4508,-78.4532,-17.4363,-17.4363,6.9318
1440931.0,-61.7034,25.6563,-78.4532,-2.1827,-17.4363,8.185
1440941.0,-78.4532,27.8972,-78.4532,-11.5383,-17.4363,7.1016
1440951.0,-48.6119,1.2546,-78.4532,-16.7844,-17.4363,4.4634
1440961.0,-45.7867,-1.312,-78.4532,-13.6476,-9.8372,1.367
1440971.0,-55.9094,12.7467,-46.6295,-12.1673,-15.3451,-0.0404
1440981.0,-40.0981,28.4527,-34.2562,-15.8586,-17.4363,-0.8312
1440991.0,-44.2832,35.7694,-19.7665,-12.8197,-17.4363,-0.24
1441001.0,-50.5272,47.2998,-71.9984,-6.3795,-17.4363,2.1316
1441011.0,-38.0295,23.2142,-78.4532,7.2245,-17.4363,4.2372
1441021.0,-39.0734,17.3436,-78.4532,14.8561,-17.4363,4.9082
1441031.0,-37.5124,29.3625,-78.4532,11.8193,-17.4278,5.4547
1441041.0,-37.7518,31.6513,-78.4532,3.0442,-4.0877,6.1693
1441051.0,-68.1869,33.7966,-78.4532,-6.8345,11.9076,7.7986
1441061.0,-78.4532,13.2926,-78.4532,-10.5151,17.4357,10.1187
1441071.0,-78.4532,-4.9895,-78.4532,-0.074,17.4357,11.2962
1441081.0,-78.4532,-19.5941,-78.4532,12.4536,17.4357,10.8705
1441091.0,-78.4532,-26.4799,-78.4532,17.4357,17.4357,8.1206
1441101.0,-78.4532,-22.3618,-78.4532,17.4357,17.4357,4.3484
1441111.0,-78.4532,-26.5756,-78.4532,17.4357,17.4357,0.6987
1441122.0,-78.4532,-57.413,-19.5367,17.4357,17.4357,-6.7009
1441131.0,-78.4532,4.6064,60.1232,17.4357,17.4357,-13.6274
1441141.0,-78.4532,78.4508,19.9102,1.1621,17.4357,-14.3846
1441151.0,-78.4532,55.8232,78.4508,13.2283,17.4357,-9.8111
1441161.0,-78.4532,78.4508,78.4508,-4.1249,17.4357,-8.8166
1441171.0,-78.4532,76.806,78.4508,-11.2898,17.4357,-0.9211
1441181.0,-78.4532,78.4508,78.4508,17.4357,16.2608,11.7687
1441191.0,-78.4532,78.4508,78.4508,17.2883,2.6797,15.4169
1441201.0,-78.4532,30.55,78.4508,14.3293,-17.4363,13.754
1441211.0,-78.4532,30.6171,78.4508,1.3915,-17.4363,8.9884
1441221.0,-78.4532,7.0198,78.4508,-5.4323,-17.4363,3.8983
1441231.0,-78.4532,16.1656,78.4508,-9.4189,-17.4363,0.5161
1441241.0,-78.4532,8.5234,35.9034,-9.0959,-17.4363,-1.9704
1441251.0,-78.4532,18.9429,-26.9779,-0.4869,-17.4363,-2.4169
1441261.0,-47.1658,34.5148,-78.4532,-2.3769,-17.4363,-2.4749
1441271.0,-78.4532,27.1694,-17.2287,-1.6261,-5.6415,-2.5249
1441281.0,-78.4532,45.3079,15.8879,-4.7406,-1.6783,-2.1146
1441291.0,-78.4532,45.1451,26.8438,-9.7095,-17.4363,-0.0681
1441301.0,-78.4532,36.3057,78.4508,-1.4016,-17.4363,1.6527
1441311.0,-78.4532,25.0721,78.4508,-17.4363,-17.4363,-0.8987
1441321.0,-78.4532,-31.2012,78.4508,-17.4363,-17.4363,-3.96
1441331.0,-78.4532,-14.6525,78.4508,-8.1653,-17.4363,-4.5336
1441341.0,-78.4532,-1.7717,-1.9154,-6.9489,-17.4363,-5.5249
1441351.0,-78.4532,2.2027,-78.4532,-4.722,-17.4363,-5.5962
1441361.0,-78.4532,42.3678,-78.4532,1.1398,-17.4363,-6.9132
1441371.0,-68.4167,58.3228,-78.4532,-16.3534,-17.4363,-6.2741
1441381.0,-1.0822,49.809,-78.4532,-17.4363,-17.4363,-4.5091
1441391.0,-32.1685,44.9344,-78.4532,-13.0772,-5.4063,-2.2381
1441401.0,-7.0485,34.2945,-78.4532,-8.6208,-5.9836,0.5768
1441411.0,3.3902,7.8338,-59.2613,-0.0883,2.0726,2.1966
1441421.0,-5.2002,-8.6766,-21.8255,8.1972,5.0689,2.7856
1441431.0,3.486,-12.9383,-5.1715,8.8698,6.3864,1.9039
1441441.0,-1.6376,-15.5527,25.9148,7.001,3.7988,0.4943
1441451.0,-0.0766,-8.5329,49.0045,6.0538,0.7822,-0.5332
1441461.0,-2.8826,4.549,56.4649,3.1948,-4.6379,-0.9365
1441471.0,-2.3559,10.0078,50.8912,-0.6497,-10.903,-0.7497
1441481.0,0.9481,8.5042,31.6705,-2.9048,-13.6311,-0.415
1441491.0,3.7158,6.4548,14.6046,-2.6818,-12.8979,0.1357
1441501.0,4.7405,1.3599,3.4381,-0.1469,-9.9995,0.8833
1441511.0,8.3414,-3.7637,-5.1906,2.2482,-5.8048,1.284
1441521.0,9.6343,-7.7572,-1.2546,3.9185,-1.6543,1.3095
1441531.0,7.039,-8.8681,9.8354,5.4286,1.641,1.1031
1441541.0,7.6902,-5.3534,23.9516,5.5446,3.4997,0.7407
1441551.0,2.9209,1.9728,35.9896,3.9839,2.1726,0.6061
1441561.0,2.8347,5.6024,39.2745,0.448,0.0596,0.5236
1441571.0,2.6624,4.7692,43.5362,-1.0914,-0.8551,0.5896
1441581.0,2.4134,4.3383,40.6631,-1.0259,-0.6423,0.8237
1441591.0,1.6185,0.2203,43.1435,-0.9408,0.049,0.8828
1441601.0,0.5267,-2.5379,46.1219,-0.9291,-0.3597,0.6316
1441611.0,0.7278,-2.2027,48.8704,-1.1052,-0.6258,0.3565
1441621.0,-0.3831,-1.5227,52.184,-0.2639,-0.5369,0.265
1441631.0,-2.6624,1.5802,53.3045,0.0521,-0.9748,0.257
1441641.0,-1.9345,3.5817,52.7299,-0.5784,-2.0167,0.3134
1441651.0,-2.9209,5.2098,51.7818,-1.5091,-3.1703,0.4677
1441661.0,-2.9497,5.928,50.8145,-1.2015,-3.7147,0.9046
1441671.0,-2.7773,4.3191,47.999,0.4587,-3.6551,1.5575
1441681.0,0.0479,1.4269,41.2569,1.2111,-3.1299,1.9273
1441691.0,2.2697,-3.3136,38.7286,0.9738,-2.4568,1.8608
1441701.0,2.9688,-6.292,38.1732,0.4044,-1.9539,1.4463
1441711.0,4.1851,-7.7572,39.1117,-0.7295,-1.5804,0.762
1441721.0,3.8978,-7.422,43.4404,-1.3659,-1.5884,0.0894
1441731.0,4.9416,-2.8252,41.2282,-2.8798,-2.1481,-0.5428
1441741.0,3.9552,2.1261,44.2832,-5.0636,-2.8931,-0.8375
1441751.0,2.557,4.0414,49.3589,-4.6634,-3.6785,-0.5736
1441761.0,2.5283,7.0006,46.2081,-3.4933,-4.1542,0.0383
1441771.0,3.371,6.2441,43.8905,-2.1024,-4.1776,0.8179
1441781.0,4.8554,3.9648,39.1691,-0.5768,-3.8498,1.4883
1441791.0,7.0294,1.3886,34.1509,-0.008,-3.3481,1.7943
1441801.0,7.5465,0.0383,30.55,-0.514,-2.4711,1.8486
1441811.0,8.2552,-1.6281,30.9139,-1.0584,-1.64,1.7608
1441821.0,8.5042,-2.6815,32.0823,-2.0955,-1.077,1.5341
1441831.0,7.7285,-4.2234,35.8843,-3.1905,-1.2239,1.2404
1441841.0,7.5848,-5.3917,39.8204,-3.7988,-1.5782,1.0397
1441851.0,7.7668,-7.8913,44.3023,-2.5009,-2.0215,0.9903
1441861.0,8.3701,-8.0828,43.6224,-0.571,-2.0066,0.9567
1441871.0,9.0692,-7.4124,40.778,0.9525,-2.0327,0.9131
1441881.0,10.0078,-6.11,37.1676,1.2792,-1.9821,0.7822
1441891.0,11.1761,-4.9512,35.0415,1.0227,-1.9422,0.5678
1441901.0,12.0476,-3.7733,33.356,0.1948,-1.7703,0.3581
1441911.0,11.0133,-3.1316,32.8772,-0.8359,-1.7182,0.1836
1441921.0,9.232,-3.4572,32.6378,-2.1769,-1.6905,0.0032
1441931.0,8.3989,-4.6735,34.2658,-2.9165,-1.4633,-0.0729
1441941.0,9.7109,-6.6655,38.4605,-2.56,-0.9647,-0.1128
1441951.0,10.3525,-7.4699,41.707,-1.5304,-0.8205,-0.1932
1441961.0,9.8067,-5.9855,42.2624,-1.2489,-1.1776,-0.2719
1441971.0,9.0501,-4.9321,44.0342,-1.0658,-1.7161,-0.2426
1441981.0,9.3661,-3.7828,44.3215,-0.2442,-2.0098,0.009
1441991.0,9.2129,-4.2042,44.1203,1.2627,-2.0784,0.3709
1442001.0,8.8873,-3.7158,41.4101,2.6068,-1.8911,0.6518
1442011.0,9.2799,-3.1699,36.6217,2.8649,-1.8225,0.8524
1442021.0,9.5672,-3.735,35.597,2.6244,-1.4346,0.9349
1442031.0,10.8888,-4.8171,34.036,2.5685,-0.9339,0.9184
1442041.0,10.6973,-5.8993,33.9689,1.8502,-0.4012,0.7082
1442051.0,10.8409,-6.9815,35.2139,1.1877,-0.2081,0.3533
1442061.0,10.9176,-6.6655,35.7981,0.4097,-0.0239,-0.0633
1442071.0,10.7739,-5.6886,37.589,0.2517,0.0521,-0.332
1442081.0,11.0325,-3.8116,37.2825,0.1602,0.2496,-0.4874
1442091.0,11.0325,-2.1548,37.6368,-0.0681,0.455,-0.5545
1442101.0,9.9599,-1.0534,37.7901,-0.2097,0.5417,-0.4741
1442111.0,9.6343,-0.6512,38.8723,-0.067,0.7689,-0.2629
1442121.0,9.9407,-0.6416,39.6192,0.5199,1.1169,-0.0341
1442131.0,10.1706,-0.8619,40.1077,0.9637,1.4729,0.1713
1442141.0,11.6933,-1.5419,40.9696,1.0892,1.4963,0.2506
1442151.0,10.0365,-1.743,42.1284,0.7535,1.3468,0.2182
1442161.0,10.1514,-1.8196,43.8426,0.7535,0.8689,0.2144
1442171.0,10.3813,-1.5323,42.703,0.4182,0.5018,0.1862
1442181.0,11.9614,-2.4421,42.1284,0.0942,0.2011,0.1458
1442191.0,11.8274,-2.8156,40.9504,-0.2804,0.0133,0.0197
1442201.0,10.8505,-3.5913,40.6248,-0.7646,-0.1346,-0.1527
1442211.0,11.0708,-4.118,40.462,-0.7519,-0.2512,-0.2421
1442221.0,10.2663,-4.7118,39.8491,-0.5124,-0.1256,-0.3469
1442231.0,9.7971,-4.4341,39.1021,-0.2144,-0.0234,-0.4177
1442241.0,10.1706,-4.1084,37.8763,-0.2379,0.0133,-0.5566
1442251.0,5.928,-2.4229,37.1963,-0.5981,0.1043,-0.5954
1442261.0,9.1746,-2.7007,34.1892,-1.7693,0.141,-0.7237
1442271.0,17.7746,-3.9935,36.6217,-1.9624,0.0309,-0.9589
1442281.0,15.8783,-2.0973,34.0551,-1.657,0.9057,-1.0291
1442291.0,11.3485,-1.81,37.4549,-0.8019,2.0199,-0.8264
1442301.0,10.0078,-1.7813,40.7876,0.0362,2.4812,-0.6806
1442311.0,9.9695,-1.5514,44.8195,0.0357,2.0614,-0.6508
1442321.0,9.845,-0.4214,46.4188,-0.4214,1.1781,-0.6502
1442331.0,8.7149,-0.996,48.9949,-0.6981,0.2607,-0.5843
1442341.0,8.3318,-1.8962,49.4738,-0.2586,-0.4651,-0.4741
1442351.0,8.5808,-2.5379,49.1865,0.5901,-1.0392,-0.3421
1442361.0,8.7724,-2.5379,46.6199,1.3984,-1.4825,-0.2501
1442371.0,9.8641,-2.6049,44.9248,2.1013,-1.4771,-0.2347
1442381.0,10.3046,-1.3791,43.8522,3.1288,-1.267,-0.1735
1442391.0,10.1801,0.7566,41.5633,3.1022,-1.2622,-0.1107
1442401.0,10.1897,1.1971,41.7549,2.4977,-1.6964,-0.0319
1442411.0,11.2049,1.3886,39.8587,1.7358,-2.1971,0.0181
1442421.0,11.8369,0.8428,37.8092,0.8806,-2.3988,0.0197
1442431.0,12.2583,-0.1341,36.3153,0.3698,-2.2381,-0.0239
1442441.0,13.1585,-1.3216,34.9937,0.0059,-1.8454,-0.1431
1442451.0,13.2351,-1.5131,35.0128,-0.3592,-1.558,-0.3108
1442461.0,13.1968,-1.0726,34.9362,-0.6252,-1.2547,-0.4736
1442471.0,13.4746,-0.8236,35.6736,-0.5209,-0.9296,-0.4853
1442481.0,13.8289,-0.4405,35.7981,-0.3778,-0.7295,-0.4512
1442491.0,13.6853,-0.1053,34.7447,-0.5507,-0.6933,-0.4135
1442501.0,13.8481,-1.1875,35.1469,-0.5252,-0.5821,-0.3751
1442511.0,13.9821,-1.8483,34.4382,-0.149,-0.1708,-0.3501
1442521.0,14.4322,-2.3463,34.4095,0.3906,0.5901,-0.3959
1442531.0,14.0492,-2.3463,35.6161,1.0786,1.2574,-0.4337
1442541.0,12.9574,-1.9345,37.5124,1.3425,1.4665,-0.5204
1442551.0,12.1242,-1.0343,38.9393,1.1079,1.0413,-0.5928
1442561.0,13.0723,-0.5938,38.403,0.3682,0.3986,-0.6912
1442571.0,13.4746,-0.9385,38.1348,-0.0889,0.0218,-0.7838
1442581.0,13.5512,-0.5842,37.1293,-0.0239,0.1048,-0.8179
1442591.0,13.0819,-0.3448,37.2442,0.2432,0.4198,-0.7859
1442601.0,12.7467,-0.7566,37.2442,0.58,0.6034,-0.7939
1442611.0,12.6414,-1.4365,38.3264,0.8237,0.7173,-0.8716
1442621.0,12.4882,-1.0439,37.9433,1.0052,0.6391,-1.019
1442631.0,12.6031,-0.182,37.6847,0.9653,0.506,-1.1744
1442641.0,12.3924,0.431,37.2059,1.0248,0.4315,-1.2749
1442651.0,12.4211,1.3791,36.3344,1.0972,0.4746,-1.3117
1442661.0,12.3062,2.8826,34.5914,1.0163,0.588,-1.3031
1442671.0,11.9902,3.5147,33.9977,0.6997,0.7928,-1.2537
1442681.0,11.3006,3.4189,33.9785,0.6008,1.0477,-1.1419
1442691.0,9.663,4.0414,33.2794,0.3528,1.3266,-1.0802
1442701.0,12.287,3.7254,34.0743,0.0351,1.6325,-0.969
1442711.0,11.4634,2.0494,37.0144,0.2948,1.6996,-0.9392
1442721.0,11.0229,2.3942,35.8843,0.0399,1.4149,-1.0307
1442731.0,10.8888,2.3367,36.6217,-0.4278,0.9919,-1.1462
1442741.0,11.3006,2.6911,35.3384,-0.4534,0.8253,-1.251
1442751.0,10.5728,3.6775,33.9402,-0.3996,1.0169,-1.2696
1442761.0,10.1706,5.43,32.226,-0.3948,1.3329,-1.1765
1442771.0,9.4236,5.8227,32.7718,-0.5646,1.6788,-1.0259
1442781.0,9.8545,5.5929,33.4901,-0.2049,1.9688,-0.7897
1442791.0,10.8218,5.3726,33.0974,0.1921,2.4451,-0.5662
1442801.0,10.8122,4.9608,33.0304,0.3991,2.9325,-0.4198
1442811.0,10.6111,4.5777,33.6433,0.4464,3.3321,-0.3815
1442821.0,10.0748,4.7692,33.7487,0.2767,3.6189,-0.3916
1442831.0,8.9639,5.2098,34.4286,-0.0862,3.753,-0.389
1442841.0,8.1307,5.6982,35.0607,-0.5433,3.787,-0.3815
1442851.0,7.3646,6.0908,35.7885,-0.9402,3.7775,-0.3129
1442861.0,7.2592,5.7748,37.2346,-0.9993,3.8317,-0.133
1442871.0,6.857,4.5586,39.0063,-0.5332,3.9435,0.0314
1442881.0,6.4931,4.1372,39.5043,0.1458,4.0089,0.1862
1442891.0,6.3398,3.6583,39.466,0.6816,3.9999,0.2522
1442901.0,6.4165,3.5147,39.6001,1.0217,4.0504,0.2613
1442911.0,5.9759,3.4668,39.6671,1.383,4.0004,0.2214
1442921.0,5.43,4.1563,38.9968,1.2803,3.8568,0.1538
1442931.0,4.9608,4.2425,38.8914,1.0765,3.5503,0.0362
1442941.0,5.1619,4.8746,37.656,0.6673,3.3209,-0.0857
1442951.0,5.1523,5.612,37.0239,0.3097,3.2587,-0.2033
1442961.0,5.3151,6.0047,35.5587,0.1761,3.5231,-0.257
1442971.0,4.4628,6.7038,35.0128,0.0607,3.9238,-0.2586
1442981.0,3.7924,7.3358,35.7694,-0.0474,4.2069,-0.2065
1442991.0,2.8443,8.0828,36.7175,-0.0639,4.3958,-0.0713
1443001.0,1.9632,8.5617,37.0335,0.1953,4.5879,0.1671
1443011.0,1.3886,8.916,37.8763,0.8237,5.0029,0.4784
1443021.0,0.6895,9.4619,36.5451,1.5586,5.5584,0.8493
1443031.0,-0.3543,9.596,35.7885,1.7187,6.3258,1.1611
1443041.0,-1.2641,9.1363,36.095,1.5325,6.9739,1.3729
1443051.0,-2.3846,8.0158,38.9585,0.9972,7.3985,1.4303
1443061.0,-3.371,7.1539,41.7836,0.3209,7.3432,1.3867
1443071.0,-4.4053,6.5122,45.0876,-0.5768,6.8823,1.2968
1443081.0,-4.2808,5.1523,49.062,-0.9477,6.2582,1.1861
1443091.0,-5.1044,4.9129,49.9335,-0.7918,5.6595,1.1201
1443101.0,-5.7748,5.0661,50.5081,-0.39,5.162,1.1111
1443111.0,-5.9376,5.5737,49.2248,0.0176,4.8731,1.1536
1443121.0,-6.2537,6.0047,48.4969,0.3714,4.7917,1.1962
1443131.0,-6.0813,6.7325,47.4052,0.3629,4.7278,1.2004
1443141.0,-7.039,7.2975,47.9702,-0.0654,4.3367,1.1754
1443151.0,-7.4795,7.7572,49.1194,-0.5358,3.5955,1.1557
1443161.0,-7.5274,8.0924,48.8704,-0.6705,2.7856,1.1914
1443171.0,-7.92,8.1499,46.9647,-0.5566,2.386,1.1935
1443181.0,-7.355,9.596,44.4651,-0.3283,2.2849,1.2526
1443191.0,-7.3167,11.1187,41.7932,-0.622,2.3998,1.3404
1443201.0,-8.0445,11.9327,41.6208,-0.9285,2.3535,1.4718
1443211.0,-8.5234,13.3692,40.6152,-1.4649,2.1082,1.6559
1443221.0,-8.8107,13.5799,40.4524,-2.2498,1.6086,1.9087
1443231.0,-9.2225,13.0245,41.1707,-2.4834,1.1313,2.2354
1443241.0,-8.667,12.0093,40.4429,-1.9113,0.9727,2.6137
1443251.0,-8.4372,10.7164,38.8244,-0.7572,1.2654,3.0389
1443261.0,-7.92,9.8737,36.7175,0.5295,1.8656,3.3406
1443271.0,-7.5465,9.8928,33.9785,1.2856,2.6499,3.5412
1443281.0,-8.6766,10.1706,32.9442,1.4915,3.4156,3.7381
1443291.0,-8.849,9.8258,33.0113,1.4718,4.1446,3.8913
1443301.0,-9.347,8.3318,34.2371,1.4463,4.805,3.9557
1443311.0,-10.0365,8.2552,34.7638,0.9397,5.4009,3.9158
1443321.0,-11.722,7.9775,37.7613,0.3496,5.8564,3.8679
1443331.0,-12.9191,8.1403,40.8163,-0.1618,6.115,3.8802
1443341.0,-14.2694,7.604,45.1068,-0.5156,6.0155,3.853
1443351.0,-15.3229,7.9775,47.3669,-1.002,5.5004,3.8562
1443361.0,-16.0699,7.7572,50.4506,-1.2579,4.8454,3.9302
1443371.0,-16.089,7.5369,51.3796,-0.9009,4.309,4.0728
1443381.0,-15.6581,7.039,52.1553,-0.1671,3.9722,4.2415
1443391.0,-15.8783,7.3454,50.9007,0.3533,3.7338,4.3905
1443401.0,-16.4721,6.6559,51.37,0.63,3.4864,4.5107
1443411.0,-17.3436,6.2537,51.8967,0.829,3.0176,4.5139
1443421.0,-18.3109,6.6367,52.0691,0.7556,2.3072,4.5011
1443431.0,-19.5271,7.1443,52.366,0.5539,1.2441,4.557
1443441.0,-19.3547,6.5505,51.2072,0.1394,0.0835,4.6219
1443451.0,-18.0331,4.9321,50.7475,0.2134,-0.9291,4.6294
1443461.0,-17.0276,4.1372,47.9128,0.6619,-1.5788,4.5708
1443471.0,-16.0603,3.8978,44.2736,1.0977,-1.8235,4.474
1443481.0,-14.0396,4.4245,40.2896,1.1627,-1.64,4.3899
1443491.0,-12.9957,4.051,38.4988,1.3021,-1.1286,4.3846
1443501.0,-12.3062,3.4189,37.589,1.4968,-0.4252,4.3623
1443511.0,-11.722,2.4134,37.6752,1.4995,0.2325,4.2149
1443521.0,-11.9135,1.4174,38.9585,1.5038,0.6321,4.0026
1443531.0,-11.4634,0.6704,40.8259,1.6011,0.994,3.7099
1443541.0,-11.904,0.3065,43.1818,2.22,1.3659,3.496
1443551.0,-10.9463,-0.1149,45.2887,3.1027,1.8257,3.2124
1443561.0,-10.4004,0.3639,47.0604,4.0733,2.0619,2.9266
1443571.0,-11.3102,1.8004,47.5776,4.5182,2.0635,2.6733
1443581.0,-12.0955,2.0877,47.4627,4.4346,1.9598,2.3174
1443591.0,-12.1817,4.051,45.7005,3.1783,1.7278,1.7395
1443601.0,-12.8233,5.296,47.2424,0.9541,1.2936,1.1313
1443611.0,-13.4267,6.7325,49.3014,-1.1765,0.4949,0.5688
1443621.0,-14.0109,8.1211,51.6669,-3.0187,-0.3735,0.157
1443631.0,-14.5472,8.983,55.2677,-3.8014,-1.2191,0.099
1443641.0,-15.0164,9.5864,56.9724,-3.5614,-1.9278,0.3198
1443651.0,-15.6102,9.3757,58.1504,-2.4216,-2.3722,0.7641
1443661.0,-15.5336,8.5521,57.9588,-0.5231,-2.5403,1.2749
1443671.0,-14.6334,7.9009,55.8902,1.1105,-2.4584,1.7193
1443681.0,-14.5376,7.5753,53.994,2.1508,-2.6813,2.0061
1443691.0,-13.5703,7.106,52.6629,2.4823,-3.0442,2.1657
1443701.0,-13.7236,6.608,51.9829,2.6281,-3.4683,2.2828
1443711.0,-12.651,5.0949,50.4698,2.5355,-3.8919,2.3466
1443721.0,-12.0859,3.3232,49.5121,2.088,-4.4724,2.196
1443731.0,-11.5305,1.7621,46.8114,1.1515,-5.1679,1.7735
1443741.0,-10.5919,0.814,45.4419,-0.0144,-5.6633,1.242
1443751.0,-9.9407,0.1915,43.268,-1.0115,-5.9735,0.6609
1443761.0,-9.1459,-0.4597,43.0861,-1.7161,-5.9309,0.1368
1443771.0,-7.9775,-0.7278,44.1587,-1.6426,-5.8442,-0.3411
1443781.0,-7.6806,0.2394,44.58,-1.6405,-5.9905,-0.7689
1443791.0,-8.2361,0.9481,45.4803,-1.1728,-6.3795,-0.986
1443801.0,-7.4316,2.0494,44.7333,-0.4363,-6.761,-1.0211
1443811.0,-7.2113,2.1356,43.4404,0.4337,-7.0037,-0.9684
1443821.0,-6.3398,2.0016,41.1132,1.259,-7.1835,-0.854
1443831.0,-4.9608,1.4748,37.7422,1.5713,-7.282,-0.8168
1443841.0,-3.7254,0.8236,35.0894,1.6597,-7.2974,-0.8828
1443851.0,-2.6049,-0.2107,31.9961,1.4569,-7.1489,-1.0435
1443861.0,-1.7621,-1.2163,29.8701,1.1004,-6.8478,-1.3478
1443871.0,-0.8906,-1.9537,29.2093,0.9695,-6.4668,-1.6953
1443881.0,-0.4788,-2.2601,29.554,1.2989,-5.9964,-2.0252
1443891.0,0.249,-2.4421,29.1518,1.8922,-5.6723,-2.3402
1443901.0,1.0918,-2.2601,28.0313,2.3099,-5.4414,-2.6999
1443911.0,2.6815,-2.0207,25.9531,2.3807,-5.3052,-3.1256
1443921.0,4.3383,-1.1492,22.946,1.9262,-5.0279,-3.6828
1443931.0,4.9129,0.316,20.7051,1.1946,-4.5246,-4.2606
1443941.0,5.4875,2.5283,19.1249,0.1197,-3.787,-4.8438
1443951.0,5.2481,5.2289,18.6939,-1.1307,-3.1964,-5.294
1443961.0,5.679,6.7804,20.2358,-2.4419,-2.5797,-5.5616
1443971.0,5.1427,8.0254,22.4385,-3.2023,-2.1577,-5.7011
1443981.0,5.43,9.0405,24.3059,-3.6567,-1.7193,-5.6792
1443991.0,4.9512,9.8067,25.9148,-3.7993,-1.4362,-5.4749
1444001.0,5.3343,10.1897,26.9108,-3.8099,-1.1685,-5.2275
1444011.0,5.6216,9.8067,28.3761,-3.3092,-0.9158,-4.8348
1444021.0,6.9049,9.1554,28.0217,-2.8952,-0.5843,-4.5315
1444031.0,6.8474,9.1937,27.7344,-2.5392,-0.1985,-4.2824
1444041.0,6.4739,8.6,29.4295,-1.9752,0.3682,-4.0238
1444051.0,5.0374,8.3989,29.7264,-1.2207,0.7652,-3.7487
1444061.0,4.0606,6.9911,30.4064,-0.5981,1.2292,-3.6077
1444071.0,4.2329,4.9033,32.3409,0.9115,1.9396,-3.4811
1444081.0,4.0797,3.7158,33.2603,2.9942,2.9676,-3.4273
1444091.0,2.4804,3.0167,32.858,4.6038,3.8504,-3.6157
1444101.0,1.5897,4.1372,30.7032,4.3431,4.4091,-4.1271
1444111.0,0.2777,4.9991,31.546,2.6302,4.5794,-4.8204
1444121.0,-0.3735,5.5354,34.7351,0.6694,4.6203,-5.5872
1444131.0,-2.1356,6.5888,39.9736,-0.5577,4.5799,-6.2369
1444141.0,-4.7884,8.8681,44.2161,-1.1467,4.3569,-6.6514
1444151.0,-6.8474,11.0516,47.2328,-1.218,3.9547,-6.7972
1444161.0,-8.1594,13.5033,48.7268,-1.2521,3.4332,-6.7823
1444171.0,-8.8298,15.6868,49.8856,-1.3835,3.0607,-6.562
1444181.0,-9.2799,16.5296,52.3181,-0.8546,2.7707,-6.1645
1444191.0,-8.667,17.6213,52.5096,-0.306,2.4568,-5.6968
1444201.0,-9.3374,17.4011,54.2813,0.2224,1.9853,-5.2142
1444211.0,-9.4523,16.7115,54.3867,1.0014,1.2733,-4.7417
1444221.0,-8.734,15.9358,52.5096,1.467,0.5848,-4.4474
1444231.0,-8.4946,14.8345,48.8992,1.6091,0.0639,-4.2979
1444241.0,-7.9296,14.279,46.0357,1.467,-0.0942,-4.2686
1444251.0,-7.9296,13.3213,43.3063,1.1797,-0.0575,-4.3346
1444261.0,-7.4891,12.3158,41.6495,0.6263,0.1176,-4.5496
1444271.0,-7.2113,11.9423,40.462,-0.3065,0.2379,-4.9157
1444281.0,-7.3071,11.6741,41.3526,-1.3489,0.2671,-5.3073
1444291.0,-8.1116,12.0285,43.4691,-1.8853,0.3038,-5.6228
1444301.0,-8.9064,12.9957,45.7484,-1.5532,0.3209,-5.7628
1444311.0,-9.232,14.7004,46.074,-1.0099,0.3384,-5.7649
1444321.0,-9.9695,15.706,47.1754,-0.2868,0.3124,-5.6468
1444331.0,-10.0652,17.0563,46.3039,0.5736,0.248,-5.4265
1444341.0,-9.3757,18.1576,44.0629,0.8402,0.2304,-5.2567
1444351.0,-9.5672,18.7801,43.2967,0.5396,0.298,-5.17
1444361.0,-9.481,19.4218,43.0286,0.1485,0.3863,-5.0971
1444371.0,-10.0748,20.073,43.9575,-0.249,0.4379,-4.9939
1444381.0,-10.2472,20.7146,44.695,-0.6151,0.4033,-4.8401
1444391.0,-11.1091,22.199,46.3422,-0.9637,0.2916,-4.5469
1444401.0,-11.4251,22.4193,47.9319,-0.7833,0.0357,-4.1148
1444411.0,-10.9367,22.6683,48.1713,-0.4656,-0.1554,-3.6514
1444421.0,-10.228,22.4385,47.9798,-0.158,-0.2363,-3.1948
1444431.0,-9.0884,21.7968,47.1849,0.0192,-0.3251,-2.8245
1444441.0,-8.351,21.069,46.821,-0.2911,-0.5071,-2.5515
1444451.0,-7.6423,19.3739,47.7883,-0.5396,-0.87,-2.3711
1444461.0,-6.5601,18.2055,47.3286,-0.9285,-1.3792,-2.3354
1444471.0,-6.177,17.6596,47.6159,-1.2265,-1.88,-2.2971
1444481.0,-5.6695,17.267,46.3326,-1.0749,-2.1987,-2.1684
1444491.0,-5.1811,17.0659,44.8386,-0.638,-2.1689,-2.0465
1444501.0,-5.6312,16.8169,42.1571,0.0261,-1.8406,-1.9129
1444511.0,-4.9321,16.5583,40.7589,0.6556,-1.235,-1.8949
1444521.0,-4.1468,17.2861,38.8914,0.9605,-0.679,-2.0412
1444531.0,-4.8937,19.077,37.8954,0.4613,-0.2453,-2.2652
1444541.0,-5.6407,21.3659,38.585,-0.2975,-0.0341,-2.3929
1444551.0,-5.9185,23.2908,40.6727,-0.9078,0.2256,-2.3812
1444561.0,-6.5218,25.5988,41.5633,-1.2361,0.3145,-2.1306
1444571.0,-6.9336,27.677,43.4979,-1.7113,0.547,-1.6852
1444581.0,-8.2935,28.3665,45.3941,-1.9252,0.6204,-1.0813
1444591.0,-9.0405,28.3952,48.248,-2.2727,0.5491,-0.4049
1444601.0,-10.9559,26.6906,51.8393,-2.2881,0.1309,0.2543
1444611.0,-11.0899,23.4728,55.0666,-2.1465,-0.5465,0.7348
1444621.0,-11.0612,20.6093,57.8439,-1.3867,-1.3931,1.0233
1444631.0,-10.9846,19.4122,57.0586,-0.5039,-2.2173,1.1845
1444641.0,-10.3046,19.6037,55.8136,0.2464,-2.9224,1.2797
1444651.0,-10.0269,21.0977,52.3851,0.5704,-3.4699,1.3558
1444661.0,-10.7548,22.9077,48.8992,0.166,-3.9477,1.4936
1444671.0,-10.9463,23.1854,46.1411,-0.671,-4.3106,1.6538
1444681.0,-10.2663,21.9883,44.8769,-1.3872,-4.6017,1.7086
1444691.0,-9.5289,21.7106,43.0765,-2.1332,-4.8039,1.6841
1444701.0,-8.9352,21.1935,43.0286,-2.7734,-4.9231,1.7001
1444711.0,-8.0828,20.8104,43.2489,-2.8527,-5.0795,1.8235
1444721.0,-7.6136,20.5327,43.4404,-2.6829,-5.2488,2.0476
1444731.0,-6.8666,19.6803,42.4253,-2.5956,-5.4925,2.2796
1444741.0,-7.0964,18.7131,42.0135,-2.1726,-5.9192,2.5334
1444751.0,-6.5122,17.5734,38.9201,-1.9002,-6.1118,2.7931
1444761.0,-5.2768,15.8017,36.0567,-2.2019,-6.0645,2.9389
1444771.0,-3.6296,13.5129,36.4972,-2.1944,-6.1241,2.9266
1444781.0,-2.9401,12.2679,35.0224,-1.947,-6.1906,2.8989
1444791.0,-2.2889,12.0668,33.2507,-1.7517,-6.2896,2.8473
1444801.0,-1.2929,11.5305,31.7854,-1.7086,-6.371,2.8096
1444811.0,-0.4214,10.7356,30.0903,-1.6171,-6.4705,2.8239
1444821.0,0.4597,10.2089,27.7536,-1.5607,-6.4902,2.8133
1444831.0,0.0479,9.6055,25.187,-1.6575,-6.4104,2.8495
1444841.0,1.2546,8.0062,23.7218,-1.6804,-6.1512,2.8899
1444851.0,2.2505,5.8323,23.2238,-1.2909,-5.7766,2.8601
1444861.0,3.0742,4.8842,21.0019,-0.8716,-5.3429,2.6872
1444871.0,3.8403,4.5394,19.6899,-0.5305,-4.7683,2.4669
1444881.0,5.2577,4.6735,18.8855,-0.116,-4.11,2.2774
1444891.0,5.8514,4.9895,17.516,-0.116,-3.4976,2.0758
1444901.0,6.2345,4.9895,17.7841,-0.3272,-3.123,1.8363
1444911.0,6.9049,5.1906,17.1042,-0.8498,-2.8447,1.5857
1444921.0,7.7381,4.9512,16.6349,-1.1079,-2.4286,1.3952
1444931.0,8.3797,4.7692,16.5583,-1.0499,-1.7522,1.1887
1444941.0,8.3893,4.8937,16.2806,-0.9951,-0.9621,0.9929
1444951.0,8.1594,4.7309,17.3915,-0.8881,-0.1618,0.8264
1444961.0,8.3414,4.1946,19.9964,-0.3799,0.6013,0.7013
1444971.0,8.667,4.2042,22.2661,0.4917,1.2079,0.588
1444981.0,9.2991,5.2672,22.9173,1.3164,1.5979,0.5662
1444991.0,9.2991,6.3877,22.63,1.7469,1.9757,0.571
1445001.0,8.7819,7.7572,22.4002,1.8608,2.4472,0.629
1445011.0,8.8011,8.9064,21.2605,1.59,3.0863,0.7689
1445021.0,8.6191,9.2129,22.5725,1.2212,3.736,0.8987
1445031.0,8.7724,9.165,24.4879,0.6705,4.1867,1.0531
1445041.0,8.3127,8.5808,27.0257,0.0575,4.3138,1.1728
1445051.0,8.8107,7.8626,29.2476,-0.3139,4.2968,1.3037
1445061.0,8.9256,7.6998,30.3297,-0.5124,4.3362,1.5064
1445071.0,8.916,7.1347,31.2874,-0.3741,4.5134,1.7496
1445081.0,8.5234,6.6176,31.3736,-0.4337,4.7667,1.9624
1445091.0,6.9815,4.7884,32.8197,-0.4688,4.8795,2.105
1445101.0,6.0908,2.7102,34.2467,-0.2836,5.0375,2.1609
1445111.0,6.6367,0.4788,34.5818,0.0857,5.2578,2.0231
1445121.0,6.8666,-1.4557,35.3576,0.34,5.6324,1.6166
1445131.0,6.7612,-2.2793,36.6792,0.2932,5.8144,1.0483
1445141.0,5.7365,-2.6432,39.1787,0.2666,5.7532,0.3884
1445151.0,5.3247,-1.1492,40.0694,0.274,5.567,-0.2373
1445161.0,4.8746,1.9728,39.6767,-0.0202,5.4025,-0.6721
1445171.0,3.0837,4.5969,39.6959,-0.6135,5.2104,-0.9046
1445181.0,0.565,6.2537,40.146,-1.1446,5.0375,-0.9296
1445191.0,-1.2258,6.0813,41.6304,-1.2132,4.9444,-0.82
1445201.0,-1.4844,4.4628,42.1092,-0.9248,4.8656,-0.8163
1445211.0,-2.2314,3.0071,42.9041,-0.6055,4.8486,-1.0344
1445221.0,-3.0933,2.2984,44.4843,0.4826,4.9768,-1.2813
1445231.0,-3.486,3.1508,44.1203,2.0614,5.2477,-1.5708
1445241.0,-3.7158,6.5027,42.1763,2.9245,5.4249,-1.8656
1445251.0,-5.1811,10.7548,40.3567,2.6611,5.4286,-2.0311
1445261.0,-6.7995,14.0109,39.6192,2.0758,5.3318,-1.9779
1445271.0,-8.7819,16.9126,37.3974,0.8636,5.4462,-1.7267
1445281.0,-9.7588,15.9933,39.8682,-0.1086,5.6595,-1.3186
1445291.0,-9.5768,13.6661,42.0039,-0.7125,5.6963,-1.1307
1445301.0,-10.0269,11.6646,45.4898,-1.1015,5.4611,-1.0898
1445311.0,-10.3142,11.2336,47.9606,-0.6726,5.261,-1.0217
1445321.0,-10.2759,11.5209,49.627,0.2512,5.1626,-0.8684
1445331.0,-10.1035,12.6988,48.7459,1.0009,4.9923,-0.7088
1445341.0,-10.1418,15.0643,47.6733,0.978,4.7321,-0.5076
1445351.0,-11.4251,16.5487,47.4722,0.4619,4.3011,-0.1979
1445361.0,-11.6741,16.1561,47.8553,-0.0266,3.9488,0.2128
1445371.0,-10.9846,14.6812,47.1945,-0.5385,3.6248,0.4933
1445381.0,-10.6781,12.8425,47.5872,-1.3069,3.2603,0.6242
1445391.0,-10.477,10.7931,49.3876,-1.7405,2.8058,0.6795
1445401.0,-10.8793,9.5481,51.0923,-1.7107,2.2673,0.6971
1445411.0,-11.0325,8.8873,50.7092,-1.3271,1.715,0.7572
1445421.0,-10.7548,9.0501,49.1482,-1.0201,1.235,0.7907
1445431.0,-10.7164,9.2895,45.7867,-0.8503,0.9924,0.8253
1445441.0,-10.4291,9.5577,43.0956,-0.7428,1.036,0.8892
1445451.0,-10.0365,10.0269,39.7246,-0.9344,1.3606,0.8934
1445461.0,-10.9654,10.9846,38.5466,-1.184,1.9284,0.9807
1445471.0,-11.7412,10.8601,38.1061,-1.326,2.6787,1.1722
1445481.0,-11.4826,9.0118,40.4812,-1.2909,3.3592,1.3212
1445491.0,-11.4539,7.7381,42.6359,-1.2872,3.7274,1.2866
1445501.0,-11.8752,7.0868,45.4611,-1.3308,3.7211,1.1792
1445511.0,-12.1913,7.4508,48.2001,-1.1621,3.4571,1.1132
1445521.0,-12.3349,8.5617,49.5217,-0.9328,3.0618,1.1089
1445531.0,-12.5265,9.8162,50.1537,-0.6827,2.6004,1.2079
1445541.0,-12.8425,11.8752,48.564,-0.5976,2.1758,1.4314
1445551.0,-15.0164,13.2639,46.9742,-0.4044,2.1843,1.8794
1445561.0,-15.2654,12.038,46.6965,0.2448,2.6691,2.4376
1445571.0,-14.5184,9.4523,47.6925,0.7987,3.1485,2.7893
1445581.0,-13.6278,8.0732,49.0237,0.7476,3.1762,2.8692
1445591.0,-12.7659,7.6806,51.1976,0.2256,2.7547,2.8649
1445601.0,-12.3637,7.6423,53.5631,-0.0357,2.0981,2.8399
1445611.0,-11.7412,8.4276,52.8161,-0.2341,1.5176,2.883
1445621.0,-11.3964,7.8243,52.4139,-0.5055,0.9924,2.9718
1445631.0,-12.1051,7.8243,50.8241,-1.0573,0.6146,2.8974
1445641.0,-11.1953,7.4029,50.2878,-1.5596,0.2203,2.8495
1445651.0,-11.9614,7.2113,48.8321,-1.8033,-0.1224,2.7372
1445661.0,-12.0093,7.2592,47.8457,-1.6655,-0.0873,2.6978
1445671.0,-11.4634,7.1443,46.7731,-1.4617,0.2389,2.6595
1445681.0,-10.2089,6.9911,46.505,-1.5766,0.389,2.5185
1445691.0,-10.343,8.1403,47.137,-2.2184,0.1261,2.2854
1445701.0,-11.0133,9.7588,47.7212,-2.7313,-0.3618,2.1891
1445711.0,-11.5496,11.6262,46.754,-2.9969,-0.6774,2.2508
1445721.0,-11.5688,13.0532,44.762,-3.1384,-0.7482,2.4525
1445731.0,-11.9614,13.7523,42.7413,-3.1512,-0.5736,2.7063
1445741.0,-12.5265,13.781,42.272,-3.0267,-0.224,3.0559
1445751.0,-12.2104,12.9383,42.138,-2.6047,0.2575,3.413
1445761.0,-11.406,12.1721,42.1475,-2.4232,0.7003,3.6604
1445771.0,-11.3198,11.7124,42.9999,-2.5744,0.8535,3.8546
1445781.0,-11.3677,11.5496,44.264,-2.9532,0.7391,4.0515
1445791.0,-11.5401,10.5824,45.2887,-3.0314,0.5539,4.2697
1445801.0,-12.2296,9.8354,45.4611,-2.8356,0.5912,4.5166
1445811.0,-12.0189,8.9256,45.6622,-2.4711,0.7301,4.7464
1445821.0,-13.3692,8.0349,45.0493,-2.3605,0.8003,4.8922
1445831.0,-13.6757,7.1635,46.3134,-2.3546,0.7545,4.9508
1445841.0,-13.2064,5.8993,46.7348,-2.6776,0.5859,4.946
1445851.0,-13.0245,4.6735,47.5201,-3.1182,0.3368,4.8789
1445861.0,-12.6988,3.486,49.1577,-3.5263,0.19,4.7699
1445871.0,-12.9861,1.7047,52.5479,-3.4241,-0.0979,4.6507
1445881.0,-13.1681,1.063,54.3867,-3.2906,-0.6933,4.4719
1445891.0,-13.0532,0.4884,56.1009,-3.2938,-1.5602,4.2569
1445901.0,-12.9383,0.0192,56.8671,-3.4433,-2.6803,3.9195
1445911.0,-13.8385,-0.7757,55.8232,-3.6178,-3.819,3.5981
1445921.0,-13.0723,-2.1165,56.1871,-3.331,-4.8875,3.2246
1445931.0,-11.9902,-2.6432,54.358,-2.8888,-5.7697,2.759
1445941.0,-10.9942,-1.9537,51.8201,-2.287,-6.3864,2.3605
1445951.0,-10.6207,-0.6416,49.129,-1.6607,-6.7062,2.146
1445961.0,-9.7875,1.0151,45.509,-1.0935,-6.8105,2.0779
1445971.0,-9.73,1.9058,43.3925,-0.8189,-6.9143,2.1205
1445981.0,-8.7532,2.4995,40.3758,-0.945,-7.0675,2.2141
1445991.0,-7.7955,1.5131,39.4086,-1.2398,-7.25,2.2977
1446001.0,-6.4356,0.0287,38.0678,-1.3329,-7.3772,2.3333
1446011.0,-5.1332,-2.0111,37.5602,-1.2425,-7.3676,2.2237
1446021.0,-4.2617,-3.5721,37.5124,-0.6577,-7.3533,2.1221
1446031.0,-3.055,-4.9799,37.0431,0.0404,-7.3059,1.9257
1446041.0,-1.7238,-5.6982,36.4589,0.8796,-7.3256,1.7134
1446051.0,-0.2777,-5.8131,35.8556,1.6804,-7.3602,1.5139
1446061.0,0.9864,-6.1196,34.9458,2.3216,-7.4916,1.2962
1446071.0,1.9249,-6.2249,33.2315,2.7712,-7.6699,1.0243
1446081.0,1.4557,-4.2904,30.732,2.8681,-8.0482,0.713
1446091.0,3.8307,-2.8443,27.0162,2.1013,-8.1387,0.6018
1446101.0,3.9552,-4.3287,27.0162,1.9614,-8.1301,0.5023
1446111.0,5.2289,-3.486,22.63,1.499,-7.9992,0.2224
1446121.0,7.2401,-3.122,22.8694,0.7716,-7.9311,-0.0335
1446131.0,7.2018,-2.4421,21.883,0.7455,-7.9114,-0.1054
1446141.0,8.6287,-2.1261,19.8623,0.3416,-7.6704,-0.1948
1446151.0,9.6917,-2.624,19.3739,0.4757,-7.3719,-0.2325
1446161.0,10.8888,-2.2122,16.587,0.5752,-6.8084,-0.323
1446171.0,11.3581,-2.6432,15.8879,0.9626,-6.1613,-0.3634
1446181.0,12.287,-2.3176,14.2216,1.3095,-5.4057,-0.4608
1446191.0,12.9095,-2.3846,14.4035,1.7107,-4.7268,-0.5555
1446201.0,13.8864,-1.7909,13.3596,2.0752,-4.0632,-0.6428
1446211.0,14.1928,-2.0973,13.5991,2.5313,-3.3779,-0.7524
1446221.0,14.7483,-2.5666,12.5456,3.2507,-2.709,-0.9115
1446231.0,16.3093,-3.3902,11.5496,3.9014,-1.8134,-1.1706
1446241.0,17.2766,-4.549,10.9942,4.8146,-0.8918,-1.6336
1446251.0,17.8607,-3.8786,8.3414,5.0359,0.0532,-2.3136
1446261.0,16.4817,-2.0973,6.79,4.8608,1.1217,-2.9463
1446271.0,14.9111,0.7566,3.3615,4.2644,2.4679,-3.4279
1446281.0,13.6853,3.5147,2.3559,3.1517,4.1611,-3.7455
1446291.0,12.0189,5.2864,3.1412,2.1018,6.0214,-3.8599
1446301.0,10.5249,5.4588,6.1962,1.0967,7.8923,-3.9461
1446311.0,8.8681,4.9512,9.7971,-0.1357,9.4296,-4.1462
1446321.0,7.0006,4.0223,15.275,-1.5282,10.3523,-4.4979
1446331.0,5.3151,3.6488,20.5518,-2.8862,10.762,-4.9263
1446341.0,2.739,4.6831,24.3155,-4.2005,10.9498,-5.2881
1446351.0,-0.498,5.5929,29.0943,-4.9093,11.2499,-5.385
1446361.0,-4.2617,6.9336,31.8908,-5.078,11.632,-5.2301
1446371.0,-6.8474,6.7325,36.7175,-4.7353,12.1827,-4.9173
1446381.0,-7.671,5.5929,41.6783,-3.8802,12.5653,-4.6225
1446391.0,-8.2456,5.2672,48.2001,-2.9176,12.4887,-4.3809
1446401.0,-8.5808,5.5162,52.5192,-2.0747,11.7932,-4.168
1446411.0,-9.4715,5.43,56.551,-1.5873,10.6077,-3.9637
1446421.0,-10.3525,5.2194,58.5239,-1.0328,9.155,-3.8248
1446431.0,-11.7412,4.9895,58.9931,-0.2889,7.805,-3.679
1446441.0,-11.5975,4.6256,57.9588,1.1265,6.869,-3.5401
1446451.0,-12.2392,4.6352,53.8312,2.4812,6.5322,-3.4875
1446461.0,-11.2527,4.9608,49.9047,3.4513,6.8148,-3.5556
1446471.0,-10.3142,5.3343,47.252,3.5178,7.4224,-3.762
1446481.0,-11.1857,5.8131,48.631,2.6265,7.7832,-4.1851
1446491.0,-11.5496,7.355,51.6956,0.9828,7.382,-4.6608
1446501.0,-13.1968,8.4563,56.2159,-1.0014,6.2082,-5.0386
1446511.0,-14.9015,9.232,60.0083,-2.2216,4.6283,-5.1833
1446521.0,-16.6445,10.2472,60.6882,-2.228,3.3422,-5.0657
1446531.0,-17.5064,11.3294,58.6771,-1.226,2.7441,-4.6714
1446541.0,-17.8799,11.8369,54.9709,0.165,2.7292,-4.1819
1446551.0,-16.8935,11.5496,51.4945,1.3292,3.1389,-3.7642
1446561.0,-15.591,10.7739,48.0277,1.4761,3.4986,-3.6694
1446571.0,-15.4187,10.6781,46.5816,0.3347,3.4832,-3.836
1446581.0,-15.706,11.0612,47.0413,-1.4394,3.0469,-4.0989
1446591.0,-16.1082,11.5017,48.631,-2.7883,2.5323,-4.1595
1446601.0,-16.8648,11.7124,48.9088,-3.3587,2.1673,-4.0345
1446611.0,-17.7075,11.6837,47.0413,-3.6668,1.8943,-3.8376
1446621.0,-19.0387,11.1666,44.5705,-3.9477,2.0029,-3.5715
1446631.0,-18.9142,9.0405,43.7947,-3.5816,2.5286,-3.2996
1446641.0,-18.8088,5.9568,43.1914,-3.0926,3.4013,-3.2571
1446651.0,-19.5941,2.7869,45.4707,-2.4147,4.2628,-3.3986
1446661.0,-19.393,0.7949,50.0388,-1.5963,4.7193,-3.8802
1446671.0,-20.3028,1.9249,53.7163,-1.3047,4.325,-4.5379
1446681.0,-22.0267,6.0334,54.9326,-2.0146,3.1735,-5.0726
1446691.0,-22.7449,9.8833,55.0475,-3.2177,1.8672,-5.2823
1446701.0,-23.3483,12.0764,54.3675,-4.2404,0.9323,-5.1838
1446711.0,-24.4783,12.8904,53.9749,-4.6485,0.3863,-4.8922
1446721.0,-24.1623,12.9,53.0651,-4.797,0.1671,-4.491
1446731.0,-23.7888,11.722,53.9078,-4.6549,0.0192,-4.0717
1446741.0,-23.4249,10.2472,54.7985,-4.184,-0.24,-3.6801
1446751.0,-23.0131,8.9639,56.5032,-3.3395,-0.6295,-3.3087
1446761.0,-22.6779,8.4563,56.6181,-2.2535,-1.1355,-2.9527
1446771.0,-21.8638,8.7245,55.986,-1.2962,-1.7086,-2.5627
1446781.0,-21.4137,9.2129,54.7698,-0.4581,-2.2322,-2.1492
1446791.0,-20.8391,9.6822,51.5232,-0.0729,-2.726,-1.7022
1446801.0,-20.2837,9.6534,48.6406,-0.2895,-3.157,-1.334
1446811.0,-19.6899,8.7245,46.5145,-0.8349,-3.3933,-1.0217
1446821.0,-19.1153,7.0006,45.5569,-1.3,-3.4401,-0.7801
1446831.0,-18.1768,4.367,46.4475,-1.4372,-3.4252,-0.6715
1446841.0,-17.3819,1.6568,47.5584,-1.3574,-3.5816,-0.7428
1446851.0,-16.769,0.1915,48.248,-1.326,-4.0302,-0.9504
1446861.0,-16.0028,-0.2969,48.1809,-1.1994,-4.6001,-1.2276
1446871.0,-15.2942,-0.0096,47.2232,-0.9509,-5.0295,-1.4239
1446881.0,-15.0835,0.8045,45.2696,-0.6582,-5.3488,-1.5293
1446891.0,-14.5184,1.6568,43.3734,-0.5566,-5.4414,-1.5389
1446901.0,-14.1162,1.8579,42.2529,-0.5183,-5.4941,-1.5543
1446911.0,-13.6086,1.8866,41.2665,-0.5965,-5.584,-1.5894
1446921.0,-13.2064,1.7334,40.644,-0.8599,-5.7926,-1.615
1446931.0,-12.9861,1.1779,40.5386,-1.002,-6.0868,-1.6671
1446941.0,-12.3924,0.0766,40.7206,-0.9653,-6.3103,-1.7629
1446951.0,-11.7412,-0.9098,40.6152,-0.6795,-6.6301,-1.9741
1446961.0,-11.1091,-1.1396,39.9161,-0.3757,-7.0473,-2.2508
1446971.0,-10.1514,-0.6416,39.5905,0.0298,-7.5672,-2.5541
1446981.0,-9.0501,1.3216,36.3248,0.0027,-8.203,-2.8931
1446991.0,-8.4084,3.6009,34.2179,-0.6316,-8.8017,-3.1682
1447001.0,-8.2361,5.1715,32.8006,-0.9956,-9.3194,-3.2549
1447011.0,-8.1116,6.4452,31.1246,-1.0296,-9.6169,-3.2273
1447021.0,-6.8666,7.422,29.3433,-0.6534,-9.6174,-3.0362
1447031.0,-5.5833,7.422,28.1462,0.0431,-9.3184,-2.7505
1447041.0,-3.9935,7.5944,26.0776,0.688,-8.9432,-2.4328
1447051.0,-2.7581,7.4412,26.0106,1.2281,-8.6181,-2.1013
1447061.0,-1.5131,6.8091,24.6699,1.4479,-8.5042,-1.8065
1447071.0,0.0,5.4875,23.8271,1.3713,-8.5303,-1.6629
1447081.0,1.1205,4.2808,22.0362,1.234,-8.4531,-1.641
1447091.0,2.9784,2.9784,20.7434,1.0733,-8.0791,-1.7852
1447101.0,4.5203,2.6624,19.3451,0.6838,-7.5475,-2.0705
1447111.0,4.4819,3.9169,18.7801,-0.0527,-7.0553,-2.3605
1447121.0,5.612,4.4628,20.5135,-0.7136,-6.4774,-2.428
1447131.0,7.2305,3.4764,22.2278,-0.9051,-6.0427,-2.4711
1447141.0,7.8243,3.6009,22.5821,-1.5602,-5.9022,-2.6148
1447151.0,8.5234,2.9497,23.2525,-2.536,-6.0123,-2.8064
1447161.0,8.8873,3.6488,22.7162,-3.4625,-6.0453,-3.0219
1447171.0,8.351,4.1276,23.2046,-4.1212,-5.7601,-3.098
1447181.0,8.0445,3.553,24.9093,-3.6977,-5.2871,-3.0165
1447191.0,8.5904,4.0606,24.9955,-2.8298,-4.8103,-2.7925
1447201.0,10.3238,5.6886,25.2445,-1.8172,-4.1696,-2.4147
1447211.0,12.6222,7.9487,24.0378,-0.7439,-3.2938,-1.8172
1447221.0,13.3692,9.7779,23.3961,-0.1155,-2.2844,-1.077
1447231.0,12.7946,10.9176,23.4153,-0.1463,-1.5873,-0.3203
1447241.0,11.6262,10.6877,24.4304,-0.4438,-1.1749,0.4417
1447251.0,11.0899,9.0788,25.5126,-0.3576,-0.9073,1.1866
1447261.0,10.4387,6.9145,26.0202,0.2059,-0.4672,1.7969
1447271.0,12.1625,5.1906,24.7944,1.0605,0.1474,2.3365
1447281.0,14.5376,4.2042,22.6013,1.5926,1.2297,2.7915
1447291.0,15.4665,3.2561,22.1512,2.3269,2.7462,3.2331
1447301.0,14.777,2.5953,22.1512,2.6297,4.4272,3.6019
1447311.0,13.2639,1.7909,24.8327,2.3573,5.6808,3.8541
1447321.0,11.6646,1.3886,27.8877,1.45,6.4529,3.9802
1447331.0,10.0365,-0.2298,33.3177,0.8264,6.7099,4.109
1447341.0,7.9009,-1.6089,37.9242,0.7109,6.6025,4.1441
1447351.0,6.3207,-3.3519,40.8738,1.0653,6.2438,4.1191
1447361.0,6.8953,-5.2577,41.0653,1.6011,6.0155,3.9531
1447371.0,7.3837,-6.5314,40.0119,2.3253,6.2555,3.6263
1447381.0,6.9432,-6.9528,38.6807,3.0086,6.9957,3.2448
1447391.0,6.1866,-7.0198,38.9393,3.2597,7.6943,2.7516
1447401.0,4.5969,-7.1156,42.2241,3.2773,7.8556,2.1684
1447411.0,3.4668,-6.359,44.5417,3.1639,7.4166,1.4622
1447421.0,1.5419,-5.0661,46.3326,3.066,6.6706,0.8035
1447431.0,0.2107,-3.0454,45.4994,3.1294,5.9144,0.1979
1447441.0,0.4501,0.182,42.4636,2.8729,5.4595,-0.2618
1447451.0,1.312,4.2617,38.6424,2.2423,5.5446,-0.4587
1447461.0,0.7183,8.0254,35.9322,1.392,6.2385,-0.3725
1447471.0,-1.0822,10.0844,36.2769,0.6157,7.224,-0.0766
1447481.0,-3.62,11.5017,38.5083,-0.1559,7.9258,0.265
1447491.0,-5.1523,12.0859,42.5498,-0.9003,8.1259,0.6428
1447501.0,-6.79,12.22,48.3341,-1.0962,7.8242,1.0477
1447511.0,-7.0773,13.5512,50.7954,-0.9381,7.1378,1.5602
1447521.0,-6.4069,15.2367,52.4617,-0.5124,6.4402,2.2631
1447531.0,-7.0294,17.2766,51.2168,0.2921,6.1986,3.2581
1447541.0,-9.663,17.8224,49.5695,1.3175,6.5844,4.5198
1447551.0,-10.5536,15.2175,49.8856,2.4041,7.3809,5.7463
1447561.0,-10.9559,10.6015,50.307,2.8409,7.8226,6.4843
1447571.0,-11.4539,6.79,51.5232,2.3014,7.6784,6.6668
1447581.0,-12.1147,4.051,54.1568,1.3494,7.0287,6.5072
1447591.0,-11.8082,2.4995,55.4497,0.6428,6.3933,6.2028
1447601.0,-11.3964,2.1644,56.0531,0.0192,5.9224,5.9118
1447611.0,-12.2104,2.6049,57.4896,-0.3038,5.4935,5.7505
1447621.0,-15.0452,3.4764,56.8479,-0.6657,5.2876,5.7766
1447631.0,-15.8305,2.0494,60.0657,-0.4103,5.1854,6.0006
1447641.0,-14.6812,-0.2394,61.9236,-0.3975,4.8342,5.9309
1447651.0,-15.1314,-2.9401,65.8118,-0.6295,3.7269,5.5569
1447661.0,-14.8728,-3.553,67.2962,-0.5965,2.1402,5.087
1447671.0,-14.5376,-3.4477,68.2443,-0.0681,0.7194,4.6374
1447681.0,-14.2694,-2.1165,64.6722,0.9333,-0.3033,4.3559
1447691.0,-13.6948,0.0862,59.2804,1.408,-0.8775,4.1579
1447701.0,-13.4458,2.1165,55.3252,1.2499,-1.2153,3.9823
1447711.0,-13.3692,4.0223,51.3604,0.7843,-1.4287,3.8796
1447721.0,-13.5895,4.9225,48.7938,0.0463,-1.3532,3.8328
1447731.0,-12.3062,4.9321,47.6733,-0.4459,-1.0993,3.8238
1447741.0,-11.2815,4.7788,48.2575,-0.7748,-0.8902,3.7929
1447751.0,-11.2719,5.5545,48.9471,-0.8828,-0.9424,3.8434
1447761.0,-11.7986,6.3015,48.7268,-0.7907,-0.9488,4.0451
1447771.0,-11.4347,6.359,47.7883,-0.431,-0.7838,4.3766
1447781.0,-11.5592,5.928,46.6103,-0.2948,-0.4635,4.6267
1447791.0,-11.6646,5.1523,45.4228,-0.4252,-0.2708,4.8023
1447801.0,-12.1434,4.1755,45.6526,-0.6753,-0.0192,4.8901
1447811.0,-11.7029,2.7773,46.2751,-0.804,0.3395,4.9412
1447821.0,-11.7986,0.8428,47.9223,-0.8514,0.671,4.9125
1447831.0,-11.6741,-0.8332,50.6709,-0.9376,0.5805,4.7816
1447841.0,-10.9271,-1.8866,53.4194,-1.1451,0.0585,4.4846
1447851.0,-11.3198,-2.2984,56.0147,-1.3771,-0.7609,4.2005
1447861.0,-11.5113,-2.1835,55.4689,-1.4915,-1.6597,3.9094
1447871.0,-11.1953,-1.4653,54.4154,-1.6581,-2.4461,3.6466
1447881.0,-11.1474,-0.6225,52.0595,-1.931,-3.1458,3.4268
1447891.0,-10.7069,-0.316,50.5081,-2.3775,-3.5439,3.2853
1447901.0,-10.2472,-0.7374,49.8856,-2.4834,-3.7354,3.1437
1447911.0,-9.9024,-1.2258,50.0005,-2.6111,-3.9174,3.0245
1447921.0,-9.5672,-2.2793,50.7283,-2.5557,-4.4346,2.8851
1447931.0,-8.8873,-2.7869,50.6326,-2.4222,-5.0375,2.7297
1447941.0,-8.2648,-3.5721,50.2304,-1.8102,-5.567,2.5962
1447951.0,-6.79,-3.8595,48.133,-1.1009,-5.9341,2.4483
1447961.0,-5.8514,-3.6105,44.9248,-0.6683,-6.1523,2.2184
1447971.0,-5.2672,-2.7007,41.5059,-0.7423,-6.2646,1.9986
1447981.0,-4.9033,-2.1261,39.5235,-0.9786,-6.1672,1.7741
1447991.0,-3.8116,-1.9154,37.3112,-1.2574,-5.8905,1.5628
1448001.0,-2.8826,-2.3846,37.2538,-1.5006,-5.5893,1.3425
1448011.0,-2.3463,-2.624,37.3304,-1.6714,-5.4244,1.1361
1448021.0,-1.8387,-3.0933,37.7518,-1.7086,-5.3073,0.9594
1448031.0,-0.8045,-3.7924,38.9489,-1.2824,-5.2493,0.8077
1448041.0,-0.6895,-3.984,38.9585,-0.8381,-5.1711,0.6433
1448051.0,0.1053,-4.616,38.5275,-0.4464,-5.1407,0.4683
1448061.0,1.312,-5.2385,38.6137,-0.0144,-5.1056,0.2543
1448071.0,1.8675,-5.4588,38.1348,0.4693,-5.0301,0.017
1448081.0,2.2984,-5.2289,37.5411,0.7742,-4.9013,-0.2315
1448091.0,2.7007,-5.5641,37.8763,1.0179,-4.8752,-0.481
1448101.0,3.7254,-5.43,37.8092,1.1829,-5.0215,-0.7588
1448111.0,4.0127,-5.1044,37.5219,1.1941,-5.228,-1.028
1448121.0,4.4819,-4.7884,37.2155,1.3952,-5.3685,-1.2196
1448131.0,4.9704,-4.8937,37.2825,1.9709,-5.3802,-1.3627
1448141.0,6.0047,-4.9512,37.1197,2.9123,-5.3424,-1.5011
1448151.0,6.8953,-4.1659,35.0511,3.5636,-5.4355,-1.7278
1448161.0,7.2688,-2.3463,32.7048,3.604,-5.6399,-1.9614
1448171.0,8.1786,-0.8236,30.3968,3.3374,-5.7053,-2.1332
1448181.0,9.0309,0.4405,27.5908,2.8681,-5.5675,-2.2429
1448191.0,10.1993,1.4844,25.4264,2.1662,-5.2104,-2.3253
1448201.0,11.0708,1.5323,24.6028,1.3665,-4.8449,-2.4344
1448211.0,11.6454,1.3791,23.7218,0.3789,-4.573,-2.6095
1448221.0,12.0572,1.1301,24.0282,-0.4278,-4.4282,-2.8053
1448231.0,12.967,1.3024,22.8503,-0.9945,-4.2644,-3.0134
1448241.0,14.0204,1.6089,22.2948,-1.4032,-3.9094,-3.2166
1448251.0,14.5759,2.1931,21.5191,-1.558,-3.4199,-3.3842
1448261.0,14.8919,3.3998,21.0786,-1.6086,-2.8867,-3.4481
1448271.0,14.8824,5.0757,20.0155,-1.5862,-2.4179,-3.3507
1448281.0,14.6908,6.043,18.7418,-1.7496,-1.8842,-3.1756
1448291.0,14.7291,5.7557,17.4777,-1.9326,-1.1717,-2.9633
1448301.0,14.6908,4.1372,18.4354,-1.864,-0.3038,-2.8245
1448311.0,14.5759,2.3942,19.8623,-1.2675,0.4784,-2.8165
1448321.0,14.8632,1.4748,20.6667,-0.6566,1.1025,-2.9426
1448331.0,14.6812,1.0822,21.1935,-0.1346,1.616,-3.2012
1448341.0,14.3939,2.0494,20.389,0.1431,2.1316,-3.4965
1448351.0,13.5129,3.8786,19.8527,0.1804,2.7643,-3.7024
1448361.0,12.4498,5.6695,18.9238,-0.0346,3.5572,-3.7982
1448371.0,11.2336,5.928,19.9581,-0.4358,4.5591,-3.8046
1448381.0,10.4483,4.7214,22.0937,-0.8189,5.5084,-3.8695
1448391.0,9.6822,2.988,26.2117,-1.3377,6.0911,-4.0627
1448401.0,9.414,1.7909,31.0959,-1.7751,6.1267,-4.3623
1448411.0,8.8585,1.8196,34.419,-2.0992,5.7271,-4.7209
1448421.0,7.9966,3.6296,35.4438,-2.7665,5.2557,-5.0125
1448431.0,6.541,5.296,36.1812,-3.3332,4.9183,-5.103
1448441.0,5.4396,7.0198,36.0854,-3.7998,4.8028,-4.9928
1448451.0,3.8211,8.3701,37.2155,-4.035,4.7656,-4.6815
1448461.0,2.1931,7.9487,38.7382,-3.7078,4.8875,-4.2276
1448471.0,1.992,6.5793,41.0175,-2.5185,5.2456,-3.7461
1448481.0,2.2889,4.9991,41.6974,-0.8934,5.559,-3.3688
1448491.0,1.8771,4.549,41.9177,0.4012,5.7112,-3.1107
1448501.0,1.7813,4.1755,40.7589,1.1994,5.7904,-3.0038
1448511.0,2.2889,3.984,39.1308,1.4037,6.0491,-3.0596
1448521.0,2.2984,4.5203,38.336,0.9291,6.3215,-3.239
1448531.0,1.2641,5.5641,38.1061,-0.1336,6.3758,-3.4747
1448541.0,-0.996,7.1826,38.2976,-1.4894,6.1895,-3.6253
1448551.0,-3.1412,7.1539,39.4469,-2.4248,6.2651,-3.5545
1448561.0,-4.0318,5.2002,41.4963,-2.2891,6.8866,-3.3912
1448571.0,-3.8403,2.9113,43.9192,-1.7012,7.681,-3.3848
1448581.0,-4.4724,1.3695,48.0468,-1.3154,7.8886,-3.5838
1448591.0,-5.5833,1.9345,51.7435,-1.0366,7.2697,-3.8445
1448601.0,-6.3015,4.4149,52.682,-0.7897,6.3912,-3.9807
1448611.0,-6.2537,6.5984,51.8009,-0.572,5.601,-3.9046
1448621.0,-6.6463,8.9256,48.7555,-0.7822,4.9162,-3.7221
1448631.0,-8.2169,10.8026,45.7005,-1.2462,4.4554,-3.4135
1448641.0,-10.0365,11.406,43.4595,-0.9637,4.7369,-2.8181
1448651.0,-10.8122,8.3222,43.9767,0.4055,6.0789,-2.1002
1448661.0,-9.9886,2.7581,48.1618,2.3775,7.7029,-1.6389
1448671.0,-10.4962,-2.6911,55.1049,3.8222,7.863,-1.7416
1448681.0,-10.3334,-6.1483,62.3642,4.8417,6.4471,-2.3317
1448691.0,-9.7492,-6.8761,64.2125,6.2023,4.5182,-3.1448
1448701.0,-9.7205,-3.9935,60.1232,7.2107,3.082,-3.9738
1448711.0,-10.2855,1.4365,53.2087,7.3745,2.2311,-4.623
1448721.0,-11.1666,6.3973,49.0141,6.7855,1.7214,-5.0402
1448731.0,-12.0572,11.1761,44.8386,5.7952,1.2036,-5.186
1448741.0,-12.8233,14.6525,40.9983,4.4926,1.0009,-5.0928
1448751.0,-12.5073,15.4187,37.8284,3.4986,1.3681,-4.8401
1448761.0,-12.2392,14.8441,37.1484,2.3562,2.1886,-4.6656
1448771.0,-11.7795,12.9191,39.2362,1.533,2.8473,-4.6991
1448781.0,-12.0955,12.8042,41.9273,0.6412,3.0421,-4.8816
1448791.0,-12.8617,14.2982,45.5569,-0.2895,2.7893,-4.9944
1448801.0,-13.3788,16.2423,48.3916,-0.9626,2.3147,-4.8859
1448811.0,-14.2216,17.4585,51.4658,-1.0908,1.6421,-4.548
1448821.0,-14.7387,18.148,51.8584,-0.7247,0.9966,-4.0478
1448831.0,-15.591,18.1672,51.8009,-0.0117,0.5252,-3.4832
1448841.0,-16.7115,16.9893,50.4793,0.9663,0.3725,-2.9261
1448851.0,-15.9358,14.5472,49.2439,1.8959,0.6178,-2.4983
1448861.0,-15.5815,11.4443,49.4929,2.6659,0.6263,-2.4504
1448871.0,-14.8824,11.4922,49.2248,2.3381,0.2214,-2.7526
1448881.0,-14.7387,13.5033,48.8034,1.3494,-0.4879,-3.0698
1448891.0,-14.9398,15.7347,48.7843,0.0756,-1.1121,-3.2113
1448901.0,-14.8441,16.4051,49.8473,-0.6534,-1.7065,-3.181
1448911.0,-15.0164,16.9988,50.2304,-0.9248,-2.0492,-3.0038
1448921.0,-15.342,16.6924,50.8528,-0.3852,-2.2173,-2.7218
1448931.0,-15.6198,17.0754,49.1577,0.0692,-2.3317,-2.4408
1448941.0,-15.6485,16.5296,49.0907,0.3304,-2.5839,-2.1742
1448951.0,-14.9973,16.2423,48.2288,0.4135,-2.8958,-1.9912
1448961.0,-15.0452,16.1082,47.9032,0.5199,-3.3097,-1.7916
1448971.0,-14.4227,15.6868,46.8689,0.8945,-3.6258,-1.5543
1448981.0,-13.465,15.1601,45.3941,1.4708,-3.7503,-1.2941
1448991.0,-12.7084,14.7866,42.6647,1.9145,-3.6641,-1.126
1449001.0,-12.0285,14.6908,38.9201,1.7767,-3.4098,-1.1041
1449011.0,-11.9902,15.3037,36.9186,0.9924,-3.0352,-1.1845
1449021.0,-11.8848,15.3516,37.3687,-0.0867,-2.7218,-1.3122
1449031.0,-12.2583,15.7634,39.1308,-1.119,-2.6047,-1.409
1449041.0,-12.2296,15.5623,42.138,-1.7677,-2.7356,-1.4622
1449051.0,-12.0476,15.8113,43.1244,-2.2258,-3.0032,-1.4628
1449061.0,-12.1147,15.7538,46.1123,-2.2742,-3.2619,-1.3266
1449071.0,-11.8944,16.2135,47.2711,-1.756,-3.5939,-1.0467
1449081.0,-11.8944,16.1848,48.2671,-0.9131,-3.9664,-0.7024
1449091.0,-11.5688,16.5487,46.5241,-0.0862,-4.2808,-0.2751
1449101.0,-11.3581,16.2614,44.944,0.3767,-4.3878,0.1149
1449111.0,-11.0229,15.2846,42.5306,0.6343,-4.3362,0.4071
1449121.0,-10.0173,13.8002,42.0518,0.5741,-4.3208,0.5146
1449131.0,-9.4523,12.8521,41.1898,0.1479,-4.4442,0.4927
1449141.0,-8.9352,12.5169,42.0135,-0.2097,-4.6565,0.4576
1449151.0,-7.9104,12.7659,41.6974,-0.315,-4.8215,0.4762
1449161.0,-7.4603,12.6414,41.7549,-0.3044,-4.9843,0.547
1449171.0,-6.9719,12.6605,41.8794,-0.1054,-5.1258,0.671
1449181.0,-6.2345,12.0189,41.5729,0.3001,-5.1455,0.8163
1449191.0,-5.4875,11.2527,40.146,0.6258,-5.1344,0.8971
1449201.0,-4.6448,10.3621,40.0311,0.5896,-5.2078,0.8508
1449211.0,-4.2234,9.9503,40.146,0.6194,-5.518,0.7604
1449221.0,-3.6009,9.9982,40.2417,0.8093,-5.8612,0.696
1449231.0,-2.5379,11.0708,38.5945,1.1627,-6.0597,0.7428
1449241.0,-2.0877,11.5209,36.3057,1.4952,-5.9927,0.8375
1449251.0,-1.5514,11.6454,34.0551,1.549,-5.8266,0.9535
1449261.0,-0.7757,10.726,33.0879,1.2936,-5.5861,0.97
1449271.0,-0.4693,9.5289,32.6378,0.928,-5.3589,0.8551
1449281.0,0.6608,8.2648,33.4709,0.6609,-5.2088,0.6439
1449291.0,1.5802,8.0732,33.7104,0.4262,-5.1062,0.3602
1449301.0,1.6855,8.2648,34.0072,0.2235,-5.1423,0.1155
1449311.0,2.1739,9.0309,33.854,0.0766,-5.2344,-0.0511
1449321.0,2.6145,9.6726,34.2371,0.0314,-5.3142,-0.1671
1449331.0,3.5051,10.6398,33.4997,0.0287,-5.4057,-0.2405
1449341.0,4.0031,11.0421,32.2834,-0.1357,-5.5531,-0.2613
1449351.0,5.047,11.6262,30.7799,-0.5885,-5.7495,-0.3235
1449361.0,5.5641,11.9327,29.8126,-1.193,-5.9613,-0.3789
1449371.0,6.2441,12.5265,28.5868,-1.6464,-6.0943,-0.3964
1449381.0,6.9719,12.6031,27.0641,-1.997,-6.1241,-0.3528
1449391.0,7.7476,12.8808,25.5797,-2.1875,-6.1177,-0.2474
1449401.0,9.347,13.2447,23.5398,-2.3732,-6.0416,-0.1245
1449411.0,11.0325,13.7236,21.0881,-2.3988,-5.7718,0.0372
1449421.0,12.4115,14.8249,18.1959,-2.2492,-5.1375,0.2943
1449431.0,13.3596,15.8305,15.5432,-2.1194,-4.0973,0.6694
1449441.0,14.2599,16.8073,13.6086,-2.1471,-2.9979,1.1478
1449451.0,14.1066,17.3149,12.5552,-2.6946,-1.9976,1.6527
1449461.0,14.777,16.2327,12.5839,-3.2709,-1.1531,2.17
1449471.0,15.7155,14.8728,12.7467,-4.0728,-0.3437,2.5722
1449481.0,15.8017,12.0093,14.4035,-4.6576,0.356,2.8606
1449491.0,15.6581,9.9503,15.7826,-4.8433,0.9727,3.0352
1449501.0,14.6621,8.5808,17.1042,-4.4809,1.7145,3.2475
1449511.0,13.9726,7.039,18.828,-3.3837,2.7297,3.5524
1449521.0,13.3309,5.4396,19.144,-2.2349,3.8445,3.7615
1449531.0,12.3158,3.8116,20.8296,-1.2717,4.8247,3.8796
1449541.0,11.8561,2.0494,22.3235,-0.4874,5.6127,3.8557
1449551.0,11.0612,0.3735,24.0474,0.1027,6.2731,3.6274
1449561.0,10.2568,0.067,24.3347,0.058,6.843,3.2321
1449571.0,9.1554,-0.0766,26.3649,-0.1692,7.258,2.8149
1449581.0,8.1786,0.2394,28.1558,-0.3815,7.5501,2.4147
1449591.0,6.608,0.6895,30.3393,-0.3129,7.8795,2.1018
1449601.0,5.2577,1.8387,31.5652,-0.1495,8.2877,1.8539
1449611.0,4.118,2.8156,32.2547,-0.2677,8.6953,1.6442
1449621.0,2.4134,3.62,34.3903,-0.7583,8.9006,1.3989
1449631.0,1.2546,4.8267,37.2634,-1.5176,8.6782,1.151
1449641.0,0.1149,6.4356,40.3567,-2.1849,8.1019,1.0211
1449651.0,-1.0343,8.2935,42.9999,-2.1668,7.6592,1.16
1449661.0,-2.49,10.8026,43.1339,-1.6086,7.4698,1.5639
1449671.0,-2.624,12.5552,42.7892,-0.9892,7.5336,2.146
1449681.0,-4.4149,13.0723,42.9137,-0.4959,7.4948,2.7829
1449691.0,-5.6982,12.3732,42.8083,-0.3991,7.3591,3.3598
1449701.0,-5.8514,10.1035,44.2736,-0.3251,7.1425,3.7663
1449711.0,-5.794,7.5848,44.3981,-0.2905,6.8408,3.9781
1449721.0,-6.3398,5.5162,44.9152,-0.083,6.5796,4.0744
1449731.0,-5.9376,3.9552,44.2448,0.281,6.4646,4.0073
1449741.0,-6.5314,3.1508,43.4979,0.422,6.4779,3.8227
1449751.0,-6.9911,2.8347,42.3103,0.3991,6.4513,3.5657
1449761.0,-6.9719,2.8347,41.4293,-0.1006,6.4002,3.1698
1449771.0,-8.5234,3.735,41.5155,-0.7306,6.214,2.7883
1449781.0,-9.2225,4.6352,42.3008,-1.0078,6.1874,2.6451
1449791.0,-10.0748,5.1906,43.1435,-0.5332,6.4588,2.6462
1449801.0,-10.4196,5.6024,43.3255,0.0841,6.9105,2.7579
1449811.0,-11.2623,5.3056,44.1299,0.4635,7.2085,2.7595
1449821.0,-11.5784,5.114,45.7676,0.6141,7.101,2.6749
1449831.0,-12.1051,5.7365,46.1219,0.3932,6.7195,2.4509
1449841.0,-12.4594,7.2975,45.8154,-0.3225,6.1113,2.17
1449851.0,-13.5512,9.912,44.9535,-1.4766,5.4595,2.0172
1449861.0,-13.6278,12.0572,43.8809,-2.4121,5.0301,2.1396
1449871.0,-13.8385,13.781,42.138,-3.0277,5.045,2.4568
1449881.0,-16.1465,14.7291,40.6919,-3.3858,5.3664,2.9852
1449891.0,-17.5734,14.5567,41.9751,-3.1932,6.0113,3.7062
1449901.0,-17.6405,12.2966,45.6622,-2.4743,6.5264,4.4229
1449911.0,-18.081,9.7683,47.9894,-1.9837,6.4476,4.9018
1449921.0,-18.2438,8.1403,51.1976,-1.5751,5.6255,5.2009
1449931.0,-17.8512,7.671,50.8624,-1.1637,4.6751,5.4206
1449941.0,-17.7075,7.5848,48.8992,-0.7721,4.1771,5.6244
1449951.0,-17.6213,7.6519,45.3558,-0.3166,3.9994,5.8032
1449961.0,-18.5886,8.1499,41.707,-0.6971,4.043,5.8953
1449971.0,-20.0155,7.9679,40.3567,-1.2212,4.2649,6.0171
1449981.0,-19.8048,5.7844,41.3526,-1.4261,4.8545,6.1156
1449991.0,-19.5175,2.9113,43.7373,-1.4362,5.2104,6.0421
1450001.0,-20.1304,0.6608,47.1945,-1.5224,4.979,5.7766
1450011.0,-19.0674,-0.3256,49.7324,-1.5405,4.342,5.3499
1450021.0,-18.8855,-0.5363,50.307,-1.2446,3.7535,4.9167
1450031.0,-19.01,0.7853,49.4451,-0.9216,3.3927,4.5581
1450041.0,-19.5175,2.9784,47.2903,-0.9222,3.1379,4.2287
1450051.0,-20.1975,4.9225,45.9974,-1.3297,2.9229,3.9845
1450061.0,-21.0786,6.7612,45.3366,-1.8677,2.7547,3.8429
1450071.0,-22.448,7.853,45.3653,-2.229,2.652,3.8259
1450081.0,-22.9556,8.1211,46.6965,-2.1779,2.7829,3.9456
1450091.0,-22.7641,7.5848,48.1713,-1.7491,2.8867,4.1047
1450101.0,-23.0801,8.5425,48.8609,-1.5889,2.7441,4.1946
1450111.0,-23.1088,9.0118,50.5368,-1.6203,2.3094,4.3766
1450121.0,-23.128,9.4236,50.8912,-1.6543,1.8416,4.582
1450132.0,-23.2142,9.414,51.121,-1.7267,1.2835,4.8518
1450141.0,-23.5494,8.7149,50.9295,-1.8166,0.796,5.054
1450151.0,-23.4632,7.4316,51.3891,-1.7858,0.3006,5.2009
1450161.0,-22.9556,6.0334,51.8009,-1.5543,-0.1724,5.2541
1450171.0,-21.7489,4.7501,52.2032,-1.193,-0.6646,5.2509
1450181.0,-20.8104,3.9552,51.5711,-0.8636,-1.2968,5.1785
1450191.0,-20.1688,3.6583,50.2112,-0.8652,-2.021,5.0519
1450201.0,-19.3643,3.1412,48.6981,-0.8546,-2.6792,4.9194
1450211.0,-18.512,3.2465,46.0836,-0.9291,-3.0958,4.7805
1450221.0,-18.014,2.6432,44.3119,-1.0259,-3.3427,4.5538
1450231.0,-17.5351,2.3367,42.2624,-1.0866,-3.3768,4.3426
1450241.0,-17.018,1.9154,42.3774,-0.8493,-3.3225,4.1547
1450251.0,-15.955,1.2929,41.8028,-0.4033,-3.2454,3.902
1450261.0,-14.9781,1.4269,40.6631,-0.3171,-3.305,3.5918
1450271.0,-14.2311,1.8292,39.6192,-0.4347,-3.4289,3.3023
1450281.0,-13.4841,2.3655,38.4509,-0.6098,-3.414,3.0554
1450291.0,-12.7276,3.1891,37.0622,-0.8881,-3.2528,2.8527
1450301.0,-12.4211,3.371,35.2618,-1.4686,-3.0777,2.6334
1450311.0,-12.536,3.6871,35.1277,-2.3578,-2.9463,2.3679
1450321.0,-12.4211,3.5338,35.4725,-3.123,-2.8707,2.1391
1450331.0,-12.5839,2.806,37.5794,-3.3433,-2.6324,1.9555
1450341.0,-12.2392,1.7526,40.3088,-2.7319,-2.4137,1.8581
1450351.0,-11.5592,1.312,41.9656,-2.0433,-2.3062,1.6942
1450361.0,-11.0133,1.4461,42.5785,-1.6038,-2.4584,1.508
1450371.0,-10.975,2.7869,42.4923,-1.7985,-2.7808,1.2574
1450381.0,-11.2815,4.0414,42.6072,-2.2306,-3.2496,1.1536
1450391.0,-11.3006,4.549,42.7126,-2.5414,-3.6327,1.1456
1450401.0,-10.7931,4.3766,42.9807,-2.5749,-3.8498,1.2175
1450411.0,-10.5728,3.4381,43.0669,-2.2982,-4.0292,1.2856
1450421.0,-10.0556,2.3176,43.1914,-1.8826,-4.1883,1.3276
1450431.0,-9.4236,1.7621,42.9232,-1.293,-4.3617,1.3287
1450441.0,-8.7053,1.063,42.5402,-0.8838,-4.5134,1.2973
1450451.0,-7.9583,0.5459,41.2186,-0.7327,-4.7571,1.1871
1450461.0,-7.2496,-0.0383,40.5195,-0.7098,-4.9997,1.011
1450471.0,-6.3686,-0.2873,39.5139,-0.6024,-5.1955,0.8189
1450481.0,-5.5354,0.0766,37.4166,-0.829,-5.2881,0.572
1450491.0,-5.4779,0.2777,35.8939,-1.0775,-5.3142,0.3602
1450511.0,-4.0223,-0.249,34.1796,-1.5463,-4.8577,0.0234
1450521.0,-3.304,-0.9577,34.5052,-1.4335,-4.4905,-0.0846
1450531.0,-2.4421,-1.8196,35.6257,-1.1648,-4.1915,-0.223
1450541.0,-1.8771,-2.5379,36.2003,-0.8386,-4.1292,-0.3751
1450551.0,-1.0151,-2.7677,36.2482,-0.5039,-4.2133,-0.5843
1450561.0,-0.1724,-2.4612,35.4246,-0.3171,-4.3846,-0.854
1450571.0,0.5555,-1.9441,33.6912,-0.3874,-4.4745,-1.1212
1450581.0,0.996,-1.2258,31.9961,-0.5257,-4.4389,-1.3228
1450591.0,1.743,-0.5076,30.2148,-0.8493,-4.2154,-1.4968
1450601.0,2.1261,-0.2873,29.2763,-0.9966,-3.878,-1.5761
1450611.0,2.6528,-0.5267,29.1997,-0.8913,-3.4268,-1.6331
1450621.0,3.3327,-0.8428,29.2284,-0.5869,-2.9149,-1.7075
1450631.0,4.0414,-1.2067,28.8166,-0.2677,-2.3722,-1.8108
1450641.0,4.5203,-1.3695,28.8453,-0.0899,-1.8635,-1.9699
1450651.0,4.798,-0.996,29.5157,-0.0702,-1.5612,-2.1598
1450661.0,4.9991,-0.316,29.9179,-0.1463,-1.425,-2.361
1450671.0,4.9033,0.3831,30.052,-0.2645,-1.3266,-2.5291
1450681.0,4.9799,0.8523,29.2763,-0.2815,-1.1408,-2.6084
1450691.0,5.2385,1.245,28.4718,-0.0537,-0.713,-2.6717
1450701.0,5.047,1.4269,28.1558,0.3102,-0.1336,-2.7138
1450711.0,4.8459,1.6185,28.1845,0.5571,0.5417,-2.7734
1450721.0,5.1332,1.3503,29.0943,0.7838,1.1222,-2.8383
1450731.0,5.2864,1.312,30.3106,0.8466,1.4851,-3.0384
1450741.0,4.4724,1.8771,31.1821,0.6369,1.5554,-3.3225
1450751.0,3.8978,2.873,31.862,0.2905,1.4995,-3.5428
1450761.0,3.0742,4.5011,32.111,0.1575,1.5697,-3.6476
1450771.0,2.5379,5.6312,32.1206,0.3879,1.9236,-3.6184
1450781.0,1.6472,6.7804,31.9578,0.721,2.4142,-3.5279
1450791.0,0.8428,7.853,32.2164,0.8195,2.8825,-3.3363
1450801.0,0.8523,8.351,33.6912,0.9583,3.1852,-3.1336
1450811.0,0.5938,8.2935,35.166,0.8572,3.3603,-2.9293
1450821.0,-0.316,7.9487,36.5164,0.7811,3.2656,-2.7457
1450831.0,-0.4118,7.2113,37.0048,0.4997,3.1299,-2.6776
1450841.0,-0.2298,6.5218,36.5738,0.1032,2.9484,-2.6701
1450851.0,-0.6608,6.0047,36.4014,-0.5561,2.8888,-2.7542
1450861.0,-1.3024,5.3726,36.909,-0.9722,2.8276,-2.8415
1450871.0,-2.0016,5.5929,36.8707,-1.2361,2.8452,-2.9186
1450881.0,-2.7773,4.9321,37.972,-1.1323,2.9511,-2.8638
1450891.0,-3.2178,4.1084,38.719,-0.5603,3.1379,-2.7888
1450901.0,-3.3902,3.6105,39.5809,0.2863,3.3012,-2.7707
1450911.0,-3.4477,3.7445,39.5235,1.1579,3.4007,-2.7398
1450921.0,-3.802,4.8842,38.9776,1.7725,3.5093,-2.7148
1450931.0,-4.0414,6.2153,37.34,2.0321,3.6162,-2.6696
1450941.0,-3.8116,7.2018,35.3671,1.6804,3.7509,-2.6457
1450951.0,-4.7884,8.0637,35.099,0.8748,3.7908,-2.6536
1450961.0,-6.1196,8.4659,34.7447,0.0809,3.8488,-2.5536
1450971.0,-6.8666,7.7476,36.1812,-0.2959,4.1271,-2.3487
1450981.0,-7.0773,5.612,38.0487,0.0298,4.524,-2.1705
1450991.0,-6.7995,3.7637,38.6807,0.4528,4.9678,-2.1508
1451001.0,-7.1826,2.3176,40.6919,0.8274,5.1945,-2.3195
1451011.0,-7.5753,2.1931,41.956,1.0743,5.1258,-2.5345
1451021.0,-7.6806,2.8443,42.6743,0.9924,4.8646,-2.8053
1451031.0,-8.2169,4.0606,42.4636,0.7008,4.5208,-3.0038
1451041.0,-9.7779,5.545,42.1954,0.2224,4.1787,-3.0825
1451051.0,-10.7548,5.1427,43.1722,0.0213,4.0031,-3.0134
1451061.0,-11.6071,4.2521,41.9847,-0.1112,3.8653,-3.0001
1451071.0,-11.8657,2.624,42.2337,-0.4188,3.8525,-3.123
1451081.0,-12.469,1.0439,44.762,0.1149,3.9211,-3.3092
1451091.0,-12.7755,0.7853,45.3749,1.135,4.0063,-3.5263
1451101.0,-12.7372,1.9249,45.3941,1.9678,3.9094,-3.7876
1451111.0,-12.8233,4.0606,44.1395,2.0375,3.5934,-3.9994
1451121.0,-13.4171,5.861,43.0286,1.4798,3.0996,-4.1702
1451131.0,-14.1833,7.604,41.1707,0.5869,2.602,-4.2537
1451141.0,-15.84,8.1116,39.8874,-0.3262,2.2764,-4.2058
1451151.0,-17.0659,7.0006,38.6424,-0.8381,2.3088,-4.1111
1451161.0,-16.6541,4.7118,37.4549,-1.185,2.6191,-4.1946
1451171.0,-16.3859,2.739,38.5658,-1.2308,3.0841,-4.4096
1451181.0,-16.5296,2.2793,39.9449,-0.887,3.4939,-4.6672
1451191.0,-17.2191,3.7254,40.7014,-0.5236,3.7972,-4.8906
1451201.0,-18.3204,6.292,40.644,-0.7136,3.927,-4.9598
1451211.0,-18.9525,8.102,41.0941,-1.4245,3.8073,-4.8593
1451221.0,-19.8527,8.6574,42.6264,-2.1582,3.7014,-4.6453
1451231.0,-20.8104,8.1307,44.8865,-2.2125,3.704,-4.2505
1451241.0,-21.1073,6.11,47.5776,-1.6267,3.8222,-3.8892
1451251.0,-21.6532,4.4724,50.9678,-0.3821,3.7535,-3.587
1451261.0,-21.4616,4.2904,52.4139,0.7125,3.4039,-3.3731
1451271.0,-20.7529,4.0989,52.4522,1.3063,2.6925,-3.247
1451281.0,-19.9485,4.5681,50.623,0.9727,1.8321,-3.2539
1451291.0,-19.7665,4.5011,49.4834,0.0319,1.0461,-3.3092
1451301.0,-19.3547,4.2808,48.1426,-0.9802,0.4406,-3.3661
1451311.0,-19.8336,2.8922,48.2288,-1.7687,-0.0005,-3.3959
1451321.0,-20.7912,1.1971,49.6557,-1.7671,-0.3496,-3.4183
1451331.0,-21.4616,-0.0479,50.3836,-0.8397,-0.5571,-3.413
1451341.0,-21.1073,-1.4269,50.1154,0.7535,-0.6018,-3.4167
1451351.0,-20.389,-1.1301,48.5065,2.2072,-0.7141,-3.5423
1451361.0,-19.6037,0.1532,45.4611,2.5956,-0.9674,-3.8089
1451371.0,-19.2781,1.8771,42.8754,2.0385,-1.2329,-4.0802
1451381.0,-19.0387,3.4093,41.9656,1.2116,-1.4335,-4.3346
1451391.0,-18.6365,5.2577,41.142,0.1501,-1.6059,-4.5059
1451401.0,-19.5367,6.1196,42.0518,-0.5992,-1.7145,-4.5107
1451411.0,-20.0921,6.3111,43.3925,-0.6401,-1.7953,-4.3543
1451421.0,-20.4656,6.0908,44.0054,-0.2001,-1.831,-4.1138
1451431.0,-20.6572,5.5162,44.5513,0.5092,-1.7363,-3.8658
