time_ms,ax,ay,az,gx,gy,gz
72861.0,0.1365,3.1196,10.149,-0.099,-0.0192,0.1219
72931.0,0.4525,2.4684,10.173,-0.0223,0.0074,0.074
72941.0,0.4932,2.5187,10.2089,-0.1107,-0.0245,0.0463
72951.0,0.5148,2.6193,10.1203,-0.191,-0.0548,0.0229
72961.0,0.3735,2.7701,10.0173,-0.2512,-0.0654,0.0043
72971.0,0.2777,2.885,9.9575,-0.2959,-0.0724,-0.0037
72981.0,0.2897,3.0335,9.8354,-0.3033,-0.0601,0.0011
72991.0,0.2849,3.1244,9.754,-0.2783,-0.0149,0.0229
73001.0,0.3065,3.0526,9.8354,-0.2464,0.0426,0.0564
73011.0,0.4118,2.8563,9.9958,-0.2075,0.0825,0.091
73021.0,0.5435,2.6767,10.1203,-0.1884,0.0862,0.1101
73031.0,0.5722,2.375,10.228,-0.191,0.0676,0.1149
73041.0,0.5459,2.3439,10.1873,-0.1761,0.0271,0.0995
73051.0,0.4741,2.3846,10.1203,-0.1458,-0.0096,0.083
73061.0,0.4094,2.5905,9.6774,-0.0734,-0.0112,0.0761
73071.0,0.3184,2.739,9.3637,-0.0351,0.0138,0.0809
73081.0,0.3448,2.8012,9.1961,-0.041,0.0521,0.099
73091.0,0.4166,2.7246,9.2129,-0.0511,0.1016,0.124
73101.0,0.4621,2.5905,9.2153,-0.0543,0.1442,0.1453
73111.0,0.3639,2.3607,9.3925,-0.0553,0.1804,0.1602
73121.0,0.3519,2.2003,9.4188,-0.0186,0.2102,0.1655
73131.0,0.261,2.15,9.3422,0.041,0.2442,0.1602
73141.0,0.261,2.1883,9.2296,0.1314,0.3038,0.1527
73151.0,0.3352,2.3128,9.0549,0.2171,0.3959,0.1437
73161.0,0.5291,2.5786,8.9208,0.2325,0.5087,0.1304
73171.0,0.8045,2.715,9.3087,0.1474,0.6114,0.116
73181.0,0.9649,2.8419,9.7707,0.041,0.6646,0.1059
73191.0,0.9002,2.9018,10.1897,-0.0607,0.6832,0.0979
73201.0,0.7781,2.9401,10.5752,-0.1128,0.6939,0.1
73211.0,0.5339,3.1196,10.6638,-0.0601,0.7402,0.1165
73221.0,0.1963,3.2657,10.8553,0.0697,0.8918,0.1522
73231.0,-0.0838,3.5985,11.2336,0.2107,1.093,0.2001
73241.0,-0.3065,3.699,12.548,0.2708,1.3031,0.2607
73251.0,-0.5315,3.7685,13.5009,0.2629,1.3468,0.3251
73261.0,-0.6225,3.7469,14.0396,0.1336,1.2451,0.3719
73271.0,-0.5794,3.6799,14.5041,-0.0484,1.1403,0.4076
73281.0,-0.7949,3.541,14.777,-0.2389,1.0137,0.4331
73291.0,-1.0391,3.3519,14.6932,-0.4523,0.8354,0.4496
73301.0,-1.4365,2.9951,14.6741,-0.6721,0.7024,0.4672
73311.0,-1.5538,2.1644,15.7682,-0.7811,0.6662,0.4991
73321.0,-1.1708,1.1301,16.7259,-0.6534,0.6215,0.5215
73331.0,-0.7446,0.1293,17.3963,-0.5193,0.4049,0.4635
73341.0,-0.589,-0.395,17.3675,-0.3837,0.0708,0.3139
73351.0,-1.0295,-0.3926,16.848,-0.1862,-0.2533,0.124
73361.0,-1.142,0.0838,15.3899,0.0479,-0.5715,-0.0633
73371.0,-1.0582,0.7685,13.2663,0.1825,-0.7992,-0.2336
73381.0,-1.2737,1.6448,11.2312,0.1,-0.9163,-0.3842
73391.0,-1.4245,2.4038,9.6534,-0.207,-0.9434,-0.5044
73401.0,-1.3216,2.7725,8.9543,-0.5779,-0.8477,-0.5747
73411.0,-1.2234,3.0095,8.9615,-0.8546,-0.638,-0.6077
73421.0,-1.1612,2.9521,9.9671,-1.0429,-0.3767,-0.6114
73431.0,-1.336,2.7773,11.4802,-1.1664,-0.2613,-0.6066
73441.0,-1.4772,2.7198,12.6701,-1.2271,-0.3608,-0.6119
73451.0,-1.64,2.9808,13.1561,-1.1552,-0.5608,-0.6087
73461.0,-1.8627,3.3974,12.8952,-0.9833,-0.7811,-0.5741
73471.0,-1.9345,3.8882,11.8992,-0.7886,-0.9668,-0.5039
73481.0,-1.968,4.1228,11.1426,-0.6178,-1.0302,-0.3922
73491.0,-1.8124,3.8403,10.659,-0.4592,-0.9881,-0.2538
73501.0,-1.3886,3.1268,10.6877,-0.332,-0.9158,-0.1325
73511.0,-1.1085,2.6217,10.817,-0.2677,-0.8833,-0.0697
73521.0,-1.008,2.3511,11.0492,-0.3326,-0.9408,-0.0639
73531.0,-0.9673,2.3559,11.3198,-0.439,-1.0695,-0.0851
73541.0,-1.0247,2.4469,11.2575,-0.4981,-1.2068,-0.1006
73551.0,-1.0415,2.5498,10.9104,-0.5369,-1.3478,-0.1101
73561.0,-0.984,2.6528,10.3597,-0.5832,-1.4692,-0.1155
73571.0,-0.9074,2.6839,9.7516,-0.6407,-1.5272,-0.1133
73581.0,-0.5818,2.5426,9.5816,-0.7146,-1.5202,-0.1054
73591.0,-0.6153,2.6384,9.4355,-0.7641,-1.4846,-0.1054
73601.0,-0.5866,3.134,9.2703,-0.8498,-1.4835,-0.1038
73611.0,-0.4693,3.6775,9.6199,-0.9237,-1.4457,-0.0564
73621.0,-0.3112,4.063,9.9192,-0.8647,-1.3904,0.0484
73631.0,0.0479,4.1444,9.9264,-0.7279,-1.3595,0.1836
73641.0,0.2346,3.9959,9.833,-0.5795,-1.2994,0.3267
73651.0,0.2897,3.3423,9.8665,-0.5454,-1.2792,0.455
73661.0,0.5028,2.3463,9.8043,-0.6157,-1.3244,0.5433
73671.0,0.838,1.3695,9.8067,-0.754,-1.3766,0.5678
73681.0,1.2881,0.8212,10.3214,-0.895,-1.4011,0.5321
73691.0,1.47,0.6608,10.9463,-0.903,-1.4367,0.4858
73701.0,1.6879,0.5794,10.9559,-0.7785,-1.5335,0.4635
73711.0,1.9082,0.5602,10.4627,-0.5938,-1.6315,0.4581
73721.0,2.0351,0.4549,9.6414,-0.3938,-1.674,0.4656
73731.0,2.4828,-0.2849,8.7388,-0.2517,-1.6511,0.4725
73741.0,3.0143,-0.8978,7.8123,-0.19,-1.5713,0.4278
73751.0,3.383,-1.0989,7.58,-0.2682,-1.4457,0.3225
73761.0,3.5003,-0.6153,7.7859,-0.3783,-1.3308,0.2006
73771.0,3.7661,0.0144,8.0565,-0.4661,-1.2659,0.1282
73781.0,3.8714,0.3998,8.3438,-0.5177,-1.2531,0.1208
73791.0,4.0749,0.5435,8.6215,-0.4933,-1.2723,0.1527
73801.0,3.9935,0.7183,8.2001,-0.3682,-1.3047,0.2097
73811.0,4.3335,0.4573,7.999,-0.1889,-1.2627,0.2911
73821.0,4.2449,0.2346,7.6016,0.0314,-1.1653,0.3688
73831.0,4.2329,-0.079,7.367,0.1378,-1.1275,0.4204
73841.0,4.458,-0.395,6.8139,0.1809,-1.1116,0.455
73851.0,4.5394,-0.6273,6.3135,0.125,-1.0797,0.4566
73861.0,4.6424,-0.7159,5.7844,-0.0096,-1.0557,0.4347
73871.0,4.7836,-0.8428,5.5641,-0.1389,-0.9562,0.4076
73881.0,4.7692,-0.8978,5.7389,-0.2224,-0.7971,0.3778
73891.0,4.4915,-0.9577,6.5003,-0.2692,-0.6758,0.3533
73901.0,4.2234,-1.1013,6.8163,-0.207,-0.6306,0.3453
73911.0,4.2162,-1.4533,7.0342,-0.0846,-0.6082,0.34
73921.0,4.391,-1.4485,6.9288,0.1096,-0.5593,0.3161
73931.0,4.4843,-1.0965,6.7062,0.2783,-0.489,0.2868
73941.0,4.7309,-0.7135,6.6415,0.3432,-0.4273,0.273
73951.0,4.8219,-0.6369,6.4931,0.2639,-0.3922,0.2746
73961.0,5.1212,-0.6943,6.4093,0.0713,-0.4294,0.2708
73971.0,4.9081,-0.9026,6.9001,-0.1112,-0.4315,0.2575
73981.0,4.8339,-0.9625,6.9911,-0.0745,-0.3975,0.2575
73991.0,4.8171,-0.9553,6.9049,0.0915,-0.3182,0.2639
74001.0,4.707,-0.6345,6.7157,0.2224,-0.2288,0.273
74011.0,4.9512,-0.6201,6.9695,0.232,-0.1671,0.2943
74021.0,5.0757,-0.7374,7.0677,0.2128,-0.1314,0.3193
74031.0,5.2553,-0.9768,7.027,0.1447,-0.1277,0.332
74041.0,5.3343,-1.3982,7.1946,0.0303,-0.1314,0.3288
74051.0,5.4588,-1.8435,7.2568,-0.0335,-0.1298,0.3006
74061.0,5.5593,-1.8914,7.2736,-0.0617,-0.1128,0.2368
74071.0,5.351,-1.7382,7.6782,-0.0458,-0.0665,0.1713
74081.0,5.2194,-1.4892,7.7955,0.0431,-0.0665,0.1277
74091.0,5.1715,-1.0367,7.3526,0.1352,-0.0952,0.1
74151.0,5.0326,-1.9561,6.3255,0.0431,-0.1075,-0.0059
74161.0,5.0925,-1.3264,5.3247,0.1426,-0.0825,-0.0761
74171.0,5.1116,-0.9481,4.9368,0.1437,0.0495,-0.1117
74181.0,5.272,-0.9744,4.7405,0.091,0.1804,-0.1224
74191.0,5.4277,-0.6991,4.5633,-0.017,0.2969,-0.1522
74201.0,5.3702,-0.4381,5.1523,-0.1394,0.4597,-0.1697
74211.0,5.1906,-0.4238,5.7628,-0.1777,0.5731,-0.1591
74221.0,5.2577,-0.3328,5.9903,-0.1522,0.5848,-0.149
74231.0,4.9488,-0.4788,6.0861,-0.0181,0.6364,-0.1266
74241.0,5.1739,-0.8092,5.7197,0.2272,0.7343,-0.107
74251.0,5.2361,-0.7805,5.1571,0.4076,0.8753,-0.1245
74261.0,5.0925,-0.6488,5.1236,0.4081,1.0515,-0.1575
74271.0,5.0901,-0.9768,5.7221,0.2724,1.1765,-0.1873
74281.0,5.2433,-0.7422,6.4979,0.1564,1.2707,-0.2405
74291.0,4.6208,-0.2466,7.9895,0.1431,1.3643,-0.273
74301.0,4.5705,-0.0982,8.3821,0.2841,1.276,-0.2442
74311.0,4.6519,-0.1221,7.7452,0.3847,1.0924,-0.2187
74321.0,4.2832,-0.0024,6.8474,0.3368,0.9163,-0.223
74331.0,4.2401,0.0215,5.454,0.2288,0.7572,-0.2384
74341.0,4.1348,0.2394,3.8714,0.1836,0.7811,-0.2575
74351.0,4.0989,-0.0287,2.964,0.1421,1.0126,-0.2629
74361.0,4.1492,-0.5962,2.5642,0.1038,1.318,-0.2863
74371.0,3.881,-0.3184,2.5857,0.0686,1.6921,-0.3512
74381.0,3.1412,-0.0742,3.8906,0.0351,2.1024,-0.3916
74391.0,2.727,-0.1724,5.3079,0.1016,2.3743,-0.389
74401.0,2.5474,-0.6249,6.4691,0.1602,2.4733,-0.3821
74411.0,2.4804,-1.0127,6.9049,0.1586,2.3828,-0.4103
74421.0,2.3607,-0.8978,6.4189,0.1953,2.2732,-0.4704
74431.0,2.0111,-0.5722,5.8371,0.3251,2.3636,-0.5305
74441.0,1.6592,0.103,5.5354,0.4906,2.6159,-0.5896
74451.0,1.1612,0.9218,6.0741,0.5582,2.8825,-0.6428
74461.0,0.9026,1.9776,6.5697,0.5257,3.0171,-0.6699
74471.0,0.589,3.0358,7.3119,0.3352,3.0426,-0.6561
74481.0,-0.0024,3.3279,8.193,0.0921,2.9543,-0.5726
74491.0,0.1844,2.5331,7.8889,-0.067,2.6483,-0.473
74501.0,0.146,2.1715,6.1292,0.1681,2.643,-0.4209
74511.0,-0.8188,2.2051,5.0901,0.6348,3.1517,-0.4241
74521.0,-1.4772,2.8084,5.2481,0.9823,3.803,-0.4986
74531.0,-2.5929,4.5945,7.197,0.9966,4.3804,-0.6306
74541.0,-3.8762,6.5529,10.6303,0.7657,4.6693,-0.7104
74551.0,-4.6471,8.497,13.7786,0.5374,4.6203,-0.6928
74561.0,-5.284,10.0054,16.1656,0.3241,4.2457,-0.571
74571.0,-5.6527,11.0229,16.8121,0.2389,3.6726,-0.3645
74581.0,-5.8826,11.7124,15.8089,0.3815,3.2688,-0.1048
74591.0,-6.2393,12.1123,14.3197,0.5603,3.124,0.1575
74601.0,-6.7708,12.4738,13.8864,0.5433,3.1687,0.3927
74611.0,-7.6231,12.3708,14.8153,0.406,3.2778,0.63
74621.0,-8.339,12.1937,16.4242,0.2921,3.297,0.8652
74631.0,-8.9807,11.8298,17.8847,0.2384,3.1639,1.1121
74641.0,-9.2536,11.4227,18.4952,0.2214,2.9107,1.3537
74651.0,-9.6462,10.896,18.6365,0.058,2.5632,1.5708
74661.0,-9.9431,9.9982,18.5431,-0.2469,2.1678,1.7624
74671.0,-10.4483,9.244,18.3468,-0.5901,1.7815,1.9252
74681.0,-11.0014,8.1547,18.4377,-0.8977,1.416,2.0838
74691.0,-11.0301,6.8857,17.8727,-1.0259,1.0786,2.246
74701.0,-10.8577,5.5067,17.4274,-1.0818,0.8519,2.3833
74711.0,-10.975,4.2784,17.0324,-1.1249,0.6625,2.4866
74721.0,-10.7141,2.8108,16.7546,-1.2542,0.4241,2.5504
74731.0,-10.8362,1.3192,16.5798,-1.416,0.2086,2.5674
74741.0,-10.9583,-0.3639,17.0419,-1.5532,0.0016,2.5329
74751.0,-10.7452,-1.8531,17.4537,-1.525,-0.2033,2.4461
74761.0,-10.3358,-2.5809,17.3412,-1.4293,-0.4321,2.2902
74771.0,-9.9192,-2.6025,17.1592,-1.4442,-0.7162,2.0917
74781.0,-9.5385,-2.3679,16.9007,-1.5442,-1.0264,1.9145
74791.0,-9.2823,-2.3774,16.8193,-1.6692,-1.3462,1.782
74801.0,-9.0764,-2.4756,16.3165,-1.7304,-1.6751,1.682
74811.0,-8.7125,-2.9712,15.6964,-1.7251,-1.9928,1.6033
74821.0,-8.2073,-3.4405,14.7267,-1.583,-2.2221,1.5197
74831.0,-7.7428,-3.4477,13.5703,-1.4606,-2.3913,1.4026
74841.0,-7.6758,-3.5554,13.1801,-1.4298,-2.5142,1.2797
74851.0,-7.2425,-4.0558,12.6965,-1.3409,-2.6292,1.1717
74861.0,-6.5769,-4.2162,11.971,-1.2207,-2.759,1.0291
74871.0,-5.964,-3.8283,11.0852,-1.0999,-2.833,0.8668
74881.0,-5.3846,-3.292,10.3837,-1.0238,-2.8489,0.7317
74891.0,-4.9656,-2.8156,9.9862,-1.0243,-2.8766,0.6284
74901.0,-4.3862,-2.5259,9.517,-1.0557,-2.9559,0.5555
74911.0,-4.0654,-2.5426,9.2895,-1.061,-3.0277,0.5076
74921.0,-3.7876,-2.8012,8.6,-0.9248,-3.0974,0.4752
74931.0,-3.0861,-3.2633,7.4603,-0.7189,-3.1256,0.4268
74941.0,-2.5235,-3.2441,6.2297,-0.5098,-3.033,0.3347
74951.0,-1.9345,-3.0358,5.363,-0.4007,-2.8723,0.2166
74961.0,-1.2306,-2.5259,4.9297,-0.3964,-2.71,0.0905
74971.0,-0.7853,-1.822,4.7285,-0.431,-2.5456,-0.017
74981.0,-0.2346,-1.3168,4.4269,-0.4933,-2.4137,-0.0798
74991.0,0.0263,-1.1277,4.391,-0.5747,-2.3088,-0.1096
75001.0,0.5052,-1.1827,3.9624,-0.5678,-2.2109,-0.1165
75011.0,1.0199,-1.6161,3.6655,-0.4385,-1.9933,-0.1107
75021.0,1.3743,-1.9082,3.565,-0.2506,-1.6836,-0.1277
75031.0,1.6688,-2.1931,4.1228,-0.1405,-1.4149,-0.1708
75041.0,1.8866,-2.2505,4.5322,-0.0639,-1.2494,-0.2277
75051.0,1.9992,-2.1308,4.8243,-0.0383,-1.1664,-0.2927
75061.0,2.4038,-1.7885,4.7405,-0.0154,-1.1233,-0.356
75071.0,2.6097,-1.2857,4.561,0.0293,-1.0312,-0.4012
75081.0,2.7988,-1.0056,4.4388,0.0521,-0.903,-0.4172
75091.0,3.2729,-1.0989,4.5226,0.0383,-0.762,-0.4188
75101.0,3.2753,-1.063,4.7621,-0.0149,-0.6465,-0.4406
75111.0,3.3519,-1.1779,5.1882,-0.1059,-0.5694,-0.4566
75121.0,3.3447,-1.7885,5.8658,-0.1474,-0.5082,-0.4581
75131.0,3.5721,-2.2266,5.8155,-0.1043,-0.513,-0.4853
75141.0,3.5482,-2.5402,5.5593,-0.1357,-0.5651,-0.5385
75151.0,3.6176,-3.0167,4.8435,-0.2384,-0.6641,-0.6114
75161.0,3.8499,-3.4261,3.8618,-0.2873,-0.7274,-0.7205
75171.0,3.9983,-3.2633,2.3942,-0.1602,-0.596,-0.8551
75181.0,4.0821,-2.8826,1.1851,0.0367,-0.2581,-0.9908
75191.0,3.9385,-2.2553,0.6512,0.2038,0.199,-1.119
75201.0,3.6224,-1.4844,1.0511,0.3097,0.7003,-1.2281
75211.0,3.0502,-0.68,1.9656,0.3783,1.1515,-1.293
75221.0,2.545,-0.1006,3.2202,0.3916,1.4835,-1.3074
75231.0,2.0925,-0.0144,4.5873,0.3448,1.6751,-1.2776
75241.0,1.9896,-0.7877,5.8107,0.241,1.698,-1.2366
75251.0,1.9178,-1.585,6.5098,0.1788,1.6315,-1.2531
75261.0,1.7813,-2.0901,6.9863,0.2868,1.648,-1.3266
75271.0,1.2426,-1.9632,6.8977,0.5545,1.7405,-1.434
75281.0,1.1444,-1.2426,6.7971,0.7561,1.847,-1.5607
75291.0,0.3065,-0.0503,6.6655,0.729,1.8869,-1.6639
75301.0,-0.0407,0.498,6.8163,0.5023,1.8331,-1.7081
75311.0,-0.3759,0.7494,6.3063,0.2623,1.7342,-1.7224
75321.0,-0.5028,0.6177,5.8658,0.1884,1.8624,-1.7209
75331.0,-1.0965,0.5578,5.8873,0.2634,2.2109,-1.7251
75341.0,-1.7382,0.316,6.8354,0.3198,2.585,-1.748
75351.0,-2.0087,0.0527,8.7029,0.3549,2.891,-1.7922
75361.0,-2.7653,0.2418,10.9128,0.4188,3.0314,-1.8464
75371.0,-3.6081,0.5531,12.4738,0.4603,2.8846,-1.8842
75381.0,-3.96,0.3472,12.6462,0.3863,2.4743,-1.9028
75391.0,-3.7134,0.1341,11.2982,0.2517,1.9784,-1.963
75401.0,-4.039,0.9601,8.5688,0.2453,1.8177,-2.0651
75411.0,-4.8171,1.5538,7.1323,0.2783,2.1465,-2.1311
75421.0,-5.3295,1.7573,7.774,0.3235,2.7457,-2.1646
75431.0,-6.3758,1.9465,10.2304,0.307,3.2682,-2.1998
75441.0,-6.9552,1.9656,13.4554,0.19,3.4316,-2.2184
75451.0,-7.6471,1.9896,16.2111,0.0628,3.2363,-2.212
75461.0,-7.6662,1.5897,17.4705,-0.0623,2.7106,-2.1843
75471.0,-7.3741,1.1971,16.7977,-0.0825,2.1295,-2.1705
75481.0,-7.7189,1.2282,15.4929,0.0734,1.8379,-2.1779
75491.0,-7.5585,1.154,14.777,0.4012,1.8672,-2.1843
75501.0,-7.5992,1.7741,14.3317,0.7194,2.0609,-2.2147
75511.0,-8.0134,2.3727,15.8568,0.6279,2.1114,-2.2668
75521.0,-8.3749,2.6887,17.5567,0.3656,1.8565,-2.2817
75531.0,-8.6933,2.5714,18.2749,0.0521,1.3266,-2.2769
75541.0,-8.4659,2.3535,17.4011,-0.1777,0.6965,-2.2822
75551.0,-8.4084,2.8467,15.1505,-0.1107,0.4166,-2.2923
75561.0,-8.6574,3.3543,13.9965,-0.0122,0.5582,-2.2886
75571.0,-8.7293,3.6512,14.8967,0.0729,0.8684,-2.2716
75581.0,-9.3398,4.5801,16.8504,0.1767,1.1217,-2.2445
75591.0,-9.7612,5.0637,20.0658,0.1868,1.0562,-2.171
75601.0,-9.7516,5.7892,21.3204,0.265,0.6093,-2.046
75611.0,-9.4164,5.9472,20.6859,0.1219,-0.0878,-1.88
75621.0,-8.6718,4.8004,20.0993,-0.2214,-0.7673,-1.7171
75631.0,-8.1547,3.9744,18.4641,-0.3166,-1.1941,-1.5995
75641.0,-8.0373,3.2633,17.3604,-0.3688,-1.4218,-1.5362
75651.0,-7.7835,2.7869,16.6708,-0.3884,-1.549,-1.4984
75661.0,-7.865,2.2984,16.9414,-0.431,-1.6714,-1.4803
75671.0,-7.5393,2.1787,16.757,-0.3815,-1.9002,-1.4777
75681.0,-7.3454,2.4732,16.3045,-0.2852,-2.1508,-1.466
75691.0,-7.0868,2.7246,15.6533,-0.1745,-2.3918,-1.4245
75701.0,-6.7995,3.3112,14.4562,-0.0452,-2.5988,-1.3627
75711.0,-6.4667,3.9648,13.5871,0.0165,-2.7122,-1.2723
75721.0,-6.4596,4.2689,13.4817,0.058,-2.7547,-1.1499
75731.0,-6.2944,4.4245,13.1753,0.1346,-2.8537,-1.0147
75741.0,-5.9831,4.4365,12.8688,0.1815,-2.9591,-0.8838
75751.0,-5.7293,4.6232,13.0963,0.1719,-3.0527,-0.7678
75761.0,-5.7461,4.9129,13.8026,0.1745,-3.2331,-0.6401
75771.0,-5.4947,4.8961,13.1849,0.3406,-3.5417,-0.4523
75781.0,-4.9392,4.3694,11.6023,0.5124,-3.8152,-0.2442
75791.0,-4.4221,3.6966,9.9599,0.5779,-3.9696,-0.0702
75801.0,-3.9217,2.8467,8.4898,0.5454,-4.0026,0.0543
75811.0,-3.3255,1.9058,7.3574,0.4193,-3.9626,0.1133
75821.0,-2.7174,1.1109,6.5577,0.1692,-3.8881,0.0952
75831.0,-2.217,0.644,6.7612,-0.1905,-3.8195,-0.0021
75841.0,-2.0231,0.6225,8.1451,-0.3528,-3.7541,-0.1176
75851.0,-1.6879,0.8954,8.1283,-0.058,-3.7642,-0.166
75861.0,-0.9912,1.5754,6.79,0.3448,-3.8035,-0.165
75871.0,-0.3998,2.2122,5.2361,0.6141,-3.7599,-0.1235
75881.0,0.2179,2.8132,3.6129,0.7577,-3.5902,-0.0463
75891.0,0.972,3.0622,2.5115,0.6976,-3.3012,0.041
75901.0,1.6352,2.9113,2.3128,0.4438,-2.9442,0.1139
75911.0,1.9225,2.6504,4.3551,0.0883,-2.6052,0.1485
75921.0,1.5778,2.3679,6.9504,0.0777,-2.4334,0.1969
75931.0,1.7573,2.1763,7.3885,0.5247,-2.461,0.2975
75941.0,2.0566,2.3176,6.4931,0.9461,-2.5451,0.398
75951.0,2.2434,2.5139,5.3678,1.1238,-2.6558,0.4762
75961.0,2.8515,2.8467,3.3806,1.226,-2.6952,0.555
75971.0,3.5219,3.1268,1.8364,1.2207,-2.4914,0.6332
75981.0,4.0151,3.3734,1.4245,1.0924,-2.1359,0.7061
75991.0,4.3287,3.6344,1.9058,0.8854,-1.8166,0.7758
76001.0,4.4221,3.9073,2.5762,0.671,-1.6038,0.8599
76011.0,4.1156,4.0127,4.0869,0.5034,-1.4878,0.9647
76021.0,3.9696,3.6919,4.7477,0.6465,-1.4777,1.1244
76031.0,4.3263,3.0191,4.142,0.9477,-1.4974,1.2994
76041.0,4.6807,2.0877,3.2106,1.1004,-1.5288,1.4351
76051.0,5.2433,1.1779,1.4222,1.0307,-1.6139,1.5053
76061.0,5.9256,0.4836,-0.4908,0.7503,-1.5878,1.5064
76071.0,6.1052,-0.0622,-1.3527,0.3586,-1.3702,1.4591
76081.0,6.5505,-0.3639,-2.0542,-0.0654,-1.1866,1.3846
76091.0,6.6702,-0.3639,-2.0159,-0.423,-0.9738,1.3047
76101.0,6.462,-0.0718,-2.1931,-0.572,-0.7593,1.276
76111.0,6.4572,-0.3184,-2.1548,-0.6013,-0.6258,1.3095
76121.0,6.7157,-0.6943,-3.5219,-0.3852,-0.5055,1.3846
76131.0,7.2568,-1.0678,-6.3997,-0.199,-0.3209,1.4521
76141.0,7.5729,-2.0877,-8.9998,-0.3171,-0.0016,1.4702
76151.0,7.6567,-2.8443,-11.3222,-0.588,0.4997,1.4016
76161.0,7.1347,-3.3016,-12.1673,-0.8977,1.2659,1.2787
76171.0,5.9975,-4.1396,-10.659,-1.2004,2.1614,1.1557
76181.0,4.9057,-4.9799,-7.75,-1.4112,2.8436,1.0147
76191.0,3.5913,-5.296,-5.3726,-1.3877,3.2214,0.8588
76201.0,2.5642,-5.1595,-4.707,-1.1238,3.4178,0.7125
76211.0,1.7741,-4.3838,-5.4803,-0.7795,3.6402,0.5694
76221.0,0.7302,-3.1651,-6.3638,-0.5502,4.0185,0.4331
76231.0,-0.7159,-1.7262,-6.6295,-0.4842,4.5128,0.3257
76241.0,-2.7629,-0.1556,-5.545,-0.4768,5.1721,0.2751
76251.0,-4.853,0.759,-2.3607,-0.4246,5.8681,0.3065
76261.0,-6.6918,1.3934,0.9409,-0.2634,6.3412,0.3837
76271.0,-7.9942,1.7023,4.2234,-0.0665,6.6083,0.4699
76281.0,-9.2512,1.9968,7.197,0.2831,6.8525,0.555
76291.0,-10.0149,2.6552,9.3494,0.6364,6.9771,0.6071
76301.0,-10.7739,3.4237,11.2408,0.7838,7.0383,0.646
76311.0,-11.655,3.8307,13.951,0.7061,7.0585,0.7008
76321.0,-12.2056,3.7661,17.3771,0.5646,6.9345,0.7684
76331.0,-12.0668,3.8283,21.1193,0.4496,6.6466,0.8051
76341.0,-12.5791,4.0366,23.5015,0.2543,5.9213,0.8471
76351.0,-11.8896,3.8092,23.6858,0.1373,5.0333,0.9019
76361.0,-11.8992,4.2665,23.0729,0.215,4.4948,0.9413
76371.0,-11.6358,4.47,22.6539,0.2937,4.1563,0.9929
76381.0,-11.3174,5.0087,22.4097,0.2283,3.8828,1.0286
76391.0,-11.3365,5.3534,23.5733,-0.0819,3.5524,1.0786
76401.0,-11.2599,5.4109,24.7704,-0.3278,3.1224,1.1781
76411.0,-11.4012,5.3127,25.254,-0.5103,2.5392,1.3095
76421.0,-11.1522,4.9009,24.3945,-0.6683,1.7874,1.4575
76431.0,-10.7332,4.537,22.563,-0.6832,1.2175,1.6064
76441.0,-10.5465,4.1779,21.1671,-0.6364,0.9301,1.748
76451.0,-10.2783,3.5267,20.1137,-0.6194,0.6859,1.8768
76461.0,-9.9862,2.8467,19.0028,-0.663,0.4193,1.9816
76471.0,-9.8641,1.9776,18.1887,-0.7513,0.1607,2.0577
76481.0,-9.6319,1.2186,16.8025,-0.8184,-0.1006,2.1072
76491.0,-9.3709,0.4046,15.5623,-0.9211,-0.3028,2.1253
76501.0,-9.3158,-0.3184,14.5065,-1.0004,-0.4119,2.1194
76511.0,-9.1506,-0.8475,13.6493,-1.052,-0.4427,2.0928
76521.0,-9.0453,-1.2857,13.4339,-1.0786,-0.3847,2.0534
76531.0,-9.0764,-1.664,13.6134,-1.0589,-0.3251,2.0119
76541.0,-9.1506,-1.8914,13.8289,-1.0163,-0.3219,1.9683
76551.0,-9.2344,-2.2745,14.2958,-0.994,-0.3283,1.9273
76561.0,-9.4762,-2.6264,14.7818,-0.9684,-0.3512,1.8826
76571.0,-9.5409,-2.9521,15.1912,-1.0552,-0.4358,1.8209
76581.0,-9.5792,-3.5075,16.4266,-1.2462,-0.5571,1.7352
76591.0,-9.7181,-3.9887,17.6692,-1.3537,-0.7359,1.64
76601.0,-9.7923,-4.4173,18.9908,-1.3707,-1.0201,1.5357
76611.0,-9.6486,-4.6471,19.7977,-1.2643,-1.3941,1.4367
76621.0,-9.3972,-4.8722,19.9413,-1.11,-1.8597,1.3415
76631.0,-9.019,-4.7501,18.8711,-0.9764,-2.4238,1.2382
76641.0,-8.6407,-4.6017,17.1616,-0.9583,-2.9601,1.1329
76651.0,-8.3486,-4.6807,15.1409,-1.027,-3.4013,1.027
76661.0,-7.829,-4.9081,13.0436,-1.1456,-3.7301,0.903
76671.0,-7.4819,-4.9153,11.485,-1.2627,-3.8871,0.746
76681.0,-7.1994,-4.7022,10.6446,-1.2638,-3.9126,0.5944
76691.0,-6.7445,-4.2832,10.2472,-1.0461,-3.8578,0.4746
76701.0,-6.1435,-3.6009,9.3709,-0.6614,-3.7897,0.4103
76711.0,-5.4468,-3.1843,8.169,-0.3629,-3.7562,0.3943
76721.0,-5.0542,-2.8826,7.0916,-0.2575,-3.7455,0.39
76731.0,-4.7238,-2.8204,6.0908,-0.2772,-3.7572,0.3852
76741.0,-3.9792,-2.8563,4.6831,-0.298,-3.7253,0.3677
76751.0,-3.0885,-2.6097,3.3974,-0.2756,-3.5173,0.3326
76761.0,-2.6145,-2.1931,2.7102,-0.3081,-3.1655,0.2937
76771.0,-2.2673,-2.0925,3.3974,-0.4704,-2.833,0.2762
76781.0,-1.968,-2.8036,5.0111,-0.5066,-2.5786,0.29
76791.0,-1.6041,-3.4572,5.9807,-0.2464,-2.42,0.3022
76801.0,-1.2809,-3.8786,6.3351,0.0958,-2.3477,0.2799
76811.0,-0.6704,-3.723,5.6982,0.3416,-2.3759,0.2224
76821.0,-0.2705,-3.2609,4.8866,0.3682,-2.3722,0.1511
76831.0,0.0622,-2.7988,4.4053,0.1889,-2.3354,0.0947
76841.0,0.486,-2.5809,4.0869,-0.0862,-2.3078,0.0644
76851.0,1.0822,-3.067,4.2377,-0.3017,-2.2381,0.0532
76861.0,1.4748,-3.735,4.3024,-0.306,-2.0923,0.0341
76871.0,1.7813,-4.525,4.4724,-0.1783,-1.9257,-0.0176
76881.0,2.3439,-5.0302,4.2162,0.0378,-1.7719,-0.1203
76891.0,2.6288,-4.8746,4.0007,0.2112,-1.5836,-0.2751
76901.0,2.7342,-4.3167,4.0223,0.2863,-1.416,-0.4379
76911.0,3.0047,-3.316,3.7948,0.3102,-1.2723,-0.5784
76921.0,3.055,-2.1165,3.9433,0.2432,-1.102,-0.6651
76931.0,3.2944,-1.1349,4.276,0.0974,-0.9844,-0.6753
76941.0,3.7876,-0.4453,4.628,-0.0814,-0.9104,-0.6215
76951.0,3.8164,-0.249,5.5881,-0.2517,-0.8317,-0.5172
76961.0,3.8499,-0.4573,6.1914,-0.3044,-0.8844,-0.3837
76971.0,3.9002,-1.0175,6.0908,-0.2432,-0.9961,-0.2533
76981.0,4.0079,-1.968,5.4899,-0.0867,-1.0695,-0.1415
76991.0,4.1851,-2.7677,4.391,0.099,-1.0962,-0.0979
77001.0,4.0797,-2.6935,1.7789,0.1501,-1.1031,-0.116
77011.0,4.3431,-3.4022,-0.9912,-0.3108,-1.1563,-0.1506
77021.0,5.2146,-5.1068,-4.0749,-1.1047,-1.1722,-0.2272
77031.0,6.0573,-7.2903,-5.624,-1.8124,-0.8375,-0.4076
77041.0,6.1268,-8.2289,-5.6216,-1.93,-0.0947,-0.7019
77051.0,5.1858,-8.0972,-4.8387,-1.607,0.6375,-1.0185
77061.0,4.4508,-7.5513,-4.4724,-1.0993,1.118,-1.2914
77071.0,3.6368,-6.5793,-4.9129,-0.4406,1.5112,-1.5165
77081.0,2.9161,-5.2505,-6.5027,0.1809,1.8964,-1.7118
77091.0,2.0542,-3.7828,-8.6,0.5193,2.3344,-1.8746
77101.0,1.0487,-2.7246,-9.9,0.4321,2.8793,-1.996
77111.0,-0.1963,-2.071,-9.6414,0.1064,3.5556,-2.0784
77121.0,-1.7837,-1.5706,-7.7883,-0.2171,4.2995,-2.1253
77131.0,-3.6081,-0.8092,-4.7716,-0.3863,4.9822,-2.1226
77141.0,-5.5067,-0.2634,-1.5419,-0.3421,5.4951,-2.038
77151.0,-7.118,-0.3304,1.0151,-0.1729,5.7995,-1.8927
77161.0,-8.2768,-1.087,2.9688,0.042,5.9384,-1.7629
77171.0,-9.5122,-1.5155,4.2258,0.4661,6.2113,-1.7145
77181.0,-11.2623,-1.0702,5.0182,0.8908,6.5657,-1.7703
77191.0,-12.9454,-0.0886,5.9831,1.0594,6.9531,-1.8789
77201.0,-14.6597,0.4764,9.3063,0.9562,7.3836,-1.9608
77211.0,-15.0547,0.3543,14.7411,0.8705,7.6954,-1.9832
77221.0,-16.1848,-0.103,20.3148,0.7604,7.507,-1.9715
77231.0,-15.378,-2.3176,24.1886,0.4012,6.4151,-1.9795
77241.0,-14.5208,-2.7366,23.365,0.4119,5.2216,-2.0992
77251.0,-15.1649,-1.7693,21.0905,0.638,4.6347,-2.2578
77261.0,-15.512,-0.3472,20.5518,0.7471,4.4554,-2.3801
77271.0,-16.1058,1.257,20.3794,0.779,4.4032,-2.4227
77281.0,-15.591,0.9529,23.4799,0.4997,4.2633,-2.3785
77291.0,-15.3588,0.8164,26.0202,0.5491,3.8903,-2.303
77301.0,-15.4905,0.1796,26.8677,0.5539,3.0799,-2.228
77311.0,-14.4921,-1.4126,26.001,0.5241,2.0433,-2.2109
77321.0,-13.8696,-0.6656,21.895,0.771,1.4186,-2.311
77331.0,-13.5751,-0.1293,21.0307,0.6678,1.3053,-2.4376
77341.0,-13.2687,1.1851,21.5406,0.6002,1.3393,-2.5302
77351.0,-13.2687,2.3176,24.1527,0.4459,1.1845,-2.5451
77361.0,-12.7348,3.316,26.0633,0.4832,0.6673,-2.4419
77371.0,-12.5169,4.1587,26.1758,0.6561,-0.124,-2.2524
77381.0,-12.05,4.5562,23.9492,0.754,-1.1196,-2.0284
77391.0,-11.3581,4.6088,19.9652,0.7918,-1.9534,-1.8129
77401.0,-10.8266,4.616,16.1728,0.7237,-2.3557,-1.6357
77411.0,-10.2376,4.2186,13.7786,0.5518,-2.4467,-1.491
77421.0,-9.4523,3.9265,12.6917,0.4198,-2.353,-1.3787
77431.0,-8.9902,3.9504,12.9646,0.3485,-2.2147,-1.2808
77441.0,-8.4994,4.2545,13.69,0.4055,-2.2168,-1.1637
77451.0,-7.8961,4.7094,13.7523,0.5906,-2.3567,-0.9972
77461.0,-7.3981,4.9081,13.5847,0.7577,-2.5717,-0.7934
77471.0,-6.845,4.8123,12.864,0.8663,-2.8452,-0.5741
77481.0,-6.4117,4.5657,11.7699,0.879,-3.132,-0.3709
77491.0,-6.1555,4.3191,10.738,0.8317,-3.38,-0.1889
77501.0,-5.6862,3.96,9.2632,0.8056,-3.5604,-0.0192
77511.0,-5.0877,3.4093,7.5585,0.7513,-3.6556,0.1304
77521.0,-4.4125,2.9425,5.94,0.5992,-3.6801,0.2272
77531.0,-3.9049,2.4325,4.6735,0.3735,-3.6333,0.2799
77541.0,-3.134,1.4844,3.9121,0.1905,-3.5056,0.3044
77551.0,-2.332,0.6967,3.2082,0.2623,-3.2257,0.2953
77561.0,-1.6592,0.2418,2.9042,0.4789,-2.801,0.2512
77571.0,-1.2306,0.182,3.0981,0.6417,-2.3716,0.1729
77581.0,-0.8188,0.8882,3.2705,0.597,-2.0694,0.0713
77591.0,-0.577,1.6759,4.1515,0.306,-1.8677,-0.0117
77601.0,-0.3879,2.6025,5.4253,0.0059,-1.7443,-0.0458
77611.0,-0.5315,3.1484,7.4939,-0.0708,-1.648,-0.0021
77621.0,-0.6153,3.8762,8.2313,0.2559,-1.6277,0.1341
77631.0,-0.6129,4.0749,8.1499,0.6061,-1.6703,0.3443
77641.0,-0.237,3.4524,7.6567,0.8046,-1.7666,0.5646
77651.0,0.249,2.885,6.4332,0.8088,-1.8672,0.7221
77661.0,0.6273,2.2122,5.6958,0.5598,-1.9098,0.8035
77671.0,0.9002,1.5203,5.1619,0.2703,-1.8619,0.8322
77681.0,1.3001,1.2594,4.9416,-0.0447,-1.789,0.8109
77691.0,1.4078,1.1037,5.2529,-0.282,-1.6958,0.7859
77701.0,1.3551,1.2402,5.5067,-0.3145,-1.5814,0.7923
77711.0,1.5131,1.0271,5.8179,-0.1208,-1.4319,0.8551
77721.0,1.585,0.6225,5.3151,0.249,-1.243,0.9466
77731.0,2.0135,0.0096,4.5897,0.48,-1.0791,1.003
77741.0,2.4062,-0.2107,3.5793,0.4773,-0.9477,0.9865
77751.0,2.648,0.0479,2.8132,0.2948,-0.754,0.9264
77761.0,2.9736,0.5387,2.5953,0.0521,-0.4651,0.8822
77771.0,2.9856,0.7326,3.0718,-0.19,-0.1165,0.8892
77781.0,2.9808,0.1413,4.2665,-0.4119,0.1932,0.9323
77791.0,3.0861,-0.8212,5.9544,-0.514,0.4225,0.9626
77801.0,2.8228,-1.3408,7.4627,-0.4166,0.5624,0.9525
77811.0,2.6217,-1.7286,8.5617,-0.0937,0.6651,0.9365
77821.0,2.6049,-1.7549,8.6,0.3097,0.705,0.9003
77831.0,2.6959,-1.336,8.0852,0.4544,0.6566,0.8296
77841.0,2.5833,-0.7039,7.5729,0.3549,0.6311,0.7636
77851.0,2.4804,-0.3232,7.2305,0.1064,0.6524,0.7258
77861.0,2.3607,-0.1053,7.1778,-0.2187,0.6832,0.7061
77871.0,1.889,0.0311,7.4436,-0.5135,0.7311,0.7024
77881.0,1.6089,-0.3831,8.0493,-0.6423,0.8359,0.7322
77891.0,1.3862,-0.9385,8.916,-0.5614,0.978,0.7609
77901.0,1.233,-1.233,9.8114,-0.3299,1.0706,0.763
77911.0,1.2234,-1.0247,9.8114,-0.0351,1.069,0.7508
77921.0,1.1205,-0.6584,9.4403,0.1639,1.0557,0.7439
77931.0,1.1133,-0.2131,8.8801,0.2687,1.0972,0.7482
77941.0,0.9864,0.1484,8.5712,0.2379,1.1909,0.7535
77951.0,0.5531,0.431,8.5425,0.0905,1.3,0.7678
77961.0,0.2203,0.328,9.323,-0.1043,1.4069,0.7913
77971.0,-0.067,-0.1125,10.4196,-0.1953,1.492,0.8264
77981.0,-0.2298,-0.6009,11.1666,-0.1644,1.492,0.8471
77991.0,-0.3089,-1.0846,11.7124,-0.0974,1.4489,0.8344
78001.0,-0.4022,-1.3408,12.1841,0.0021,1.3856,0.7897
78011.0,-0.4812,-1.1947,12.2487,0.1203,1.2835,0.7199
78021.0,-0.5052,-0.5746,11.7005,0.2075,1.168,0.6486
78031.0,-0.7566,0.2753,11.0133,0.174,1.0791,0.6024
78041.0,-1.1492,0.9074,10.4028,0.107,1.0499,0.6119
78051.0,-1.5538,1.0846,10.2328,0.0798,1.1542,0.6747
78061.0,-1.901,0.6153,10.7356,0.0803,1.3074,0.7545
78071.0,-2.0039,0.2658,11.473,0.1623,1.4564,0.796
78081.0,-2.2553,0.2634,12.2823,0.2336,1.5314,0.8046
78091.0,-2.3703,0.2993,13.1681,0.2261,1.4952,0.8062
78101.0,-2.4062,0.3567,13.6158,0.1889,1.3574,0.8051
78111.0,-2.5163,0.5052,13.7116,0.0984,1.16,0.7987
78121.0,-2.7174,0.7374,13.4506,-0.0314,0.97,0.7982
78131.0,-2.9185,0.7614,13.2758,-0.1463,0.8312,0.8136
78141.0,-3.2106,0.5411,13.3692,-0.2017,0.7577,0.8365
78151.0,-3.3327,0.3663,13.635,-0.1575,0.7136,0.8567
78161.0,-3.2992,0.3615,13.8241,0.0021,0.687,0.8838
78171.0,-3.1268,0.3663,13.8552,0.1985,0.6518,0.9227
78181.0,-2.9999,0.4334,13.4865,0.3187,0.5853,0.961
78191.0,-2.9568,0.3711,13.1394,0.2794,0.5183,0.9897
78201.0,-3.1627,0.0886,13.1035,0.0915,0.447,1.0014
78211.0,-3.371,-0.3879,13.3357,-0.157,0.3528,0.9961
78221.0,-3.4261,-0.9409,13.7643,-0.3523,0.2517,0.9695
78231.0,-3.4237,-1.4126,14.0875,-0.4369,0.1405,0.9211
78241.0,-3.3255,-1.7645,14.1833,-0.4289,0.0303,0.8572
78251.0,-3.1292,-1.9058,14.2503,-0.389,-0.0873,0.7758
78261.0,-3.0143,-1.8076,14.2575,-0.3352,-0.2166,0.6891
78271.0,-2.964,-1.3192,14.0109,-0.2794,-0.3586,0.6093
78281.0,-3.0071,-0.826,13.86,-0.2107,-0.4816,0.5667
78291.0,-3.0191,-0.3831,13.1154,-0.1203,-0.6295,0.5646
78301.0,-2.9161,-0.1077,12.1434,-0.1011,-0.7732,0.5816
78311.0,-2.873,-0.0287,11.0756,-0.1426,-0.8322,0.6098
78321.0,-2.7438,-0.4262,10.6183,-0.2336,-0.7934,0.6428
78331.0,-2.4612,-0.984,10.4531,-0.3145,-0.7125,0.6481
78341.0,-2.308,-1.3192,10.8098,-0.4028,-0.6433,0.6098
78351.0,-2.2146,-1.391,11.6047,-0.4087,-0.5976,0.5651
78361.0,-2.3415,-1.3072,12.1386,-0.2591,-0.5832,0.5406
78371.0,-2.3583,-1.1636,12.0835,-0.0537,-0.6401,0.539
78381.0,-2.2051,-1.0415,11.631,0.0883,-0.7375,0.5401
78391.0,-2.2745,-1.0678,11.1881,0.1123,-0.8109,0.5385
78401.0,-2.1548,-1.3958,10.9966,0.0835,-0.8461,0.5279
78411.0,-1.8651,-1.6759,10.8386,0.0537,-0.8402,0.489
78421.0,-1.5921,-1.9225,10.8936,-0.009,-0.8333,0.4193
78431.0,-1.3982,-1.9728,11.1187,-0.0921,-0.8439,0.3315
78441.0,-1.3072,-1.8244,11.4395,-0.1639,-0.8822,0.2416
78451.0,-1.3862,-1.6257,11.5999,-0.1756,-0.9456,0.1751
78461.0,-1.5036,-1.4748,11.4586,-0.1261,-1.0163,0.141
78471.0,-1.3048,-1.3982,11.1163,-0.0644,-1.0711,0.1203
78481.0,-1.1708,-1.4509,10.9942,0.0016,-1.0722,0.1075
78491.0,-0.9792,-1.4557,10.8146,0.066,-1.0727,0.0952
78501.0,-0.6201,-1.5634,10.6997,0.0644,-1.0999,0.0729
78511.0,-0.2466,-1.6209,10.5034,0.0271,-1.1547,0.0372
78521.0,0.0335,-1.6233,10.1227,-0.0537,-1.2366,-0.0106
78531.0,0.3783,-1.6281,9.6606,-0.1607,-1.3127,-0.0665
78541.0,0.6153,-1.5347,9.0549,-0.241,-1.3542,-0.1235
78551.0,0.8164,-1.4676,8.4036,-0.3038,-1.3409,-0.1713
78561.0,0.8906,-1.4317,7.9847,-0.3453,-1.2739,-0.2086
78571.0,1.0319,-1.5514,7.8147,-0.3374,-1.1845,-0.2315
78581.0,1.3791,-1.8579,7.7476,-0.2538,-1.0717,-0.2517
78591.0,1.6807,-2.0662,7.6543,-0.1288,-0.9589,-0.2863
78601.0,1.913,-2.1284,7.4891,-0.0532,-0.8993,-0.3459
78611.0,2.1763,-1.9944,7.1204,-0.0458,-0.8838,-0.4204
78621.0,2.3655,-1.7047,6.5769,-0.108,-0.8652,-0.4954
78631.0,2.4349,-1.3623,6.3015,-0.2261,-0.8232,-0.5593
78641.0,2.3798,-1.0271,6.1818,-0.3241,-0.7753,-0.5986
78651.0,2.3176,-0.8715,5.9496,-0.3523,-0.7338,-0.6024
78661.0,2.3176,-0.8643,5.4037,-0.3124,-0.6854,-0.5821
78671.0,2.3679,-1.1205,4.8004,-0.2054,-0.5757,-0.5555
78681.0,2.6647,-1.561,4.13,-0.0346,-0.3597,-0.5465
78691.0,2.8371,-1.8723,3.8331,0.1309,-0.0341,-0.5875
78701.0,2.7318,-1.7693,3.9313,0.2299,0.3038,-0.6721
78711.0,2.4493,-1.3455,4.288,0.241,0.5938,-0.7668
78721.0,2.217,-0.8236,4.9895,0.1777,0.8338,-0.8402
78731.0,1.8555,-0.3903,5.7892,0.074,1.0158,-0.879
78741.0,1.5754,-0.2298,6.6152,-0.058,1.1158,-0.8854
78751.0,1.4988,-0.4262,7.4603,-0.1532,1.1882,-0.8711
78761.0,1.415,-0.7638,8.4396,-0.1607,1.2563,-0.8652
78771.0,1.3455,-1.008,9.2009,-0.0846,1.2771,-0.8801
78781.0,1.1779,-1.0175,9.8306,0.0607,1.2872,-0.9099
78791.0,0.9194,-0.7494,10.1873,0.2336,1.2702,-0.9408
78801.0,0.7685,-0.3687,10.1203,0.3448,1.1898,-0.969
78811.0,0.7207,0.1197,9.7276,0.3757,1.0956,-0.9876
78821.0,0.5507,0.51,9.2919,0.3097,1.0302,-0.9924
78831.0,0.4956,0.7925,8.9112,0.1942,0.9966,-0.9844
78841.0,0.4477,1.0271,8.3965,0.0857,1.0339,-0.9722
78851.0,0.2346,1.4054,7.9727,-0.0096,1.1414,-0.9546
78861.0,-0.4214,1.8507,7.9104,-0.1144,1.3074,-0.919
78871.0,-0.5602,1.6544,9.2488,-0.1192,1.5979,-0.8322
78881.0,-0.565,1.2306,11.2504,0.1048,1.889,-0.7231
78891.0,-0.6536,0.9864,12.9071,0.3549,1.9151,-0.646
78901.0,-0.565,0.759,13.4937,0.4778,1.6655,-0.5981
78911.0,-0.2466,0.1173,13.2543,0.4709,1.3186,-0.5816
78921.0,-0.0383,-0.1556,12.1578,0.4693,1.0834,-0.6279
78931.0,-0.2849,0.1221,11.2336,0.4422,1.0653,-0.721
78941.0,-0.7494,0.826,10.7093,0.2666,1.0988,-0.8179
78951.0,-1.2186,1.3647,10.896,-0.0686,1.0999,-0.8822
78961.0,-1.5586,1.3384,11.8202,-0.3235,1.1584,-0.8886
78971.0,-1.8651,0.8428,13.2974,-0.3661,1.2074,-0.8636
78981.0,-2.0351,0.3735,14.2335,-0.2373,1.1286,-0.8562
78991.0,-2.1763,0.2682,14.7028,-0.0133,1.0084,-0.878
79001.0,-2.3511,0.3879,14.6884,0.2416,0.8897,-0.9035
79011.0,-2.5594,0.6512,14.2623,0.431,0.7684,-0.936
79021.0,-2.6791,1.1756,13.7954,0.4943,0.6822,-0.9679
79031.0,-2.8539,1.7334,13.6685,0.3661,0.5875,-0.9897
79041.0,-3.0287,2.1189,13.6661,0.0846,0.4177,-0.9919
79051.0,-3.1101,1.9393,13.9869,-0.2203,0.2299,-0.9637
79061.0,-2.9616,1.3623,14.1928,-0.3315,0.0713,-0.9206
79071.0,-2.9137,0.9266,13.8409,-0.24,-0.0309,-0.903
79081.0,-2.9521,0.7374,13.4195,-0.1117,-0.0756,-0.9168
79091.0,-2.9209,0.8404,13.3285,0.0314,-0.0548,-0.9445
79101.0,-2.8754,1.1827,13.3764,0.1873,-0.0154,-0.9738
79111.0,-2.9137,1.7693,13.3884,0.2618,-0.0314,-0.9945
79121.0,-2.9233,2.2984,13.4674,0.2033,-0.1192,-0.9972
79131.0,-2.8539,2.6408,13.2758,0.0436,-0.2714,-0.9833
79141.0,-2.5666,2.7461,12.6007,-0.216,-0.455,-0.9679
79151.0,-2.162,2.5115,11.8609,-0.588,-0.5715,-0.9668
79161.0,-2.0255,2.2122,12.3277,-1.0238,-0.5608,-1.0025
79171.0,-2.4995,2.3511,14.6405,-1.2579,-0.4874,-1.0467
79181.0,-2.8228,2.976,16.3093,-1.0238,-0.5662,-1.0121
79191.0,-2.8563,3.5123,16.4793,-0.5353,-0.8264,-0.8854
79201.0,-2.5666,3.948,15.3564,-0.0591,-1.1313,-0.7125
79211.0,-2.1476,4.1827,13.7714,0.2198,-1.3787,-0.5358
79221.0,-1.8387,4.2641,12.2104,0.24,-1.5639,-0.3805
79231.0,-1.4748,4.1875,10.6901,0.0319,-1.6942,-0.249
79241.0,-1.3647,3.8571,9.8234,-0.348,-1.7714,-0.1447
79251.0,-1.0942,3.0909,9.8785,-0.696,-1.7953,-0.0495
79261.0,-0.9409,2.308,10.0269,-0.7285,-1.7554,0.0399
79271.0,-0.7039,1.7095,9.6103,-0.5007,-1.698,0.1213
79281.0,-0.4788,1.2378,9.0118,-0.2198,-1.6426,0.1809
79291.0,-0.0958,0.8691,8.0876,-0.0261,-1.599,0.2123
79301.0,0.3759,0.6225,7.2209,0.0149,-1.549,0.2033
79311.0,0.7111,0.5986,6.5457,-0.0527,-1.4484,0.1623
79321.0,0.9768,0.7973,6.122,-0.19,-1.3122,0.1075
79331.0,1.1061,1.0295,6.3039,-0.3762,-1.1834,0.0665
79341.0,1.1947,1.1085,6.4763,-0.4613,-1.0775,0.0612
79351.0,1.2929,1.1875,6.4308,-0.397,-0.9653,0.0851
79361.0,1.4868,1.3743,5.9137,-0.2964,-0.8461,0.1197
79371.0,1.5682,1.3982,5.5857,-0.307,-0.7279,0.1628
79381.0,1.6879,1.0774,5.5234,-0.4188,-0.6098,0.2022
79391.0,1.9058,0.6943,5.8538,-0.5231,-0.4917,0.2261
79401.0,2.1213,0.4693,6.3087,-0.4879,-0.3618,0.2309
79411.0,2.229,0.5578,6.2944,-0.3001,-0.2128,0.2416
79421.0,2.1524,0.7542,6.0406,-0.1469,-0.0708,0.2565
79431.0,2.229,0.9505,5.691,-0.1554,0.0378,0.2762
79441.0,2.2266,1.0702,5.6695,-0.3347,0.1341,0.2996
79451.0,2.0207,1.1133,6.0262,-0.5747,0.2112,0.3368
79461.0,1.8842,1.0343,6.4524,-0.737,0.2724,0.397
79471.0,1.8364,0.8691,6.8091,-0.7354,0.3656,0.4778
79481.0,1.7621,0.6057,7.0533,-0.605,0.4965,0.5699
79491.0,1.6544,0.2586,7.3909,-0.4566,0.6252,0.6561
79501.0,1.5419,-0.1173,7.7261,-0.2953,0.7258,0.7269
79511.0,1.3982,-0.4453,7.8865,-0.1527,0.7811,0.7673
79521.0,1.4605,-0.4549,7.525,-0.0782,0.795,0.7716
79531.0,1.2474,-0.2562,7.3071,-0.1261,0.8285,0.7572
79541.0,0.9505,-0.0168,7.1299,-0.2453,0.895,0.7535
79551.0,0.6488,0.0934,7.0294,-0.4161,0.9642,0.77
79561.0,0.5243,-0.1652,7.3382,-0.6114,1.0403,0.8067
79571.0,0.4405,-0.6752,8.1451,-0.6864,1.1712,0.8466
79581.0,0.3112,-1.1349,9.2249,-0.5646,1.3266,0.8785
79591.0,0.1844,-1.3599,9.9359,-0.332,1.3814,0.8939
79601.0,0.0886,-1.4916,10.3166,-0.1197,1.3234,0.8924
79611.0,0.0383,-1.4772,10.0054,0.016,1.2031,0.8732
79621.0,-0.0694,-1.3336,9.3039,0.0575,1.0946,0.8344
79631.0,-0.249,-0.9768,8.4994,0.0346,1.0935,0.7934
79641.0,-0.4262,-0.656,8.193,-0.0633,1.2042,0.7615
79651.0,-0.7733,-0.4429,8.4443,-0.2091,1.3537,0.7487
79661.0,-1.0343,-0.3496,9.2991,-0.3576,1.4713,0.7551
79671.0,-1.3599,-0.4549,10.5776,-0.3874,1.5437,0.7849
79681.0,-1.6041,-0.6201,11.6143,-0.2554,1.5426,0.8285
79691.0,-1.8244,-0.6728,12.0428,-0.0325,1.4479,0.87
79701.0,-2.0399,-0.6608,11.7914,0.1995,1.3127,0.9009
79711.0,-2.162,-0.5052,11.0061,0.3682,1.2095,0.9126
79721.0,-2.2673,-0.2562,10.1682,0.4124,1.2026,0.9073
79731.0,-2.5067,0.0503,9.8976,0.3182,1.2691,0.8929
79741.0,-2.648,0.2251,10.2927,0.1628,1.3638,0.8881
79751.0,-3.0239,0.3041,11.2144,0.0553,1.4516,0.9067
79761.0,-3.3782,0.2729,12.1649,0.0357,1.4686,0.9456
79771.0,-3.62,0.1341,12.8401,0.0734,1.3925,0.9892
79781.0,-3.6344,0.012,12.9215,0.1431,1.268,1.0296
79791.0,-3.7373,-0.0503,13.0915,0.2075,1.184,1.0488
79801.0,-3.9265,0.0096,13.0939,0.2336,1.0749,1.0578
79811.0,-4.0031,0.1748,12.8832,0.2586,0.9849,1.0594
79821.0,-4.3215,0.4621,12.9024,0.2698,0.9557,1.0674
79831.0,-4.5729,0.7278,13.2639,0.3108,0.9605,1.1015
79841.0,-4.798,0.7733,13.6517,0.3645,0.9445,1.1531
79851.0,-4.8794,0.6225,13.9438,0.3725,0.8812,1.2031
79861.0,-4.9344,0.3065,14.2503,0.2815,0.7423,1.2308
79871.0,-4.8147,0.0455,14.3556,0.1304,0.5284,1.2308
79881.0,-4.6088,-0.2873,14.3532,-0.0069,0.3283,1.2079
79891.0,-4.6112,-0.3998,14.0803,-0.107,0.1607,1.1717
79901.0,-4.7477,-0.5267,13.8409,-0.2139,0.0122,1.1334
79911.0,-4.8028,-0.6967,13.8217,-0.3076,-0.1027,1.1025
79921.0,-4.6998,-1.0151,13.805,-0.3544,-0.1889,1.0844
79931.0,-4.4748,-1.5467,14.0803,-0.4294,-0.3028,1.0557
79941.0,-4.2114,-2.047,14.03,-0.5204,-0.5039,1.0009
79951.0,-4.1779,-2.4804,13.6517,-0.6188,-0.7535,0.92
79961.0,-3.9456,-2.7222,12.7467,-0.6588,-0.9615,0.8221
79971.0,-3.8211,-2.964,11.8896,-0.6423,-1.0413,0.7258
79981.0,-3.7086,-3.122,11.1259,-0.6045,-1.0121,0.6215
79991.0,-3.6583,-3.0885,10.908,-0.622,-0.936,0.505
80111.0,-1.8866,-2.1021,9.4164,-0.0766,-1.2324,-0.1357
80121.0,-1.7119,-1.7454,9.3494,-0.2405,-1.3,-0.2006
80131.0,-1.5419,-1.3001,8.8562,-0.2517,-1.3175,-0.2246
80141.0,-1.3168,-1.063,8.4467,-0.1756,-1.2531,-0.2022
80151.0,-1.1277,-1.0965,8.2815,-0.05,-1.143,-0.1532
80161.0,-0.9768,-1.3479,8.0756,0.0692,-1.0653,-0.1048
80171.0,-0.6823,-1.7478,7.8362,0.1463,-1.0174,-0.0798
80181.0,-0.4286,-2.138,7.6375,0.1921,-0.9615,-0.0905
80191.0,-0.0551,-2.3008,7.2401,0.2091,-0.9243,-0.1373
80201.0,0.2418,-2.308,6.7062,0.1634,-0.8913,-0.2139
80211.0,0.3663,-2.2146,6.2369,0.0713,-0.8269,-0.3012
80221.0,0.4741,-2.1644,5.8682,-0.0314,-0.7226,-0.3831
80231.0,0.5986,-2.1644,5.7796,-0.1027,-0.5688,-0.4597
80241.0,0.5962,-2.1596,6.1124,-0.1123,-0.3725,-0.5295
80251.0,0.5076,-1.9297,6.5984,-0.0197,-0.1894,-0.5896
80261.0,0.3663,-1.6999,6.9216,0.1165,-0.0617,-0.622
80271.0,0.5171,-1.6855,6.9815,0.2389,0.0261,-0.6295
80281.0,0.6608,-1.6281,6.9647,0.3044,0.1075,-0.6465
80291.0,0.7087,-1.4413,6.8019,0.3076,0.1745,-0.68
80301.0,0.7614,-1.1277,6.7612,0.2607,0.2639,-0.7205
80311.0,0.6369,-0.7183,6.9168,0.2017,0.3672,-0.7482
80321.0,0.4884,-0.4094,6.9959,0.1697,0.4709,-0.746
80331.0,0.249,-0.3112,7.2736,0.1687,0.5944,-0.7162
80341.0,0.1389,-0.6847,7.7428,0.1948,0.7253,-0.6726
80351.0,0.0622,-1.3503,8.3462,0.2554,0.8173,-0.6529
80361.0,0.0527,-2.0039,8.6886,0.3416,0.861,-0.6902
80371.0,-0.0383,-2.2362,8.691,0.456,0.9253,-0.7827
80381.0,-0.2442,-2.0638,8.7771,0.5374,1.0227,-0.9083
80391.0,-0.4573,-1.5036,9.0357,0.5268,1.1073,-1.044
80401.0,-0.668,-0.6704,9.4332,0.4385,1.1526,-1.1557
80411.0,-0.929,0.2466,9.9311,0.2714,1.1398,-1.2196
80421.0,-1.3096,0.9026,10.3406,0.0553,1.0504,-1.2217
80431.0,-1.4844,0.9098,10.6638,-0.1575,0.8849,-1.168
80441.0,-1.3288,0.3735,10.7069,-0.2299,0.762,-1.1004
80451.0,-1.3743,-0.0287,10.5153,-0.1357,0.7455,-1.0701
80461.0,-1.4222,-0.1245,10.4148,0.0303,0.8088,-1.0823
80471.0,-1.5107,0.2394,10.5536,0.2256,0.9259,-1.1095
80481.0,-1.719,0.8715,10.5943,0.3539,1.002,-1.1249
80491.0,-1.7286,1.3647,10.7715,0.3406,0.9919,-1.1137
80501.0,-1.8316,1.6424,10.9583,0.1979,0.9355,-1.077
80511.0,-1.992,1.324,11.3222,-0.0341,0.8109,-1.0264
80521.0,-1.7645,0.3519,11.4898,-0.24,0.6258,-0.9929
80531.0,-1.5371,-0.4238,10.9798,-0.3209,0.4933,-1.0254
80541.0,-1.5419,-0.7661,10.5848,-0.3837,0.4661,-1.127
80551.0,-1.7262,-0.2849,10.5632,-0.4417,0.4848,-1.2531
80561.0,-2.1572,0.6297,10.7978,-0.4486,0.5151,-1.3324
80571.0,-2.4924,1.4509,10.8769,-0.3842,0.497,-1.3266
80581.0,-2.6911,1.9106,10.6063,-0.2836,0.4342,-1.251
80591.0,-2.8587,1.9513,10.0844,-0.0931,0.4518,-1.1318
80601.0,-2.9377,1.8651,9.5122,0.1687,0.6215,-1.0099
80611.0,-2.9688,1.6448,9.4619,0.3496,0.8588,-0.9275
80621.0,-3.0789,1.573,9.8019,0.4071,1.0993,-0.8753
80631.0,-3.4477,1.2426,11.2049,0.3054,1.2744,-0.8493
80641.0,-3.5817,1.2737,12.287,0.1729,1.2808,-0.8487
80651.0,-3.8427,1.2522,13.477,-0.0351,1.1557,-0.8514
80661.0,-4.0294,1.0989,14.4969,-0.19,0.9621,-0.8423
80671.0,-4.0821,0.9984,14.9063,-0.2554,0.7199,-0.8296
80681.0,-4.1061,0.8739,15.2654,-0.2506,0.4906,-0.8131
80691.0,-4.197,1.0223,15.3109,-0.1181,0.3272,-0.7897
80701.0,-4.1755,1.4054,15.5144,0.0543,0.1932,-0.7599
80711.0,-4.1468,1.8938,15.2032,0.2559,0.0362,-0.6997
80721.0,-4.1875,2.1141,14.8081,0.3762,-0.1256,-0.6183
80731.0,-3.9433,2.1931,14.0659,0.365,-0.2873,-0.547
80741.0,-3.7972,2.2314,13.5967,0.2054,-0.4353,-0.505
80751.0,-3.7541,2.3056,13.2136,-0.0202,-0.5577,-0.48
80761.0,-3.6583,2.3272,13.2328,-0.2224,-0.621,-0.455
80771.0,-3.6703,2.3535,13.8265,-0.3092,-0.6173,-0.4129
80781.0,-3.7086,2.4612,14.4083,-0.2634,-0.654,-0.3437
80791.0,-3.5841,2.4588,14.8441,-0.1256,-0.7742,-0.2448
80801.0,-3.371,2.2601,14.7052,0.0506,-0.9466,-0.1272
80811.0,-3.2058,1.8244,14.0683,0.1586,-1.1589,-0.0255
80821.0,-2.8491,1.3934,12.9957,0.1309,-1.4058,0.0277
80831.0,-2.5642,1.1205,11.7795,0.0043,-1.59,0.0314
80841.0,-2.3032,1.0439,10.7332,-0.1623,-1.6687,0.0101
80851.0,-2.1332,1.087,9.9311,-0.3379,-1.6756,-0.0154
80861.0,-1.8172,1.0558,9.5936,-0.4651,-1.6049,-0.0223
80871.0,-1.7166,1.0032,9.8067,-0.5193,-1.5085,-0.009
80881.0,-1.5467,0.8571,10.0006,-0.4826,-1.458,0.0255
80891.0,-1.6041,0.5626,10.2927,-0.3363,-1.4367,0.0745
80901.0,-1.5036,0.3232,9.9048,-0.0819,-1.4532,0.1298
80911.0,-1.2043,0.237,9.1004,0.1485,-1.4617,0.1692
80921.0,-0.8619,0.4381,8.0158,0.2666,-1.4298,0.1889
80931.0,-0.6225,0.5148,7.3287,0.2299,-1.3207,0.1884
80941.0,-0.2179,0.6057,6.9192,0.1133,-1.1526,0.1809
80951.0,-0.1891,0.4453,7.4699,-0.0873,-0.9535,0.1644
80961.0,-0.2322,0.34,8.3127,-0.2442,-0.8083,0.1431
80971.0,-0.3424,0.0862,9.3757,-0.2889,-0.7253,0.1352
80981.0,-0.4094,0.1413,10.2448,-0.1607,-0.6566,0.1362
80991.0,-0.4621,0.3519,11.1737,0.0559,-0.6013,0.1548
81001.0,-0.4908,0.9002,11.5568,0.2405,-0.6609,0.1884
81011.0,-0.5243,1.4653,11.4515,0.2442,-0.8535,0.2363
81021.0,-0.3472,1.8507,10.9559,0.1341,-1.0706,0.3118
81031.0,-0.2586,1.8268,10.4196,0.0309,-1.1887,0.4119
81041.0,-0.1006,1.324,10.0269,-0.0319,-1.2074,0.5204
81051.0,0.1245,0.5291,10.0652,-0.0984,-1.1914,0.597
81061.0,0.2131,-0.1772,10.2472,-0.1309,-1.1808,0.6268
81071.0,0.3256,-0.6919,10.5991,-0.1123,-1.1983,0.6199
81081.0,0.6033,-0.6895,10.5728,0.0005,-1.2276,0.5901
81091.0,0.6081,-0.2777,10.2017,0.0841,-1.2616,0.5593
81101.0,0.7853,0.1891,9.5385,0.0043,-1.367,0.5444
81111.0,0.7997,0.3304,9.1243,-0.1687,-1.4452,0.5507
81121.0,0.8045,0.3615,8.6718,-0.2416,-1.4175,0.5816
81131.0,0.9697,0.0838,8.7317,-0.2299,-1.2941,0.6231
81141.0,0.9697,0.0838,8.7317,-0.2299,-1.2941,0.6231
81151.0,0.917,0.067,8.7556,-0.0537,-1.1068,0.6981
81161.0,0.917,0.067,8.7556,-0.0537,-1.1068,0.6981
81171.0,0.9218,0.2131,8.7532,-0.0239,-1.0828,0.7327
81181.0,0.68,0.1891,8.8274,0.0426,-1.0185,0.7833
81191.0,0.5674,-0.1844,8.928,0.1192,-0.9535,0.8461
81201.0,0.158,-0.893,9.4355,0.1676,-0.9248,0.8801
81211.0,0.5842,-1.3815,9.7061,0.3065,-0.911,0.8785
81221.0,0.9337,-1.8148,10.2496,0.4635,-0.8849,0.845
81231.0,1.3479,-1.6688,10.4842,0.5582,-0.9903,0.7678
81241.0,1.6759,-0.984,10.0485,0.5428,-1.2521,0.6747
81251.0,2.0542,0.4741,8.2911,0.4794,-1.5623,0.6034
81261.0,2.5139,1.9106,6.3207,0.3927,-1.674,0.621
81271.0,2.5881,2.5881,4.6855,0.3283,-1.5208,0.7567
81281.0,2.7701,1.7789,4.6017,0.174,-1.3276,0.944
81291.0,3.3184,0.5602,4.3024,0.1969,-1.1526,1.126
81301.0,4.2353,-1.6759,4.4101,0.3672,-0.9802,1.2622
81311.0,4.889,-2.6145,3.5985,0.7854,-0.7295,1.2771
81321.0,5.0805,-2.3272,3.2872,1.1148,-0.4427,1.2047
81331.0,6.3734,-1.1037,1.8651,1.2595,-0.3517,1.1238
81341.0,8.0828,0.9577,-1.4724,0.9344,-0.4752,1.0717
81351.0,8.2361,1.9848,-6.1818,-0.2006,-0.8727,1.1089
81361.0,8.6048,0.3448,-13.374,-1.9353,-1.7687,1.2223
81371.0,7.4723,-2.1715,-19.2853,-2.8803,-2.1412,1.3324
81381.0,4.5322,-2.375,-28.7711,-1.4676,-1.2898,1.4309
81391.0,2.3583,-5.7078,-36.7821,0.8732,0.0245,1.4346
81401.0,-1.2426,-6.031,-50.7978,3.6205,2.2168,1.0993
81411.0,-8.9974,-5.6671,-57.3459,4.5804,5.6234,0.4645
81421.0,-20.8487,-3.8259,-51.88,3.7221,9.5035,-0.3469
81431.0,-34.6656,0.4525,-37.4453,2.6004,13.3374,-1.1116
81441.0,-47.568,3.1556,-15.0356,1.9848,16.5886,-1.5612
81451.0,-58.0618,8.7891,10.8673,2.3807,17.4357,-1.8326
81461.0,-58.7034,13.9127,33.2507,2.3668,17.4357,-1.8624
81471.0,-54.018,13.0101,57.2813,1.6937,16.9276,-1.5516
81481.0,-45.6862,12.6845,71.1222,1.8023,14.0542,-1.1169
81491.0,-37.6081,7.932,78.4508,1.0366,9.9143,-0.8157
81501.0,-31.0552,4.9081,78.4508,0.8828,4.6565,-0.6263
81511.0,-28.7544,4.446,71.0312,0.8753,-0.7492,-0.5481
81521.0,-26.3338,4.9919,52.0428,0.7343,-4.4548,-0.5603
81531.0,-25.4384,7.0988,34.7016,0.8562,-5.6824,-0.5071
81541.0,-22.8862,7.173,21.6364,0.2948,-6.0171,-0.3794
81551.0,-18.3348,7.1802,12.6222,-0.5018,-5.6244,-0.2826
81561.0,-14.0348,7.1898,9.2392,-0.9025,-4.2989,-0.1479
81571.0,-12.2511,6.845,9.9695,-0.837,-2.7106,0.083
81581.0,-10.8769,5.3439,13.7882,-0.8056,-1.8826,0.339
81591.0,-9.4403,2.9832,16.4577,-0.5422,-1.7879,0.5864
81601.0,-8.5449,0.8428,17.0252,-0.2059,-2.1657,0.7013
81611.0,-7.9607,-0.9601,14.8464,-0.0223,-2.8745,0.6604
81621.0,-6.6439,-3.2705,11.1666,0.0096,-3.4396,0.489
81631.0,-5.5569,-3.7757,7.6591,-0.1054,-3.4986,0.1378
81641.0,-4.7956,-2.466,5.8514,-0.6715,-3.4007,-0.3028
81651.0,-4.0414,-0.9146,5.5569,-1.4755,-3.4098,-0.6588
81661.0,-3.8259,0.4669,6.4117,-1.9587,-3.3284,-0.8466
81671.0,-4.2066,1.3623,7.5896,-1.7906,-3.2294,-0.8455
81681.0,-3.9002,1.834,5.7557,-1.0632,-3.2209,-0.6891
81691.0,-3.2394,1.2929,3.9025,-0.4464,-3.0261,-0.5103
81701.0,-2.3511,0.2729,2.9951,-0.0442,-2.5893,-0.4001
81711.0,-2.1572,-0.3112,4.0989,0.0761,-2.0944,-0.4087
81721.0,-2.0423,0.5578,5.1571,-0.0479,-1.8879,-0.5082
81731.0,-1.913,2.1213,6.2872,-0.3874,-1.9459,-0.5949
81741.0,-1.8723,3.3662,7.4795,-0.5901,-2.0109,-0.5741
81751.0,-1.9106,4.3407,7.3502,-0.5252,-2.0694,-0.4385
81761.0,-1.6137,4.0366,6.6439,-0.5401,-2.2301,-0.2347
81771.0,-0.7566,2.7509,5.624,-0.5204,-2.3056,-0.0447
81781.0,-0.2658,1.2019,4.6926,-0.3129,-2.1013,0.0867
81791.0,0.1197,-0.1915,4.2808,-0.1368,-1.8012,0.1213
81801.0,0.5866,-1.1372,4.6926,-0.0479,-1.4553,0.0665
81811.0,0.5004,-1.1085,5.6336,-0.0734,-1.1552,-0.0521
81821.0,0.6273,-0.5626,6.924,-0.2118,-1.0105,-0.1724
81831.0,0.6129,0.4142,7.7979,-0.3544,-0.9674,-0.2453
81841.0,0.6105,0.9649,8.825,-0.5257,-1.0259,-0.2496
81851.0,0.8308,1.3623,9.3494,-0.5156,-1.1222,-0.1979
81861.0,0.7757,1.5107,9.1698,-0.306,-1.1584,-0.0984
81871.0,1.0534,0.7422,8.7963,-0.0548,-1.1478,0.0112
81881.0,1.4126,-0.012,8.1163,0.1208,-1.0797,0.0569
81891.0,1.3024,-0.2298,8.193,0.0623,-1.0052,0.0165
81901.0,1.3144,0.1867,8.1977,-0.0819,-0.9881,-0.0527
81911.0,1.2498,0.9361,8.4348,-0.2267,-0.9429,-0.0926
81921.0,1.2665,1.6281,8.7747,-0.3155,-0.878,-0.0713
81931.0,1.3048,1.9225,9.1171,-0.3539,-0.8317,0.0053
81941.0,1.3192,1.7957,9.4619,-0.3491,-0.8381,0.108
81951.0,1.4269,1.0104,9.5193,-0.2033,-0.837,0.2187
81961.0,1.98,-0.2658,8.9447,-0.0053,-0.8296,0.2873
81971.0,2.3487,-1.1492,8.4467,0.0192,-0.8109,0.2501
81981.0,2.1955,-1.0965,7.9296,-0.1431,-0.8242,0.1288
81991.0,2.1907,-0.2107,7.4675,-0.4518,-0.8897,-0.009
82001.0,2.1835,1.1756,6.8139,-0.7657,-0.8769,-0.0867
82011.0,1.8052,2.2793,7.4029,-1.0621,-0.7567,-0.0639
82021.0,1.5299,2.7007,8.2648,-1.1414,-0.6662,0.067
82031.0,1.2186,2.4684,9.1291,-0.9775,-0.6204,0.2613
82041.0,1.1516,1.3623,9.7085,-0.5672,-0.5667,0.4837
82051.0,1.5275,-0.3687,9.6606,-0.0782,-0.5438,0.6593
82061.0,1.731,-1.5227,9.1698,0.1745,-0.622,0.6939
82071.0,2.2362,-2.0973,8.339,0.1373,-0.7822,0.6167
82081.0,2.375,-1.6879,7.75,-0.0154,-0.8429,0.48
82091.0,2.3008,-0.4693,7.3885,-0.1362,-0.8003,0.3767
82101.0,2.5091,0.3807,7.8937,-0.2203,-0.729,0.3741
82111.0,2.7892,0.5243,8.4874,-0.1341,-0.6907,0.4629
82121.0,3.0765,-0.0168,8.4803,0.0979,-0.7827,0.5864
82131.0,4.0606,-0.7518,7.5226,0.3906,-0.953,0.6816
82141.0,5.2409,-1.1205,6.3877,0.7125,-1.0589,0.7136
82151.0,5.5545,-0.4525,4.4772,0.9754,-1.1595,0.7104
82161.0,5.2002,0.9625,0.5171,0.6859,-1.6315,0.7109
82171.0,3.632,2.1237,-6.3638,-0.5837,-2.7457,0.7205
82181.0,4.1132,2.1715,-16.4242,-2.3168,-4.142,0.7274
82191.0,2.8659,2.1093,-27.6075,-2.7808,-4.4761,0.7402
82201.0,1.573,1.0175,-39.9568,-1.392,-3.422,0.8046
82211.0,-2.2505,-0.1891,-51.1306,1.2696,-1.0935,0.7838
82221.0,-9.1818,-1.3599,-59.9987,4.126,2.3126,0.6593
82231.0,-14.7531,-4.8052,-66.9251,5.6271,6.1651,0.2554
82241.0,-29.4511,-3.8475,-65.7544,6.1028,11.7123,-0.721
82251.0,-55.8543,1.6496,-49.1314,5.2429,17.4357,-1.9305
82261.0,-73.0351,7.6614,-23.195,3.8243,17.4357,-2.8399
82271.0,-78.4532,14.8824,19.4864,3.0309,17.4357,-3.3294
82281.0,-78.4532,24.7082,58.294,2.1396,17.4357,-3.322
82291.0,-76.0398,21.9692,78.4508,-0.3134,17.4357,-2.4451
82301.0,-58.0235,20.3052,78.4508,-0.1559,13.5854,-1.0004
82311.0,-49.3038,10.2017,78.4508,-0.1405,5.5787,0.1421
82321.0,-38.1947,9.8234,78.4508,2.3546,-1.608,1.1398
82331.0,-38.6544,5.9304,64.732,3.3512,-6.5987,1.7416
82341.0,-31.7591,2.6528,39.4708,2.0284,-10.1091,1.5022
82351.0,-26.6738,3.8451,17.3628,1.0765,-10.5007,1.0147
82361.0,-21.9836,4.0007,6.0885,-0.4422,-9.5195,0.5151
82371.0,-17.5926,5.6431,-0.9673,-1.5607,-8.0003,0.132
82381.0,-13.5033,6.1292,-0.1293,-2.2652,-6.0459,-0.0192
82391.0,-11.4778,5.9903,3.0981,-1.8033,-4.0621,0.1096
82401.0,-10.058,4.3191,7.0629,-0.9738,-2.8149,0.381
82411.0,-8.3079,1.9896,10.7308,-0.2347,-2.4376,0.6024
82421.0,-7.1012,1.2689,10.7931,0.5146,-2.4834,0.705
82431.0,-5.296,0.5387,10.137,0.6965,-2.7383,0.7024
82441.0,-3.8188,0.0239,7.774,0.3044,-3.1661,0.5704
82451.0,-4.4628,-0.5363,6.3063,-0.6359,-3.6029,0.2953
82461.0,-3.5147,-0.7015,3.9911,-1.4245,-3.8174,-0.0239
82471.0,-2.8778,-0.3424,3.8547,-1.9518,-3.5082,-0.3491
82481.0,-3.1651,0.5124,5.5641,-2.0428,-2.991,-0.5837
82491.0,-2.8706,1.2617,7.264,-1.6873,-2.6579,-0.6768
82501.0,-2.5115,1.8723,8.0517,-0.9754,-2.4227,-0.6385
82511.0,-2.4301,2.2841,8.5353,-0.1804,-2.17,-0.5204
82521.0,-2.4924,2.5857,8.3534,0.3166,-2.0848,-0.3799
82531.0,-2.2338,2.9066,7.4747,0.2788,-2.2434,-0.274
82541.0,-2.1524,3.2896,6.0525,-0.2512,-2.5196,-0.2395
82551.0,-1.3767,3.5458,5.217,-1.0562,-2.7329,-0.2517
82561.0,-1.482,3.7733,5.3654,-1.5921,-2.6584,-0.2283
82571.0,-1.4126,3.0646,6.5362,-1.6916,-2.419,-0.1117
82581.0,-0.8667,1.6137,7.5465,-1.4191,-2.2413,0.0367
82591.0,-0.5507,0.5363,7.3143,-1.0392,-2.2514,0.1117
82601.0,0.2131,-0.067,6.7756,-0.7657,-2.32,0.1054
82611.0,0.4669,-0.0287,5.5067,-0.5023,-2.2753,0.0676
82621.0,0.9744,0.2921,4.5633,-0.4613,-2.2008,0.0133
82631.0,1.3001,0.8691,3.2633,-0.6066,-2.1386,-0.0239
82641.0,1.6424,1.0199,2.2649,-0.8966,-2.0337,-0.0298
82651.0,2.1524,0.3424,2.1931,-1.0892,-1.7358,-0.0043
82661.0,2.4541,-0.5315,3.2274,-0.9982,-1.2441,0.0154
82671.0,2.3942,-0.8978,4.7908,-0.7098,-0.796,0.0069
82681.0,2.8252,-1.0582,6.7181,-0.39,-0.5566,-0.0144
82691.0,2.8108,-0.7709,7.8482,-0.0607,-0.5103,-0.0346
82701.0,3.0718,-0.1628,8.3175,0.1884,-0.5848,-0.0612
82711.0,3.2753,1.0295,7.6758,0.3001,-0.704,-0.0745
82721.0,3.4309,1.7238,6.8163,0.0814,-0.8833,-0.049
82731.0,3.6751,1.7933,5.3439,-0.332,-1.0488,0.0112
82741.0,3.7469,1.0223,4.8626,-0.7008,-0.9961,0.0729
82751.0,3.5985,0.2969,4.9344,-0.6965,-0.6928,0.1245
82761.0,3.4165,-0.4669,5.9807,-0.3576,-0.2107,0.1591
82771.0,3.5267,-0.5722,7.2616,0.0452,0.1639,0.1575
82781.0,3.5362,-0.6871,8.9639,0.2996,0.3225,0.133
82791.0,3.881,-0.5363,9.8689,0.5103,0.3134,0.0947
82801.0,3.6655,0.17,10.2017,0.5401,0.1719,0.0372
82811.0,3.6919,1.154,9.9455,0.3783,-0.0708,0.0064
82821.0,3.3902,1.7813,9.517,0.1336,-0.281,0.0325
82831.0,3.3495,2.2075,8.8873,-0.0963,-0.4246,0.0984
82841.0,3.2154,2.2098,8.9447,-0.1442,-0.3555,0.1979
82851.0,3.1292,1.913,9.7899,0.0106,-0.1256,0.3283
82861.0,3.0454,1.0247,11.7651,0.1926,-0.0059,0.4464
82871.0,3.158,0.7207,12.3517,0.3837,-0.2107,0.5199
82881.0,4.063,0.498,12.2894,0.3741,-0.647,0.555
82891.0,4.4772,1.3647,10.6853,0.282,-1.1403,0.571
82901.0,4.6136,3.2753,7.6519,-0.1016,-1.7459,0.6135
82911.0,3.5147,5.7533,2.3583,-0.9381,-2.4658,0.7577
82921.0,1.664,6.8043,-5.1739,-2.5435,-3.4241,1.0137
82931.0,2.3367,4.3287,-14.6693,-4.5607,-4.5629,1.2808
82941.0,1.6496,0.6297,-23.0322,-4.9971,-4.4809,1.5479
82951.0,0.8787,-0.2011,-34.5842,-2.933,-2.626,1.7762
82961.0,1.1708,-4.0917,-39.4469,-0.6524,-0.3783,1.8214
83001.0,-23.0394,0.067,-33.0663,3.4837,11.4984,0.1469
83011.0,-31.7735,1.7861,-18.591,2.8926,13.5141,-0.2708
83021.0,-38.7861,4.6926,-5.0805,2.8415,15.1977,-0.5805
83031.0,-45.1092,6.0693,11.9112,2.196,16.0969,-0.7609
83041.0,-45.916,4.9632,27.8613,1.3292,15.9682,-0.7801
83051.0,-45.4348,2.0135,51.8297,0.6157,15.3461,-0.787
83061.0,-40.7373,2.6025,68.6466,1.0743,13.0437,-0.7279
83071.0,-35.9034,3.3375,78.4508,2.071,9.5408,-0.5124
83081.0,-31.3162,5.4157,75.7573,3.4316,5.4063,-0.1751
83091.0,-28.2468,5.6838,66.6306,3.8115,1.7581,0.0921
83101.0,-25.3211,3.8403,55.0068,3.2501,-1.069,0.1751
83111.0,-22.9029,2.6528,44.6112,2.0524,-2.9862,-0.0442
83121.0,-21.0355,3.4548,35.6999,0.6609,-4.2079,-0.3986
83131.0,-19.5606,4.8794,30.1023,-0.4326,-4.8406,-0.6651
83141.0,-18.0595,6.4811,24.7776,-0.7072,-5.0444,-0.6832
83151.0,-15.512,5.4803,21.1743,-0.4693,-4.9337,-0.4981
83161.0,-13.7882,3.3088,17.4872,-0.0271,-4.6586,-0.3124
83171.0,-12.7252,0.6823,16.7139,-0.0846,-4.5708,-0.3432
83181.0,-11.6071,1.3264,14.4011,-0.3102,-4.8177,-0.5976
83191.0,-10.8457,3.6919,13.3213,-0.7545,-5.0444,-0.8769
83201.0,-10.6303,7.1874,11.3749,-1.0382,-5.2557,-0.9844
83211.0,-10.4267,9.3206,9.9431,-1.2888,-5.5446,-0.8551
83221.0,-9.8928,9.3757,7.1275,-1.268,-5.858,-0.5295
83231.0,-8.8801,7.0366,3.3208,-1.0227,-5.9958,-0.141
83241.0,-6.3159,3.8235,-1.0822,-0.6646,-5.7734,0.1144
83251.0,-4.5131,1.5826,-3.79,-0.3437,-4.9119,0.1511
83261.0,-3.0885,0.8954,-3.3351,-0.3118,-3.8477,0.0176
83271.0,-1.901,1.8866,-0.8882,-0.5827,-3.1554,-0.1548
83281.0,-1.5419,3.7038,2.1715,-0.8801,-2.7627,-0.2112
83291.0,-1.3934,4.5705,4.7908,-1.0387,-2.6813,-0.0798
83301.0,-1.1133,3.8714,4.8315,-1.0807,-2.9836,0.1788
83311.0,-0.2849,1.4413,3.4596,-1.1201,-3.3986,0.4193
83321.0,0.5195,-1.0008,0.3615,-0.8689,-3.4986,0.5454
83331.0,1.6352,-2.8323,-2.8802,-0.5864,-3.2113,0.5103
83341.0,2.466,-3.8259,-4.0654,-0.4379,-2.5392,0.332
83351.0,2.8683,-3.0215,-3.3639,-0.3565,-1.7065,0.0681
83361.0,2.8276,-1.2498,-0.8691,-0.3975,-1.0094,-0.1511
83371.0,2.6336,0.4908,2.4995,-0.3592,-0.5013,-0.2155
83381.0,2.6815,1.312,4.9225,-0.2442,-0.3464,-0.1325
83391.0,3.0502,1.0367,5.3726,-0.215,-0.5348,0.0016
83401.0,3.4405,0.4836,4.1994,-0.2629,-0.7652,0.0937
83411.0,3.8427,-0.249,3.2106,-0.2565,-0.6593,0.1357
83421.0,3.8475,-0.8021,3.5147,-0.1767,-0.2868,0.1288
83431.0,3.8116,-0.7183,4.2401,-0.1165,0.0436,0.0889
83441.0,3.6679,-0.1125,5.5091,-0.1506,0.2895,0.049
83451.0,3.4524,0.3136,7.0988,-0.1889,0.4555,0.066
83461.0,3.3184,0.2514,8.5904,-0.1937,0.4826,0.1309
83471.0,3.2681,0.0934,9.1267,-0.1506,0.3565,0.1985
83481.0,3.1723,-0.2658,9.2608,-0.0016,0.2905,0.2586
83491.0,3.3136,-1.0223,9.2368,0.2432,0.3826,0.3006
83501.0,3.2825,-1.4341,9.6606,0.3262,0.4927,0.265
83511.0,3.1053,-1.4461,10.8146,0.1745,0.4576,0.1697
83521.0,2.9449,-1.1037,12.0213,0.0192,0.3113,0.0777
83531.0,2.9928,-0.1484,12.3158,-0.0516,0.0458,0.0192
83541.0,3.122,0.6919,11.643,-0.1213,-0.2666,0.0346
83551.0,3.1771,0.6249,10.7117,-0.241,-0.5289,0.1128
83561.0,3.3519,0.0694,9.4595,-0.2549,-0.6891,0.199
83571.0,3.6009,-0.8499,8.1954,-0.1266,-0.6423,0.2655
83581.0,3.7924,-2.1859,7.7979,0.033,-0.4315,0.2783
83591.0,3.7709,-2.9736,7.7668,0.1506,-0.2442,0.2011
83601.0,3.9002,-3.3902,8.2145,0.1495,-0.166,0.0601
83611.0,3.9265,-3.0143,8.3151,0.1203,-0.1841,-0.1027
83621.0,3.9097,-2.1859,7.9655,0.0511,-0.2799,-0.2442
83631.0,4.2473,-1.221,7.1084,-0.0713,-0.3794,-0.331
83641.0,4.4101,-0.4405,6.3734,-0.2581,-0.4273,-0.3618
83651.0,4.4005,-0.0311,6.11,-0.4145,-0.4699,-0.34
83661.0,4.2521,0.814,5.1308,-0.3086,-0.4613,-0.2735
83671.0,4.1922,0.9529,4.0366,-0.058,-0.3469,-0.1501
83681.0,4.6232,0.7446,2.5235,0.274,-0.1548,-0.0245
83691.0,5.0039,0.6081,1.2091,0.4608,0.1203,0.05
83701.0,5.8969,0.2682,0.2274,0.3129,0.2911,0.0553
83711.0,6.2752,0.2873,-1.4748,-0.3198,0.0984,-0.0303
83721.0,4.5729,1.4748,-4.2521,-1.2978,-0.3868,-0.1793
83731.0,3.0095,2.727,-8.9016,-2.1827,-0.9488,-0.2677
83741.0,0.6369,3.5051,-14.121,-2.453,-1.0866,-0.2485
83751.0,-2.3607,5.533,-22.3427,-1.5564,-0.4879,-0.1229
83761.0,-5.2505,7.8889,-31.6322,-0.0612,1.0137,0.1554
83771.0,-9.675,8.3845,-37.996,1.2494,3.4204,0.571
83781.0,-14.3939,7.0892,-40.5769,1.9305,6.3167,0.9434
83791.0,-23.7265,5.2361,-36.1213,1.9119,9.5408,1.127
83801.0,-33.8756,3.79,-27.1502,1.6932,12.5158,1.1552
83811.0,-43.4811,2.5714,-12.3876,1.8257,15.5425,1.0366
83821.0,-53.5918,2.7126,7.3095,2.1492,17.4357,0.7519
83831.0,-57.7553,3.486,32.5994,2.1343,17.4357,0.3986
83841.0,-55.0331,4.5657,55.6939,1.5357,17.4357,0.1703
83851.0,-45.8585,1.8555,77.3447,0.3789,14.2085,0.215
83861.0,-38.4892,0.1748,78.4508,0.4331,9.4386,0.4385
83871.0,-34.7614,-5.3056,78.4508,-0.1405,3.7179,0.5364
83881.0,-28.2444,-3.9696,64.7033,1.036,-0.9493,0.6646
83891.0,-24.4209,-4.5155,49.3182,1.8619,-3.273,0.7662
83901.0,-22.2541,-6.7756,38.1779,1.5846,-4.9705,0.6098
83911.0,-18.5527,-4.774,24.8255,1.8576,-5.2466,0.3102
83921.0,-15.7467,-5.7628,23.5781,0.9232,-5.0168,-0.1266
83931.0,-14.0803,-3.1795,17.2981,0.5635,-5.1477,-0.5795
83941.0,-13.1394,-2.1787,15.6533,-0.4097,-5.4249,-1.0004
83951.0,-11.5305,-0.1772,12.129,-0.7237,-5.6713,-1.3063
83961.0,-10.386,1.6113,9.5912,-0.53,-5.4898,-1.4362
83971.0,-9.3039,3.0526,7.0126,-0.0218,-5.2222,-1.4117
83981.0,-7.7093,4.4963,2.9975,0.431,-5.0348,-1.2968
83991.0,-5.952,5.1643,0.7207,0.5188,-4.6555,-1.1488
84001.0,-5.1547,5.7724,-0.9074,0.6556,-3.9674,-0.9631
84011.0,-4.5394,6.201,-1.6328,0.4762,-3.4194,-0.7785
84021.0,-3.6105,5.8754,-1.7669,0.0883,-3.04,-0.6066
84031.0,-2.7701,5.5354,-1.1684,-0.0926,-2.4855,-0.4544
84041.0,-2.3343,5.0566,0.0239,-0.042,-1.7804,-0.3134
84051.0,-1.8387,4.3479,1.9728,-0.0761,-1.1951,-0.2022
84061.0,-1.5251,3.2825,5.0446,-0.2315,-0.7891,-0.1405
84071.0,-1.549,2.6336,7.5992,-0.2905,-0.6039,-0.1213
84081.0,-1.7358,2.0183,9.7229,-0.3608,-0.6848,-0.1235
84091.0,-1.5658,1.7382,10.6111,-0.3815,-0.9514,-0.1362
84101.0,-1.81,1.561,10.5321,-0.3932,-1.2845,-0.1474
84111.0,-1.5395,1.3192,9.7109,-0.3996,-1.6128,-0.1676
84121.0,-1.2354,1.5467,8.5281,-0.3209,-1.7262,-0.2091
84131.0,-1.0726,2.0901,8.3701,-0.2315,-1.6075,-0.2496
84141.0,-1.0415,3.1915,8.1499,-0.1708,-1.4958,-0.257
84151.0,-0.8356,3.7781,8.2696,-0.2916,-1.5346,-0.2075
84161.0,-0.5435,3.8882,8.1187,-0.3618,-1.5618,-0.1016
84171.0,-0.3304,3.4812,8.0254,-0.3374,-1.4942,0.0367
84181.0,-0.4812,2.6959,7.8697,-0.3081,-1.4399,0.165
84191.0,-0.3065,1.6903,7.4843,-0.3523,-1.4904,0.249
84201.0,0.1484,0.5219,7.2425,-0.3597,-1.4947,0.2687
84211.0,0.4669,0.0886,6.5912,-0.216,-1.3691,0.223
84221.0,0.7087,0.1006,6.5649,-0.1394,-1.2207,0.1282
84231.0,0.8619,0.9026,5.9496,-0.099,-1.1222,0.0293
84241.0,1.0606,1.494,5.7365,-0.2299,-1.0392,-0.0309
84251.0,1.4054,1.9728,5.3726,-0.3975,-0.9488,-0.0521
84261.0,1.5562,2.1524,4.9057,-0.6173,-0.8173,-0.0394
84271.0,1.5969,1.9369,5.2744,-0.9285,-0.663,-0.0138
84281.0,1.4198,1.573,6.6487,-1.0951,-0.5013,0.0223
84291.0,1.0487,1.3575,7.9799,-0.8801,-0.3704,0.0835
84301.0,1.0942,1.2929,8.3007,-0.3592,-0.3225,0.1777
84311.0,1.4389,1.4365,7.4005,0.2155,-0.3129,0.2762
84321.0,1.8172,1.6376,5.7126,0.5678,-0.265,0.3645
84341.0,1.9441,1.4413,4.1875,0.4502,0.1969,0.4624
84351.0,1.6999,1.0008,4.5969,0.1687,0.4874,0.4853
84361.0,1.6879,0.2131,5.3893,-0.1772,0.6625,0.4768
84371.0,1.6185,-0.6201,6.5122,-0.4544,0.7875,0.4268
84381.0,1.5251,-1.1037,7.7213,-0.5374,0.895,0.3443
84391.0,1.3862,-1.3001,8.7293,-0.439,0.9402,0.2448
84401.0,1.4293,-1.0319,8.8394,-0.2474,0.9014,0.1442
84411.0,1.4222,-0.4214,8.5976,-0.0819,0.8594,0.0548
84421.0,1.4437,0.4501,8.0254,0.0415,0.8881,0.0
84431.0,1.0104,1.2641,7.6447,0.0835,0.9775,-0.0064
84441.0,0.4118,1.7071,7.3622,-0.0117,1.0397,0.0357
84451.0,0.1748,1.6664,7.106,-0.1596,1.1095,0.1086
84461.0,0.079,1.1851,7.434,-0.3044,1.2388,0.1772
84471.0,-0.1796,0.7446,8.0876,-0.3315,1.3723,0.2182
84481.0,-0.3639,0.6632,8.1379,-0.2224,1.4734,0.2379
84491.0,-0.5674,0.68,8.0852,-0.133,1.574,0.2437
84501.0,-0.7374,0.8619,7.9703,-0.0761,1.6921,0.2416
84511.0,-1.075,1.1444,8.0828,-0.0761,1.8347,0.2373
84521.0,-1.6975,1.6544,8.1355,-0.1341,1.9592,0.2421
84531.0,-2.2577,1.9393,9.1075,-0.2416,2.0949,0.2724
84541.0,-2.909,2.1811,10.3549,-0.2176,2.2524,0.3374
84551.0,-3.4285,2.1907,11.8513,-0.1415,2.295,0.4172
84561.0,-3.3423,2.162,12.7898,-0.0601,2.1327,0.497
84571.0,-3.2681,2.1141,12.9622,0.0144,1.8975,0.5699
84581.0,-3.1173,2.1045,12.4642,0.016,1.6283,0.6247
84591.0,-3.1101,2.0973,11.5281,-0.1032,1.3654,0.6609
84601.0,-3.4213,2.241,10.3406,-0.2948,1.1749,0.6854
84611.0,-4.0414,2.2625,9.6343,-0.4608,1.1488,0.7263
84621.0,-4.2641,1.5395,10.0078,-0.4129,1.3633,0.8115
84631.0,-4.4365,0.8499,10.7883,-0.1767,1.6575,0.878
84641.0,-4.5562,0.2921,11.9686,-0.0261,1.7804,0.8796
84651.0,-4.4532,0.1628,12.7826,0.0426,1.7081,0.8317
84661.0,-4.3814,0.2322,13.2519,0.0591,1.5777,0.7668
84671.0,-4.3335,0.5986,13.283,0.0154,1.4293,0.6992
84681.0,-4.4939,0.9313,13.6206,-0.1266,1.276,0.6455
84691.0,-4.7453,1.4269,13.8026,-0.2559,1.1036,0.6141
84701.0,-4.9799,1.9034,13.8217,-0.3288,0.9472,0.6247
84711.0,-5.1523,2.083,14.1402,-0.3746,0.8099,0.6737
84721.0,-5.2888,2.2482,14.2072,-0.3709,0.6502,0.7407
84731.0,-5.3247,2.047,14.1976,-0.331,0.4566,0.8221
84741.0,-5.2074,1.9561,13.4722,-0.224,0.2655,0.8971
84751.0,-5.114,1.7885,12.7252,-0.1479,0.1591,0.9642
84761.0,-5.1571,1.6879,11.9878,-0.1346,0.1187,1.0211
84771.0,-5.3032,1.391,11.6669,-0.215,0.1235,1.0743
84781.0,-5.442,0.7207,12.0261,-0.3304,0.1527,1.1169
84791.0,-5.545,0.0527,12.7036,-0.3464,0.1628,1.1361
84801.0,-5.545,-0.3783,13.0125,-0.273,0.1048,1.1302
84811.0,-5.3702,-0.9481,13.4171,-0.1889,0.0096,1.0983
84821.0,-5.0637,-1.0798,13.2567,-0.1229,-0.1458,1.0243
84831.0,-4.877,-0.9266,13.0077,-0.1666,-0.3283,0.9206
84841.0,-4.8459,-0.5339,12.5911,-0.2496,-0.5028,0.829
84851.0,-4.7525,-0.3065,12.1985,-0.3661,-0.647,0.7758
84861.0,-4.6855,-0.3974,11.7723,-0.5002,-0.7779,0.7524
84871.0,-4.5011,-0.7877,11.4515,-0.6279,-0.8955,0.7338
84881.0,-4.1707,-1.2737,11.2288,-0.6992,-0.9706,0.696
84891.0,-3.9552,-1.4581,11.1163,-0.6582,-0.9935,0.6359
84901.0,-3.8547,-1.3934,10.9463,-0.5699,-1.0248,0.5688
84911.0,-3.5793,-1.1708,10.489,-0.4587,-1.086,0.5151
84921.0,-3.5075,-0.7997,9.8067,-0.3634,-1.1196,0.48
84931.0,-3.371,-0.6009,9.1602,-0.3161,-1.0999,0.4746
84941.0,-3.1771,-0.6752,8.9136,-0.2964,-1.0147,0.4869
84951.0,-3.0119,-0.9002,8.904,-0.2762,-0.9099,0.4981
84961.0,-2.7821,-1.2833,9.4667,-0.2203,-0.8083,0.4975
84971.0,-2.2003,-1.5467,9.7875,-0.058,-0.7285,0.4789
84981.0,-1.9776,-1.7693,10.0628,0.0607,-0.7093,0.4262
84991.0,-1.9345,-1.8004,10.0916,0.0628,-0.8083,0.3406
85001.0,-1.7047,-1.6951,9.7827,-0.0117,-0.9504,0.2368
85011.0,-1.5921,-1.4509,9.1195,-0.1187,-1.0605,0.1346
85021.0,-1.5754,-1.2139,8.5904,-0.2395,-1.0972,0.0463
85031.0,-1.6281,-0.9361,8.0972,-0.306,-1.0765,-0.0133
85041.0,-1.5323,-0.9553,7.774,-0.3491,-1.0259,-0.0458
85051.0,-1.1947,-1.257,7.6375,-0.3171,-0.9179,-0.0559
85061.0,-0.8763,-1.6185,7.7069,-0.1921,-0.7779,-0.0745
85071.0,-0.5674,-1.7957,7.4747,-0.0287,-0.671,-0.1197
85081.0,-0.4262,-1.7334,7.1874,0.0729,-0.5869,-0.1852
85091.0,-0.3448,-1.5538,6.8235,0.0777,-0.5295,-0.2538
85101.0,-0.3017,-1.4844,6.4524,0.0138,-0.4874,-0.3155
85111.0,-0.2753,-1.3647,5.9807,-0.0399,-0.4268,-0.3698
85121.0,-0.2993,-1.3216,5.5976,-0.0404,-0.2703,-0.4161
85131.0,-0.3136,-1.3815,5.5091,0.0101,-0.0037,-0.4539
85141.0,-0.3879,-1.5874,6.1028,0.0612,0.2831,-0.4954
85151.0,-0.3639,-1.8268,6.8809,0.1362,0.4821,-0.5454
85161.0,-0.4741,-1.8986,7.4172,0.223,0.6055,-0.6146
85171.0,-0.6488,-1.6879,7.9416,0.2857,0.6827,-0.7003
85181.0,-0.8332,-1.3647,8.2959,0.3006,0.6896,-0.7833
85191.0,-1.1205,-0.9385,8.2001,0.2964,0.6492,-0.8498
85201.0,-1.3336,-0.7159,8.0182,0.2708,0.6513,-0.8966
85211.0,-1.4006,-0.5866,7.8985,0.2315,0.7301,-0.9339
85221.0,-1.5993,-0.5004,8.3797,0.1857,0.8578,-0.9754
85231.0,-1.7717,-0.328,9.1554,0.1793,0.9727,-1.0174
85241.0,-2.0327,0.0359,9.9455,0.24,1.0254,-1.0472
85251.0,-2.2194,0.51,10.2663,0.3501,1.0147,-1.0536
85261.0,-2.4181,0.9673,10.3693,0.4268,0.977,-1.036
85271.0,-2.4972,1.336,10.2951,0.4161,0.9195,-0.9961
85281.0,-2.5259,1.403,10.2232,0.3044,0.8333,-0.944
85291.0,-2.5881,1.2402,10.0221,0.1511,0.7412,-0.8918
85301.0,-2.6863,0.8475,9.8881,0.0399,0.6848,-0.8466
85311.0,-2.6887,0.2514,9.8641,0.05,0.704,-0.8147
85321.0,-2.49,-0.2274,9.8019,0.2128,0.8242,-0.8205
85331.0,-2.49,-0.5291,9.9575,0.3118,0.9158,-0.8753
85341.0,-2.715,-0.4022,10.4267,0.3868,0.9982,-0.9695
85351.0,-3.0933,0.1676,10.7093,0.4608,1.0419,-1.0546
85361.0,-3.3447,0.7111,10.8912,0.4129,0.9966,-1.1142
85371.0,-3.6847,1.1827,10.8481,0.257,0.8796,-1.1488
85381.0,-4.0773,1.3671,10.7763,0.0553,0.7726,-1.1467
85391.0,-3.9935,1.0247,11.0229,-0.0591,0.7891,-1.1158
85401.0,-3.948,0.6416,11.8728,-0.0527,0.9009,-1.1004
85411.0,-4.1875,0.5507,12.8569,0.0271,0.9158,-1.1196
85421.0,-4.4053,0.7566,13.362,0.1687,0.8147,-1.1435
85431.0,-4.5346,1.1636,13.3716,0.29,0.6667,-1.1568
85441.0,-4.6304,1.5658,13.1537,0.3182,0.4858,-1.16
85451.0,-4.7932,1.9034,12.5552,0.2437,0.2975,-1.1478
85461.0,-5.0589,1.9441,11.7747,0.0756,0.1453,-1.1275
85471.0,-4.9297,1.4533,11.3078,-0.1559,0.0734,-1.1079
85481.0,-4.7238,0.7015,11.3605,-0.3453,0.1059,-1.1158
85491.0,-4.6017,0.2131,11.8872,-0.4209,0.2043,-1.1691
85501.0,-4.7908,0.1317,12.7731,-0.4262,0.2613,-1.2553
85511.0,-4.8387,0.6201,13.7236,-0.423,0.1979,-1.351
85521.0,-5.0422,1.4365,14.4227,-0.3943,0.0239,-1.4069
85531.0,-5.2146,2.3463,14.6908,-0.3076,-0.2086,-1.3867
85541.0,-5.1811,3.0191,14.6621,-0.1772,-0.4496,-1.2888
85551.0,-4.9967,3.3423,14.3437,0.0053,-0.6604,-1.1286
85561.0,-4.7285,3.4357,13.5392,0.182,-0.8461,-0.9402
85571.0,-4.4604,3.201,12.5408,0.2458,-1.0195,-0.7529
85581.0,-4.0797,2.5953,11.6478,0.1894,-1.1605,-0.5949
85591.0,-3.6727,1.8196,10.9918,0.1016,-1.2239,-0.4901
85601.0,-3.2777,1.2713,10.2113,0.0128,-1.2308,-0.447
85611.0,-3.0622,0.9697,9.9766,-0.1293,-1.2052,-0.4528
85621.0,-2.9568,0.9385,10.0437,-0.2176,-1.152,-0.4741
85631.0,-2.8587,0.9912,10.2496,-0.2049,-1.0967,-0.4778
85641.0,-2.6121,1.0654,10.3382,-0.1197,-1.0711,-0.4613
85651.0,-2.4924,1.087,10.2328,-0.0186,-1.069,-0.4347
85661.0,-2.3104,0.9816,9.9814,0.0596,-1.0834,-0.4087
85671.0,-1.9968,0.8236,9.7348,0.0915,-1.0844,-0.3986
85681.0,-1.7885,0.8021,9.6606,0.0766,-1.0717,-0.4166
85691.0,-1.6975,1.0726,9.5217,0.0458,-1.077,-0.4432
85701.0,-1.6448,1.4653,9.2751,-0.0032,-1.0919,-0.4539
85711.0,-1.5395,1.8411,9.1985,-0.0383,-1.0775,-0.4374
85721.0,-1.3934,2.1715,9.019,-0.0357,-1.0248,-0.3906
85731.0,-1.4269,2.3296,9.0261,-0.0208,-0.9546,-0.3187
85741.0,-1.3455,2.308,9.019,-0.0128,-0.9078,-0.2384
85751.0,-1.3503,2.1668,9.1387,-0.0383,-0.8828,-0.1628
85761.0,-1.2522,1.8771,9.256,-0.0612,-0.8854,-0.0958
85771.0,-1.166,1.5562,9.1004,-0.05,-0.919,-0.0474
85781.0,-0.8475,1.4389,8.5641,-0.016,-0.944,-0.0239
85791.0,-0.6249,1.47,8.0852,0.016,-0.8892,-0.0144
85801.0,-0.4764,1.6113,7.6614,0.0122,-0.787,-0.0032
85811.0,-0.3376,1.7621,7.4819,-0.066,-0.6886,0.0059
85821.0,-0.1844,1.8938,7.4316,-0.1804,-0.5896,0.0271
85831.0,-0.2155,1.913,7.6279,-0.3086,-0.4842,0.0591
85841.0,-0.2514,1.8196,8.0756,-0.4001,-0.4065,0.0979
85851.0,-0.3663,1.7382,8.4491,-0.4097,-0.3709,0.1543
85861.0,-0.3639,1.482,8.6383,-0.3352,-0.3501,0.2277
85871.0,-0.2083,1.2426,8.6,-0.2187,-0.3342,0.2937
85881.0,-0.0239,1.1468,8.3079,-0.1123,-0.3214,0.3421
85891.0,0.1748,1.142,7.9703,-0.0718,-0.3086,0.3773
85901.0,0.3041,1.2139,7.525,-0.0793,-0.2687,0.4076
85911.0,0.2921,1.2953,7.2185,-0.1128,-0.2059,0.4411
85921.0,0.2131,1.324,6.8833,-0.1681,-0.1373,0.4778
85931.0,0.0192,1.2091,6.5314,-0.2379,-0.0506,0.5225
85941.0,-0.0622,0.9242,6.3829,-0.2948,0.0814,0.5726
85951.0,0.0622,0.5435,6.608,-0.3177,0.2549,0.6167
85961.0,-0.0096,0.182,7.0461,-0.3054,0.4209,0.6417
85971.0,-0.0096,-0.067,7.4579,-0.249,0.5438,0.6524
85981.0,0.1101,-0.182,7.6567,-0.1724,0.646,0.6497
85991.0,0.0527,-0.1939,7.8482,-0.1181,0.7492,0.6423
86001.0,-0.1389,-0.1245,8.1523,-0.1171,0.8216,0.6284
86011.0,-0.3974,0.0072,8.327,-0.1692,0.8306,0.6173
86021.0,-0.5626,-0.0431,8.6167,-0.2256,0.8359,0.6188
86031.0,-0.5914,-0.1772,8.825,-0.2203,0.853,0.6263
86041.0,-0.8068,-0.2993,8.9304,-0.1905,0.8727,0.6231
86051.0,-0.8188,-0.4142,9.0094,-0.1378,0.9019,0.6119
86061.0,-0.8164,-0.4836,9.0668,-0.0814,0.9434,0.5922
86071.0,-1.0199,-0.2969,9.0788,-0.0383,0.9966,0.5635
86081.0,-1.2953,-0.1077,9.1578,-0.0527,1.036,0.539
86091.0,-1.6017,0.0192,9.5002,-0.0793,1.0632,0.5236
86101.0,-1.8004,0.1508,9.7205,-0.0532,1.0791,0.5209
86111.0,-1.9178,0.3041,9.7971,-0.0197,1.0679,0.5193
86121.0,-2.0614,0.4788,9.6534,-0.0005,1.0483,0.5188
86131.0,-2.1189,0.7183,9.4308,-0.0223,1.0435,0.5204
86141.0,-2.1859,0.8835,9.347,-0.083,1.0924,0.5321
86151.0,-2.4205,1.0056,9.5553,-0.1357,1.1935,0.5614
86161.0,-2.5714,1.0199,10.24,-0.1942,1.2749,0.5986
86171.0,-2.7773,1.0415,10.8577,-0.2065,1.3042,0.6455
86181.0,-3.0454,0.9242,11.4443,-0.2097,1.2648,0.6965
86191.0,-3.1005,0.814,11.6191,-0.1942,1.1616,0.7402
86201.0,-3.2777,0.6584,11.7603,-0.1724,1.0531,0.7678
86211.0,-3.4093,0.6009,11.5329,-0.1075,0.9365,0.7902
86221.0,-3.3519,0.5291,11.1498,-0.008,0.8987,0.803
86231.0,-3.3567,0.6009,10.7907,0.0532,0.928,0.8046
86241.0,-3.4716,0.6871,10.817,0.0074,0.9504,0.796
86251.0,-3.5147,0.838,11.0588,-0.0788,0.9498,0.7886
86261.0,-3.7038,0.893,11.2791,-0.1596,0.9269,0.7902
86271.0,-3.9241,0.9505,11.5137,-0.2458,0.8626,0.7966
86281.0,-4.0318,0.984,11.4682,-0.3124,0.7561,0.8088
86291.0,-4.2282,0.9361,11.1809,-0.3581,0.646,0.8264
86301.0,-4.3407,0.984,10.6877,-0.3821,0.5656,0.8434
86311.0,-4.4819,0.9481,10.2807,-0.4119,0.5459,0.861
86321.0,-4.4963,0.8739,10.1227,-0.4241,0.5805,0.8876
86331.0,-4.6112,0.7614,10.24,-0.4395,0.6428,0.9211
86341.0,-4.889,0.6345,10.6686,-0.4294,0.696,0.9637
86351.0,-4.968,0.4932,10.9008,-0.3789,0.6949,1.0094
86361.0,-5.0087,0.316,10.884,-0.3395,0.654,1.0499
86371.0,-5.0518,0.1604,10.659,-0.3416,0.6061,1.0813
86381.0,-5.2074,-0.079,10.6901,-0.4023,0.5715,1.1015
86391.0,-5.3199,-0.5171,11.0612,-0.4321,0.5731,1.1169
86401.0,-5.2026,-1.0965,11.5041,-0.3645,0.5928,1.1201
86411.0,-5.0039,-1.5323,11.8202,-0.2687,0.5577,1.0834
86421.0,-4.9033,-1.6496,11.8872,-0.2123,0.4528,1.0062
86431.0,-4.9632,-1.5706,11.9088,-0.2043,0.3358,0.9136
86441.0,-5.2098,-1.3288,11.9542,-0.1713,0.2485,0.8365
86451.0,-5.1834,-1.1013,11.9207,-0.0857,0.1958,0.7939
86461.0,-5.1715,-0.9313,11.7196,-0.0165,0.1463,0.771
86471.0,-5.138,-0.8547,11.5879,-0.0436,0.0814,0.7482
86481.0,-5.0422,-0.9481,11.5975,-0.1282,0.0197,0.7258
86491.0,-4.8746,-1.0558,11.892,-0.2155,-0.0287,0.6976
86501.0,-4.8507,-1.2019,12.4451,-0.3033,-0.0937,0.6598
86511.0,-4.81,-1.3623,12.9622,-0.3613,-0.2352,0.6125
86521.0,-4.7309,-1.4557,12.9526,-0.3613,-0.4475,0.5582
86531.0,-4.707,-1.3527,12.7324,-0.3161,-0.63,0.4991
86541.0,-4.5681,-0.9936,12.4044,-0.2214,-0.7263,0.4491
86551.0,-4.5921,-0.5794,12.0165,-0.1995,-0.7939,0.4246
86561.0,-4.6064,-0.2705,11.8369,-0.3139,-0.9355,0.4225
86571.0,-4.446,-0.2179,11.4275,-0.4778,-1.1121,0.4459
86581.0,-4.1492,-0.4621,11.2408,-0.6087,-1.2334,0.4778
86591.0,-3.8307,-0.747,11.0971,-0.6518,-1.3223,0.5018
86601.0,-3.5985,-1.2689,11.0349,-0.6242,-1.4346,0.5103
86611.0,-3.3208,-1.7238,10.6326,-0.4864,-1.5282,0.4959
86621.0,-3.0622,-1.968,10.2711,-0.2762,-1.5341,0.4464
86631.0,-2.7366,-1.9106,9.9,-0.0793,-1.4974,0.3741
86641.0,-2.4972,-1.9297,9.4475,-0.0575,-1.5293,0.282
86651.0,-2.3343,-1.4653,8.7484,-0.1836,-1.6373,0.1761
86661.0,-1.992,-1.7669,8.327,-0.3592,-1.6953,0.1293
86671.0,-2.0279,-1.7813,7.58,-0.4443,-1.6815,0.0495
86681.0,-1.9872,-1.7885,7.0246,-0.5076,-1.6064,-0.0341
86691.0,-1.5323,-1.9393,6.5912,-0.5444,-1.5038,-0.1059
86701.0,-1.1947,-2.0686,6.5146,-0.5018,-1.3452,-0.1751
86711.0,-1.0726,-2.1189,6.371,-0.3272,-1.1377,-0.232
86721.0,-0.8787,-2.1332,6.201,-0.0883,-0.9115,-0.2794
86731.0,-0.6752,-2.0255,5.9831,0.1437,-0.6917,-0.3257
86741.0,-0.5124,-1.8914,5.7796,0.2985,-0.4848,-0.3735
86751.0,-0.419,-1.6568,5.5737,0.3523,-0.307,-0.4257
86761.0,-0.5339,-1.4126,5.4253,0.3177,-0.1415,-0.4778
86771.0,-0.5507,-1.2929,5.2601,0.216,0.0245,-0.5204
86781.0,-0.5555,-1.4078,5.5881,0.0548,0.2128,-0.5593
86791.0,-0.6057,-1.6185,6.2249,-0.0772,0.3911,-0.6045
86801.0,-0.747,-1.743,6.9336,-0.1277,0.5295,-0.6614
86811.0,-0.905,-1.6975,7.5274,-0.0686,0.6343,-0.7199
86821.0,-1.0367,-1.6113,7.8985,0.0479,0.721,-0.7716
86831.0,-1.2426,-1.4054,8.3534,0.1825,0.7907,-0.8221
86841.0,-1.336,-0.9649,8.3725,0.3304,0.8418,-0.8668
86901.0,-2.0375,-0.2921,9.4882,-0.0282,0.8019,-0.8556
86911.0,-2.1644,-0.3783,9.7492,-0.0937,0.8359,-0.8711
86921.0,-2.4325,-0.4094,10.3453,-0.1011,0.87,-0.887
86931.0,-2.6073,-0.3184,10.8002,-0.0261,0.8455,-0.8897
86941.0,-2.7533,-0.3352,10.9678,0.1016,0.7604,-0.8737
86951.0,-2.8084,-0.4022,10.5345,0.2496,0.6407,-0.8514
86961.0,-2.8108,-0.6871,9.8976,0.3954,0.5662,-0.8418
86971.0,-2.794,-0.9625,9.1315,0.5561,0.6167,-0.8583
86981.0,-2.8323,-1.1636,8.7724,0.6715,0.7705,-0.9104
86991.0,-2.8922,-1.1708,8.8442,0.7215,0.9578,-0.9998
87001.0,-3.158,-0.8404,9.3326,0.7199,1.1222,-1.1089
87011.0,-3.5075,-0.2035,9.9407,0.6651,1.2068,-1.209
87021.0,-3.9313,0.5219,10.7093,0.5672,1.2164,-1.2664
87031.0,-4.2497,0.996,11.576,0.4544,1.1643,-1.2632
87041.0,-4.3096,1.1061,12.1817,0.3469,1.0302,-1.2196
87051.0,-4.2617,0.9816,12.6462,0.2682,0.8445,-1.1712
87061.0,-4.1707,0.8092,12.6869,0.2943,0.696,-1.127
87071.0,-4.2832,0.7302,12.6079,0.3799,0.5997,-1.1004
87081.0,-4.3574,0.8284,12.1913,0.4667,0.5114,-1.0828
87091.0,-4.3622,0.8523,11.9327,0.4699,0.4369,-1.0648
87101.0,-4.367,0.6488,11.8178,0.4294,0.3805,-1.0515
87111.0,-4.379,0.4932,11.734,0.3821,0.3283,-1.0589
87121.0,-4.3096,0.4908,11.6454,0.332,0.2804,-1.086
87131.0,-4.3359,0.5794,11.6215,0.2783,0.2565,-1.1169
87141.0,-4.4604,0.656,11.7292,0.2203,0.241,-1.1435
87151.0,-4.5633,0.6728,11.9207,0.1777,0.232,-1.1611
87161.0,-4.5418,0.6991,12.232,0.1453,0.2182,-1.1802
87171.0,-4.7142,0.9457,12.6701,0.1304,0.1772,-1.2047
87181.0,-4.7309,1.2905,13.0795,0.1298,0.0889,-1.2122
87191.0,-4.7429,1.6065,13.3285,0.158,-0.0378,-1.1925
87201.0,-4.8028,1.834,13.5057,0.2352,-0.1543,-1.1446
87211.0,-4.6759,2.1237,13.1178,0.3475,-0.2788,-1.0807
87221.0,-4.5131,2.1907,12.809,0.3735,-0.4044,-1.011
87231.0,-4.4341,2.2841,12.3613,0.3406,-0.5114,-0.9456
87241.0,-4.3072,2.1715,12.1721,0.2485,-0.596,-0.8881
87251.0,-4.2641,2.083,11.9135,0.1309,-0.6822,-0.8439
87261.0,-4.0893,1.9369,11.746,-0.0176,-0.7705,-0.8157
87271.0,-3.8283,1.8483,11.5113,-0.19,-0.8737,-0.7976
87281.0,-3.6943,1.6927,11.552,-0.3586,-0.9658,-0.7838
87291.0,-3.5123,1.6137,11.4084,-0.4278,-1.035,-0.7657
87301.0,-3.4261,1.5897,11.212,-0.4417,-1.086,-0.7418
87311.0,-3.3064,1.5778,10.7811,-0.4294,-1.1483,-0.7098
87321.0,-3.1795,1.5562,10.4363,-0.422,-1.1994,-0.6731
87331.0,-3.0694,1.4581,10.0437,-0.397,-1.2212,-0.6327
87341.0,-2.8922,1.3551,9.6798,-0.3544,-1.2122,-0.5954
87351.0,-2.5977,1.3001,9.153,-0.3272,-1.1866,-0.5683
87361.0,-2.332,1.2977,8.7412,-0.3549,-1.1355,-0.5475
87371.0,-2.15,1.2953,8.7412,-0.4198,-1.0488,-0.5263
87381.0,-2.0734,1.2498,8.9232,-0.4475,-0.9461,-0.4954
87391.0,-1.9537,1.2163,9.505,-0.4001,-0.8461,-0.456
87401.0,-1.913,1.3575,9.7085,-0.299,-0.8189,-0.4039
87411.0,-1.9225,1.3431,9.6893,-0.232,-0.8546,-0.3395
87421.0,-1.8938,1.2067,9.6702,-0.1671,-0.9083,-0.2719
87431.0,-1.6233,1.087,9.4068,-0.0442,-0.9301,-0.2112
87441.0,-1.3791,1.0894,8.7819,0.058,-0.9355,-0.1666
87451.0,-1.2474,1.1899,8.0732,0.0585,-0.9078,-0.132
87461.0,-1.0989,1.1564,7.75,-0.0287,-0.8205,-0.0958
87471.0,-0.9601,1.0175,7.6782,-0.1719,-0.7285,-0.0665
87481.0,-0.8116,0.7566,7.8865,-0.3006,-0.6321,-0.0474
87491.0,-0.7518,0.6225,8.0996,-0.3773,-0.5358,-0.0388
87501.0,-0.826,0.4022,8.5904,-0.4438,-0.4704,-0.0388
87511.0,-0.7949,0.2849,8.9352,-0.4523,-0.4576,-0.0404
87521.0,-0.6536,0.2107,9.0932,-0.4023,-0.4752,-0.0442
87531.0,-0.5986,0.3184,9.0118,-0.3118,-0.4981,-0.0474
87541.0,-0.5267,0.5507,8.6263,-0.2049,-0.5039,-0.0346
87551.0,-0.5004,0.7159,8.2576,-0.1123,-0.4688,-0.0021
87561.0,-0.3711,0.8643,7.8434,-0.0357,-0.3964,0.0442
87571.0,-0.2658,0.8571,7.5633,-0.0372,-0.3129,0.0926
87581.0,-0.1341,0.7733,7.5178,-0.1086,-0.2373,0.1352
87591.0,-0.0694,0.6345,7.5657,-0.2054,-0.1729,0.1607
87601.0,-0.0718,0.6369,7.5609,-0.3065,-0.1266,0.174
87611.0,-0.1604,0.6177,7.7644,-0.3932,-0.0756,0.1868
87621.0,-0.2658,0.656,8.0014,-0.3954,-0.0181,0.215
87631.0,-0.3041,0.6488,8.1187,-0.2847,0.0601,0.2629
87641.0,-0.2849,0.6871,8.1163,-0.1054,0.166,0.3209
87651.0,-0.2442,0.6919,8.0517,0.0442,0.2863,0.3837
87661.0,-0.2227,0.6345,8.1954,0.0873,0.3805,0.4374
87671.0,-0.1772,0.5602,8.3893,0.0357,0.422,0.4762
87681.0,-0.261,0.4741,8.509,-0.1027,0.4028,0.4943
87691.0,-0.4238,0.3926,8.5808,-0.2655,0.34,0.5018
87701.0,-0.5674,0.3136,8.5952,-0.3592,0.3006,0.5124
87711.0,-0.7063,0.3041,8.4922,-0.3129,0.3453,0.5385
87721.0,-0.8954,0.2969,8.4228,-0.1772,0.4683,0.5752
87731.0,-0.9936,0.407,8.6455,-0.0165,0.6268,0.6194
87741.0,-1.1037,0.68,9.0094,0.1453,0.7923,0.6662
87751.0,-1.3527,0.8715,9.5217,0.2591,0.9099,0.7295
87761.0,-1.5514,1.0702,9.6343,0.3134,0.9653,0.8024
87771.0,-1.5443,1.0008,10.1394,0.2214,0.9658,0.8673
87781.0,-1.6352,0.9074,10.5824,0.1272,0.9498,0.9264
87791.0,-1.9609,0.759,11.2671,0.0937,0.9222,0.977
87801.0,-2.0542,0.644,11.3677,0.1628,0.8562,1.028
87811.0,-2.15,0.4645,11.4132,0.2692,0.8125,1.0754
87821.0,-2.0327,0.2131,11.2312,0.3746,0.8115,1.1095
87831.0,-1.9609,-0.146,11.461,0.3916,0.7998,1.1025
87841.0,-1.7669,-0.2107,11.4012,0.3427,0.705,1.0456
87851.0,-1.8244,-0.0646,11.2958,0.2416,0.588,0.9631
87861.0,-1.9704,0.2538,11.0133,0.1697,0.4922,0.8908
87871.0,-2.0973,0.5842,10.3837,0.1112,0.439,0.8445
87881.0,-2.0925,0.8116,10.003,0.0234,0.4619,0.8195
87891.0,-2.2146,1.1349,9.809,-0.0862,0.5034,0.8163
87901.0,-2.3966,1.0487,10.1251,-0.1623,0.5805,0.8381
