time_ms,ax,ay,az,gx,gy,gz
23241.0,-0.7302,1.1444,11.054,0.3437,0.2863,-0.033
23251.0,-0.7853,1.0534,11.0923,0.4347,0.2799,0.0112
23261.0,-0.7805,0.9816,10.92,0.5263,0.2751,0.0484
23271.0,-0.8954,0.8787,10.7571,0.5992,0.2826,0.0761
23281.0,-0.8859,0.8523,10.4651,0.6295,0.2985,0.0873
23291.0,-1.0343,0.7781,10.3022,0.5789,0.3166,0.0788
23301.0,-0.9601,0.7087,10.3956,0.4917,0.3384,0.0527
23311.0,-1.0798,0.759,10.477,0.4161,0.3927,0.017
23321.0,-1.2163,0.6943,11.0875,0.3358,0.4406,-0.0176
23331.0,-1.1684,0.6823,11.6119,0.3038,0.456,-0.0506
23341.0,-1.1588,0.7183,12.1841,0.2687,0.4257,-0.0883
23351.0,-1.2282,0.8691,12.5001,0.2309,0.3342,-0.1298
23361.0,-1.3168,1.1133,12.6246,0.2097,0.2176,-0.1639
23371.0,-1.3862,1.3982,12.3589,0.1873,0.1038,-0.1841
23381.0,-1.5275,1.7047,12.0069,0.1054,-0.0069,-0.1974
23391.0,-1.6664,1.913,11.9423,-0.0346,-0.0921,-0.2011
23401.0,-1.6137,1.822,12.1027,-0.182,-0.166,-0.1873
23411.0,-1.4796,1.6448,12.2368,-0.3124,-0.2671,-0.1767
23421.0,-1.3455,1.4653,12.2703,-0.4289,-0.3906,-0.174
23431.0,-1.2977,1.257,12.378,-0.5028,-0.5055,-0.1735
23441.0,-1.2905,1.0151,12.311,-0.4725,-0.6103,-0.1681
23451.0,-1.3384,0.7542,11.8393,-0.3927,-0.6944,-0.1681
23461.0,-1.3599,0.5698,11.382,-0.3118,-0.7455,-0.183
23471.0,-1.4293,0.6464,10.9223,-0.2554,-0.7716,-0.2134
23481.0,-1.3743,0.814,10.5058,-0.2464,-0.7721,-0.248
23491.0,-1.3862,1.0534,10.3669,-0.2815,-0.7556,-0.2762
23501.0,-1.3264,1.2953,10.3932,-0.3374,-0.7572,-0.2857
23511.0,-1.2306,1.4605,10.3286,-0.3751,-0.7668,-0.2714
23521.0,-1.1253,1.3647,10.4603,-0.4135,-0.7779,-0.2384
23531.0,-0.9577,1.1396,10.5393,-0.4188,-0.7849,-0.2038
23541.0,-0.8068,0.917,10.6662,-0.3911,-0.7854,-0.1799
23551.0,-0.6943,0.7925,10.6638,-0.3475,-0.7987,-0.1697
23561.0,-0.5291,0.7901,10.6686,-0.3049,-0.8306,-0.165
23571.0,-0.5195,0.8811,10.4698,-0.2501,-0.861,-0.1591
23581.0,-0.3663,0.8739,10.2185,-0.2304,-0.9067,-0.1442
23591.0,-0.2179,0.7949,9.8952,-0.2224,-0.9349,-0.1304
23601.0,0.0144,0.6009,9.5577,-0.2272,-0.936,-0.1203
23611.0,0.1748,0.5195,9.1411,-0.2692,-0.9355,-0.1288
23621.0,0.3687,0.5076,8.837,-0.3539,-0.9179,-0.1517
23631.0,0.4788,0.5866,8.5904,-0.4401,-0.8673,-0.1756
23641.0,0.5962,0.5842,8.7628,-0.5231,-0.7982,-0.1894
23651.0,0.6536,0.5986,9.0956,-0.514,-0.7024,-0.191
23661.0,0.6416,0.5028,9.4834,-0.431,-0.6258,-0.1751
23671.0,0.8236,0.3711,9.7157,-0.2794,-0.5726,-0.1495
23681.0,0.9266,0.3112,9.6798,-0.091,-0.5161,-0.1213
23691.0,1.0439,0.2322,9.5146,0.0463,-0.4869,-0.1038
23701.0,1.1205,0.3065,9.1459,0.1075,-0.4597,-0.1038
23711.0,1.1779,0.3567,9.0142,0.0639,-0.4353,-0.1192
23721.0,1.2594,0.4908,8.9735,-0.0144,-0.4161,-0.1362
23731.0,1.3168,0.6488,8.8514,-0.0734,-0.3842,-0.1474
23741.0,1.3408,0.7542,8.8107,-0.1474,-0.3507,-0.1495
23751.0,1.3479,0.6919,8.9591,-0.2373,-0.3326,-0.141
23761.0,1.5562,0.4166,9.153,-0.3129,-0.3406,-0.1277
23771.0,1.6376,0.1604,9.098,-0.357,-0.3794,-0.1288
23781.0,1.8052,0.091,8.7747,-0.4087,-0.4438,-0.1501
23791.0,1.8387,0.2107,8.679,-0.4097,-0.456,-0.1713
23801.0,1.8603,0.4597,8.3749,-0.2756,-0.4443,-0.165
23811.0,2.0614,0.7901,7.4555,-0.0724,-0.4225,-0.1288
23821.0,2.2075,0.9577,6.4691,0.074,-0.3363,-0.0761
23831.0,2.4205,0.7997,5.679,0.1027,-0.2272,-0.0266
23841.0,2.4924,0.5004,5.0135,-0.0122,-0.1378,-0.0048
23851.0,2.4565,0.0646,4.4365,-0.2783,-0.099,-0.0197
23861.0,2.4541,-0.4166,4.0247,-0.5587,-0.05,-0.0628
23871.0,2.2553,-0.5914,4.2162,-0.5773,0.1974,-0.1086
23881.0,1.9154,-0.2658,4.4101,-0.2501,0.5779,-0.1187
23891.0,1.7047,0.1508,4.5083,0.1894,0.9583,-0.0857
23901.0,1.6783,0.6033,4.6112,0.5646,1.3186,-0.0341
23911.0,1.5179,1.0056,5.0254,0.771,1.6229,0.0181
23921.0,1.0343,1.0965,5.5641,0.8157,1.8475,0.0686
23931.0,0.8882,0.6584,5.8873,0.6768,1.9592,0.1048
23941.0,0.6321,0.1484,6.9504,0.5513,2.1327,0.0899
23951.0,0.1891,0.0144,7.7716,0.5529,2.3408,0.0527
23961.0,-0.2538,-0.2729,9.5409,0.5465,2.5281,-0.0048
23971.0,-0.644,0.0646,11.145,0.6854,2.6771,-0.0718
23981.0,-1.1349,0.5507,13.2136,0.8445,2.7393,-0.1235
23991.0,-1.5945,1.4676,14.6166,1.0642,2.6457,-0.1383
24001.0,-1.8531,2.1787,15.1768,1.2015,2.4041,-0.107
24011.0,-2.0446,2.5881,14.9925,1.184,2.121,-0.0591
24021.0,-2.2865,2.7031,14.7722,0.9951,1.8528,-0.0261
24031.0,-2.2577,2.6145,14.4993,0.6758,1.6011,-0.016
24041.0,-2.4325,2.5522,14.516,0.3193,1.3963,-0.0293
24051.0,-2.794,2.4205,14.9326,-0.025,1.1978,-0.0474
24061.0,-2.8994,1.9178,15.5168,-0.1618,1.0248,-0.0346
24071.0,-2.8539,1.4078,15.5839,-0.0341,0.9094,-0.0117
24081.0,-3.0718,1.1732,15.2535,0.1309,0.7769,-0.0154
24091.0,-3.0598,1.0463,14.5687,0.1963,0.6199,-0.0436
24101.0,-3.1196,0.9888,13.9558,0.1596,0.5087,-0.0963
24111.0,-3.1532,1.142,13.4841,0.0271,0.4321,-0.1735
24121.0,-3.1603,1.2522,13.556,-0.1655,0.3757,-0.2512
24131.0,-3.146,1.4557,13.7691,-0.3416,0.3193,-0.3182
24141.0,-3.122,1.585,14.5184,-0.472,0.2453,-0.3666
24151.0,-3.1675,1.8507,15.0907,-0.464,0.1405,-0.3815
24161.0,-3.1747,2.0494,15.3037,-0.3688,-0.0069,-0.3602
24171.0,-3.1149,2.0183,15.184,-0.274,-0.1799,-0.3177
24181.0,-3.0335,1.8842,14.8824,-0.2102,-0.3677,-0.2794
24191.0,-2.8635,1.8435,14.1904,-0.1884,-0.5587,-0.2559
24201.0,-2.7581,1.7789,13.5895,-0.2379,-0.7114,-0.2512
24211.0,-2.6791,1.81,13.058,-0.307,-0.8237,-0.2559
24221.0,-2.4828,1.8962,12.6462,-0.4001,-0.9035,-0.2671
24231.0,-2.4469,2.0734,12.4307,-0.5034,-0.9621,-0.2756
24241.0,-2.4325,2.1787,12.3876,-0.6119,-1.0318,-0.2692
24251.0,-2.3128,2.1739,12.4163,-0.696,-1.1132,-0.2458
24261.0,-2.2051,1.9848,12.5265,-0.7333,-1.1983,-0.2134
24271.0,-2.0016,1.7765,12.3852,-0.7035,-1.3106,-0.1799
24281.0,-1.7813,1.6017,12.1147,-0.63,-1.409,-0.1511
24291.0,-1.5682,1.5562,11.6813,-0.5161,-1.4734,-0.1261
24301.0,-1.4605,1.5778,11.2599,-0.4512,-1.549,-0.1054
24311.0,-1.2594,1.6807,10.6398,-0.4401,-1.6394,-0.0788
24321.0,-1.1085,1.5012,10.1227,-0.5289,-1.7219,-0.0463
24331.0,-0.9146,0.9385,10.082,-0.629,-1.7698,-0.0165
24341.0,-0.6919,0.6704,10.0054,-0.6268,-1.7682,-0.0106
24351.0,-0.4717,0.4693,10.1083,-0.6343,-1.8039,-0.0223
24361.0,-0.2538,0.4046,10.0102,-0.6066,-1.8816,-0.0372
24371.0,0.0024,0.4166,9.6079,-0.5124,-1.9507,-0.0431
24381.0,0.2035,0.4238,8.9735,-0.3948,-1.9917,-0.0367
24391.0,0.5267,0.4621,8.2959,-0.2927,-1.9944,-0.0287
24401.0,0.7302,0.5555,7.6806,-0.2528,-1.9874,-0.0197
24411.0,0.9912,0.6608,6.9552,-0.2384,-1.9481,-0.0043
24421.0,1.3336,0.7901,6.3518,-0.2458,-1.8544,0.0192
24431.0,1.6616,0.735,6.0741,-0.281,-1.7294,0.05
24441.0,1.9944,0.6321,5.9209,-0.2815,-1.591,0.0851
24451.0,2.2314,0.4405,5.7772,-0.241,-1.4442,0.1203
24461.0,2.4972,0.1317,5.6455,-0.1708,-1.2968,0.1554
24471.0,2.7605,-0.2107,5.4588,-0.0692,-1.1355,0.1783
24481.0,2.9664,-0.5722,5.2194,0.0043,-0.9855,0.1777
24491.0,3.2034,-0.7518,5.0637,0.0601,-0.8248,0.1501
24501.0,3.3136,-0.6967,5.0613,0.1064,-0.654,0.1059
24511.0,3.3184,-0.3807,4.9799,0.1442,-0.5023,0.0644
24521.0,3.3543,-0.0359,4.7357,0.1346,-0.389,0.041
24531.0,3.4836,0.2227,4.4029,0.0623,-0.2857,0.0378
24541.0,3.4165,0.3424,4.1156,-0.0223,-0.1474,0.0436
24551.0,3.2753,0.395,3.9433,-0.1091,0.017,0.0548
24561.0,3.1196,0.1389,4.1492,-0.1447,0.2288,0.075
24571.0,3.1029,-0.1891,4.446,-0.0654,0.4768,0.0952
24581.0,2.9928,-0.3879,4.7621,0.0777,0.7109,0.0942
24591.0,2.7701,-0.2155,4.9009,0.2357,0.9296,0.0766
24601.0,2.5139,0.0431,5.1427,0.332,1.1111,0.0623
24611.0,2.3104,0.2993,5.0159,0.3709,1.2308,0.0553
24621.0,1.992,0.4357,4.7022,0.3741,1.3713,0.0511
24631.0,1.5969,0.51,4.5969,0.3879,1.6208,0.0468
24641.0,1.2091,0.4645,5.2241,0.4204,1.9449,0.0431
24651.0,0.8308,0.6488,6.0478,0.4502,2.2035,0.0277
24661.0,0.4693,1.008,7.0174,0.4273,2.3583,0.0122
24671.0,-0.0287,1.324,7.9751,0.3842,2.4264,0.0287
24681.0,-0.4142,1.2115,8.3749,0.3076,2.3652,0.0777
24691.0,-0.5842,0.6393,8.2791,0.2756,2.3014,0.1288
24701.0,-0.8595,0.2873,8.1235,0.3837,2.4456,0.1474
24711.0,-1.312,0.2658,8.7604,0.5231,2.7148,0.1197
24721.0,-1.7717,0.6225,10.0102,0.638,2.9351,0.0734
24731.0,-2.162,1.1109,11.5041,0.7317,3.0405,0.0452
24741.0,-2.4565,1.6592,12.9024,0.7987,3.0011,0.0463
24751.0,-2.7773,1.8866,14.0228,0.8173,2.7978,0.0782
24761.0,-2.7438,1.7741,13.7714,0.7944,2.4243,0.1208
24771.0,-2.6935,1.6951,12.6318,0.7317,2.1247,0.1256
24781.0,-2.8252,2.1404,11.4012,0.6306,2.0476,0.0952
24791.0,-3.3279,2.6169,11.0157,0.3959,2.0715,0.0649
24801.0,-4.0055,2.9592,11.1618,0.0915,2.104,0.0639
24811.0,-4.6663,2.5043,12.639,-0.1623,2.1465,0.1144
24821.0,-4.6424,1.5036,14.5639,-0.1,2.1753,0.1969
24831.0,-4.525,0.8212,15.3708,0.2517,2.0971,0.2496
24841.0,-4.4053,0.5578,15.3947,0.588,1.9305,0.2379
24851.0,-4.3311,0.8021,14.9231,0.7684,1.748,0.1713
24861.0,-4.3407,1.2594,14.4466,0.7572,1.5697,0.0803
24871.0,-4.4939,1.9704,13.8217,0.5896,1.4149,-0.0106
24881.0,-4.8507,2.4301,13.9965,0.2735,1.2946,-0.0814
24891.0,-5.0087,2.4253,14.9781,-0.0245,1.1999,-0.1123
24901.0,-5.1404,2.1524,16.4099,-0.1655,1.0972,-0.1139
24911.0,-5.0206,1.7047,17.8607,-0.1979,0.8652,-0.1149
24921.0,-4.6232,1.4078,18.5862,-0.1149,0.5167,-0.1298
24931.0,-4.7118,1.4413,18.5144,0.0,0.1128,-0.1703
24941.0,-4.4221,1.81,17.2335,0.0575,-0.3406,-0.2107
24951.0,-4.2737,1.9944,16.0507,-0.0234,-0.7066,-0.2469
24961.0,-4.2784,2.1668,14.8081,-0.1437,-0.9615,-0.2799
24971.0,-4.2234,2.2577,13.7523,-0.3017,-1.151,-0.3054
24981.0,-4.0079,2.1715,13.1394,-0.4597,-1.2664,-0.3198
24991.0,-3.8044,2.083,12.8401,-0.5486,-1.3122,-0.3283
25001.0,-3.6296,2.0399,12.5193,-0.6039,-1.3627,-0.3336
25011.0,-3.462,1.8986,12.627,-0.6316,-1.4149,-0.3331
25021.0,-3.2633,1.8938,12.8329,-0.5406,-1.4505,-0.3235
25031.0,-3.158,1.9369,12.6629,-0.3501,-1.5038,-0.2937
25041.0,-2.9305,2.0016,11.9303,-0.1889,-1.599,-0.2538
25051.0,-2.6647,1.9728,11.1618,-0.1288,-1.6825,-0.2198
25061.0,-2.4517,1.8627,10.4411,-0.1453,-1.7256,-0.1995
25071.0,-2.2027,1.7286,10.0987,-0.2198,-1.7278,-0.2011
25081.0,-1.8866,1.7861,9.979,-0.2735,-1.6884,-0.2123
25091.0,-1.822,1.7478,10.2065,-0.3448,-1.6724,-0.2214
25101.0,-1.5275,1.8723,10.2592,-0.3842,-1.7012,-0.2251
25111.0,-1.4245,1.8507,10.2975,-0.3868,-1.7246,-0.2097
25121.0,-1.2929,1.664,10.137,-0.3789,-1.7863,-0.1857
25131.0,-0.996,1.4964,9.8354,-0.3507,-1.8411,-0.1724
25141.0,-0.8978,1.3503,9.5816,-0.299,-1.8571,-0.1644
25151.0,-0.7063,1.3192,9.3709,-0.1873,-1.8294,-0.1532
25161.0,-0.5435,1.4676,8.7891,-0.0825,-1.7985,-0.1389
25171.0,-0.3304,1.6113,8.3725,-0.0772,-1.7677,-0.1277
25181.0,-0.1772,1.8627,8.0637,-0.0931,-1.6836,-0.1107
25191.0,-0.1221,1.8052,8.1499,-0.1437,-1.5926,-0.0809
25201.0,0.1508,1.6759,8.576,-0.1527,-1.499,-0.0484
25211.0,0.2298,1.5443,8.9495,-0.1165,-1.4175,-0.0186
25221.0,0.3519,1.312,9.2105,-0.1006,-1.4426,0.0074
25231.0,0.5363,1.2474,8.7891,-0.058,-1.5112,0.0213
25241.0,0.8835,1.2713,8.1882,0.0138,-1.4979,0.0303
25251.0,1.008,1.4988,7.5058,0.0596,-1.4096,0.0351
25261.0,1.0319,1.6903,7.1635,-0.0154,-1.3297,0.0404
25271.0,1.0774,1.8124,7.2113,-0.1155,-1.2318,0.0617
25281.0,1.2378,1.6544,7.5393,-0.1564,-1.1036,0.107
25291.0,1.4317,1.3288,7.7764,-0.1485,-1.0286,0.1538
25301.0,1.6616,1.0463,7.5872,-0.1415,-1.0174,0.1756
25311.0,1.9513,0.893,7.4244,-0.1298,-0.9951,0.174
25321.0,2.1356,0.8882,6.9767,-0.1016,-0.9525,0.1623
25331.0,2.2051,1.0798,6.4284,-0.1038,-0.8918,0.1495
25341.0,2.308,1.2641,6.0023,-0.1479,-0.8024,0.1426
25351.0,2.3152,1.4892,5.6479,-0.2469,-0.7178,0.1506
25361.0,2.3104,1.3982,5.4492,-0.3778,-0.6385,0.1724
25371.0,2.4493,1.1325,5.1906,-0.4374,-0.5087,0.2054
25381.0,2.5283,0.6967,5.0877,-0.4124,-0.3108,0.2357
25391.0,2.7078,0.1413,5.0877,-0.3331,-0.0718,0.2485
25401.0,2.818,-0.2825,5.0685,-0.2267,0.183,0.2283
25411.0,2.8802,-0.5243,5.2792,-0.1272,0.447,0.1724
25421.0,2.7701,-0.4357,5.7078,-0.0112,0.7253,0.0979
25431.0,2.6097,-0.0575,6.0741,0.0782,0.9589,0.025
25441.0,2.3703,0.3519,6.5338,0.0851,1.1148,-0.0255
25451.0,2.162,0.6033,6.8809,0.0181,1.2026,-0.0521
25461.0,2.1213,0.5076,7.1898,-0.1006,1.2446,-0.0633
25471.0,2.0734,0.2921,7.4747,-0.1926,1.3053,-0.0851
25481.0,1.7741,0.1101,7.9392,-0.2677,1.3729,-0.1277
25491.0,1.4724,0.1389,8.7077,-0.274,1.4521,-0.1804
25501.0,1.1516,0.6656,9.5074,-0.1219,1.5596,-0.2139
25511.0,0.7326,1.3886,10.0173,0.066,1.607,-0.207
25521.0,0.3831,2.0279,10.3022,0.2027,1.5671,-0.1501
25531.0,0.1221,2.3679,10.1131,0.2607,1.4718,-0.0532
25541.0,-0.0215,2.1213,9.7181,0.2639,1.3814,0.0623
25551.0,0.0431,1.6305,9.165,0.3033,1.4005,0.1575
25561.0,-0.1006,1.1109,8.9615,0.3257,1.5128,0.2091
25571.0,-0.2322,0.7135,9.0357,0.3033,1.6171,0.2134
25581.0,-0.3639,0.6177,9.1578,0.2389,1.6942,0.1815
25591.0,-0.7039,0.5914,9.663,0.1282,1.7586,0.1421
25601.0,-0.9002,0.5028,9.9335,0.0271,1.7544,0.1107
25611.0,-1.1349,0.3926,9.9072,-0.0362,1.7278,0.0809
25621.0,-1.4078,0.2394,10.0652,-0.0346,1.7985,0.0564
25631.0,-1.731,0.0527,10.8745,0.0665,1.9587,0.0309
25641.0,-1.9297,-0.0024,11.8968,0.2613,2.0742,-0.0005
25651.0,-2.0303,0.2203,12.6629,0.4768,2.0965,-0.041
25661.0,-2.2697,0.6225,13.2878,0.6492,2.0348,-0.0793
25671.0,-2.4804,1.0774,13.3692,0.7535,1.8874,-0.099
25681.0,-2.5426,1.5155,13.0436,0.7641,1.731,-0.1027
25691.0,-2.6312,1.7669,12.9407,0.6444,1.6187,-0.1038
25701.0,-2.8204,1.8771,13.0077,0.4299,1.5,-0.1096
25711.0,-2.9353,1.7933,13.2878,0.1884,1.3707,-0.1181
25721.0,-3.1891,1.664,13.7834,-0.0027,1.2744,-0.1277
25731.0,-3.3303,1.4174,14.5113,-0.1181,1.1802,-0.1394
25741.0,-3.3758,1.142,15.3875,-0.133,1.0871,-0.1575
25751.0,-3.4668,1.063,16.1345,-0.0718,0.9355,-0.1889
25761.0,-3.5195,1.2019,16.2327,-0.0112,0.6875,-0.2283
25771.0,-3.5195,1.4317,15.9645,0.016,0.4246,-0.2634
25781.0,-3.4812,1.7214,15.4833,0.0016,0.1937,-0.29
25791.0,-3.486,2.0087,14.947,-0.0527,0.0069,-0.3081
25801.0,-3.4788,2.1332,14.8464,-0.1495,-0.1458,-0.3129
25811.0,-3.395,2.0925,14.9685,-0.223,-0.2815,-0.3044
25821.0,-3.4405,2.0566,14.8584,-0.257,-0.4438,-0.2932
25831.0,-3.2058,2.0039,14.6094,-0.3054,-0.647,-0.2863
25841.0,-3.122,1.9609,14.1593,-0.3661,-0.8306,-0.282
25851.0,-2.9904,1.9178,13.8552,-0.439,-0.9982,-0.2847
25861.0,-2.8443,1.9537,13.3237,-0.4927,-1.1515,-0.2868
25871.0,-2.6863,1.9632,13.2016,-0.5151,-1.26,-0.281
25881.0,-2.5714,2.0997,13.1083,-0.4608,-1.3388,-0.2586
25891.0,-2.466,2.2721,12.8664,-0.3996,-1.4543,-0.2261
25901.0,-2.332,2.3894,12.1625,-0.39,-1.6182,-0.1815
25911.0,-2.1548,2.2529,11.3078,-0.4486,-1.7618,-0.1293
25921.0,-1.9632,1.9561,10.5919,-0.5066,-1.8102,-0.0825
25931.0,-1.6688,1.5131,10.2496,-0.5364,-1.7778,-0.0463
25941.0,-1.336,1.1109,10.2568,-0.5486,-1.7315,-0.0394
25951.0,-0.9768,1.008,10.5417,-0.4981,-1.6708,-0.0559
25961.0,-0.9505,1.166,10.671,-0.4182,-1.6586,-0.0681
25971.0,-0.893,1.2306,10.5441,-0.3831,-1.7602,-0.0628
25981.0,-0.6847,1.2282,9.6798,-0.365,-1.8693,-0.0452
25991.0,-0.4381,1.0175,8.7245,-0.4033,-1.9247,-0.033
26001.0,0.0263,0.7422,8.0613,-0.4704,-1.8906,-0.041
26011.0,0.4046,0.4788,7.8219,-0.5438,-1.7741,-0.0734
26021.0,0.735,0.3304,7.8578,-0.6087,-1.6506,-0.1272
26031.0,0.8547,0.5291,8.3199,-0.6311,-1.55,-0.1894
26041.0,0.8356,1.0439,8.6574,-0.5076,-1.4207,-0.2128
26051.0,0.7614,1.4293,9.2129,-0.274,-1.2877,-0.1745
26061.0,0.7685,1.7693,9.0692,-0.0245,-1.2398,-0.0905
26071.0,0.8571,1.7837,8.5808,0.1022,-1.2553,0.0021
26081.0,1.1684,1.5036,8.0924,0.1527,-1.2329,0.0867
26091.0,1.5155,1.3001,7.58,0.1729,-1.1526,0.141
26101.0,1.7142,1.2067,7.4771,0.1075,-1.0616,0.1618
26111.0,1.8699,1.1875,7.5346,0.0021,-0.9881,0.1751
26121.0,1.9225,1.0654,7.6758,-0.1171,-0.9567,0.1889
26131.0,2.0159,1.0056,7.5705,-0.232,-0.9727,0.1969
26141.0,2.1045,0.9266,7.2999,-0.3539,-0.9966,0.2038
26151.0,2.1739,0.8763,6.8067,-0.4581,-1.0169,0.2059
26161.0,2.2386,0.9266,6.2369,-0.5215,-0.9807,0.2107
26171.0,2.15,0.8212,5.8395,-0.505,-0.8466,0.2347
26181.0,2.2386,0.3926,5.7054,-0.39,-0.6375,0.2794
26191.0,2.5163,-0.0718,5.5354,-0.2155,-0.3954,0.3118
26201.0,2.6863,-0.4046,5.3989,-0.0846,-0.1639,0.3012
26211.0,2.7366,-0.4286,5.4037,-0.0367,0.0303,0.2538
26221.0,2.66,-0.3591,5.5019,-0.0617,0.182,0.1953
26231.0,2.6193,-0.3112,5.4564,-0.1155,0.2996,0.1463
26241.0,2.557,-0.3328,5.3917,-0.1511,0.448,0.1059
26251.0,2.5259,-0.3448,5.43,-0.1538,0.6439,0.0692
26261.0,2.3655,-0.3591,5.7245,-0.1591,0.8572,0.0287
26271.0,2.2098,-0.2658,6.2034,-0.1394,1.0722,-0.009
26281.0,1.9728,-0.1987,6.9264,-0.1048,1.2675,-0.0367
26291.0,1.8292,-0.2634,7.6662,-0.0447,1.4069,-0.0479
26301.0,1.6903,-0.4812,8.1738,0.016,1.4809,-0.0649
26311.0,1.6233,-0.5555,8.3127,0.0537,1.5069,-0.1022
26321.0,1.4653,-0.4693,8.4611,0.0686,1.5548,-0.1554
26331.0,1.1708,-0.0958,8.7269,0.0676,1.6256,-0.2112
26341.0,0.8882,0.3926,9.1794,0.0623,1.7139,-0.248
26351.0,0.5459,1.0175,9.7324,0.0596,1.79,-0.2496
26361.0,0.3926,1.4581,10.5536,0.0202,1.8097,-0.2102
26371.0,0.3017,1.6424,11.4946,-0.0133,1.7804,-0.1394
26381.0,-0.0335,1.585,12.2703,-0.0394,1.6421,-0.0484
26391.0,-0.1748,1.0918,12.2463,-0.0692,1.3691,0.0442
26401.0,-0.0311,0.5483,11.5808,-0.008,1.1712,0.1133
26411.0,-0.1604,0.3328,10.8912,0.1463,1.1717,0.1442
26421.0,-0.3089,0.4142,10.4267,0.2927,1.2632,0.1517
26431.0,-0.431,0.5962,10.2232,0.3544,1.3729,0.1522
26441.0,-0.5243,0.7829,10.4004,0.3124,1.4628,0.1554
26451.0,-0.7422,0.7997,10.8026,0.1937,1.4846,0.1655
26461.0,-0.8882,0.6512,10.8433,0.0447,1.4,0.1767
26471.0,-1.1516,0.3448,10.6829,-0.0708,1.358,0.1841
26481.0,-1.2546,-0.2107,10.9607,-0.0516,1.4537,0.1894
26491.0,-1.3216,-0.5531,11.2958,0.0788,1.6054,0.1681
26501.0,-1.6065,-0.6776,11.8489,0.1639,1.7118,0.1107
26511.0,-1.6855,-0.4669,12.2511,0.1985,1.7464,0.0367
26521.0,-1.9154,-0.1652,12.7084,0.1905,1.7485,-0.0298
26531.0,-2.3415,0.1484,13.0173,0.1761,1.732,-0.074
26541.0,-2.6193,0.316,13.532,0.1676,1.7363,-0.0921
26551.0,-2.7892,0.2035,14.4466,0.1969,1.7549,-0.0979
26561.0,-2.9568,-0.1221,15.6748,0.2426,1.7262,-0.1101
26571.0,-3.0191,-0.486,16.8217,0.265,1.5697,-0.1517
26581.0,-2.9473,-0.6201,17.492,0.24,1.2787,-0.232
26591.0,-3.0646,-0.5291,17.7626,0.174,0.9472,-0.3358
26601.0,-3.2202,-0.3112,17.8536,0.0788,0.5976,-0.4427
26611.0,-3.3734,0.0814,17.4609,-0.0208,0.2363,-0.539
26621.0,-3.4788,0.5578,16.9629,-0.1554,-0.0995,-0.6178
26631.0,-3.6248,0.9553,16.4889,-0.3102,-0.3975,-0.6737
26641.0,-3.6344,1.2426,16.1249,-0.4587,-0.6619,-0.7056
26651.0,-3.6344,1.4772,15.7969,-0.5465,-0.8924,-0.7173
26661.0,-3.632,1.7549,15.2989,-0.5906,-1.1228,-0.7082
26671.0,-3.5674,1.9321,14.552,-0.6439,-1.3564,-0.6763
26681.0,-3.3758,2.0327,13.5871,-0.6955,-1.5516,-0.6274
26691.0,-3.0454,2.0303,12.6366,-0.7646,-1.6793,-0.5731
26701.0,-2.8108,1.8794,12.1625,-0.8461,-1.7326,-0.5199
26711.0,-2.8299,1.6065,12.1266,-0.8806,-1.7613,-0.4629
26721.0,-2.5905,1.3503,12.3253,-0.8179,-1.7953,-0.4044
26731.0,-2.5618,1.2282,12.2607,-0.671,-1.8533,-0.3363
26741.0,-2.32,0.9074,12.038,-0.53,-1.9672,-0.2655
26751.0,-1.992,0.6512,11.382,-0.3847,-2.0832,-0.2102
26761.0,-1.6544,0.498,10.3884,-0.2841,-2.1763,-0.1767
26771.0,-1.324,0.5004,9.3948,-0.2666,-2.2333,-0.165
26781.0,-1.0175,0.5052,8.928,-0.3081,-2.2168,-0.166
26791.0,-0.8475,0.6488,8.5904,-0.3097,-2.1524,-0.157
26801.0,-0.6536,0.6129,8.5018,-0.3257,-2.1109,-0.1298
26811.0,-0.4381,0.4693,8.169,-0.3469,-2.1018,-0.0974
26821.0,-0.2083,0.3136,7.7165,-0.4055,-2.1136,-0.0766
26831.0,0.1628,0.2418,7.2425,-0.4417,-2.0891,-0.066
26841.0,0.51,0.2322,6.9671,-0.415,-1.9832,-0.0511
26851.0,0.8236,0.2346,6.9336,-0.3081,-1.8278,-0.0223
26861.0,1.0367,0.1891,6.9719,-0.1336,-1.6676,0.0234
26871.0,1.2689,0.012,6.6535,0.0011,-1.5735,0.0734
26881.0,1.7214,-0.1437,6.2465,0.0575,-1.5213,0.1016
26891.0,1.9609,-0.2466,5.7604,0.0585,-1.4277,0.1048
26901.0,2.1548,-0.182,5.3223,-0.0005,-1.3234,0.0899
26911.0,2.3487,-0.0503,5.0326,-0.0921,-1.1909,0.0724
26921.0,2.4972,0.0215,4.9847,-0.1703,-1.0302,0.0681
26931.0,2.5929,0.1173,5.1619,-0.2054,-0.8572,0.0803
26941.0,2.7031,0.1652,5.4899,-0.1485,-0.6705,0.1091
26951.0,2.8276,0.1413,5.6862,-0.0234,-0.489,0.157
26961.0,2.8563,-0.0287,5.7389,0.0788,-0.373,0.2049
26971.0,3.0406,-0.1891,5.43,0.1314,-0.3076,0.2368
26981.0,3.2202,-0.3639,5.0159,0.1453,-0.1884,0.2464
26991.0,3.2585,-0.4286,4.7549,0.1245,-0.0319,0.2331
27001.0,3.2657,-0.3687,4.4987,0.0676,0.1261,0.2075
27011.0,3.225,-0.1413,4.3383,-0.0021,0.3155,0.1884
27021.0,2.9832,-0.0168,4.5131,-0.0819,0.5268,0.1852
27031.0,2.6959,-0.0048,4.7956,-0.1213,0.7327,0.2001
27041.0,2.6025,-0.3352,5.2074,-0.0889,0.9472,0.2341
27051.0,2.6288,-0.8188,5.6958,0.0261,1.1706,0.2559
27061.0,2.4253,-1.0367,5.9592,0.166,1.3697,0.2341
27071.0,2.2194,-0.9912,6.1699,0.2682,1.557,0.1857
27081.0,1.8268,-0.7374,6.6846,0.3411,1.7565,0.1341
27091.0,1.3647,-0.3759,7.2927,0.3863,1.9135,0.099
27101.0,1.0247,-0.0431,7.8051,0.4087,1.9976,0.0979
27111.0,0.6656,-0.0192,8.2839,0.4252,2.0422,0.1219
27121.0,0.4621,-0.1676,8.7149,0.5241,2.1449,0.1522
27131.0,0.3112,-0.4046,9.3494,0.6875,2.2929,0.1719
27141.0,0.3112,-0.4046,9.3494,0.6875,2.2929,0.1719
27151.0,0.182,-0.4405,9.8617,0.8354,2.4036,0.157
27161.0,-0.0622,-0.2753,10.4004,0.8934,2.4536,0.107
27171.0,-0.2825,0.0192,10.9415,0.8578,2.4387,0.0479
27181.0,-0.5363,0.4022,11.236,0.7529,2.344,0.0011
27191.0,-0.7494,0.6512,11.0828,0.5736,2.1928,-0.0287
27201.0,-1.1253,0.8475,10.7141,0.3251,2.0422,-0.0495
27211.0,-1.5299,1.0295,10.4363,0.1022,1.9656,-0.0596
27221.0,-1.8627,1.1899,10.9726,0.0708,2.1029,-0.0383
27231.0,-2.2625,1.3408,12.2152,0.2379,2.3221,0.0144
27241.0,-2.411,1.3719,13.1537,0.3863,2.3338,0.074
27251.0,-2.5139,1.4988,13.3596,0.4209,2.1758,0.1203
27261.0,-2.624,1.64,13.4243,0.3586,1.9954,0.1591
27271.0,-2.8299,1.6616,13.1083,0.2304,1.7932,0.1963
27281.0,-3.0143,1.5131,12.7994,0.0676,1.6224,0.2224
27291.0,-3.1771,1.5107,12.8664,-0.0021,1.5926,0.241
27301.0,-3.6129,1.4102,13.6206,-0.0192,1.6235,0.2719
27311.0,-3.7804,0.8116,14.8728,-0.0037,1.574,0.3177
27321.0,-3.541,0.1101,15.7443,0.1038,1.4293,0.3368
27331.0,-3.3064,-0.395,15.9238,0.2389,1.2122,0.299
27341.0,-3.2202,-0.5435,15.8089,0.3219,0.9786,0.2097
27351.0,-3.2178,-0.3639,15.4594,0.3432,0.754,0.0968
27361.0,-3.3136,-0.0215,14.9494,0.2889,0.5449,-0.016
27371.0,-3.4333,0.2801,14.4945,0.1405,0.3448,-0.1144
27381.0,-3.5314,0.5866,14.1425,-0.0564,0.166,-0.1948
27391.0,-3.5674,0.7853,14.291,-0.2432,0.0367,-0.2517
27401.0,-3.6392,0.8571,14.71,-0.3586,-0.0862,-0.2815
27411.0,-3.5626,0.905,14.8033,-0.4017,-0.2767,-0.2916
27421.0,-3.5338,0.9026,14.5496,-0.4353,-0.4906,-0.2916
27431.0,-3.3926,0.8954,14.1449,-0.4401,-0.6784,-0.2857
27441.0,-3.201,0.8452,13.7451,-0.4033,-0.8179,-0.2703
27451.0,-3.0478,0.8452,13.1059,-0.3294,-0.9211,-0.2517
27461.0,-2.8683,0.8571,12.5504,-0.2756,-1.002,-0.2336
27471.0,-2.6336,0.735,11.9686,-0.2724,-1.0876,-0.2187
27481.0,-2.4253,0.5674,11.3174,-0.3102,-1.1653,-0.2171
27491.0,-2.3296,0.4405,10.7739,-0.3725,-1.193,-0.2341
27501.0,-2.2338,0.2298,10.6279,-0.4422,-1.1797,-0.2618
27511.0,-2.0542,0.1245,10.5704,-0.4848,-1.1595,-0.3001
27521.0,-1.9106,0.1939,10.6159,-0.5034,-1.1478,-0.3443
27531.0,-1.8196,0.4286,10.5704,-0.4821,-1.1584,-0.373
27541.0,-1.719,0.6967,10.4674,-0.4262,-1.1627,-0.3778
27551.0,-1.743,0.8978,10.1945,-0.3427,-1.1536,-0.3528
27561.0,-1.5945,0.9337,10.0197,-0.248,-1.1233,-0.306
27571.0,-1.4629,0.814,9.991,-0.1298,-1.0504,-0.2517
27581.0,-1.2306,0.6464,10.0173,-0.0447,-0.9993,-0.2097
27591.0,-1.0774,0.6081,10.0724,-0.0229,-0.9887,-0.1942
27601.0,-0.905,0.6129,10.1634,-0.0537,-0.9966,-0.1942
27611.0,-0.8188,0.7183,10.1586,-0.107,-1.0296,-0.199
27621.0,-0.8188,0.759,10.2975,-0.1799,-1.0876,-0.2001
27631.0,-0.7518,0.9122,10.1754,-0.1607,-1.1073,-0.1793
27641.0,-0.6967,0.8356,10.2113,-0.0724,-1.0733,-0.1383
27651.0,-0.6249,0.6919,10.2783,0.0388,-1.0445,-0.0952
27661.0,-0.3735,0.5962,10.2999,0.133,-1.0355,-0.066
27671.0,-0.1197,0.7015,10.2711,0.2102,-1.0376,-0.0548
27681.0,0.0192,0.9122,10.058,0.1974,-1.0866,-0.0495
27691.0,0.146,1.0965,9.6534,0.0788,-1.1749,-0.0426
27701.0,0.2658,1.0582,9.3326,-0.0937,-1.2542,-0.0293
27711.0,0.2753,0.8523,9.153,-0.2421,-1.2914,-0.0138
27721.0,0.4094,0.6464,9.2392,-0.2916,-1.2717,-0.0016
27731.0,0.5602,0.5555,9.347,-0.2027,-1.1866,0.0165
27741.0,0.6033,0.4262,9.4188,-0.0883,-1.1307,0.0362
27751.0,0.8045,0.328,9.2799,-0.0186,-1.1446,0.0436
27761.0,1.0127,0.2562,8.9567,0.0197,-1.1568,0.0394
27771.0,1.2498,0.2346,8.4707,0.0511,-1.1435,0.0282
27781.0,1.4245,0.2634,8.0469,0.058,-1.0988,0.0085
27791.0,1.6209,0.4597,7.7285,0.041,-1.0179,-0.0133
27801.0,1.6592,0.5578,7.6447,-0.0266,-0.9514,-0.0346
27811.0,1.7478,0.7207,7.5274,-0.0899,-0.9147,-0.0463
27821.0,1.9369,0.9122,7.2616,-0.0835,-0.8471,-0.0399
27831.0,1.9992,1.0702,7.1443,-0.0543,-0.7444,-0.0154
27841.0,2.0782,1.257,6.9049,-0.0117,-0.6407,0.0181
27851.0,2.0758,1.3791,6.6702,0.0053,-0.5428,0.0617
27861.0,1.9776,1.3838,6.4691,0.0128,-0.4395,0.1176
27871.0,2.0925,1.2498,6.2632,0.0399,-0.3246,0.1809
27881.0,2.1931,1.0415,5.964,0.0718,-0.1772,0.2363
27891.0,2.2242,0.7949,5.7245,0.074,-0.0138,0.274
27901.0,2.3104,0.5555,5.6192,0.0436,0.1538,0.2884
27911.0,2.2721,0.4118,5.6096,0.0165,0.3501,0.282
27921.0,2.1069,0.4238,5.7796,-0.0064,0.5614,0.2682
27931.0,1.8818,0.3304,6.2297,-0.0367,0.7673,0.2581
27941.0,1.7238,0.1796,6.7876,-0.0559,0.928,0.2533
27951.0,1.6712,0.0479,7.4268,-0.0351,1.0658,0.2496
27961.0,1.4964,-0.0335,8.0589,0.0117,1.1765,0.2437
27971.0,1.549,-0.1532,8.6574,0.0718,1.2483,0.241
27981.0,1.5658,-0.2801,9.1459,0.1208,1.2627,0.224
27991.0,1.494,-0.3328,9.256,0.1431,1.234,0.1916
28001.0,1.3767,-0.2274,9.2105,0.1282,1.2111,0.1479
28011.0,1.2546,-0.0862,9.153,0.0543,1.1973,0.1075
28021.0,1.1013,0.0072,9.2201,-0.0612,1.1882,0.0761
28031.0,0.7757,0.0263,9.414,-0.1825,1.1664,0.058
28041.0,0.6919,-0.0383,10.0054,-0.2325,1.168,0.0532
28051.0,0.5602,0.0527,10.3597,-0.1144,1.2122,0.066
28061.0,0.3687,0.103,10.4507,0.0447,1.2297,0.091
28071.0,0.2059,0.1149,10.3501,0.1634,1.2196,0.1155
28081.0,0.1197,0.1077,10.2831,0.24,1.234,0.1298
28091.0,-0.067,0.0239,10.1754,0.2565,1.2457,0.1368
28101.0,-0.2155,-0.2011,10.2352,0.2288,1.2457,0.1378
28111.0,-0.2059,-0.4405,10.1873,0.1995,1.2409,0.1261
28121.0,-0.2203,-0.7183,9.9144,0.1602,1.2425,0.0947
28131.0,-0.34,-0.9457,9.663,0.0921,1.2664,0.0383
28141.0,-0.5315,-1.1372,9.6031,0.0261,1.3292,-0.0351
28151.0,-0.8523,-1.2737,9.8426,-0.0165,1.4239,-0.1219
28161.0,-1.1827,-1.2977,10.6303,0.0149,1.5389,-0.2097
28171.0,-1.391,-0.984,11.7627,0.2017,1.6719,-0.2836
28181.0,-1.652,-0.3926,12.5839,0.4879,1.7389,-0.3288
28191.0,-1.7765,0.146,13.0508,0.6907,1.6639,-0.3512
28201.0,-1.8818,0.7422,13.0292,0.8125,1.5314,-0.3539
28211.0,-1.9513,1.1732,12.8617,0.8482,1.4181,-0.3384
28221.0,-2.1141,1.4341,12.6605,0.7865,1.3159,-0.3161
28231.0,-2.2745,1.4868,12.5145,0.6167,1.1898,-0.2975
28241.0,-2.5211,1.257,12.5073,0.4071,1.0813,-0.2826
28251.0,-2.5809,0.6919,12.7635,0.2299,1.002,-0.2799
28261.0,-2.5379,0.2059,12.9311,0.1304,0.9392,-0.3129
28271.0,-2.6695,-0.1796,13.4075,0.0814,0.9088,-0.3837
28281.0,-2.7414,-0.1197,13.7164,0.0894,0.8631,-0.4789
28291.0,-2.9161,0.2873,14.0971,0.1086,0.7998,-0.5763
28301.0,-3.1268,0.8188,14.4538,0.1128,0.7066,-0.6513
28311.0,-3.3327,1.3743,14.6597,0.0921,0.5614,-0.6917
28321.0,-3.5721,1.9321,14.8129,0.0601,0.4007,-0.6965
28331.0,-3.6583,2.2577,15.0978,0.0346,0.2549,-0.6625
28341.0,-3.644,2.5642,15.2128,0.0426,0.0894,-0.6039
28351.0,-3.7062,2.715,15.2678,0.0176,-0.1107,-0.53
28361.0,-3.6368,2.6671,15.1146,-0.0213,-0.3326,-0.448
28371.0,-3.5267,2.5115,14.7243,-0.0649,-0.5465,-0.3746
28381.0,-3.4812,2.3487,14.1282,-0.1048,-0.7322,-0.315
28391.0,-3.3375,2.1691,13.6613,-0.1634,-0.8806,-0.2708
28401.0,-3.3136,1.9369,13.2806,-0.2182,-0.994,-0.2325
28411.0,-3.2537,1.6233,12.9454,-0.2458,-1.0871,-0.2027
28421.0,-3.1005,1.312,12.5911,-0.241,-1.1568,-0.1846
28431.0,-2.8299,0.984,12.4211,-0.2081,-1.1818,-0.1825
28441.0,-2.636,0.759,12.2655,-0.1639,-1.2047,-0.207
28451.0,-2.3894,0.7877,11.9734,-0.1618,-1.2707,-0.2522
28461.0,-2.241,0.9553,11.6167,-0.2293,-1.3516,-0.3044
28471.0,-2.0758,1.0918,11.552,-0.3453,-1.4287,-0.3491
28481.0,-1.8938,1.3599,11.4275,-0.423,-1.4851,-0.3805
28491.0,-1.8747,1.6281,11.4994,-0.4949,-1.5437,-0.3911
28501.0,-1.7358,1.7382,11.4706,-0.5475,-1.6437,-0.373
28511.0,-1.5203,1.7526,11.3557,-0.5587,-1.7416,-0.3368
28521.0,-1.312,1.6855,11.0253,-0.5289,-1.8214,-0.2943
28531.0,-1.0918,1.5945,10.4962,-0.4853,-1.8949,-0.2496
28541.0,-0.905,1.4341,9.9168,-0.4624,-1.9353,-0.2097
28551.0,-0.5578,1.1803,9.4595,-0.4342,-1.9268,-0.1799
28561.0,-0.2562,1.0726,8.9591,-0.3911,-1.8789,-0.1607
28571.0,-0.0287,0.9194,8.7604,-0.3821,-1.8198,-0.1538
28581.0,0.1915,0.905,8.5425,-0.3778,-1.7661,-0.1564
28591.0,0.4549,0.9625,8.3031,-0.3948,-1.7193,-0.1586
28601.0,0.5722,0.8882,8.2025,-0.4342,-1.6746,-0.1538
28611.0,0.7997,0.723,8.102,-0.4571,-1.6272,-0.1453
28621.0,1.0965,0.6057,7.8745,-0.4512,-1.5612,-0.1442
28631.0,1.3599,0.4812,7.6878,-0.4683,-1.4942,-0.1559
28641.0,1.6017,0.4597,7.5537,-0.5358,-1.4463,-0.1804
28651.0,1.7693,0.5411,7.355,-0.6556,-1.433,-0.2134
28661.0,1.9369,0.6105,7.1108,-0.812,-1.4521,-0.2432
28671.0,2.0399,0.68,6.7971,-0.9472,-1.458,-0.265
28681.0,2.1859,0.7661,6.2848,-1.028,-1.4282,-0.2735
28691.0,2.3822,0.826,5.9783,-1.069,-1.3431,-0.2692
28701.0,2.4541,0.9122,5.6743,-1.0238,-1.2074,-0.2469
28711.0,2.3918,0.9074,5.4037,-0.9073,-1.0259,-0.1979
28721.0,2.4708,0.7278,5.193,-0.7237,-0.8083,-0.1224
28731.0,2.6695,0.4477,5.1475,-0.5284,-0.5678,-0.0479
28741.0,2.9305,0.182,5.2672,-0.3714,-0.3432,0.0
28751.0,3.0095,0.1006,5.4492,-0.2586,-0.1618,0.0202
28761.0,3.0885,0.0646,5.612,-0.1852,-0.0463,0.0309
28771.0,3.1915,0.1101,5.3415,-0.0873,0.0553,0.0463
28781.0,3.1987,0.1891,4.9752,0.0351,0.2256,0.0665
28791.0,3.0861,0.4405,4.6304,0.1394,0.4677,0.0894
28801.0,2.8323,0.6967,4.6687,0.1878,0.745,0.116
28811.0,2.4972,0.9385,5.2385,0.199,1.0217,0.1591
28821.0,2.2386,0.905,6.1699,0.2347,1.2717,0.2251
28831.0,1.968,0.8116,7.1682,0.3124,1.4527,0.2959
28841.0,1.8747,0.7446,7.9895,0.3932,1.533,0.3576
28851.0,1.8603,0.7709,8.442,0.4778,1.5532,0.4103
28861.0,1.6831,0.7518,8.7173,0.5305,1.5453,0.4566
28871.0,1.4988,0.8092,8.667,0.571,1.532,0.4991
28881.0,1.3096,0.8212,8.5928,0.5784,1.5304,0.5385
28891.0,1.1013,0.7901,8.4922,0.5284,1.5272,0.5731
28901.0,0.9098,0.7757,8.2887,0.4182,1.5218,0.6008
28911.0,0.6153,0.5962,8.3127,0.2352,1.5069,0.6204
28921.0,0.5195,0.3065,8.4084,0.0974,1.5096,0.638
28931.0,0.3472,0.2155,8.4491,0.0564,1.583,0.6502
28941.0,0.0718,0.261,8.6503,0.0633,1.706,0.6604
28951.0,-0.2346,0.5076,8.9112,0.067,1.8177,0.6795
28961.0,-0.6488,0.6009,9.6965,0.0596,1.9124,0.7231
28971.0,-0.9625,0.5291,10.4459,0.1309,1.9619,0.7966
28981.0,-1.1588,0.3352,10.908,0.2905,1.9837,0.8796
28991.0,-1.4485,-0.0694,11.3294,0.4885,2.0183,0.9557
29001.0,-1.5467,-0.6033,11.7843,0.7354,2.0869,1.0046
29011.0,-1.5897,-0.9625,12.1051,0.9732,2.1285,0.9935
29021.0,-1.5634,-1.1492,12.2775,1.1025,2.1013,0.9237
29031.0,-1.6137,-1.1396,12.5073,1.1084,2.0316,0.8147
29041.0,-1.7885,-1.0247,12.706,1.0211,1.897,0.6827
29051.0,-2.1284,-0.8547,12.5935,0.8828,1.7139,0.5497
29061.0,-2.3631,-0.9122,12.5025,0.779,1.6017,0.4358
29071.0,-2.3727,-0.9625,12.5863,0.7646,1.6027,0.3257
29081.0,-2.545,-0.7733,12.9885,0.746,1.6373,0.1974
29091.0,-2.8347,-0.4764,13.9079,0.6923,1.6198,0.0681
29101.0,-3.0837,0.1077,14.6286,0.6737,1.5181,-0.042
29111.0,-3.2441,0.7901,15.1266,0.6997,1.3697,-0.116
29121.0,-3.4165,1.5634,15.3875,0.7333,1.2015,-0.1532
29131.0,-3.486,2.3224,15.2295,0.7364,1.0009,-0.149
29141.0,-3.62,2.7581,15.1098,0.6465,0.7955,-0.1112
29151.0,-3.5721,2.9209,14.9231,0.5199,0.6119,-0.0575
29161.0,-3.6009,2.7438,14.9398,0.3475,0.4464,-0.0069
29171.0,-3.5889,2.411,14.9039,0.1447,0.2379,0.0197
29181.0,-3.5147,2.1045,14.8488,-0.0511,0.0229,0.0133
29191.0,-3.4955,1.889,14.7626,-0.2006,-0.1596,-0.0074
29201.0,-3.4213,1.8196,14.5544,-0.2666,-0.3076,-0.033
29211.0,-3.2872,1.9465,14.3796,-0.2857,-0.4294,-0.0521
29221.0,-3.158,2.047,14.0276,-0.306,-0.5539,-0.058
29231.0,-3.0071,1.9896,13.8864,-0.3464,-0.6651,-0.0575
29241.0,-2.8563,1.9585,13.5703,-0.3735,-0.7859,-0.0548
29251.0,-2.6336,1.8603,13.2256,-0.4145,-0.9269,-0.0532
29261.0,-2.478,1.7885,12.7922,-0.439,-1.035,-0.0585
29271.0,-2.2936,1.7095,12.299,-0.4523,-1.118,-0.0628
29281.0,-2.1332,1.7071,11.734,-0.4613,-1.1712,-0.0718
29291.0,-1.9848,1.7166,11.4132,-0.4693,-1.1717,-0.0825
29301.0,-1.8004,1.8531,11.1905,-0.4661,-1.1568,-0.091
29311.0,-1.7166,1.9824,11.0684,-0.4672,-1.1478,-0.0883
29321.0,-1.6161,1.9489,11.1211,-0.489,-1.1488,-0.0729
29331.0,-1.5012,1.9776,10.987,-0.5071,-1.1765,-0.0591
29341.0,-1.3384,1.98,11.0181,-0.5353,-1.1962,-0.0468
29351.0,-1.2354,2.0135,11.1737,-0.5412,-1.2063,-0.0271
29361.0,-1.1157,2.0375,11.145,-0.5209,-1.2425,0.0016
29371.0,-1.0199,1.9393,10.963,-0.506,-1.2978,0.0351
29381.0,-0.9098,1.7885,10.659,-0.48,-1.3367,0.0676
29391.0,-0.735,1.6999,10.3238,-0.4523,-1.3505,0.0921
29401.0,-0.5555,1.6568,10.1969,-0.4241,-1.3175,0.1075
29411.0,-0.5028,1.6424,10.0963,-0.4119,-1.2851,0.1187
29421.0,-0.3591,1.6688,10.1035,-0.4411,-1.2898,0.1245
29431.0,-0.316,1.7526,10.0868,-0.4869,-1.3117,0.1341
29441.0,-0.2346,1.7071,9.9479,-0.5491,-1.3633,0.1506
29451.0,-0.0838,1.585,9.7564,-0.5938,-1.4133,0.1708
29461.0,0.1173,1.5323,9.4379,-0.5997,-1.4351,0.1921
29471.0,0.249,1.4605,9.1051,-0.5954,-1.4372,0.2134
29481.0,0.3974,1.4581,8.6239,-0.6135,-1.4335,0.2347
29491.0,0.5411,1.3168,8.3294,-0.6726,-1.409,0.2575
29501.0,0.6728,1.1157,8.0182,-0.7513,-1.3771,0.2778
29511.0,0.8547,0.8739,7.8841,-0.837,-1.3287,0.2921
29521.0,0.9194,0.5674,8.2025,-0.9211,-1.2781,0.2964
29531.0,1.0965,0.3926,8.4132,-0.9222,-1.2616,0.2948
29541.0,1.2833,0.3065,8.3175,-0.8322,-1.2632,0.3038
29551.0,1.4796,0.1532,7.9344,-0.7008,-1.2542,0.3257
29561.0,1.6831,-0.0287,7.5082,-0.5497,-1.1994,0.3448
29571.0,1.8148,-0.1772,7.0533,-0.4299,-1.1371,0.3517
29581.0,1.992,-0.2203,6.3829,-0.3496,-1.0531,0.3469
29591.0,2.15,-0.2586,6.0406,-0.3427,-0.9296,0.332
29601.0,2.2386,-0.2777,5.8107,-0.3805,-0.8003,0.3145
29611.0,2.2936,-0.3017,5.6671,-0.4246,-0.6662,0.2969
29621.0,2.4301,-0.2705,5.6216,-0.4369,-0.5082,0.2884
29631.0,2.5139,-0.2203,5.7245,-0.3991,-0.3097,0.2921
29641.0,2.4541,-0.2466,6.1938,-0.3544,-0.1091,0.307
29651.0,2.545,-0.328,6.62,-0.2831,0.0362,0.3294
29661.0,2.5402,-0.4669,6.9073,-0.1809,0.1517,0.3501
29671.0,2.5331,-0.6201,7.0126,-0.0857,0.2437,0.3645
29681.0,2.6552,-0.8164,6.8474,-0.0314,0.3182,0.3629
29691.0,2.4924,-0.9864,6.9288,-0.0388,0.3964,0.3379
29701.0,2.4852,-0.9864,6.8785,-0.0388,0.4917,0.3006
29711.0,2.4373,-0.8882,7.2185,-0.0293,0.6401,0.2581
29721.0,2.1955,-0.6584,7.6207,0.0037,0.7764,0.2331
29731.0,2.0494,-0.5363,7.9703,0.0463,0.8578,0.2277
29741.0,1.9489,-0.407,8.0182,0.1059,0.9344,0.2373
29751.0,1.8028,-0.4022,8.0924,0.1144,1.0036,0.2522
29761.0,1.6712,-0.5171,8.2337,0.0777,1.0562,0.2634
29771.0,1.4629,-0.6177,8.3031,0.0357,1.1148,0.2655
29781.0,1.3001,-0.8116,8.6933,0.0101,1.1978,0.2586
29791.0,1.2546,-0.8859,9.1315,0.0559,1.3133,0.249
29801.0,1.0678,-0.9074,9.9168,0.1373,1.4319,0.2336
29811.0,0.9529,-0.6919,10.4315,0.2506,1.4931,0.2203
29821.0,0.7254,-0.4549,10.8146,0.3134,1.4942,0.2144
29831.0,0.5914,-0.237,11.1163,0.2788,1.4324,0.215
29841.0,0.5339,-0.1556,11.3389,0.1639,1.3271,0.2198
29851.0,0.4214,-0.17,11.2887,0.0106,1.1877,0.2272
29861.0,0.3424,-0.4429,11.1546,-0.1618,1.0557,0.2368
29871.0,0.2825,-0.7901,11.157,-0.2645,0.9993,0.2384
29881.0,0.0646,-0.9673,11.2144,-0.2767,0.9982,0.2288
29891.0,0.0503,-1.1468,11.5017,-0.2261,1.0158,0.2128
29901.0,-0.0551,-1.166,11.7507,-0.1123,1.0323,0.1969
29911.0,-0.0215,-0.9984,11.7962,-0.0048,0.9966,0.1745
29921.0,-0.0383,-0.8021,11.5951,0.0484,0.9179,0.157
29931.0,-0.0072,-0.723,11.224,0.0388,0.828,0.149
29941.0,-0.0527,-0.7973,10.7021,0.0202,0.7737,0.1447
29951.0,-0.1532,-0.9792,10.2544,0.016,0.8046,0.1341
29961.0,-0.1748,-1.2091,10.3621,0.0277,0.9142,0.1128
29971.0,-0.3256,-1.3144,10.7404,0.0708,1.0286,0.0761
29981.0,-0.4884,-1.3982,11.1713,0.1032,1.06,0.0287
29991.0,-0.4884,-1.3312,11.224,0.1527,1.0397,-0.0261
30001.0,-0.6273,-1.1612,11.1306,0.1878,1.0413,-0.0803
30011.0,-0.7757,-0.9744,10.9415,0.1761,1.0546,-0.1309
30021.0,-0.9792,-0.7661,10.7356,0.0963,1.0749,-0.1777
30031.0,-1.2929,-0.8284,10.9056,-0.0298,1.1222,-0.2123
30041.0,-1.3503,-0.9673,11.5209,-0.0862,1.2132,-0.2432
30051.0,-1.5275,-0.8667,12.7994,-0.0149,1.3617,-0.2719
30061.0,-1.7861,-0.7183,14.109,0.0809,1.367,-0.29
30071.0,-1.7693,-0.5171,14.9398,0.1852,1.2137,-0.298
30081.0,-1.7717,-0.2562,15.2702,0.2783,1.0201,-0.2948
30091.0,-1.8723,-0.2251,15.3947,0.2719,0.7641,-0.2905
30101.0,-2.0111,-0.1963,15.0571,0.1937,0.4651,-0.3022
30111.0,-1.9992,-0.0407,14.5927,0.0793,0.2155,-0.3278
30121.0,-2.083,0.158,14.3868,-0.0255,0.0511,-0.3485
30131.0,-2.1811,0.3089,14.2718,-0.1123,-0.0926,-0.3549
30141.0,-2.1955,0.4334,14.0372,-0.166,-0.241,-0.3475
30151.0,-2.1356,0.5219,13.6469,-0.1985,-0.3773,-0.3241
30161.0,-2.0973,0.5028,13.2902,-0.2097,-0.4576,-0.29
30171.0,-2.0758,0.4022,13.113,-0.1868,-0.5055,-0.2512
30181.0,-1.9561,0.2921,12.955,-0.1426,-0.5518,-0.2139
30191.0,-1.8579,0.1939,12.7802,-0.1091,-0.6045,-0.1868
30201.0,-1.7573,0.1006,12.5911,-0.1101,-0.6917,-0.1708
30211.0,-1.7047,-0.0192,12.287,-0.1181,-0.7902,-0.1634
30221.0,-1.6017,-0.0766,11.8393,-0.1171,-0.8455,-0.166
30231.0,-1.5083,-0.1844,11.6238,-0.1506,-0.8631,-0.1809
30241.0,-1.4006,-0.2227,11.4563,-0.1889,-0.8844,-0.2075
30251.0,-1.3408,-0.1149,11.4419,-0.2139,-0.8945,-0.2389
30261.0,-1.4078,0.158,11.5448,-0.1926,-0.8759,-0.2565
30271.0,-1.4389,0.4286,11.9471,-0.1378,-0.8493,-0.2458
30281.0,-1.4174,0.6919,12.3182,-0.0298,-0.8301,-0.207
30291.0,-1.4293,0.747,12.7395,0.0431,-0.8939,-0.1485
30301.0,-1.2881,0.7039,12.5696,0.0814,-1.0509,-0.0905
30311.0,-1.0654,0.5986,12.1171,0.0633,-1.2036,-0.0479
30321.0,-0.9218,0.5028,11.6789,0.0048,-1.3079,-0.0239
30331.0,-0.7901,0.4645,11.2097,-0.0921,-1.3984,-0.0192
30341.0,-0.6129,0.5267,10.7931,-0.2256,-1.4782,-0.0245
30351.0,-0.5387,0.5363,10.5728,-0.3448,-1.5165,-0.025
30361.0,-0.3903,0.5219,10.6326,-0.397,-1.5123,-0.0154
30371.0,-0.2442,0.6033,10.4962,-0.4103,-1.5309,0.0011
30381.0,-0.0886,0.5842,10.3956,-0.4555,-1.6038,0.0239
30391.0,0.1676,0.5315,9.8545,-0.4736,-1.6836,0.0511
30401.0,0.4453,0.3998,9.5241,-0.4794,-1.699,0.0777
30411.0,0.7398,0.395,9.074,-0.4635,-1.6772,0.0968
30421.0,0.9577,0.4573,8.6311,-0.4879,-1.6783,0.1117
30431.0,1.1923,0.4764,8.2073,-0.5252,-1.6506,0.133
30441.0,1.3144,0.5243,7.9751,-0.5561,-1.5878,0.1655
30451.0,1.5036,0.3735,7.7883,-0.6087,-1.5639,0.2033
30461.0,1.7214,0.1652,7.3933,-0.6556,-1.566,0.2395
30471.0,1.9441,-0.0575,7.0222,-0.6816,-1.5495,0.2708
30481.0,2.2314,-0.3783,6.608,-0.6625,-1.4862,0.2959
30491.0,2.4588,-0.6177,6.3877,-0.5859,-1.3665,0.3054
30501.0,2.5977,-0.6153,6.177,-0.4954,-1.2382,0.3022
30511.0,2.7557,-0.5698,5.9711,-0.4411,-1.1456,0.3001
30521.0,2.8874,-0.4621,5.6934,-0.4023,-1.0775,0.307
30531.0,2.9712,-0.4262,5.2241,-0.3629,-0.9956,0.3304
30541.0,3.1795,-0.4788,4.6519,-0.3193,-0.8711,0.3634
30551.0,3.3758,-0.6369,4.1875,-0.2953,-0.704,0.3938
30561.0,3.4644,-0.8739,3.8762,-0.2703,-0.4778,0.4193
30571.0,3.5051,-1.1492,3.9528,-0.1995,-0.182,0.4379
30581.0,3.5123,-1.2977,4.1994,-0.1128,0.1208,0.4422
30591.0,3.4357,-1.4581,4.8866,-0.0383,0.3916,0.4326
30601.0,3.3591,-1.4748,5.5354,0.0697,0.6151,0.4182
30611.0,3.2633,-1.4557,6.1962,0.1878,0.7652,0.4071
30621.0,3.2657,-1.47,6.3997,0.2783,0.8365,0.4007
30631.0,3.3016,-1.6496,6.3159,0.3097,0.8977,0.3842
30641.0,3.2202,-1.7214,6.1483,0.3257,1.0179,0.3453
30651.0,2.9449,-1.6975,6.347,0.2895,1.1712,0.2895
30661.0,2.5331,-1.6831,6.7493,0.2661,1.3297,0.2389
30671.0,2.1213,-1.7047,7.75,0.3139,1.524,0.1958
30681.0,2.0016,-1.4605,8.6886,0.4656,1.7044,0.166
30691.0,1.7573,-1.2713,9.7612,0.5624,1.7315,0.149
30701.0,1.6927,-1.142,10.1131,0.6242,1.6245,0.1426
30711.0,1.6065,-1.0894,10.0365,0.6843,1.5367,0.1389
30721.0,1.5419,-1.1229,9.9192,0.7173,1.5022,0.1309
30731.0,1.3479,-1.1636,9.8569,0.7205,1.5027,0.1059
30741.0,1.1492,-1.1995,9.8593,0.6944,1.5048,0.0686
30751.0,0.9457,-1.2737,10.0293,0.6582,1.4862,0.0229
30761.0,0.7877,-1.0798,10.2017,0.6768,1.4904,-0.0298
30771.0,0.577,-0.7326,10.3741,0.7184,1.4873,-0.0713
30781.0,0.5171,-0.5291,10.2807,0.754,1.4436,-0.0803
30791.0,0.4238,-0.5435,9.9838,0.8019,1.4436,-0.0756
30801.0,0.2562,-0.5962,9.4954,0.8556,1.516,-0.0819
30811.0,0.0838,-0.6584,8.9998,0.8189,1.5969,-0.1155
30821.0,-0.2107,-0.6728,8.7484,0.6758,1.674,-0.1751
30831.0,-0.7063,-0.5387,9.0716,0.5545,1.8108,-0.2469
30841.0,-1.0606,-0.0168,9.7085,0.588,2.0279,-0.3038
30851.0,-1.4868,0.8236,10.5536,0.7045,2.2482,-0.315
30861.0,-1.9393,1.3455,11.4754,0.7487,2.344,-0.2708
30871.0,-2.0758,1.6903,11.9327,0.7364,2.3333,-0.1937
30881.0,-2.1739,1.664,12.1554,0.6226,2.2652,-0.1101
30891.0,-2.4445,1.2258,12.311,0.398,2.162,-0.049
30901.0,-2.727,0.6704,13.1537,0.1623,2.1253,-0.0266
30911.0,-2.8778,0.3041,14.9638,0.0665,2.1535,-0.0346
30921.0,-3.0789,0.3472,16.8145,0.0825,2.0449,-0.0527
30931.0,-3.1436,0.4334,17.9661,0.0947,1.7038,-0.066
30941.0,-3.1412,0.4621,18.2438,0.1155,1.2563,-0.0644
30951.0,-3.0861,0.4166,17.6453,0.1506,0.8285,-0.0569
30961.0,-3.1005,0.3926,16.6038,0.157,0.4672,-0.058
30971.0,-2.9975,0.3041,15.6126,0.1022,0.1921,-0.0718
30981.0,-3.0239,0.1963,14.7267,0.0628,0.0245,-0.0862
30991.0,-3.0406,-0.1341,14.1402,0.0442,-0.0654,-0.1011
31001.0,-2.9377,-0.3926,13.6924,0.0585,-0.1075,-0.1309
31011.0,-2.7964,-0.4573,13.6565,0.0612,-0.1043,-0.1846
31021.0,-2.7749,-0.316,13.6972,0.0367,-0.1341,-0.2469
31031.0,-2.7078,-0.1867,13.6805,-0.0442,-0.2442,-0.3086
31041.0,-2.6887,-0.1293,13.5105,-0.1761,-0.3826,-0.3682
31051.0,-2.7222,-0.0455,13.4674,-0.3294,-0.5124,-0.4262
31061.0,-2.8754,0.0431,13.5847,-0.4252,-0.6119,-0.4741
31071.0,-2.9712,0.3496,14.0683,-0.3757,-0.6529,-0.5013
31081.0,-3.0765,0.7973,14.2694,-0.2043,-0.7178,-0.489
31091.0,-3.067,1.1253,14.2311,-0.0255,-0.8556,-0.4422
31101.0,-2.885,1.4629,13.6541,0.1304,-1.019,-0.3751
31111.0,-2.7821,1.5036,12.9167,0.1995,-1.1675,-0.3017
31121.0,-2.6743,1.415,12.1817,0.2075,-1.267,-0.2416
31131.0,-2.6312,1.3144,11.7148,0.1873,-1.3,-0.2017
31141.0,-2.466,1.2234,11.6837,0.1469,-1.2989,-0.1799
31151.0,-2.2769,1.2713,11.6741,0.099,-1.3101,-0.1724
31161.0,-2.1093,1.3599,11.8298,-0.0181,-1.3862,-0.1745
31171.0,-1.9393,1.4222,11.8106,-0.1479,-1.5208,-0.174
31181.0,-1.6352,1.3671,11.6334,-0.2336,-1.6389,-0.1628
31191.0,-1.324,1.2785,11.3342,-0.2645,-1.7251,-0.1479
31201.0,-1.0726,1.233,10.9798,-0.2959,-1.8145,-0.1383
31211.0,-0.6632,1.1947,10.726,-0.3049,-1.8768,-0.1266
31221.0,-0.4453,1.2426,10.2975,-0.2794,-1.922,-0.1107
31231.0,-0.2753,1.1899,9.7324,-0.3054,-2.0236,-0.0926
31241.0,0.0479,1.1013,8.8633,-0.3421,-2.1093,-0.0756
31251.0,0.3903,0.9409,8.09,-0.3597,-2.0976,-0.0623
31261.0,0.8116,0.7925,7.3765,-0.3874,-2.0401,-0.0585
31271.0,1.2163,0.6919,6.7924,-0.4459,-1.9656,-0.0718
31281.0,1.5658,0.6057,6.347,-0.5263,-1.8709,-0.0942
31291.0,1.7909,0.5842,6.1124,-0.5646,-1.7405,-0.1133
31301.0,1.9154,0.5962,6.0023,-0.5305,-1.583,-0.1187
31311.0,2.0016,0.6321,5.8586,-0.4518,-1.4287,-0.1101
31321.0,2.2146,0.7566,5.636,-0.3315,-1.2632,-0.0835
31331.0,2.3272,0.8116,5.5809,-0.2357,-1.1031,-0.0447
31341.0,2.4732,0.8452,5.351,-0.1841,-1.0073,-0.0064
31351.0,2.7007,0.8116,4.8483,-0.1809,-0.9237,0.0261
31361.0,2.7677,0.7566,4.4628,-0.2166,-0.8056,0.05
31371.0,2.7845,0.7063,4.0989,-0.2623,-0.6556,0.0665
31381.0,2.7366,0.6632,3.7709,-0.2996,-0.473,0.0841
31391.0,2.5043,0.5914,3.711,-0.3097,-0.2368,0.1101
31401.0,2.4301,0.2801,4.1659,-0.2522,0.0452,0.1485
31411.0,2.5618,0.1006,4.6639,-0.0772,0.3501,0.1804
31421.0,2.5331,0.0024,5.3223,0.1086,0.6215,0.1974
31431.0,2.4995,0.079,5.624,0.2517,0.7934,0.2006
31441.0,2.4157,0.2131,5.8586,0.332,0.9285,0.1937
31451.0,2.2649,0.3687,6.043,0.3634,1.0621,0.1921
31461.0,1.9752,0.4645,6.2201,0.3257,1.1792,0.1937
31471.0,1.6759,0.4022,6.6655,0.2464,1.2882,0.1979
31481.0,1.3647,0.4022,7.2951,0.2134,1.4282,0.2059
31491.0,1.336,0.328,8.2672,0.2187,1.5543,0.2187
31501.0,1.3096,0.2179,9.0381,0.2496,1.5825,0.2288
31511.0,1.2737,0.1389,9.4188,0.2905,1.5394,0.2288
31521.0,1.1923,0.0958,9.5529,0.3459,1.5155,0.2203
31531.0,0.9649,0.1437,9.7324,0.4124,1.5272,0.207
31541.0,0.6919,0.2251,9.9264,0.4704,1.5245,0.1937
31551.0,0.4717,0.4238,9.8785,0.5348,1.5091,0.1921
31561.0,0.2849,0.4693,10.0676,0.5444,1.5027,0.2011
31571.0,0.2466,0.2658,10.1945,0.4933,1.4319,0.2059
31581.0,0.2705,0.0144,9.8474,0.4214,1.3207,0.1884
31591.0,0.1844,-0.158,9.4667,0.3746,1.3106,0.1495
31601.0,-0.1245,-0.17,9.3637,0.3741,1.4223,0.0931
31611.0,-0.3759,0.0168,9.6367,0.3507,1.5453,0.0303
31621.0,-0.6704,0.2705,10.2208,0.3081,1.6192,-0.0202
31631.0,-1.0247,0.4908,10.7548,0.2943,1.6394,-0.0442
31641.0,-1.324,0.6321,11.2743,0.3294,1.6213,-0.0367
31651.0,-1.4533,0.5794,11.6167,0.4464,1.5953,-0.0117
31661.0,-1.4485,0.3998,11.5855,0.6066,1.5841,0.0096
31671.0,-1.4509,0.2825,11.4826,0.7466,1.616,-0.0016
31681.0,-1.6352,0.3663,11.5185,0.8062,1.6522,-0.0511
31691.0,-1.7454,0.6967,11.4323,0.737,1.6416,-0.1224
31701.0,-1.9201,1.0487,11.3246,0.4981,1.5735,-0.2001
31711.0,-2.162,1.2522,11.3892,0.1511,1.4787,-0.2613
31721.0,-2.5714,1.2498,12.0859,-0.1735,1.4223,-0.2996
31731.0,-2.7749,1.2354,13.1202,-0.2788,1.4394,-0.299
31741.0,-2.9473,1.1301,14.2527,-0.223,1.4213,-0.2703
31751.0,-2.9305,0.9385,15.05,-0.0777,1.3085,-0.232
31761.0,-2.8395,0.8882,15.2774,0.125,1.1478,-0.2059
31771.0,-2.7964,0.929,14.9446,0.2794,0.961,-0.1958
31781.0,-2.7869,0.9625,14.3724,0.3161,0.7705,-0.2043
31791.0,-2.9473,1.1061,13.6446,0.2251,0.597,-0.2325
31801.0,-3.0358,1.1875,13.5584,0.0665,0.4922,-0.2634
31811.0,-3.1532,1.3551,13.6733,-0.0112,0.4656,-0.281
31821.0,-3.3303,1.3958,14.133,-0.0819,0.415,-0.2836
31831.0,-3.2657,1.2258,14.528,-0.1394,0.2969,-0.2804
31841.0,-3.2657,1.0846,14.7459,-0.1394,0.1527,-0.2762
31851.0,-3.201,0.9457,14.6645,-0.1086,-0.0085,-0.2778
31861.0,-3.1508,0.9002,14.3604,-0.0686,-0.1596,-0.2879
31871.0,-3.1005,0.9194,13.9917,-0.0623,-0.2969,-0.3049
31881.0,-3.1005,0.8595,13.6757,-0.091,-0.4166,-0.3251
31891.0,-3.067,0.8978,13.3094,-0.1277,-0.53,-0.3496
31901.0,-2.9832,0.8763,13.0891,-0.1857,-0.6183,-0.3821
31911.0,-2.8946,1.008,12.9838,-0.2198,-0.6689,-0.4129
31921.0,-2.8347,1.0942,13.0676,-0.2724,-0.7386,-0.4395
31931.0,-2.7845,1.1612,13.0699,-0.3214,-0.8471,-0.4608
31941.0,-2.6839,1.2234,12.9167,-0.348,-0.961,-0.4715
31951.0,-2.5905,1.257,12.5743,-0.3735,-1.0781,-0.48
31961.0,-2.4373,1.2905,12.2511,-0.4156,-1.1834,-0.4853
31971.0,-2.332,1.2498,12.0045,-0.4502,-1.2563,-0.4848
31981.0,-2.1644,1.1803,11.9231,-0.439,-1.3079,-0.4794
31991.0,-2.071,1.1564,11.7244,-0.3757,-1.3452,-0.4709
32001.0,-1.9417,1.1971,11.5209,-0.3049,-1.3877,-0.4608
32011.0,-1.7861,1.2857,11.2958,-0.223,-1.4202,-0.4422
32021.0,-1.6424,1.3527,10.9463,-0.158,-1.4644,-0.4204
32031.0,-1.4174,1.3264,10.4483,-0.1458,-1.5298,-0.4012
32041.0,-1.3001,1.3647,9.7995,-0.1703,-1.5687,-0.3874
32051.0,-1.0774,1.3288,9.4834,-0.2368,-1.5602,-0.3826
32061.0,-0.8571,1.3455,9.3996,-0.2788,-1.5139,-0.3831
32071.0,-0.6967,1.5443,9.2512,-0.306,-1.4755,-0.3799
32081.0,-0.4956,1.6089,9.1459,-0.4017,-1.4889,-0.3688
32091.0,-0.3496,1.6113,8.9639,-0.505,-1.5213,-0.3507
32101.0,-0.2298,1.5179,8.7867,-0.5624,-1.5341,-0.3267
32111.0,-0.0263,1.4844,8.5018,-0.547,-1.5022,-0.2943
32121.0,0.1269,1.4389,8.248,-0.4911,-1.4234,-0.2543
32131.0,0.2849,1.3168,8.1618,-0.4193,-1.3207,-0.2134
32141.0,0.4693,1.3336,8.2504,-0.3092,-1.2031,-0.1724
32151.0,0.589,1.3862,8.181,-0.1878,-1.1111,-0.1261
32161.0,0.7398,1.3623,7.9224,-0.1352,-1.0669,-0.0772
32171.0,0.9577,1.233,7.7237,-0.1314,-1.0195,-0.0346
32181.0,1.1779,1.1253,7.3981,-0.1607,-0.9668,-0.0085
32191.0,1.3719,1.0678,7.185,-0.223,-0.9088,0.0048
32201.0,1.482,1.0894,7.0725,-0.2927,-0.829,0.0122
32211.0,1.5586,1.0965,7.094,-0.356,-0.7583,0.0218
32221.0,1.6855,1.0918,7.0533,-0.3847,-0.6854,0.0468
32231.0,1.7813,0.9361,7.1587,-0.3847,-0.5885,0.0835
32241.0,1.8962,0.6895,7.1251,-0.3783,-0.5273,0.1165
32251.0,2.0351,0.4286,6.9695,-0.3879,-0.5103,0.1346
32261.0,2.0542,0.2251,6.6391,-0.3794,-0.4768,0.1405
32271.0,2.1189,0.0862,6.1746,-0.3544,-0.3911,0.1389
32281.0,2.1141,-0.0072,5.9352,-0.3092,-0.2363,0.1288
32291.0,2.0734,0.0527,5.9783,-0.2246,-0.0261,0.1208
32301.0,2.0686,0.1365,6.1962,-0.1383,0.1804,0.1219
32311.0,2.059,0.1724,6.5912,-0.0788,0.3326,0.1314
32321.0,2.1021,0.1532,6.8187,-0.0383,0.4358,0.1431
32331.0,2.0782,0.0383,6.9599,-0.0293,0.4885,0.1511
32341.0,2.0087,-0.0599,6.8785,-0.0213,0.5454,0.1495
32351.0,1.8316,-0.103,6.8354,-0.0011,0.6566,0.1368
32361.0,1.6712,0.0,7.0437,0.0303,0.7923,0.1208
32371.0,1.5179,0.2658,7.3239,0.1043,0.945,0.1117
32381.0,1.1827,0.5794,7.7165,0.1841,1.0967,0.125
32391.0,0.9625,0.7566,8.3318,0.2517,1.2063,0.1644
32401.0,0.9146,0.7111,8.8298,0.3347,1.2749,0.2192
32411.0,0.8188,0.6009,9.0764,0.4001,1.2962,0.2645
32421.0,0.7853,0.5219,9.1291,0.4358,1.301,0.2943
32431.0,0.5483,0.316,9.3398,0.4369,1.3282,0.3092
32441.0,0.3903,0.1939,9.4044,0.4321,1.3484,0.3086
32451.0,0.2658,0.0718,9.505,0.3943,1.3691,0.2937
32461.0,0.0575,-0.0886,9.6845,0.3203,1.392,0.2645
32471.0,-0.1556,-0.2203,10.0892,0.2549,1.4175,0.2235
32481.0,-0.3496,-0.2562,10.5967,0.2549,1.4356,0.182
32491.0,-0.5578,-0.261,10.9846,0.2905,1.4282,0.1421
32501.0,-0.7614,-0.1844,11.078,0.3523,1.4,0.1054
32511.0,-0.9266,-0.1197,11.0421,0.4092,1.3755,0.0702
32521.0,-0.9697,0.067,10.7978,0.4502,1.3622,0.033
32531.0,-1.0965,0.2466,10.5872,0.4049,1.3638,-0.0043
32541.0,-1.324,0.2729,10.9056,0.2581,1.3526,-0.0436
32551.0,-1.5036,0.2897,11.3461,0.1006,1.2957,-0.0835
32561.0,-1.5945,0.2418,11.8393,0.0154,1.2473,-0.116
32571.0,-1.6137,0.261,12.232,0.041,1.2377,-0.1399
32581.0,-1.7406,0.4142,12.6438,0.1032,1.2169,-0.1639
32591.0,-1.7789,0.7015,12.6797,0.1485,1.1536,-0.182
32601.0,-1.8651,0.8978,12.6725,0.1485,1.0813,-0.1873
32611.0,-1.8651,1.087,12.4522,0.1288,1.0068,-0.1815
32621.0,-1.8723,1.0989,12.0787,0.0623,0.9413,-0.174
32631.0,-2.0423,0.9361,11.6909,-0.0521,0.8977,-0.1671
32641.0,-2.1141,0.7183,11.6167,-0.1676,0.9174,-0.1724
32651.0,-2.2434,0.5555,12.0069,-0.2613,0.9807,-0.1916
32661.0,-2.3487,0.4214,12.7252,-0.3012,1.0366,-0.2118
32671.0,-2.4038,0.4357,13.3501,-0.2682,1.0334,-0.232
32681.0,-2.4924,0.4741,13.7068,-0.2336,0.9546,-0.2464
32691.0,-2.5307,0.5363,13.8505,-0.2112,0.845,-0.2575
32701.0,-2.7054,0.6225,14.0588,-0.1942,0.7662,-0.2692
32711.0,-2.9353,0.7446,14.5639,-0.1522,0.7114,-0.274
32721.0,-2.9688,1.0199,15.3277,-0.0367,0.6699,-0.2618
32731.0,-3.1125,1.4174,15.8041,0.0788,0.5449,-0.2325
32741.0,-3.0765,1.6807,15.8472,0.0639,0.281,-0.1884
32751.0,-3.1699,1.7023,15.7945,-0.0474,-0.0037,-0.1394
32761.0,-3.0885,1.5036,15.5144,-0.1703,-0.273,-0.0931
32771.0,-2.988,1.1516,15.1146,-0.3038,-0.5199,-0.0665
32781.0,-2.9329,0.6991,14.8345,-0.4305,-0.7407,-0.0639
32791.0,-2.9281,0.4405,14.4322,-0.4938,-0.9269,-0.0819
32801.0,-2.806,0.1844,14.2383,-0.5007,-1.0653,-0.1086
32811.0,-2.7342,0.067,13.9797,-0.4656,-1.1744,-0.1437
32821.0,-2.5498,0.103,13.5655,-0.4864,-1.3271,-0.1926
32831.0,-2.3918,0.2849,13.204,-0.5715,-1.4899,-0.2501
32841.0,-2.2865,0.3903,12.9167,-0.6715,-1.6597,-0.2996
32851.0,-2.138,0.6009,12.3206,-0.7141,-1.8161,-0.3294
32861.0,-2.0542,0.735,11.6598,-0.7295,-1.9124,-0.3363
32871.0,-1.9249,0.7494,11.0636,-0.7279,-1.9646,-0.3241
32881.0,-1.731,0.6847,10.6542,-0.6976,-1.9832,-0.2996
32891.0,-1.4102,0.51,10.3837,-0.6109,-1.9534,-0.2639
32901.0,-1.087,0.2682,10.1107,-0.4949,-1.9113,-0.2315
32911.0,-0.8499,0.0311,9.6989,-0.4012,-1.8991,-0.215
32921.0,-0.5555,-0.0599,9.3494,-0.3177,-1.8597,-0.2144
32931.0,-0.316,-0.091,9.1937,-0.248,-1.7922,-0.2219
32941.0,0.0072,0.0958,9.0429,-0.1586,-1.7161,-0.2309
32951.0,0.2155,0.4381,8.7197,-0.1112,-1.6724,-0.2309
32961.0,0.328,0.5602,8.4827,-0.1942,-1.6756,-0.2203
32971.0,0.6488,0.5698,8.1259,-0.3161,-1.6857,-0.2049
32981.0,0.9074,0.5866,7.8697,-0.4555,-1.6804,-0.2011
32991.0,1.0415,0.5483,7.6399,-0.6162,-1.665,-0.199
33001.0,1.2186,0.4956,7.5848,-0.7423,-1.6134,-0.1905
33011.0,1.3216,0.4429,7.8554,-0.8136,-1.5314,-0.1788
33021.0,1.3982,0.5626,7.9918,-0.8498,-1.5069,-0.1623
33031.0,1.5921,0.7638,7.6303,-0.9158,-1.5676,-0.1357
33041.0,1.6951,0.7805,7.2999,-1.0371,-1.6389,-0.0963
33051.0,1.664,0.7278,6.7469,-1.1244,-1.6857,-0.042
33061.0,1.9058,0.4094,6.0956,-1.1738,-1.6703,0.0287
33071.0,2.1979,-0.0359,5.5091,-1.1861,-1.5798,0.0878
33081.0,2.4469,-0.4166,5.0446,-1.185,-1.4399,0.1171
33091.0,2.6815,-0.6632,4.786,-1.1855,-1.2553,0.1197
33101.0,2.636,-0.7997,4.9919,-1.1419,-1.0355,0.1144
33111.0,2.6791,-0.9864,5.4779,-0.9594,-0.7881,0.1389
33121.0,2.7533,-1.1396,5.7796,-0.6103,-0.5013,0.1894
33131.0,2.9353,-1.2713,5.8778,-0.2772,-0.298,0.2341
33141.0,3.2298,-1.3767,5.5929,0.0043,-0.1282,0.2645
33151.0,3.2825,-1.3575,5.5282,0.2613,0.1144,0.2815
33161.0,3.2609,-1.3575,5.4372,0.4762,0.3496,0.2943
33171.0,3.2633,-1.4102,5.1763,0.5928,0.5449,0.2969
33181.0,3.225,-1.5467,5.1571,0.6039,0.7423,0.2804
33191.0,3.158,-1.743,5.4444,0.5582,0.9482,0.241
33201.0,2.976,-1.7645,5.9999,0.5007,1.1148,0.1809
33211.0,2.8802,-1.6735,6.4715,0.4693,1.2244,0.1203
33221.0,2.7366,-1.5155,6.9001,0.514,1.3569,0.0708
33231.0,2.375,-1.2402,7.2305,0.6247,1.5224,0.0357
33241.0,2.1093,-1.0104,7.7979,0.7301,1.6666,0.0197
33251.0,1.8723,-0.814,8.3175,0.8482,1.773,0.0154
33261.0,1.6616,-0.5555,8.6191,0.9573,1.8331,0.0181
33271.0,1.4174,-0.3232,9.0453,1.0318,1.8757,0.0245
33281.0,1.2306,-0.1053,9.323,1.0664,1.8762,0.0378
33291.0,1.1349,0.0168,9.335,1.0749,1.8619,0.0543
33301.0,0.905,0.1269,9.2847,1.0844,1.905,0.0756
33311.0,0.5459,0.1413,9.4571,1.0573,1.9715,0.0894
33321.0,0.2658,0.0742,9.7875,1.0009,2.0316,0.0952
33331.0,0.0144,-0.0287,10.3166,0.9365,2.0774,0.0899
33341.0,-0.1724,-0.0838,10.8505,0.8812,2.0949,0.0676
33351.0,-0.4597,-0.0072,11.5209,0.8413,2.0912,0.0378
33361.0,-0.6177,0.1556,12.1554,0.8205,2.0529,0.0064
33371.0,-0.8452,0.4286,12.5121,0.8221,1.9965,-0.0186
33381.0,-1.0654,0.7398,12.8042,0.7811,1.9108,-0.0346
33391.0,-1.2665,1.0127,13.058,0.6965,1.8166,-0.0426
33401.0,-1.6113,1.1612,13.2471,0.5694,1.7091,-0.0388
33411.0,-1.8004,1.0511,13.6948,0.447,1.599,-0.0234
33421.0,-1.8818,0.8835,14.224,0.3986,1.5208,-0.0133
33431.0,-2.0039,0.8475,14.9662,0.4119,1.4633,-0.0133
33441.0,-2.1045,0.9744,15.5815,0.4124,1.3175,-0.0277
33451.0,-2.0949,1.1492,15.7969,0.3427,1.0637,-0.0484
33461.0,-2.0662,1.3599,15.5479,0.2171,0.7742,-0.0729
33471.0,-2.0183,1.4748,15.0452,0.0165,0.4922,-0.0926
33481.0,-2.0087,1.585,14.3173,-0.2331,0.2261,-0.1128
33491.0,-2.0016,1.5203,13.6877,-0.4858,0.0074,-0.1229
33501.0,-1.9369,1.221,13.0173,-0.6651,-0.1266,-0.1165
33511.0,-1.9201,0.7661,12.4666,-0.7599,-0.1804,-0.1112
33521.0,-1.8435,0.4238,12.2823,-0.7742,-0.1692,-0.1229
33531.0,-1.6568,0.2729,12.6127,-0.679,-0.0979,-0.1437
33541.0,-1.6281,0.3855,12.7467,-0.531,-0.0777,-0.1564
33551.0,-1.4748,0.51,12.572,-0.4374,-0.166,-0.1607
33561.0,-1.2785,0.5626,12.0093,-0.4124,-0.2847,-0.1591
33571.0,-1.1396,0.4788,11.3509,-0.4454,-0.3858,-0.157
33581.0,-0.9481,0.3807,10.5608,-0.5215,-0.4587,-0.165
33591.0,-0.8715,0.1772,10.0245,-0.6242,-0.472,-0.182
33601.0,-0.8787,-0.0551,9.6438,-0.688,-0.4172,-0.2065
33611.0,-0.8212,-0.2705,9.4906,-0.712,-0.2996,-0.2347
33621.0,-0.8475,-0.4118,9.8545,-0.6572,-0.1224,-0.2639
33631.0,-0.8571,-0.2969,10.6111,-0.472,0.0963,-0.281
33641.0,-1.0367,-0.079,11.4563,-0.2629,0.241,-0.2799
33651.0,-1.1205,0.0766,12.1266,-0.1181,0.2373,-0.2623
33661.0,-1.0942,0.1987,12.2368,-0.0287,0.1506,-0.24
33671.0,-1.1181,0.17,12.2559,-0.0372,0.0463,-0.2235
33681.0,-1.1372,0.1125,12.3541,-0.0835,-0.0521,-0.2187
33691.0,-1.2737,0.1532,12.4331,-0.1245,-0.1368,-0.2261
33701.0,-1.3671,0.316,12.6869,-0.1447,-0.19,-0.232
33711.0,-1.5179,0.5435,12.8808,-0.1458,-0.2458,-0.2235
33721.0,-1.6041,0.4812,13.3022,-0.1655,-0.3379,-0.1985
33731.0,-1.6233,0.4166,13.4482,-0.1352,-0.439,-0.1697
33741.0,-1.6305,0.3232,13.5632,-0.091,-0.5332,-0.1453
33751.0,-1.7142,0.3136,13.6446,-0.0383,-0.6327,-0.1277
33761.0,-1.7142,0.2682,13.6446,0.0133,-0.7529,-0.108
33771.0,-1.664,0.2418,13.5703,0.0676,-0.8897,-0.0894
33781.0,-1.5179,0.2059,13.2806,0.1112,-1.0397,-0.0782
33791.0,-1.2953,0.249,12.8186,0.116,-1.1887,-0.0761
33801.0,-1.2234,0.1963,12.3565,0.0841,-1.3324,-0.0803
33811.0,-0.9768,0.103,11.7507,0.0282,-1.4638,-0.0921
33821.0,-0.7757,0.0575,11.1737,-0.0633,-1.5905,-0.1192
33831.0,-0.5722,0.0934,10.3932,-0.1889,-1.7251,-0.1564
33841.0,-0.3591,0.1341,9.572,-0.3326,-1.8241,-0.1974
33851.0,-0.0982,0.1676,8.9663,-0.4895,-1.8794,-0.2347
33861.0,0.1867,0.1796,8.521,-0.6348,-1.9034,-0.2698
33871.0,0.5219,0.3184,8.09,-0.7455,-1.922,-0.3006
33881.0,0.7709,0.5291,7.7021,-0.8349,-1.9481,-0.3171
33891.0,0.996,0.644,7.2065,-0.903,-1.9779,-0.3145
33901.0,1.166,0.7302,6.5434,-0.9025,-1.9827,-0.2905
33911.0,1.3312,0.7685,5.794,-0.8322,-1.9161,-0.2437
33921.0,1.2594,0.7326,5.1739,-0.7242,-1.7879,-0.1825
33931.0,1.5323,0.7039,4.3981,-0.5726,-1.6022,-0.1075
33941.0,1.7909,0.5914,4.0247,-0.4092,-1.3308,-0.0287
33951.0,2.0279,0.5722,3.7038,-0.1953,-1.0094,0.058
33961.0,2.2793,0.419,3.4572,-0.0048,-0.6742,0.1437
33971.0,2.4277,0.1939,3.5243,0.166,-0.306,0.2208
33981.0,2.5187,0.0263,3.6512,0.3214,0.0596,0.2756
33991.0,2.5091,-0.0862,4.0175,0.3906,0.3821,0.3044
34001.0,2.3846,-0.0742,4.5179,0.3954,0.6513,0.3108
34011.0,2.2314,-0.0168,5.1715,0.3602,0.8572,0.3076
34021.0,2.0183,0.1197,5.8802,0.3523,1.0435,0.3113
34031.0,1.8052,0.17,6.6176,0.3624,1.193,0.3278
34041.0,1.7741,0.0335,7.2233,0.381,1.2813,0.3517
34051.0,1.834,-0.0958,7.7405,0.4193,1.3377,0.3613
34061.0,1.8459,-0.2035,8.0828,0.4624,1.3627,0.3549
34071.0,1.9106,-0.2466,8.3749,0.506,1.3675,0.3358
34081.0,1.7765,-0.1939,8.4851,0.5587,1.351,0.306
34091.0,1.6975,-0.0958,8.2217,0.5827,1.2946,0.2666
34101.0,1.573,-0.0359,7.6088,0.5635,1.2515,0.2224
34111.0,1.4341,0.0263,6.9504,0.5396,1.2866,0.1729
34121.0,1.1564,0.2251,6.3638,0.5103,1.4266,0.1181
34131.0,0.577,0.5291,6.3901,0.4624,1.6682,0.0729
34141.0,0.0024,0.9816,6.9145,0.4108,1.9337,0.0495
34151.0,-0.4788,1.5299,7.6255,0.3272,2.1391,0.0596
34161.0,-0.8356,1.8459,8.5545,0.1958,2.2609,0.1192
34171.0,-1.3503,1.9106,9.426,0.0692,2.3168,0.2166
34181.0,-1.7382,1.4724,10.2185,-0.0394,2.2987,0.3347
34191.0,-1.9824,0.8882,10.7907,-0.0074,2.3221,0.4464
34201.0,-2.3511,0.2227,11.734,0.1522,2.4429,0.5284
34211.0,-2.6647,-0.0263,12.9239,0.4033,2.5563,0.5646
34221.0,-2.9521,0.1077,13.9247,0.6173,2.5494,0.572
34231.0,-3.0765,0.2586,14.801,0.7141,2.4099,0.5747
34241.0,-3.2729,0.4238,15.2942,0.7455,2.1987,0.5837
34251.0,-3.3926,0.4262,15.2798,0.6981,1.9465,0.5992
34261.0,-3.4716,0.2777,15.1529,0.5784,1.7272,0.6061
34271.0,-3.5578,-0.0144,15.3804,0.4246,1.5676,0.6002
34281.0,-3.5817,-0.4142,15.627,0.2602,1.4005,0.5752
34291.0,-3.5314,-0.9194,15.9597,0.0974,1.1935,0.5199
34301.0,-3.5338,-1.3647,16.1178,-0.0591,0.9594,0.4321
34311.0,-3.5003,-1.6999,16.4434,-0.1687,0.7354,0.315
34321.0,-3.5362,-1.7358,16.3404,-0.2054,0.4949,0.182
34331.0,-3.5147,-1.5227,15.9382,-0.2224,0.249,0.0479
34341.0,-3.486,-1.1444,15.2966,-0.2309,0.0495,-0.0718
34351.0,-3.4333,-0.7207,14.765,-0.2618,-0.0968,-0.1697
34361.0,-3.3878,-0.3879,14.5065,-0.3006,-0.2102,-0.2426
34371.0,-3.3423,-0.1413,14.3173,-0.3198,-0.3076,-0.2916
34381.0,-3.3184,-0.0383,14.1162,-0.3427,-0.4347,-0.3267
34391.0,-3.2346,0.0742,13.6757,-0.3523,-0.5768,-0.3544
34401.0,-3.1795,0.0455,13.3094,-0.3368,-0.6694,-0.3778
34411.0,-3.067,0.0168,12.9909,-0.2847,-0.7152,-0.397
34421.0,-2.9449,0.0742,12.6917,-0.232,-0.7492,-0.4252
34431.0,-2.8563,0.2897,12.4642,-0.2107,-0.7779,-0.4581
34441.0,-2.818,0.589,12.4044,-0.2416,-0.812,-0.4869
34451.0,-2.7773,0.8116,12.3756,-0.3219,-0.8892,-0.5023
34461.0,-2.6217,0.9385,12.3517,-0.3773,-0.9722,-0.505
34471.0,-2.5786,1.1109,12.2463,-0.3879,-1.0302,-0.4906
34481.0,-2.4876,1.0774,12.3038,-0.3975,-1.0914,-0.4651
34491.0,-2.3008,1.1732,12.1027,-0.3656,-1.152,-0.4363
34501.0,-2.2745,1.0942,12.0811,-0.3608,-1.2191,-0.4092
34511.0,-2.0806,1.0247,11.8489,-0.3533,-1.3138,-0.3884
34521.0,-1.8579,0.9936,11.4778,-0.3496,-1.4011,-0.3735
34531.0,-1.6209,1.0127,11.0468,-0.3395,-1.4553,-0.3629
34541.0,-1.5371,1.0702,10.7619,-0.3342,-1.4782,-0.3496
34551.0,-1.403,1.1061,10.5177,-0.3656,-1.5144,-0.3315
34561.0,-1.245,1.0463,10.3573,-0.3943,-1.549,-0.3038
34571.0,-1.1109,0.8811,10.2328,-0.3821,-1.5527,-0.2735
34581.0,-0.8978,0.7614,10.0509,-0.3406,-1.5543,-0.2501
34591.0,-0.6536,0.7398,9.8497,-0.2937,-1.5586,-0.2331
34601.0,-0.5219,0.7638,9.6774,-0.2655,-1.5527,-0.2176
34611.0,-0.3304,0.7542,9.6462,-0.2379,-1.5367,-0.1948
34621.0,-0.1532,0.8212,9.4475,-0.191,-1.5341,-0.166
34631.0,0.0503,0.8643,9.1722,-0.1708,-1.5394,-0.1336
34641.0,0.182,0.9242,8.8633,-0.183,-1.5351,-0.0921
34651.0,0.3711,0.7949,8.6215,-0.215,-1.532,-0.05
34661.0,0.6249,0.6009,8.3127,-0.2246,-1.499,-0.009
34671.0,0.8116,0.2753,8.0948,-0.2363,-1.4511,0.0218
34681.0,1.1181,-0.0694,8.169,-0.2347,-1.3867,0.0271
34691.0,1.3743,-0.0742,8.1451,-0.1703,-1.3069,0.0122
34701.0,1.4724,0.0455,8.1666,-0.1362,-1.2638,-0.0074
34711.0,1.6185,0.2873,8.0517,-0.1213,-1.2616,-0.0223
34721.0,1.7621,0.6273,7.8266,-0.1272,-1.2728,-0.0202
34731.0,1.9369,0.8092,7.3981,-0.1767,-1.3111,0.0064
34741.0,2.15,0.8428,6.6008,-0.2549,-1.3564,0.0436
34751.0,2.3894,0.7853,5.7581,-0.3315,-1.3212,0.0819
34761.0,2.5642,0.6919,5.0805,-0.3906,-1.177,0.1192
34771.0,2.7318,0.5531,4.6998,-0.4406,-0.977,0.1527
34781.0,2.8299,0.3783,4.7429,-0.4715,-0.7306,0.1825
34791.0,2.7845,0.2035,5.2672,-0.4613,-0.4667,0.2112
34801.0,2.8683,0.1365,5.7581,-0.3852,-0.2687,0.2453
34811.0,3.0047,0.1245,5.9735,-0.2661,-0.1421,0.2815
34821.0,3.043,0.0742,6.0789,-0.1,0.0059,0.3283
34831.0,2.9473,-0.0527,6.031,0.0905,0.1692,0.3789
34841.0,2.9018,-0.2658,5.9256,0.2708,0.3437,0.4209
34851.0,2.873,-0.4286,5.9496,0.4401,0.5656,0.4401
34861.0,2.8467,-0.5171,6.1076,0.5369,0.7599,0.4342
34871.0,2.727,-0.5435,6.3039,0.5608,0.9046,0.4103
34881.0,2.5331,-0.4357,6.5074,0.5284,1.028,0.3735
34891.0,2.3894,-0.2729,6.7277,0.4331,1.1116,0.3379
34901.0,2.2649,-0.2801,7.0509,0.2975,1.1643,0.3092
34911.0,2.0446,-0.3136,7.3287,0.2091,1.2393,0.2863
34921.0,1.7909,-0.3065,7.7788,0.2006,1.3564,0.2671
34931.0,1.5107,-0.1269,8.4851,0.248,1.4771,0.2528
34941.0,1.2641,0.1939,9.2799,0.3315,1.5586,0.2559
34951.0,0.9984,0.6488,9.8952,0.4284,1.5713,0.2857
34961.0,0.8906,1.0343,10.3334,0.4853,1.499,0.3475
34971.0,0.8068,1.0822,10.2687,0.4566,1.3255,0.4395
34981.0,0.8452,0.6656,9.8904,0.4087,1.1632,0.538
34991.0,0.7446,0.2873,9.165,0.4789,1.185,0.6167
35001.0,0.5052,-0.146,9.0357,0.5502,1.3425,0.6609
35011.0,0.2849,-0.5339,9.2656,0.5757,1.4931,0.6699
35021.0,0.1053,-0.8428,9.6606,0.5167,1.583,0.6439
35031.0,0.0383,-1.1684,10.2376,0.3746,1.6107,0.5848
35041.0,0.0048,-1.64,10.7883,0.19,1.5474,0.4954
35051.0,-0.0096,-2.0782,11.1737,0.0931,1.4883,0.3831
35061.0,-0.2658,-2.1332,11.3318,0.1564,1.5341,0.2458
35071.0,-0.5722,-1.822,11.7172,0.2719,1.6198,0.1032
35081.0,-0.9984,-1.3551,12.4977,0.3735,1.6852,-0.017
35091.0,-1.2402,-0.9768,13.4458,0.5199,1.7283,-0.0958
35101.0,-1.4413,-0.6057,14.1258,0.7168,1.7129,-0.1517
35111.0,-1.5993,-0.1508,14.528,0.8514,1.6198,-0.2011
35121.0,-1.7166,0.2274,14.777,0.8849,1.4787,-0.2448
35131.0,-1.8124,0.5794,14.8345,0.8657,1.3191,-0.2783
35141.0,-1.8914,0.838,14.7196,0.7902,1.1547,-0.3086
35151.0,-1.98,1.063,14.2694,0.6369,0.9844,-0.3453
35161.0,-2.1284,1.221,14.2024,0.3868,0.8514,-0.3884
35171.0,-2.2051,1.4174,14.8105,0.1655,0.7918,-0.4315
35181.0,-2.3583,1.6448,15.5623,-0.0096,0.6806,-0.4608
35191.0,-2.4062,1.6975,16.0364,-0.1878,0.4326,-0.4746
35201.0,-2.3703,1.7166,15.9334,-0.3225,0.1634,-0.4762
35211.0,-2.4181,1.6496,15.6677,-0.4007,-0.0734,-0.4688
35221.0,-2.3942,1.6017,15.1026,-0.4193,-0.2687,-0.4592
35231.0,-2.399,1.5203,14.3317,-0.4347,-0.4097,-0.4491
35241.0,-2.3535,1.2306,14.0827,-0.4805,-0.5028,-0.4454
35251.0,-2.2362,1.1564,14.0372,-0.4746,-0.5555,-0.4581
35261.0,-2.1835,1.3838,13.9582,-0.4337,-0.6242,-0.4725
35271.0,-2.1356,1.5251,13.8026,-0.4417,-0.763,-0.4704
35281.0,-1.9944,1.5131,13.5033,-0.4635,-0.9227,-0.4539
35291.0,-1.8507,1.5155,12.8593,-0.4459,-1.0451,-0.4337
35301.0,-1.7214,1.4078,12.3517,-0.4241,-1.1116,-0.4145
35311.0,-1.64,1.4653,11.8298,-0.3996,-1.1462,-0.3986
35321.0,-1.5634,1.3838,11.5664,-0.3991,-1.1563,-0.3773
35331.0,-1.2953,1.3001,11.4203,-0.3677,-1.1355,-0.3533
35341.0,-1.2234,1.2665,11.3461,-0.3549,-1.1329,-0.3368
35351.0,-1.0558,1.1516,11.2934,-0.3922,-1.1893,-0.3257
35361.0,-0.8571,1.1229,11.0995,-0.4166,-1.2441,-0.3187
35371.0,-0.8164,1.0343,10.8816,-0.4406,-1.2914,-0.3108
35381.0,-0.6536,0.9888,10.6015,-0.4624,-1.3399,-0.3049
35391.0,-0.4908,0.9673,10.5536,-0.4613,-1.3473,-0.2964
35401.0,-0.3759,0.9816,10.41,-0.4092,-1.3383,-0.2788
35411.0,-0.1772,0.9673,10.2041,-0.3624,-1.3542,-0.2581
35421.0,-0.0742,0.9457,9.9359,-0.339,-1.3771,-0.2373
35431.0,0.0622,0.8547,9.8593,-0.3038,-1.3729,-0.2118
35441.0,0.2634,0.7638,9.6558,-0.2389,-1.3558,-0.1889
35451.0,0.3807,0.668,9.493,-0.1767,-1.3377,-0.1681
35461.0,0.5818,0.6752,9.1722,-0.1288,-1.3196,-0.1532
35471.0,0.7901,0.68,8.9447,-0.1208,-1.2957,-0.1463
35481.0,1.0391,0.7997,8.6598,-0.1378,-1.2696,-0.141
35491.0,1.1205,0.9218,8.4755,-0.1995,-1.2478,-0.1362
35501.0,1.1995,0.9529,8.4396,-0.2708,-1.2212,-0.1224
35511.0,1.3599,0.9649,8.339,-0.3113,-1.1909,-0.099
35521.0,1.5275,0.9337,8.2408,-0.3326,-1.1552,-0.0734
35531.0,1.6712,0.9553,8.0876,-0.3395,-1.1126,-0.0447
35541.0,1.834,0.8906,8.0948,-0.3602,-1.0711,-0.0122
35551.0,1.9824,0.8428,7.9535,-0.3592,-1.0334,0.0239
35561.0,2.0734,0.7781,7.7764,-0.3528,-0.994,0.0617
35571.0,2.1859,0.7278,7.6088,-0.3512,-0.9589,0.0968
35581.0,2.3032,0.668,7.434,-0.3491,-0.9365,0.133
35591.0,2.4445,0.4908,7.1635,-0.3294,-0.9126,0.1729
35601.0,2.5953,0.3448,6.7181,-0.2661,-0.8519,0.2081
35611.0,2.7342,0.1221,6.3135,-0.1958,-0.746,0.2384
35621.0,2.8467,-0.0814,6.0047,-0.1192,-0.6055,0.2575
35631.0,2.9544,-0.261,5.7868,-0.0782,-0.4576,0.2559
35641.0,3.0406,-0.2849,5.7054,-0.0692,-0.3134,0.2373
35651.0,3.0622,-0.2131,5.794,-0.0649,-0.1703,0.2123
35661.0,3.1101,-0.0575,5.8395,-0.025,-0.0277,0.2017
35671.0,3.1675,0.0622,5.636,0.0309,0.0867,0.2043
35681.0,3.237,0.2011,5.2313,0.0926,0.215,0.2182
35691.0,3.1268,0.2945,4.8722,0.1362,0.4156,0.2379
35701.0,2.885,0.1915,4.9177,0.1447,0.6651,0.2645
35711.0,2.6983,-0.0599,5.4636,0.1655,0.9253,0.2831
35721.0,2.5809,-0.2203,6.2106,0.2602,1.1818,0.2916
35731.0,2.4421,-0.2873,7.0629,0.3916,1.3819,0.2868
35741.0,2.3008,-0.2466,7.6447,0.4986,1.4676,0.2719
35751.0,2.2314,-0.0862,7.6926,0.5704,1.4904,0.2512
35761.0,2.0135,0.0862,7.7931,0.6204,1.5548,0.2288
35771.0,1.6927,0.3543,7.7979,0.671,1.6666,0.2118
35781.0,1.4844,0.5986,7.8266,0.6715,1.764,0.2006
35791.0,1.1947,0.7805,7.7117,0.5688,1.8358,0.1889
35801.0,0.8667,0.8404,7.8721,0.3347,1.8933,0.1756
35811.0,0.5698,0.8595,8.5138,0.0612,1.9592,0.1623
35821.0,0.316,0.7518,9.1746,-0.1958,1.9688,0.1575
35831.0,0.1652,0.3759,9.742,-0.4252,1.8996,0.1623
35841.0,-0.0024,-0.0287,10.2185,-0.5183,1.8682,0.1639
35851.0,-0.2753,-0.2418,10.422,-0.4683,1.8991,0.1517
35861.0,-0.5148,-0.2083,10.738,-0.3783,1.9459,0.1282
35871.0,-0.8284,0.1772,11.406,-0.2448,2.0252,0.1096
35881.0,-1.1109,0.7326,12.1625,-0.0921,2.0646,0.1213
35891.0,-1.3838,1.2258,12.8904,0.0234,2.0162,0.1777
35901.0,-1.5083,1.2929,13.3477,0.1165,1.9002,0.2772
35911.0,-1.6328,1.1205,13.4985,0.2112,1.789,0.3863
35921.0,-1.7358,0.8428,13.5703,0.3161,1.7145,0.4773
35931.0,-1.7933,0.7374,13.7379,0.4087,1.674,0.5412
35941.0,-1.8172,0.6225,13.9558,0.4214,1.6102,0.58
35951.0,-1.9369,0.4501,14.2311,0.3113,1.4676,0.5981
35961.0,-2.0327,0.0742,14.5424,0.1112,1.2515,0.5997
35971.0,-1.992,-0.4956,14.6717,-0.0633,1.0169,0.5848
35981.0,-1.9441,-1.1205,14.5687,-0.1463,0.8312,0.5428
35991.0,-1.9273,-1.4892,14.3437,-0.1575,0.6912,0.4683
36001.0,-1.8914,-1.6688,14.0899,-0.1511,0.5779,0.3629
36011.0,-1.8818,-1.494,13.5775,-0.1453,0.4736,0.2442
36021.0,-1.9728,-1.1851,13.1035,-0.1745,0.3959,0.133
36031.0,-2.2482,-0.9409,12.888,-0.2261,0.3704,0.0484
36041.0,-2.2865,-1.0008,13.3716,-0.2522,0.398,-0.0085
36051.0,-2.2601,-1.0151,14.1114,-0.2022,0.3964,-0.0639
36061.0,-2.32,-0.8308,14.5184,-0.1522,0.2831,-0.1293
36071.0,-2.411,-0.5794,14.7483,-0.1485,0.1064,-0.1921
36081.0,-2.3942,-0.3687,14.619,-0.1628,-0.0905,-0.2405
36091.0,-2.4636,-0.2131,14.2647,-0.1905,-0.282,-0.2841
36101.0,-2.4541,0.0,13.8983,-0.2341,-0.4395,-0.3193
36111.0,-2.411,0.1891,13.6398,-0.2703,-0.5444,-0.3427
36121.0,-2.3774,0.4166,13.5248,-0.2889,-0.6311,-0.348
36131.0,-2.4181,0.5746,13.3884,-0.2698,-0.705,-0.3304
36141.0,-2.332,0.6321,13.3692,-0.232,-0.7716,-0.2905
36151.0,-2.1787,0.5387,13.2663,-0.2128,-0.8588,-0.2496
36161.0,-2.0111,0.4501,12.9574,-0.2144,-0.9759,-0.2219
36171.0,-1.7789,0.2969,12.572,-0.2421,-1.0882,-0.2054
36181.0,-1.6927,0.0551,12.2009,-0.2916,-1.1871,-0.2038
36191.0,-1.4317,-0.1939,11.9399,-0.3427,-1.2659,-0.2208
36201.0,-1.221,-0.3615,11.5281,-0.398,-1.342,-0.2581
36211.0,-1.0415,-0.5363,11.3796,-0.4699,-1.417,-0.3044
36221.0,-0.8308,-0.577,11.236,-0.4619,-1.4394,-0.3565
36231.0,-0.7661,-0.5124,11.1282,-0.3863,-1.4362,-0.4017
36241.0,-0.6225,-0.3711,11.066,-0.2857,-1.441,-0.4342
36251.0,-0.4621,-0.1772,10.9678,-0.1612,-1.4479,-0.4518
36261.0,-0.3208,0.0742,10.5632,-0.0745,-1.492,-0.4629
36271.0,-0.0742,0.3448,9.8593,-0.0947,-1.5708,-0.4699
36281.0,0.158,0.4262,9.4212,-0.1958,-1.607,-0.4704
36291.0,0.1221,0.5124,8.9399,-0.2852,-1.5937,-0.4645
36301.0,0.3591,0.4693,8.8562,-0.3464,-1.5399,-0.448
36311.0,0.5148,0.407,8.734,-0.3501,-1.4516,-0.4236
36321.0,0.7949,0.2753,9.0381,-0.3076,-1.3489,-0.3938
36331.0,0.9816,0.2298,9.2727,-0.2038,-1.2542,-0.364
36341.0,1.0439,0.237,9.4547,-0.1229,-1.2462,-0.3395
36351.0,1.245,0.3112,9.1075,-0.0692,-1.3042,-0.3166
36361.0,1.3982,0.3903,8.5186,-0.0628,-1.3436,-0.2953
36371.0,1.5275,0.4693,7.8865,-0.1038,-1.3462,-0.2756
36381.0,1.7837,0.4764,7.4005,-0.1761,-1.3063,-0.2613
36391.0,1.901,0.5626,6.9623,-0.2501,-1.2137,-0.2517
36401.0,2.0327,0.6033,6.8522,-0.3379,-1.0946,-0.2357
36411.0,2.1237,0.6249,6.8163,-0.4097,-0.9802,-0.2123
36421.0,2.1691,0.6081,6.936,-0.4821,-0.8908,-0.1825
36431.0,2.2577,0.5674,6.9839,-0.5161,-0.8163,-0.1458
36441.0,2.3966,0.5818,6.8474,-0.4927,-0.7444,-0.1011
36451.0,2.5642,0.5507,6.6583,-0.4459,-0.6673,-0.0495
36461.0,2.6552,0.5962,6.3015,-0.3491,-0.5545,0.009
36471.0,2.5929,0.7015,5.8778,-0.24,-0.4081,0.0724
36481.0,2.5235,0.6345,5.6982,-0.1527,-0.223,0.1485
36491.0,2.5642,0.4166,5.7197,-0.0702,-0.0149,0.2267
36501.0,2.6073,0.1101,5.8754,-0.0431,0.149,0.2836
36511.0,2.6169,-0.3304,6.2632,-0.0591,0.2623,0.3129
36521.0,2.727,-0.6177,6.3542,-0.033,0.3421,0.3139
36531.0,2.7821,-0.7877,6.2345,0.0138,0.4278,0.2921
36541.0,2.6791,-0.7374,6.0501,0.0883,0.5752,0.2613
36551.0,2.4134,-0.5938,5.9759,0.1506,0.763,0.2309
36561.0,2.1907,-0.4956,6.1938,0.1916,0.9642,0.2155
36571.0,2.0614,-0.5291,6.8163,0.2581,1.185,0.2123
36581.0,1.9082,-0.5004,7.5082,0.3501,1.3574,0.2091
36591.0,1.7262,-0.4477,8.1547,0.4119,1.4479,0.2001
36601.0,1.5802,-0.3352,8.5425,0.4252,1.4548,0.1889
36611.0,1.5323,-0.3089,8.6598,0.4039,1.4053,0.1815
36621.0,1.4006,-0.2969,8.4539,0.4076,1.4053,0.1745
36631.0,1.1708,-0.1676,8.2768,0.4337,1.4787,0.1666
36641.0,0.8906,-0.0527,8.3007,0.4182,1.5798,0.158
36651.0,0.7087,-0.0287,8.4443,0.3368,1.6559,0.1485
36661.0,0.5243,0.0048,8.8609,0.1894,1.699,0.132
36671.0,0.1772,-0.0144,9.584,0.0048,1.6937,0.1133
36681.0,-0.0359,-0.1556,10.1418,-0.1357,1.6049,0.108
36691.0,-0.0096,-0.5315,10.1921,-0.1575,1.492,0.1112
36701.0,-0.2107,-0.589,9.7037,-0.0239,1.5213,0.0995
36711.0,-0.565,-0.3783,9.754,0.141,1.6948,0.0718
36721.0,-0.7638,0.1006,10.1634,0.2597,1.8597,0.0426
36731.0,-1.0894,0.8356,10.9654,0.2985,1.972,0.0303
36741.0,-1.5227,1.4485,11.9878,0.2581,1.9731,0.0697
36751.0,-1.7789,1.391,12.9407,0.1623,1.8273,0.1655
36761.0,-1.7071,0.826,13.0077,0.1219,1.5798,0.2772
36771.0,-1.5155,0.2131,12.5815,0.2054,1.458,0.3485
36781.0,-1.6376,-0.1844,12.3828,0.3555,1.5133,0.3725
36791.0,-1.8244,-0.328,12.6127,0.4736,1.5969,0.3597
36801.0,-2.0303,-0.2274,12.9047,0.5252,1.6123,0.3262
36811.0,-2.241,-0.1867,13.2735,0.5002,1.5862,0.2911
36821.0,-2.478,-0.1604,13.7547,0.4326,1.5325,0.2586
36831.0,-2.6097,-0.2298,14.5567,0.3986,1.4899,0.2256
36841.0,-2.7078,-0.0814,15.5599,0.4401,1.4426,0.1963
36851.0,-2.7629,0.0718,16.3404,0.4576,1.2691,0.1708
36861.0,-2.6504,0.067,16.7043,0.4198,0.9738,0.1474
36871.0,-2.6695,0.0814,16.4841,0.3544,0.6465,0.1235
36881.0,-2.7749,-0.0431,16.1489,0.2512,0.3469,0.0921
36891.0,-2.7557,-0.1532,15.6557,0.1602,0.0921,0.0537
36901.0,-2.7054,-0.4046,15.129,0.0766,-0.1229,0.0064
36911.0,-2.5666,-0.5052,14.5783,0.0101,-0.2857,-0.0575
36921.0,-2.5019,-0.4501,14.1665,-0.0532,-0.4044,-0.1362
36931.0,-2.3703,-0.4238,13.9534,-0.1405,-0.5209,-0.2166
36941.0,-2.1787,-0.2921,13.6733,-0.215,-0.6439,-0.2953
36951.0,-2.1572,-0.0694,13.362,-0.2826,-0.7732,-0.365
36961.0,-2.1859,0.1221,12.8808,-0.3613,-0.9083,-0.4198
36971.0,-2.1476,0.2705,12.2846,-0.4342,-1.0248,-0.4523
36981.0,-2.059,0.3879,11.7986,-0.4927,-1.0807,-0.4741
36991.0,-1.9441,0.4357,11.5568,-0.5342,-1.0956,-0.4842
37001.0,-1.7573,0.4525,11.5568,-0.5263,-1.0988,-0.4842
37011.0,-1.5778,0.5578,11.4323,-0.4385,-1.0887,-0.4762
37021.0,-1.4653,0.7254,11.1905,-0.3411,-1.0818,-0.4592
37031.0,-1.3671,0.8164,10.9152,-0.2826,-1.1068,-0.4315
37041.0,-1.2139,0.826,10.4962,-0.2597,-1.1472,-0.398
37051.0,-1.1684,0.7853,10.0293,-0.2528,-1.1653,-0.3629
37061.0,-0.9505,0.6991,9.6079,-0.2783,-1.1653,-0.332
37071.0,-0.7254,0.5531,9.2201,-0.3171,-1.1424,-0.3155
37081.0,-0.4932,0.5076,8.9088,-0.3491,-1.0919,-0.3113
37091.0,-0.249,0.4597,9.0022,-0.3448,-0.9817,-0.3108
37101.0,-0.2466,0.5028,9.1961,-0.2847,-0.8524,-0.3102
37111.0,-0.1987,0.5507,9.4858,-0.2379,-0.7806,-0.3049
37121.0,-0.1101,0.6464,9.6726,-0.1761,-0.7311,-0.2943
37131.0,-0.091,0.7805,9.651,-0.1235,-0.704,-0.2783
37141.0,-0.0646,0.8882,9.6941,-0.0883,-0.6816,-0.2549
37151.0,-0.0646,0.9433,9.7971,-0.0506,-0.6476,-0.2203
37161.0,-0.0431,0.9026,10.0509,-0.0266,-0.621,-0.1809
37171.0,0.1053,0.7997,10.343,0.0399,-0.5981,-0.141
37181.0,0.1676,0.7733,10.4435,0.1043,-0.6141,-0.1133
37191.0,0.2155,0.7494,10.4028,0.1027,-0.6859,-0.0942
37201.0,0.3472,0.8332,10.2496,0.0772,-0.7599,-0.0825
37211.0,0.4405,0.9313,9.7372,0.0005,-0.8487,-0.0708
37221.0,0.4788,0.7997,9.4978,-0.1426,-0.9147,-0.0569
37231.0,0.6752,0.7207,9.1219,-0.2208,-0.9296,-0.0458
37241.0,0.8045,0.6536,8.9591,-0.2719,-0.9035,-0.0378
37251.0,0.9433,0.6728,8.6191,-0.3044,-0.8908,-0.0266
37261.0,0.9912,0.6105,8.2552,-0.365,-0.8833,-0.0138
37271.0,1.0702,0.51,8.0158,-0.4411,-0.8689,0.0005
37281.0,1.1684,0.3903,7.7261,-0.4991,-0.8599,0.0149
37291.0,1.3168,0.2083,7.3215,-0.5177,-0.8322,0.0287
37301.0,1.4222,0.1293,6.9528,-0.464,-0.7322,0.042
37311.0,1.5586,0.1101,6.608,-0.3581,-0.5848,0.0569
37321.0,1.7095,0.1221,6.3805,-0.249,-0.4188,0.0766
37331.0,1.664,0.2083,6.1723,-0.1607,-0.2469,0.0974
37341.0,1.7238,0.2251,6.031,-0.1208,-0.1,0.1229
37351.0,1.8507,0.1891,5.861,-0.1197,0.0303,0.149
37361.0,1.8986,0.1652,5.6599,-0.141,0.1713,0.1713
37371.0,1.81,0.2179,5.6599,-0.1676,0.3459,0.1937
37381.0,1.6831,0.0599,6.2465,-0.1713,0.5635,0.2272
37391.0,1.5802,-0.1101,7.0677,-0.0521,0.7875,0.2708
37401.0,1.5562,-0.1915,7.7189,0.1612,0.9727,0.3086
37411.0,1.5251,-0.1915,8.2552,0.357,1.1169,0.3352
37421.0,1.5083,-0.1077,8.6814,0.4693,1.1834,0.3459
37431.0,1.3599,-0.0982,9.0668,0.4725,1.1685,0.3469
37441.0,1.2522,-0.2346,9.2799,0.4369,1.0988,0.3432
37451.0,1.0918,-0.3855,9.0501,0.4294,1.0296,0.3294
37461.0,0.9577,-0.5315,8.667,0.4427,1.0392,0.3038
37471.0,0.8188,-0.5602,8.5401,0.4832,1.1675,0.2634
37481.0,0.5148,-0.5219,8.9687,0.5114,1.3361,0.2144
37491.0,0.316,-0.2921,9.5241,0.5236,1.4415,0.1612
37501.0,0.1532,0.0311,9.9862,0.5098,1.4899,0.116
37511.0,-0.0479,0.3567,10.5105,0.4065,1.4606,0.0857
37521.0,-0.3208,0.4669,10.9367,0.2464,1.3383,0.0708
37531.0,-0.498,0.4501,10.8816,0.1272,1.1903,0.0681
37541.0,-0.6608,0.4717,10.5776,0.0995,1.126,0.0702
37551.0,-1.0032,0.5315,10.3501,0.1245,1.1637,0.0761
37561.0,-1.2713,0.5698,10.5991,0.1767,1.251,0.0915
37571.0,-1.4198,0.5339,10.9271,0.2517,1.3143,0.1123
37581.0,-1.3695,0.4836,11.2216,0.3161,1.3329,0.1293
37591.0,-1.3024,0.4477,11.4156,0.3209,1.2941,0.1277
37601.0,-1.4245,0.3807,11.6334,0.2506,1.1898,0.1149
37611.0,-1.4557,0.2538,11.3198,0.1729,1.0286,0.0974
37621.0,-1.3886,0.2346,10.6039,0.1341,0.9328,0.0697
37631.0,-1.5227,0.3974,9.9024,0.1059,0.9732,0.0319
37641.0,-1.8244,0.7398,9.5792,0.0341,1.0765,-0.0021
37651.0,-2.1476,0.9242,9.9359,-0.0734,1.2164,-0.0117
37661.0,-2.3798,0.8164,10.8577,-0.1415,1.3494,0.0101
37671.0,-2.4493,0.5243,11.8537,-0.1352,1.4048,0.0447
37681.0,-2.466,0.1915,12.639,-0.0835,1.3697,0.0676
37691.0,-2.4062,-0.091,13.0269,0.0011,1.2765,0.0708
37701.0,-2.4612,-0.1796,13.137,0.0835,1.1744,0.0468
37711.0,-2.7102,-0.1053,13.216,0.1463,1.0898,0.0064
37721.0,-2.8299,0.158,13.3429,0.2134,1.0366,-0.0298
37731.0,-3.0598,0.4788,13.5823,0.2496,1.0158,-0.0564
37741.0,-3.2465,0.6416,14.1833,0.2049,0.9578,-0.0692
37751.0,-3.3567,0.5531,15.0954,0.116,0.8328,-0.0777
37761.0,-3.3279,0.4693,15.7658,0.0628,0.6439,-0.091
37771.0,-3.3016,0.419,16.2207,0.033,0.4007,-0.1128
37781.0,-3.3399,0.3352,16.2662,0.0176,0.1277,-0.1421
37791.0,-3.3806,0.3472,15.9933,0.0112,-0.1548,-0.1745
37801.0,-3.4716,0.4142,15.4378,0.0021,-0.4129,-0.2123
37811.0,-3.4237,0.5076,14.8776,0.0037,-0.596,-0.2464
37821.0,-3.3471,0.6393,14.3604,0.0027,-0.7221,-0.2751
37831.0,-3.304,0.7829,14.0516,-0.0506,-0.8354,-0.3022
37841.0,-3.2226,0.8452,13.7667,-0.1517,-0.9631,-0.3283
37851.0,-3.0574,0.7949,13.7379,-0.2283,-1.0823,-0.3485
37861.0,-3.0071,0.8715,13.5392,-0.2272,-1.1738,-0.3597
37871.0,-2.9018,0.8068,13.6709,-0.1926,-1.26,-0.3592
37881.0,-2.8252,0.8308,13.4387,-0.1298,-1.3814,-0.3539
37891.0,-2.6839,0.7877,13.1154,-0.1203,-1.5618,-0.3555
37901.0,-2.4876,0.8499,12.5384,-0.0851,-1.6996,-0.356
37911.0,-2.3798,0.7997,12.0524,-0.0553,-1.789,-0.3544
37921.0,-2.0135,0.8045,11.3605,-0.05,-1.8837,-0.3645
37931.0,-1.7526,0.9601,10.6207,-0.1064,-1.9614,-0.3879
37941.0,-1.5036,1.0678,10.0006,-0.2277,-2.0204,-0.4108
37951.0,-1.2378,1.2163,9.5002,-0.3634,-2.0465,-0.4273
37961.0,-1.1372,1.2689,9.2273,-0.4778,-2.0295,-0.4331
37971.0,-0.9266,1.233,9.2488,-0.5071,-1.98,-0.4172
37981.0,-0.6273,1.2091,9.1387,-0.4464,-1.9183,-0.3874
37991.0,-0.395,1.0511,8.9639,-0.4033,-1.8943,-0.3576
38001.0,-0.0527,0.9888,8.5593,-0.3863,-1.9098,-0.3384
38011.0,0.2131,1.0247,8.023,-0.3794,-1.9092,-0.3352
38021.0,0.4693,1.2402,7.4699,-0.3565,-1.8571,-0.3299
38031.0,0.6416,1.482,7.039,-0.3496,-1.7682,-0.3081
38041.0,0.7638,1.4844,6.7828,-0.3358,-1.6655,-0.2613
38051.0,0.905,1.3431,6.5984,-0.2783,-1.5415,-0.1974
38061.0,1.324,1.1396,6.1962,-0.1905,-1.4175,-0.1405
38071.0,1.6185,1.087,5.7174,-0.1474,-1.2776,-0.107
38081.0,1.798,1.0822,5.4731,-0.1655,-1.1286,-0.0862
38091.0,1.8914,1.0894,5.3247,-0.2011,-0.9674,-0.0665
38101.0,2.0183,1.0319,5.363,-0.2267,-0.7966,-0.0394
38111.0,2.2122,1.0223,5.296,-0.2299,-0.6263,-0.0064
38121.0,2.2936,0.8404,5.5522,-0.2288,-0.4443,0.0293
38131.0,2.3296,0.747,5.7293,-0.1852,-0.2708,0.0612
38141.0,2.3463,0.6536,5.8682,-0.141,-0.1266,0.0894
38151.0,2.3176,0.419,6.1986,-0.1022,0.0053,0.1187
38161.0,2.3224,0.1748,6.4979,-0.0346,0.1235,0.1383
38171.0,2.4157,0.0599,6.8043,0.0772,0.2432,0.1394
38181.0,2.3727,0.3232,6.7062,0.2091,0.3709,0.1272
38191.0,2.2553,0.6871,6.7373,0.2272,0.4581,0.1165
38201.0,2.2697,1.1013,6.5864,0.1501,0.506,0.1203
38211.0,2.2146,1.3934,6.6295,0.0261,0.5741,0.1437
38221.0,1.9728,1.5395,6.6798,-0.0798,0.6556,0.1953
38231.0,1.7502,1.3815,6.8785,-0.1501,0.7412,0.2799
