time_ms,ax,ay,az,gx,gy,gz
266481.0,0.8116,0.4645,11.1977,0.0346,1.0898,-0.0628
266491.0,0.589,0.4405,11.9207,0.1511,0.9998,-0.0452
266501.0,0.2179,1.3455,12.4307,0.3991,0.8471,-0.0213
266511.0,0.3184,1.3815,12.457,0.7178,0.6753,0.0346
266521.0,1.7526,-0.2658,12.299,0.9647,0.5167,0.0782
266531.0,0.656,-1.1205,12.1985,1.035,0.3272,0.0096
266541.0,0.498,0.1556,9.3685,1.0504,0.0968,-0.0761
266551.0,0.7087,0.1676,11.6023,0.6258,0.0372,-0.1767
266561.0,0.067,1.5778,12.2823,0.5603,0.0048,-0.2123
266571.0,-0.4932,1.7957,13.0436,0.3485,-0.2033,-0.2123
266581.0,-0.1867,2.2936,11.7723,0.2043,-0.456,-0.191
266591.0,-0.0551,2.4157,11.6406,0.0788,-0.5034,-0.1538
266601.0,-0.0551,2.4157,11.6406,0.0788,-0.5034,-0.1538
266611.0,-0.3807,2.7581,11.2192,0.0708,-0.4821,-0.1091
266621.0,1.1827,3.8068,5.8778,-0.332,-0.8466,-0.0878
266631.0,0.8332,3.4213,7.9033,-1.1206,-0.6928,-0.1171
266641.0,0.8332,2.6073,7.8985,-1.1265,-0.3086,-0.0447
266651.0,0.6991,-0.1053,10.5034,-1.2116,-0.165,-0.0192
266661.0,0.7087,-0.984,11.2695,-0.8684,-0.1011,-0.0394
266671.0,0.7015,-1.2546,12.1123,-0.5321,-0.1096,-0.0814
266681.0,0.8188,-0.4693,11.4323,-0.1793,-0.2123,-0.1155
266691.0,1.1756,0.5674,10.2161,-0.0176,-0.2969,-0.1373
266701.0,1.2881,0.9218,10.2735,-0.0016,-0.265,-0.1368
266711.0,1.0343,0.9744,11.0875,0.0074,-0.2368,-0.1208
266721.0,0.8667,0.7949,11.6574,-0.008,-0.3342,-0.0942
266731.0,0.8667,1.0439,11.2863,-0.0537,-0.4715,-0.0745
266741.0,0.8045,1.324,10.8529,-0.1479,-0.5268,-0.0617
266751.0,0.7973,1.3072,10.386,-0.2815,-0.5577,-0.0442
266761.0,1.0391,0.7805,9.9168,-0.3895,-0.5438,-0.0282
266771.0,1.1875,0.2801,9.9982,-0.4119,-0.448,-0.0266
266781.0,1.2665,0.2873,10.0987,-0.3852,-0.3629,-0.0319
266791.0,1.5706,0.0072,9.742,-0.3783,-0.3166,-0.0474
266801.0,1.561,-0.1125,9.8114,-0.4028,-0.2395,-0.0857
266811.0,1.6592,0.0335,10.1011,-0.4363,-0.1745,-0.1298
266821.0,1.3048,0.3352,9.9144,-0.4417,-0.1554,-0.1607
266831.0,1.5107,0.3543,9.3996,-0.3448,-0.0484,-0.1415
266841.0,2.1165,0.3855,9.3398,-0.2336,0.1548,-0.1048
266851.0,1.9896,1.0127,9.5888,-0.1905,0.3246,-0.0506
266861.0,2.0662,0.7063,10.3094,-0.2331,0.4081,0.0378
266871.0,1.7142,-0.0742,11.0229,-0.3044,0.348,0.0718
266881.0,1.5993,-0.5674,10.2448,-0.282,0.1958,0.0192
266891.0,1.7621,-0.6823,9.5146,-0.1559,0.2102,-0.0591
266901.0,1.834,0.17,9.1554,0.009,0.3565,-0.1192
266911.0,1.7597,1.1708,9.6869,0.0585,0.4821,-0.107
266921.0,1.7095,1.822,9.2081,0.0271,0.5098,0.025
266931.0,1.7573,1.4653,9.2871,-0.0128,0.6822,0.2001
266941.0,1.1181,1.1085,10.5896,-0.0447,0.9019,0.3187
266951.0,0.7638,0.5004,11.6526,-0.0702,0.9206,0.3943
266961.0,1.008,-0.1341,11.6358,-0.0947,0.7742,0.4278
266971.0,1.0678,-0.3998,11.315,-0.1442,0.6715,0.3847
266981.0,0.7733,-0.316,11.5616,-0.2017,0.6385,0.282
266991.0,0.6249,-0.2466,11.3964,-0.1985,0.5529,0.1857
267001.0,0.6249,-0.182,10.9654,-0.1203,0.5076,0.1282
267011.0,0.2346,0.2682,10.9367,0.0394,0.5433,0.1038
267021.0,0.0694,0.4166,11.2599,0.2677,0.5906,0.1165
267031.0,0.4908,0.3208,11.6789,0.5449,0.613,0.1469
267041.0,0.419,0.316,11.9159,0.7753,0.571,0.1772
267051.0,0.6416,0.1173,11.2599,0.9897,0.4911,0.1937
267061.0,0.905,-0.1508,10.963,1.0334,0.4012,0.141
267071.0,1.1636,-0.395,10.6638,1.0115,0.3789,0.0607
267081.0,0.8739,-0.8045,10.9223,0.9099,0.3789,-0.0559
267091.0,0.6608,-0.2083,10.8433,0.7833,0.3693,-0.2006
267101.0,0.3591,0.316,11.133,0.5561,0.3469,-0.3262
267111.0,0.1389,0.6105,10.8314,0.2618,0.2432,-0.4076
267121.0,0.3663,0.7015,10.2137,-0.0138,0.1666,-0.4571
267131.0,0.2634,0.5291,10.1179,-0.2011,0.1596,-0.4975
267141.0,0.3807,0.6033,9.8138,-0.2458,0.1799,-0.5215
267151.0,0.565,0.6201,9.5553,-0.2049,0.2246,-0.5252
267161.0,0.3567,0.5435,10.1418,0.0032,0.3666,-0.4981
267171.0,-0.0431,0.3089,11.6598,0.3922,0.5433,-0.4401
267181.0,-0.3184,1.5179,11.5664,0.7561,0.5034,-0.3762
267191.0,-0.1987,1.8914,11.2408,0.8764,0.3719,-0.2953
267201.0,-0.0527,1.8627,10.7308,0.8812,0.2692,-0.2246
267211.0,-0.0048,1.5514,10.0269,0.7726,0.1676,-0.1948
267221.0,0.2682,1.3934,8.6455,0.5853,0.1144,-0.2123
267231.0,0.1245,1.4796,8.2959,0.2421,0.1602,-0.281
267241.0,-0.1772,1.6688,8.9687,-0.1155,0.2405,-0.3491
267251.0,-0.3424,1.3647,10.1011,-0.39,0.2735,-0.3922
267261.0,-0.5148,1.0511,11.0971,-0.4768,0.281,-0.422
267271.0,-0.5578,0.9194,11.7388,-0.4353,0.2277,-0.4534
267281.0,-0.5626,1.0415,11.983,-0.3294,0.1282,-0.48
267291.0,-0.4238,1.47,11.6789,-0.1985,0.0394,-0.4954
267301.0,-0.4094,1.968,11.1259,-0.1463,-0.042,-0.4959
267311.0,-0.3304,2.308,10.5632,-0.1756,-0.1011,-0.4794
267321.0,-0.2322,2.4181,10.0652,-0.2634,-0.1133,-0.4507
267331.0,-0.1317,2.32,9.809,-0.3938,-0.1075,-0.4246
267341.0,-0.1748,2.3104,9.4284,-0.5353,-0.0878,-0.4076
267351.0,-0.2658,2.0925,9.6079,-0.688,-0.0378,-0.389
267361.0,-0.2442,1.5897,10.1299,-0.7407,0.0346,-0.3539
267371.0,-0.17,1.1444,10.4531,-0.6401,0.1054,-0.3177
267381.0,0.0168,0.8404,10.5728,-0.4965,0.1447,-0.3044
267391.0,0.1437,0.747,10.5919,-0.3741,0.1591,-0.3108
267401.0,0.1484,0.929,10.3382,-0.3001,0.1469,-0.331
267411.0,0.1844,1.1899,10.1418,-0.3086,0.1389,-0.3565
267421.0,0.0263,1.5778,9.9886,-0.415,0.1229,-0.3837
267431.0,0.0742,1.7645,10.2568,-0.6008,0.0878,-0.3964
267441.0,-0.0862,1.9321,10.4746,-0.7391,0.0527,-0.3858
267451.0,-0.1365,1.8292,11.1115,-0.8487,-0.008,-0.3565
267461.0,-0.146,1.7047,11.3318,-0.8418,-0.0841,-0.3097
267471.0,-0.1844,1.4629,11.394,-0.7822,-0.1697,-0.2581
267481.0,-0.0383,1.2091,11.2168,-0.6731,-0.2538,-0.2139
267491.0,0.067,1.1756,10.6949,-0.5342,-0.306,-0.1793
267501.0,0.2346,1.2019,10.1131,-0.4214,-0.3102,-0.1538
267511.0,0.2969,1.2306,9.7803,-0.3257,-0.2565,-0.1277
267521.0,0.3328,1.142,9.7181,-0.2331,-0.1793,-0.0942
267531.0,0.2849,1.0295,9.7612,-0.1144,-0.0952,-0.058
267541.0,0.2011,0.9864,9.9192,0.0351,-0.0048,-0.0181
267551.0,0.1221,1.0151,10.1347,0.2081,0.0803,0.0261
267561.0,0.1317,1.0463,10.3238,0.39,0.1442,0.0745
267571.0,0.0311,1.2474,10.2376,0.5656,0.1841,0.1219
267581.0,0.1341,1.3479,10.2544,0.6976,0.2182,0.1724
267591.0,0.1389,1.3815,9.9958,0.7992,0.2607,0.2176
267601.0,0.1365,1.3024,9.9695,0.7987,0.2937,0.2389
267611.0,0.1532,1.1468,10.2208,0.7375,0.3225,0.2363
267621.0,0.1939,1.0343,10.4555,0.68,0.3278,0.2214
267631.0,0.1437,0.9673,10.6518,0.6002,0.2911,0.1921
267641.0,0.0958,1.0367,10.647,0.5098,0.232,0.1548
267651.0,0.1221,1.1564,10.5153,0.3906,0.1538,0.116
267661.0,0.0838,1.3503,10.3166,0.2767,0.0899,0.0851
267671.0,0.0551,1.4245,10.1969,0.1969,0.0718,0.0713
267681.0,0.1173,1.3144,10.1897,0.1532,0.0761,0.0708
267691.0,0.1245,1.0511,10.2735,0.1474,0.0878,0.0692
267701.0,0.2155,0.814,10.24,0.1724,0.1,0.0559
267711.0,0.182,0.668,10.3094,0.1878,0.1054,0.0213
267721.0,0.1676,0.7542,10.2113,0.1963,0.0894,-0.0266
267731.0,0.0862,0.905,10.1418,0.191,0.0777,-0.075
267741.0,0.0479,1.2234,9.9718,0.1799,0.0596,-0.1128
267751.0,-0.0479,1.5371,9.7276,0.1511,0.0521,-0.1373
267761.0,-0.1077,1.8268,9.5505,0.1266,0.074,-0.1405
267771.0,-0.1532,2.0016,9.4547,0.0793,0.1101,-0.133
267781.0,-0.2514,1.9968,9.7133,-0.0096,0.1437,-0.1203
267791.0,-0.2131,1.9321,10.0102,-0.0958,0.1373,-0.1101
267801.0,-0.2035,1.9058,10.2472,-0.1735,0.1011,-0.1048
267811.0,-0.2274,1.889,10.4028,-0.2251,0.0479,-0.0968
267821.0,-0.1317,1.8004,10.3549,-0.2405,-0.0239,-0.0793
267831.0,-0.0934,1.6903,10.082,-0.2448,-0.0857,-0.0644
267841.0,0.0263,1.5395,9.7971,-0.2512,-0.1181,-0.0564
267851.0,0.1101,1.4102,9.5816,-0.241,-0.1165,-0.0564
267861.0,0.1077,1.3671,9.3134,-0.2182,-0.0984,-0.0623
267871.0,0.1772,1.4341,8.9926,-0.2011,-0.0665,-0.0708
267881.0,0.2083,1.5251,8.9256,-0.2017,-0.0027,-0.0772
267891.0,0.1724,1.6783,8.9328,-0.1735,0.0803,-0.0713
267901.0,0.1724,1.6879,9.019,-0.1256,0.1655,-0.0516
267911.0,0.158,1.6831,9.1195,-0.0623,0.2506,-0.0266
267921.0,0.1628,1.5969,9.3039,0.0016,0.3347,-0.0011
267931.0,0.1125,1.5395,9.5984,0.0803,0.4161,0.0202
267941.0,0.0934,1.4724,9.8521,0.1772,0.4938,0.0372
267951.0,-0.0096,1.4461,10.1897,0.2283,0.5326,0.0452
267961.0,-0.0096,1.3958,10.6111,0.2778,0.5428,0.0458
267971.0,-0.103,1.561,10.4722,0.3214,0.5252,0.0351
267981.0,-0.2298,1.8004,10.3621,0.2485,0.4922,0.0106
267991.0,-0.3496,1.9944,10.5321,0.0745,0.455,-0.0165
268001.0,-0.3807,1.9058,10.817,-0.1479,0.3666,-0.0378
268011.0,-0.3974,1.6352,11.2456,-0.3182,0.2714,-0.0516
268021.0,-0.4932,1.3144,11.5257,-0.3586,0.1958,-0.0559
268031.0,-0.4693,1.0774,11.497,-0.2708,0.133,-0.0527
268041.0,-0.3328,1.1396,11.0468,-0.1532,0.0921,-0.0585
268051.0,-0.4812,1.3695,10.6374,-0.1006,0.0676,-0.0724
268061.0,-0.3663,1.5299,10.4555,-0.0878,0.0708,-0.075
268071.0,-0.3448,1.7526,10.1514,-0.0266,0.1336,-0.0585
268081.0,-0.4597,1.9561,10.0078,0.0282,0.2261,-0.0357
268091.0,-0.5076,1.9561,10.2592,0.0468,0.3257,-0.0048
268101.0,-0.5986,2.0614,10.5082,0.0559,0.3906,0.0234
268111.0,-0.6273,2.0542,10.8314,0.0346,0.422,0.0484
268121.0,-0.6967,1.9992,11.1953,0.009,0.4252,0.0708
268131.0,-0.6728,2.0111,11.4299,-0.0186,0.3826,0.0803
268141.0,-0.759,2.0111,11.5927,-0.0479,0.3241,0.0883
268151.0,-0.6704,1.9728,11.497,-0.0708,0.2437,0.0974
268161.0,-0.5794,1.9201,11.1546,-0.1219,0.1506,0.0952
268171.0,-0.5363,1.8794,10.8242,-0.2081,0.0718,0.0803
268181.0,-0.486,1.7933,10.5632,-0.2751,0.0341,0.0644
268191.0,-0.4836,1.9728,9.9623,-0.3134,0.0197,0.0532
268201.0,-0.5746,2.1141,9.6486,-0.398,0.0388,0.0452
268211.0,-0.5602,2.3104,9.2344,-0.4949,0.0628,0.05
268221.0,-0.7063,2.4205,8.9998,-0.5997,0.1219,0.066
268231.0,-0.7374,2.5426,8.8346,-0.6401,0.2283,0.1091
268241.0,-0.8068,2.5977,8.8633,-0.6486,0.3661,0.174
268251.0,-0.8811,2.5235,9.0405,-0.6279,0.5076,0.2533
268261.0,-1.008,2.2769,9.3733,-0.564,0.6635,0.3459
268271.0,-0.9792,1.9561,9.73,-0.4353,0.8189,0.4369
268281.0,-1.1492,1.7502,10.0509,-0.3139,0.9679,0.5007
268291.0,-1.4605,1.4581,10.817,-0.2522,1.0674,0.5406
268301.0,-1.5802,1.2139,11.5855,-0.1463,1.1121,0.5731
268311.0,-1.7382,1.1205,12.05,0.0239,1.1334,0.5986
268321.0,-1.901,1.1923,12.323,0.1735,1.1116,0.6103
268331.0,-1.9585,1.4293,12.3206,0.2538,1.0472,0.6109
268341.0,-2.0494,1.5921,12.4642,0.2379,0.961,0.5986
268351.0,-2.1859,1.7406,12.5241,0.1676,0.8631,0.5875
268361.0,-2.2649,1.7358,12.785,0.0788,0.7625,0.5811
268371.0,-2.4181,1.6161,13.2184,0.0101,0.6699,0.5853
268381.0,-2.4565,1.233,13.6134,-0.05,0.5358,0.5885
268391.0,-2.399,0.8499,13.726,-0.1538,0.3145,0.5678
268401.0,-2.3248,0.5459,13.6877,-0.3049,0.0543,0.5199
268411.0,-2.2338,0.2658,13.5225,-0.4417,-0.2059,0.455
268421.0,-2.1284,0.158,12.9742,-0.5369,-0.448,0.3874
268431.0,-2.0399,0.0479,12.2248,-0.6194,-0.6401,0.3198
268441.0,-1.9369,-0.0287,11.5065,-0.7045,-0.7694,0.2522
268451.0,-1.719,-0.0622,10.7715,-0.7662,-0.8312,0.1884
268461.0,-1.6352,-0.0383,10.3789,-0.8072,-0.8093,0.1362
268471.0,-1.5179,-0.0096,10.5249,-0.8269,-0.7439,0.0968
268481.0,-1.4916,0.0072,10.884,-0.7801,-0.6917,0.0766
268491.0,-1.5562,-0.103,11.1737,-0.6864,-0.6912,0.0782
268501.0,-1.4389,-0.407,11.2168,-0.5694,-0.7327,0.0851
268511.0,-1.2186,-0.5459,10.8194,-0.4395,-0.7764,0.0718
268521.0,-1.0678,-0.4884,10.5082,-0.3704,-0.7982,0.0277
268531.0,-0.8332,-0.1628,10.2448,-0.3464,-0.7987,-0.0287
268541.0,-0.8643,0.2753,10.3358,-0.3661,-0.7976,-0.0734
268551.0,-1.0343,0.6081,10.2113,-0.3416,-0.8189,-0.0766
268561.0,-0.8787,0.6847,9.979,-0.3198,-0.8482,-0.0537
268571.0,-0.747,0.6752,9.7564,-0.2714,-0.8466,-0.0218
268581.0,-0.6081,0.4669,9.6055,-0.166,-0.7918,0.0128
268591.0,-0.4621,0.3208,9.165,-0.0729,-0.7327,0.0325
268601.0,-0.3735,0.1867,9.0621,-0.1208,-0.6944,0.0154
268611.0,-0.0742,0.3567,9.1889,-0.2123,-0.6609,-0.0282
268621.0,-0.3519,0.5722,9.5217,-0.2682,-0.6093,-0.0607
268631.0,-0.3328,0.8308,9.8593,-0.281,-0.6135,-0.0681
268641.0,-0.2729,1.0008,9.8881,-0.2512,-0.6651,-0.042
268651.0,-0.1341,0.9002,9.6151,-0.1905,-0.7157,0.0074
268661.0,0.0814,0.6177,9.1482,-0.1123,-0.7231,0.0532
268671.0,0.237,0.237,8.8394,-0.0623,-0.679,0.0788
268681.0,0.4812,0.0,8.5712,-0.0176,-0.6093,0.074
268691.0,0.5507,-0.0479,8.4922,-0.017,-0.5241,0.0463
268701.0,0.5315,0.0383,8.6455,-0.0921,-0.4789,0.0037
268711.0,0.4956,0.1604,8.8155,-0.1942,-0.481,-0.0346
268721.0,0.6129,0.2083,8.8418,-0.2432,-0.4874,-0.0516
268731.0,0.747,0.1724,8.8562,-0.2139,-0.4331,-0.05
268741.0,0.7733,0.1293,8.9591,-0.1187,-0.3246,-0.041
268751.0,0.8571,0.0862,9.2703,-0.0325,-0.2112,-0.0357
268761.0,0.9074,0.2298,9.5816,0.0298,-0.1266,-0.0367
268771.0,0.8068,0.249,10.2592,0.0362,-0.0921,-0.0383
268781.0,0.814,0.3783,10.6638,0.0782,-0.1011,-0.0298
268791.0,0.826,0.4788,10.9535,0.1506,-0.1224,-0.0112
268801.0,0.7518,0.4836,11.066,0.2299,-0.1548,0.0176
268811.0,0.8068,0.4262,11.0804,0.2879,-0.1963,0.0404
268821.0,0.7973,0.3112,11.0325,0.3187,-0.2293,0.0521
268831.0,0.6967,0.2849,10.9702,0.3299,-0.2575,0.0484
268841.0,0.759,0.0622,11.327,0.306,-0.2772,0.0314
268851.0,0.7949,0.0,11.6454,0.3406,-0.2953,0.0053
268861.0,0.6895,0.237,11.8417,0.3597,-0.3618,-0.0309
268871.0,0.6967,0.4286,11.9662,0.3283,-0.4938,-0.0596
268881.0,0.8092,0.759,11.5401,0.2788,-0.6753,-0.0798
268891.0,0.8212,1.0223,11.078,0.1708,-0.845,-0.0947
268901.0,0.8308,0.9936,10.5345,0.0905,-0.9839,-0.0883
268911.0,0.9936,0.9697,9.5289,0.0591,-1.086,-0.0782
268921.0,1.2522,1.1325,8.5736,0.0506,-1.0711,-0.0702
268931.0,1.3001,1.3527,8.2983,0.0814,-0.9136,-0.0527
268941.0,1.4653,1.6305,8.339,0.174,-0.7279,-0.0122
268951.0,1.7813,1.6999,8.5712,0.2474,-0.6119,0.0426
268961.0,1.9992,1.4964,8.8753,0.2586,-0.6093,0.0921
268971.0,2.0303,1.3312,8.9256,0.2171,-0.7545,0.1192
268981.0,2.1548,1.4485,7.5082,0.1458,-1.0562,0.1442
268991.0,2.1045,1.5969,4.3934,-0.1298,-1.4457,0.165
269001.0,2.5522,1.2067,0.431,-0.721,-1.8645,0.1564
269011.0,3.1244,0.5148,-3.893,-1.3106,-2.0348,0.1171
269021.0,3.1532,0.589,-8.2576,-1.5341,-1.7602,0.074
269031.0,2.8563,0.1245,-13.4482,-1.3611,-1.1685,0.107
269041.0,2.6743,-0.7159,-19.1033,-1.0605,-0.2469,0.1522
269051.0,2.1356,-1.798,-23.2525,-0.8636,1.1286,0.1362
269061.0,0.2801,-2.071,-23.9516,-0.3964,3.182,0.0644
269071.0,-3.9361,-0.9649,-19.6301,0.3459,5.6909,-0.0048
269081.0,-8.8394,0.0527,-11.4203,1.2361,7.9551,0.0218
269091.0,-13.2926,0.2753,-1.3408,2.3322,9.8409,0.1208
269101.0,-17.3891,-0.0383,11.3509,3.3645,11.1515,0.1447
269111.0,-19.1225,1.2115,22.721,3.9525,11.3489,-0.0037
269121.0,-19.5558,0.6345,34.0072,3.8477,10.4571,-0.2144
269131.0,-19.721,2.162,40.2441,3.8158,8.8996,-0.4762
269141.0,-18.0427,4.1899,44.6782,3.0942,6.7163,-0.8003
269151.0,-16.9701,6.3566,45.9423,2.0587,4.3021,-1.0584
269161.0,-16.4721,8.102,44.7524,1.0797,2.054,-1.1797
269171.0,-16.022,8.8274,41.8387,0.2607,0.0341,-1.1568
269181.0,-15.1457,9.3925,36.9737,-0.2879,-1.632,-1.035
269191.0,-14.2694,9.1842,31.8261,-0.6981,-2.9048,-0.8562
269201.0,-13.0388,8.667,26.1064,-0.9275,-3.762,-0.6465
269211.0,-11.6741,7.0485,21.452,-1.2435,-4.2941,-0.4762
269221.0,-10.4603,5.4803,17.6812,-1.5218,-4.5623,-0.4017
269231.0,-9.6127,4.2856,15.4354,-1.6927,-4.6395,-0.397
269241.0,-8.4707,3.7469,13.4794,-1.641,-4.6629,-0.4071
269251.0,-7.5992,3.8379,11.9351,-1.492,-4.6613,-0.4097
269261.0,-6.7349,4.0893,10.058,-1.3175,-4.723,-0.3677
269271.0,-5.5929,4.0701,7.8027,-1.1456,-4.8199,-0.2788
269281.0,-4.3574,3.8188,4.8722,-1.011,-4.8577,-0.1751
269291.0,-3.0263,2.9688,1.5658,-1.0733,-4.8832,-0.0942
269301.0,-1.3647,1.6041,-2.3176,-1.3021,-4.8369,-0.0724
269311.0,0.1437,0.1772,-5.715,-1.4388,-4.4495,-0.1117
269321.0,1.5682,-0.4334,-8.169,-1.3776,-3.7631,-0.2011
269331.0,2.2841,-0.5315,-9.1602,-1.1467,-2.9096,-0.2889
269341.0,3.3519,-0.1197,-10.568,-0.705,-2.0508,-0.3257
269351.0,3.7038,0.3591,-12.39,-0.3815,-1.2329,-0.3294
269361.0,3.9624,0.5986,-13.8552,-0.3379,-0.4417,-0.3352
269371.0,3.6224,0.996,-15.0715,-0.456,0.4108,-0.3475
269381.0,2.3798,1.4198,-15.354,-0.705,1.3063,-0.3485
269391.0,1.2354,0.5148,-14.2407,-0.8732,2.2391,-0.2804
269401.0,-0.1532,-1.087,-11.8202,-0.6236,3.3715,-0.1889
269411.0,-2.0686,-2.3535,-7.8482,0.0154,4.6038,-0.1495
269421.0,-4.312,-2.8539,-3.3375,0.8631,5.7314,-0.1724
269431.0,-6.9791,-2.3343,1.5754,1.6346,6.6349,-0.2506
269441.0,-9.5648,-1.6855,7.4962,2.2104,7.3043,-0.3581
269451.0,-12.0692,-0.1915,13.4339,2.5994,7.7204,-0.4879
269461.0,-13.6541,1.0439,20.8367,2.543,7.7236,-0.6316
269471.0,-14.6812,2.988,28.0313,2.5148,7.3708,-0.7263
269481.0,-15.3995,5.2577,34.3903,2.2854,6.4992,-0.7817
269491.0,-15.1409,6.5266,39.9401,1.5894,4.9024,-0.7918
269501.0,-14.7866,6.9935,42.6838,0.9301,2.9426,-0.7114
269511.0,-14.2383,6.5529,42.1882,0.5401,0.895,-0.5624
269521.0,-13.556,6.3375,37.3615,0.3751,-1.0568,-0.4113
269531.0,-12.6198,6.0166,30.787,0.0729,-2.6568,-0.3161
269541.0,-11.4347,5.2888,24.768,-0.3081,-3.7078,-0.2735
269551.0,-10.3813,4.7381,19.9461,-0.5007,-4.201,-0.2543
269561.0,-9.268,4.3958,16.204,-0.5587,-4.3527,-0.2347
269571.0,-8.1642,4.1204,13.6039,-0.5944,-4.3271,-0.2134
269581.0,-7.1563,4.0438,11.9806,-0.6135,-4.2202,-0.1889
269591.0,-6.2034,3.8595,11.3557,-0.6013,-4.1052,-0.1431
269601.0,-5.4564,3.7709,11.0373,-0.5028,-4.0696,-0.0772
269611.0,-4.8674,3.8858,10.2328,-0.3416,-4.1813,0.0154
269621.0,-4.197,3.5674,8.2241,-0.2192,-4.424,0.1373
269631.0,-3.1149,2.7581,5.351,-0.2389,-4.6549,0.2331
269641.0,-2.1763,2.1835,1.8938,-0.4284,-4.7512,0.2549
269651.0,-0.6823,1.142,-1.1971,-0.6838,-4.6124,0.2309
269661.0,0.4262,0.3663,-2.9042,-0.7923,-4.1297,0.1623
269671.0,1.3695,0.6201,-4.4628,-0.7689,-3.5625,0.074
269681.0,2.3176,0.7566,-5.6599,-0.862,-3.0863,0.0112
269691.0,2.9233,1.0223,-7.9248,-1.0009,-2.6547,-0.0176
269701.0,3.6919,1.1085,-11.4419,-1.3888,-2.3248,-0.0372
269711.0,4.7094,0.2945,-14.1138,-1.8225,-1.7735,-0.0607
269721.0,4.6591,-0.4334,-16.7522,-1.8124,-0.7854,-0.0559
269731.0,4.0582,-2.2338,-17.4992,-1.549,0.4715,-0.0468
269741.0,3.5147,-3.6919,-17.6333,-1.0392,1.8512,-0.1043
269751.0,1.3815,-4.0366,-15.5815,-0.5284,3.3076,-0.2591
269761.0,-1.4413,-2.9568,-12.4115,0.0511,4.7044,-0.4193
269771.0,-4.6998,-1.9824,-7.2496,0.638,6.0629,-0.513
269781.0,-7.865,-0.6345,-1.2689,1.2095,7.2053,-0.5593
269791.0,-11.1211,0.7566,6.4643,1.5618,7.9998,-0.5917
269801.0,-13.6565,2.5474,15.4929,1.7996,8.3994,-0.5795
269811.0,-15.4378,3.2896,24.6699,1.839,8.2052,-0.5076
269821.0,-16.0651,3.541,33.052,1.8321,7.4895,-0.4188
269831.0,-15.7945,4.0749,38.5969,1.9443,6.2529,-0.3251
269841.0,-15.378,4.3694,41.458,1.7006,4.4783,-0.2969
269851.0,-14.37,5.7988,40.0622,1.1414,2.2599,-0.3155
269861.0,-13.2735,5.1739,37.486,0.3076,0.4933,-0.3624
269871.0,-12.8425,5.9209,33.1956,-0.2799,-0.9674,-0.3858
269881.0,-12.3541,5.2218,30.7846,-0.7551,-2.0375,-0.3384
269891.0,-11.2623,4.8842,26.7552,-0.6423,-2.784,-0.2065
269901.0,-10.2879,4.4053,23.5039,-0.3916,-3.1996,-0.0585
269911.0,-9.3518,4.4125,20.2765,-0.2075,-3.5572,0.0612
269921.0,-8.5425,4.4772,17.2119,-0.2102,-3.9222,0.1607
269931.0,-7.2401,4.0654,14.0611,-0.3533,-4.2638,0.2432
269941.0,-6.0214,3.2801,10.8721,-0.5848,-4.5043,0.2852
269951.0,-4.6831,2.569,8.6311,-0.8221,-4.599,0.2772
269961.0,-3.7876,2.2338,6.5601,-0.7886,-4.5166,0.2804
269971.0,-2.7988,2.1308,4.312,-0.6061,-4.3612,0.3225
269981.0,-1.4365,1.1923,2.0614,-0.4656,-4.1936,0.3906
269991.0,0.1413,-0.1508,-0.2274,-0.3331,-3.9158,0.4246
270001.0,1.1636,-1.6041,-1.6448,-0.1219,-3.3922,0.4017
270011.0,1.9393,-2.3631,-3.1556,0.0032,-2.8606,0.2975
270021.0,2.7102,-2.5019,-3.8403,-0.182,-2.4222,0.1086
270031.0,3.201,-2.1476,-4.4341,-0.4347,-2.0061,-0.0878
270041.0,4.5059,-1.2306,-4.9847,-0.6976,-1.6309,-0.2677
270051.0,4.2617,-0.4453,-5.3056,-0.9003,-1.2366,-0.3688
270061.0,4.3574,-0.6704,-7.3717,-1.127,-1.0743,-0.389
270071.0,4.7932,-1.7789,-10.5393,-1.318,-0.8046,-0.3954
270081.0,4.1803,-2.3774,-14.1018,-1.3085,-0.0745,-0.4299
270091.0,3.1316,-2.0973,-17.3292,-1.3159,0.9408,-0.5013
270101.0,1.3671,-2.0494,-16.9246,-1.1084,2.5366,-0.5204
270111.0,-1.9585,-1.3743,-13.3094,-0.5034,4.4357,-0.4762
270121.0,-5.2194,-0.8428,-7.5034,0.1884,6.0272,-0.3863
270131.0,-8.2959,-0.6632,-1.2498,0.9796,7.2926,-0.2629
270141.0,-11.2887,-1.4126,6.0238,1.6182,8.169,-0.1974
270151.0,-13.2399,-3.3399,13.9965,1.9672,8.525,-0.2575
270161.0,-14.3173,-4.8866,22.1751,2.0002,8.3707,-0.5231
270171.0,-15.2654,-3.6512,30.5716,2.2907,7.912,-0.8844
270181.0,-16.441,1.1588,35.1612,2.5478,6.8653,-1.2169
270191.0,-16.1824,4.6807,39.8898,1.5548,4.929,-1.4857
270201.0,-15.3756,7.7189,40.7421,0.5204,2.5488,-1.5165
270211.0,-15.4833,6.699,40.0358,-0.5279,0.4518,-1.3947
270221.0,-14.1042,7.1132,34.2921,-0.837,-1.4319,-1.1919
270231.0,-13.4339,5.3606,29.3218,-1.0036,-2.6973,-0.9562
270241.0,-11.8298,4.0773,23.7026,-0.7944,-3.488,-0.7599
270251.0,-10.5225,3.5721,17.9852,-0.4539,-3.7897,-0.6263
270261.0,-9.347,2.5977,15.2535,-0.364,-3.7812,-0.5789
270271.0,-8.3007,2.7509,12.4498,-0.0777,-3.6024,-0.5571
270281.0,-7.671,3.3184,11.3725,0.0495,-3.3645,-0.5529
270291.0,-6.8857,4.5586,10.6734,0.1048,-3.2363,-0.5098
270301.0,-6.2896,5.545,11.0828,0.1016,-3.1544,-0.3927
270311.0,-5.9304,5.782,11.7292,0.2107,-3.173,-0.1777
270321.0,-5.5593,5.5689,11.2743,0.3549,-3.4156,0.0841
270331.0,-4.9033,4.2569,10.0963,0.3757,-3.7886,0.3267
270341.0,-3.9361,2.6097,8.1355,0.4161,-4.0733,0.4975
270351.0,-3.1532,1.233,6.5984,0.5215,-4.0925,0.571
270361.0,-2.6408,1.2234,5.1308,0.6822,-3.9424,0.5699
270371.0,-2.1261,1.3695,3.9049,0.6662,-3.8105,0.5555
270381.0,-0.9744,0.8619,2.6887,0.439,-3.7413,0.5364
270391.0,0.067,0.4405,1.8699,0.1799,-3.5896,0.4672
270401.0,0.9146,0.5698,1.166,0.0729,-3.3172,0.3874
270411.0,1.4916,0.6704,0.4142,0.0261,-3.0192,0.3352
270421.0,2.1691,0.4262,-0.2825,-0.0149,-2.717,0.3033
270431.0,2.8108,-0.6129,-0.4286,0.0053,-2.3072,0.2746
270441.0,3.2178,-1.6305,0.2969,0.1889,-1.7874,0.2065
270451.0,3.4357,-1.6568,1.3647,0.4805,-1.2755,0.0873
270461.0,3.1627,-0.9242,2.5642,0.6763,-0.9392,-0.0452
270471.0,3.3878,0.5914,2.6193,0.7125,-0.8775,-0.1511
270481.0,3.5195,2.0542,0.9697,0.4347,-1.0467,-0.2022
270491.0,4.0606,2.7581,-3.2465,-0.265,-1.3856,-0.215
270501.0,4.9919,2.5546,-8.0613,-1.2702,-1.4798,-0.2384
270511.0,5.2696,2.0949,-11.3988,-1.9928,-0.9158,-0.2432
270521.0,4.719,1.968,-13.283,-2.2317,0.0915,-0.1868
270531.0,3.5338,2.0231,-14.042,-2.1763,1.1691,-0.0612
270541.0,2.399,2.1308,-15.038,-1.6714,2.3328,0.1767
270551.0,-0.0622,2.0231,-16.5846,-0.77,3.8323,0.4911
270561.0,-3.2801,0.6225,-16.0531,-0.0607,5.5904,0.7567
270571.0,-7.1491,-2.8946,-10.2376,0.422,7.5336,0.8721
270581.0,-11.2958,-6.7325,-1.4365,1.0371,9.2699,0.7471
270591.0,-15.536,-8.3534,10.5489,1.7379,10.5252,0.3342
270601.0,-18.749,-5.6838,19.065,2.1742,10.6885,-0.2341
270611.0,-19.9006,-3.881,30.799,1.9688,10.1469,-0.7407
270621.0,-20.2047,1.4557,36.9928,2.3365,9.0693,-1.0323
270631.0,-19.9676,4.7621,43.9575,1.8044,7.3847,-1.202
270641.0,-19.0315,7.2185,47.5369,0.9147,5.0657,-1.2223
270651.0,-18.1792,7.7907,46.6678,-0.0261,2.4929,-1.1047
270661.0,-16.453,6.4141,43.3135,-0.9434,0.0186,-0.9445
270671.0,-15.2894,5.5857,36.4326,-1.2835,-1.881,-0.7636
270681.0,-13.7619,4.2138,29.0656,-1.4713,-3.207,-0.6002
270691.0,-12.7898,6.0837,22.3858,-1.3893,-3.8866,-0.464
270701.0,-11.054,8.7077,13.6565,-0.7141,-3.7312,-0.1543
270711.0,-9.3422,4.8866,11.8728,-0.5513,-3.1709,0.1719
270721.0,-6.9623,3.0622,9.7516,-0.2714,-2.8521,0.3028
270731.0,-5.6886,1.5682,9.9288,-0.4911,-2.6026,0.2629
270741.0,-5.0829,1.0343,10.9032,-0.8035,-2.5738,0.1261
270751.0,-4.0582,1.98,8.9663,-0.8216,-2.71,0.0011
270761.0,-4.1156,0.6177,10.6135,-1.3957,-2.9123,-0.1389
270771.0,-3.5554,0.0503,10.1299,-1.5681,-3.2901,-0.2432
270781.0,-2.6097,-0.2394,8.0541,-1.235,-3.331,-0.2325
270791.0,-2.0039,-0.8236,6.4787,-0.7279,-3.0698,-0.1974
270801.0,-1.2689,-0.4549,4.2593,-0.3773,-2.8415,-0.2107
270811.0,-0.7087,-0.3065,3.5123,-0.4289,-2.5866,-0.2639
270821.0,-0.1748,0.3903,3.3303,-0.4427,-2.2072,-0.3028
270831.0,-0.2586,1.2139,4.0366,-0.4166,-1.7421,-0.2921
270841.0,-0.4501,1.5538,5.3295,-0.4315,-1.4473,-0.2235
270851.0,-0.3519,1.3479,6.0693,-0.4321,-1.3478,-0.1224
270861.0,-0.0718,0.2993,6.7109,-0.3421,-1.2494,-0.0213
270871.0,0.3112,-1.0487,7.2664,-0.0825,-1.0451,0.033
270881.0,0.3974,-1.7478,8.2073,0.1538,-0.8237,-0.0186
270891.0,0.3184,-1.4676,9.4978,0.2139,-0.7492,-0.1591
270901.0,0.0407,0.0,10.3382,0.1165,-0.9003,-0.3118
270911.0,-0.1628,1.4844,10.6781,-0.0825,-1.1797,-0.3821
270921.0,-0.2634,2.5283,10.5967,-0.1916,-1.4372,-0.3315
270931.0,-0.2705,2.9233,9.912,-0.1431,-1.6043,-0.183
270941.0,-0.0287,2.6719,8.6933,-0.0431,-1.6799,0.0043
270951.0,0.3496,1.7047,7.7213,0.0367,-1.6112,0.1745
270961.0,0.9266,-0.1556,8.1044,0.1612,-1.3415,0.2815
270971.0,0.972,-1.2977,9.3158,0.4385,-0.9802,0.2836
270981.0,0.7949,-0.7733,10.3837,0.6604,-0.8141,0.2022
270991.0,0.68,0.261,11.2456,0.5981,-0.9519,0.1133
271001.0,0.7829,1.2306,11.0277,0.4065,-1.2765,0.0729
271011.0,1.0056,1.8124,10.1059,0.1799,-1.5841,0.0857
271021.0,1.257,1.9465,8.916,-0.0112,-1.757,0.1314
271031.0,1.5131,1.798,7.8314,-0.1144,-1.7682,0.1942
271041.0,1.7406,1.3048,7.2999,-0.1139,-1.6299,0.2618
271051.0,2.217,0.589,7.3789,0.0479,-1.3718,0.3267
271061.0,2.3679,0.2227,7.6447,0.3326,-1.0701,0.3624
271071.0,2.4995,0.5602,7.6303,0.5433,-0.879,0.3672
271081.0,2.6959,0.9194,7.6375,0.53,-0.8163,0.3597
271091.0,2.9185,1.2546,7.5705,0.4007,-0.7918,0.3533
271101.0,2.9473,1.2163,7.616,0.2379,-0.754,0.3608
271111.0,2.9975,0.7925,7.9296,0.1016,-0.7146,0.3698
271121.0,3.0335,0.3041,8.3103,0.0617,-0.6694,0.3709
271131.0,3.043,-0.0551,8.5066,0.1048,-0.6502,0.3618
271141.0,3.1699,-0.4118,8.837,0.1676,-0.6433,0.3347
271151.0,3.2082,-0.3687,8.9615,0.2921,-0.6619,0.3001
271161.0,3.2441,0.0503,8.327,0.365,-0.7641,0.2597
271171.0,3.5099,0.3496,7.4005,0.2996,-0.9073,0.2272
271181.0,3.7373,0.8835,5.6096,0.1575,-1.0318,0.2011
271191.0,4.0558,1.0702,4.0606,-0.1011,-1.0312,0.1841
271201.0,4.1851,0.6608,2.7366,-0.3155,-0.8482,0.1889
271211.0,4.4388,-0.5578,2.9305,-0.4667,-0.4848,0.1767
271221.0,4.3622,-1.3862,3.8403,-0.3704,-0.0436,0.1213
271231.0,4.1635,-1.4174,4.8171,-0.1479,0.3129,0.0341
271241.0,3.9002,-0.7111,5.4636,-0.0037,0.4395,-0.0591
271251.0,3.9145,0.68,4.2569,0.0521,0.3916,-0.1123
271261.0,3.9959,1.5371,2.7031,-0.0942,0.4161,-0.108
271271.0,3.881,1.9585,1.7119,-0.281,0.6524,-0.0692
271281.0,3.3878,2.3942,1.6472,-0.3725,1.0387,0.0
271291.0,2.6073,2.9449,1.8387,-0.3453,1.384,0.1187
271301.0,2.3128,3.0215,2.1284,-0.2416,1.6384,0.2943
271311.0,1.9058,2.5522,1.2282,-0.0729,1.7943,0.4911
271321.0,2.0758,2.162,-1.5586,-0.1687,1.7996,0.6242
271331.0,2.071,1.2186,-3.6823,-0.4411,2.1029,0.6981
271341.0,0.8954,0.9673,-5.7221,-0.455,2.867,0.7508
271351.0,-0.5243,0.7207,-5.2361,-0.5507,3.7759,0.771
271361.0,-2.9042,1.1325,-3.711,-0.357,4.7347,0.8461
271371.0,-5.849,2.4517,-4.2497,0.0117,5.5356,1.0078
271381.0,-8.8514,1.2234,-3.1556,0.0756,6.3854,1.2515
271391.0,-11.461,-4.3239,1.4461,0.5013,7.6917,1.4979
271401.0,-13.1825,-12.4475,9.8234,1.4873,9.2689,1.417
271411.0,-15.9837,-16.1393,19.9988,2.4419,10.3671,0.6726
271421.0,-17.8416,-11.4371,28.9842,2.8777,10.224,-0.4693
271431.0,-18.6269,-3.3255,35.6592,2.3573,8.9304,-1.4745
271441.0,-19.563,3.6703,42.7173,0.9062,7.0473,-2.1136
271451.0,-20.6763,8.3582,48.983,-0.4613,4.8215,-2.2684
271461.0,-20.0826,10.9966,49.8664,-1.3989,1.9938,-2.0034
271471.0,-18.9357,11.054,45.8346,-2.0082,-0.9126,-1.4697
271481.0,-17.4035,9.2344,37.5459,-1.963,-3.1639,-0.7843
271491.0,-14.5304,4.9656,27.9858,-1.5229,-4.4953,-0.1575
271501.0,-11.6071,1.47,18.1073,-1.0419,-4.9561,0.1713
271511.0,-8.9543,-0.5914,10.8218,-1.0706,-4.8018,0.1378
271521.0,-6.7852,-1.2713,7.5154,-1.3718,-4.2042,-0.1144
271531.0,-5.5067,-0.0694,6.6128,-1.4085,-3.3555,-0.373
271541.0,-5.0159,1.6065,7.4939,-1.2835,-2.5962,-0.5023
271551.0,-4.8052,3.2178,8.5808,-1.0882,-2.1806,-0.4752
271561.0,-4.2617,3.6583,9.5289,-0.9035,-2.0518,-0.3161
271571.0,-3.5195,3.0143,9.9335,-0.6588,-2.0284,-0.1032
271581.0,-2.964,2.0542,10.0078,-0.4076,-2.0039,0.0708
271591.0,-2.5594,1.0175,10.4291,-0.2677,-1.9986,0.1692
271601.0,-2.2841,0.4549,10.7667,-0.2065,-2.0875,0.1963
271611.0,-2.0782,0.5171,10.8409,-0.2629,-2.2849,0.1799
271621.0,-1.9489,0.5626,10.8481,-0.3799,-2.5494,0.1772
271631.0,-1.6999,0.7709,9.8904,-0.4592,-2.8495,0.2017
271641.0,-1.3599,0.5387,8.6239,-0.6199,-3.1416,0.2395
271651.0,-0.9457,-0.2682,7.0916,-0.7428,-3.3427,0.2799
271661.0,-0.2921,-1.2546,5.4109,-0.7221,-3.3582,0.2975
271671.0,0.3136,-1.8651,4.2928,-0.5869,-3.1219,0.2623
271681.0,0.6129,-1.7933,3.7445,-0.3757,-2.7234,0.2065
271691.0,0.7326,-1.4748,4.3527,-0.2607,-2.3365,0.1458
271701.0,0.8116,-0.7302,5.3391,-0.1905,-2.1002,0.1123
271711.0,0.9074,-0.0096,5.9927,-0.1777,-2.055,0.1314
271721.0,1.1085,0.1149,6.2369,-0.2426,-2.1582,0.1926
271731.0,1.4676,-0.0239,5.8778,-0.257,-2.27,0.274
271741.0,2.1165,-0.6967,4.9057,-0.165,-2.2753,0.3618
271751.0,2.5618,-1.5514,4.2066,-0.0378,-2.1242,0.4124
271761.0,2.8635,-1.9465,3.7469,0.0835,-1.9082,0.4033
271771.0,3.0765,-1.9082,3.7709,0.1868,-1.6613,0.365
271781.0,3.1292,-1.5179,3.9911,0.2857,-1.4271,0.332
271791.0,3.0358,-1.0008,4.3479,0.3688,-1.2505,0.3193
271801.0,3.1436,-0.3663,4.3838,0.4672,-1.1526,0.3416
271811.0,3.2705,0.1484,4.0965,0.5608,-1.0509,0.3996
271821.0,3.383,0.419,3.9456,0.6854,-0.8716,0.4842
271831.0,3.3519,0.4717,3.9648,0.8716,-0.6008,0.5864
271841.0,3.4165,0.0694,4.3838,1.0445,-0.2879,0.6843
271851.0,3.3878,-0.6895,5.521,1.1691,-0.0128,0.7418
271861.0,3.1651,-0.9816,6.6032,1.2467,0.1357,0.7391
271871.0,3.1029,-0.723,7.2951,1.2153,0.1101,0.7008
271881.0,3.3543,-0.644,7.5609,1.0733,-0.0048,0.6689
271891.0,3.6009,-0.7183,7.6112,0.9461,-0.083,0.6465
271901.0,3.5793,-0.6057,7.7716,0.9078,-0.0452,0.6284
271911.0,3.4405,-0.7015,9.0046,0.9956,0.1192,0.6337
271921.0,3.1843,-0.5219,10.5776,1.2866,0.2682,0.6619
271931.0,2.7198,0.0335,11.2527,1.5133,0.1671,0.6955
271941.0,2.6001,-0.1963,11.3964,1.4277,-0.2166,0.7221
271951.0,3.1005,-0.7566,10.2783,1.2638,-0.6699,0.7141
271961.0,3.7086,-1.2139,8.2624,1.0972,-0.9355,0.6513
271971.0,4.2401,-1.8842,6.4117,0.9003,-0.9355,0.5332
271981.0,4.4317,-2.0111,5.2912,0.68,-0.7577,0.3491
271991.0,4.2234,-0.984,4.9991,0.5013,-0.5172,0.1431
272001.0,3.8403,0.4812,4.561,0.4502,-0.3124,0.0314
272011.0,3.5554,1.6903,4.0294,0.4704,-0.1586,0.0319
272021.0,3.4333,2.8299,2.6025,0.5545,-0.0484,0.1309
272031.0,3.2034,3.2801,-0.984,0.4326,-0.0357,0.298
272041.0,4.2808,1.4844,-6.2249,-0.4198,-0.1846,0.4156
272051.0,5.0398,-1.5347,-10.6374,-1.5729,0.0245,0.3799
272061.0,4.4628,-1.6568,-15.1553,-2.1263,0.9913,0.2246
272071.0,1.5538,-1.5419,-15.2989,-2.0023,2.759,0.1495
272081.0,-1.7262,-1.0032,-12.9814,-1.0461,4.7975,0.216
272091.0,-5.4995,-1.0439,-8.4563,0.2017,6.6477,0.3432
272101.0,-8.9304,-1.6783,-5.1523,1.3122,7.9849,0.4624
272111.0,-11.7412,-3.5841,-1.5514,1.641,8.7777,0.4129
272121.0,-14.358,-4.9799,1.6472,1.3244,9.1752,0.1224
272131.0,-16.4913,-6.1507,7.1682,0.8062,9.6802,-0.2852
272141.0,-18.9405,-6.8666,15.9621,0.6545,10.2049,-0.6992
272151.0,-21.0091,-3.8331,24.0426,1.0312,10.1485,-1.0754
272161.0,-21.5047,0.3519,30.1693,1.2744,9.3082,-1.2696
272171.0,-20.3842,3.6416,34.5004,1.1898,7.979,-1.2286
272181.0,-19.9293,5.521,37.6416,0.9658,6.5652,-1.0131
272191.0,-19.0914,4.2593,39.3822,0.5225,4.8672,-0.7136
272201.0,-17.8368,0.7709,39.988,0.2315,3.0942,-0.4752
272211.0,-16.0819,-1.0463,36.8731,0.3283,1.4612,-0.4273
272221.0,-14.7196,-2.162,33.5428,0.2022,0.1027,-0.589
272231.0,-13.7667,-1.968,30.0041,-0.0814,-0.9924,-0.8764
272241.0,-13.1729,-1.0558,27.3178,-0.4901,-1.9028,-1.1893
272251.0,-12.7539,0.5602,24.4017,-0.7455,-2.6611,-1.416
272261.0,-12.4139,2.6647,21.2605,-0.8471,-3.2603,-1.4968
272271.0,-11.8513,4.027,18.3516,-0.8072,-3.6966,-1.4037
272281.0,-10.7667,4.8985,14.7315,-0.5917,-3.9062,-1.1786
272291.0,-9.6678,4.8243,12.639,-0.4268,-3.8301,-0.9094
272301.0,-8.7125,4.0701,11.9566,-0.2299,-3.6173,-0.6449
272311.0,-8.1714,3.201,11.4586,-0.0372,-3.5093,-0.4299
272321.0,-7.4867,2.2146,10.6877,0.0106,-3.6051,-0.2948
272331.0,-6.62,1.3001,9.3685,-0.0793,-3.8078,-0.2469
272341.0,-5.6479,0.7733,7.8721,-0.2469,-3.9488,-0.2852
272351.0,-4.8914,0.9146,6.6822,-0.4049,-3.9318,-0.3688
272361.0,-4.4724,1.3072,6.608,-0.4975,-3.7737,-0.4337
272371.0,-4.3431,1.6783,6.7493,-0.4177,-3.6024,-0.4289
272381.0,-4.0534,1.9297,6.9168,-0.249,-3.5114,-0.3602
272391.0,-3.5075,1.7957,6.869,0.0005,-3.455,-0.2426
272401.0,-2.8108,1.6592,6.6774,0.3336,-3.3422,-0.1027
272411.0,-2.2913,1.7885,6.1268,0.5944,-3.2294,0.0266
272421.0,-1.9465,2.047,5.0661,0.5193,-3.2645,0.1224
272431.0,-1.2689,1.3767,4.4293,0.0968,-3.3922,0.1846
272441.0,-0.4836,0.4429,3.395,-0.2863,-3.4502,0.2038
272451.0,0.3352,-0.6871,2.8874,-0.4986,-3.3034,0.1751
272461.0,0.9242,-1.2186,2.794,-0.4534,-2.9804,0.1086
272471.0,1.4293,-1.6544,3.4285,-0.1958,-2.576,0.0495
272481.0,1.8507,-1.7621,3.723,0.1953,-2.2152,-0.0021
272491.0,2.3008,-1.3743,4.0247,0.5273,-1.9401,-0.0585
272501.0,2.727,-0.6369,4.3096,0.7657,-1.7336,-0.0921
272511.0,2.8898,0.2705,4.0606,0.9088,-1.591,-0.0873
272521.0,2.9951,1.0056,3.6176,0.8338,-1.5367,-0.0537
272531.0,3.1939,1.0199,2.9425,0.5688,-1.5729,-0.0059
272541.0,3.802,0.4669,2.0399,0.2341,-1.591,0.0202
272551.0,4.4029,-0.1484,1.5323,0.0436,-1.3893,0.009
272561.0,4.7118,-0.3855,1.5514,0.1309,-0.9253,-0.0106
272571.0,4.6064,-0.4597,2.1907,0.3613,-0.4065,-0.0229
272581.0,4.6328,-0.4477,2.8539,0.5587,-0.0197,-0.0372
272591.0,4.7118,-0.6608,3.6416,0.7487,0.2959,-0.0506
272601.0,4.6783,-0.5626,3.9217,1.0078,0.6141,-0.074
272611.0,4.4029,0.1173,3.9169,1.1531,0.9174,-0.1256
272621.0,4.1635,0.6752,4.1731,1.0467,1.1589,-0.1841
272631.0,3.8762,1.3455,4.7645,0.8099,1.3654,-0.2363
272641.0,3.2537,2.2314,5.126,0.5683,1.5399,-0.2522
272651.0,2.8491,2.4756,6.1818,0.3033,1.6884,-0.2112
272661.0,2.4253,1.9872,7.3909,0.2086,1.8331,-0.1229
272671.0,2.2362,0.996,8.5688,0.2959,1.9358,-0.0383
272681.0,2.1093,0.2634,9.2536,0.4262,1.9098,-0.0208
272691.0,1.9752,0.431,8.3773,0.4534,1.7097,-0.0665
272701.0,2.1691,0.6416,5.9185,0.1378,1.3957,-0.1564
272711.0,2.3104,1.0127,2.6384,-0.5901,1.1536,-0.2815
272721.0,2.0853,1.1827,0.0311,-1.4692,1.1935,-0.3863
272731.0,1.7813,2.3918,-5.1427,-2.262,1.3915,-0.4108
272741.0,0.1101,3.2585,-8.2624,-3.1639,2.0188,-0.3198
272751.0,-2.8204,4.4005,-10.4962,-3.4241,3.1911,0.0096
272761.0,-7.7955,3.4836,-9.3063,-2.7931,5.1375,0.6167
272771.0,-10.896,-4.1803,-1.7071,-1.3846,7.5001,1.3255
272781.0,-13.2399,-12.8186,7.75,0.6279,9.5839,1.516
272791.0,-15.4713,-16.8432,19.1799,2.2551,10.5624,0.854
272801.0,-14.9566,-11.5712,24.7273,3.5503,10.1995,-0.1921
272811.0,-15.4522,-4.2306,28.8118,3.1299,9.0943,-1.2079
272821.0,-15.5072,0.5411,34.1533,1.0834,7.291,-1.9912
272831.0,-17.0563,2.6791,40.9097,-1.0999,5.3376,-2.4631
272841.0,-17.7171,4.6352,45.4419,-2.3094,3.0027,-2.5877
272851.0,-17.8631,6.6128,45.1307,-2.594,0.3054,-2.3354
272861.0,-16.9749,6.28,41.0055,-1.7655,-1.8039,-1.6724
272871.0,-15.1194,6.3805,30.6889,-0.3906,-3.248,-0.9445
272881.0,-13.1777,4.81,22.3618,-0.0208,-4.1292,-0.4704
272891.0,-10.975,2.8946,16.0316,-0.1671,-4.4671,-0.2533
272901.0,-9.2775,1.1684,12.8162,-0.323,-4.2393,-0.2118
272911.0,-8.3222,0.5219,11.0492,-0.1857,-3.7498,-0.2464
272921.0,-7.4029,0.3041,10.4172,-0.0596,-3.3608,-0.3049
272931.0,-6.541,0.1125,10.8649,-0.0277,-3.1581,-0.3783
272941.0,-6.1292,0.68,11.5592,0.1485,-3.0213,-0.4315
272951.0,-5.9376,1.4437,12.5025,0.4523,-2.9575,-0.4156
272961.0,-5.9161,2.7126,12.3134,0.6896,-3.1389,-0.3448
272971.0,-5.5426,3.6847,11.0373,0.5369,-3.621,-0.2464
272981.0,-4.7812,3.7804,9.2727,0.1325,-4.1574,-0.132
272991.0,-3.62,3.2465,7.1539,-0.1059,-4.4272,0.0011
273001.0,-2.9066,2.7294,5.1236,-0.1463,-4.3543,0.1309
273011.0,-1.8268,1.8004,4.2713,-0.0894,-4.0488,0.2522
273021.0,-1.1349,0.9266,3.8235,0.0367,-3.6604,0.3379
273031.0,-0.4836,0.2131,3.9816,0.067,-3.3459,0.3533
273041.0,0.0886,0.0694,4.3694,0.0708,-3.1299,0.3235
273051.0,0.5842,0.091,4.3886,0.1336,-2.9426,0.3022
273061.0,1.0534,0.7925,3.6799,0.174,-2.7925,0.2815
273071.0,1.3647,1.9178,3.0885,0.0053,-2.6616,0.274
273081.0,1.4461,2.2841,3.2298,-0.2256,-2.4775,0.332
273091.0,1.6448,2.0159,3.1508,-0.3182,-2.2578,0.4395
273101.0,2.2027,0.7398,4.1683,-0.3102,-1.9624,0.5491
273111.0,2.3655,-0.3567,5.1691,-0.0213,-1.6043,0.6204
273121.0,2.6312,-0.9984,6.1172,0.2687,-1.3606,0.6316
273131.0,2.818,-1.415,7.0701,0.4198,-1.2877,0.5869
273141.0,3.0526,-0.7542,6.936,0.5044,-1.3404,0.5188
273151.0,3.2633,0.0718,6.6535,0.4044,-1.4282,0.4661
273161.0,3.4357,0.9984,6.1292,0.249,-1.4676,0.4613
273171.0,3.1699,1.3168,5.6886,0.0559,-1.4495,0.5103
273181.0,3.4907,0.5052,5.612,-0.1346,-1.4234,0.5896
273191.0,3.8475,-0.6057,5.7892,-0.1447,-1.2851,0.6439
273201.0,3.9456,-1.2426,5.9759,0.0037,-1.0531,0.6508
273211.0,4.051,-2.1787,7.0605,0.1527,-0.8306,0.6247
273221.0,4.0989,-2.0255,7.592,0.3363,-0.7386,0.5513
273231.0,4.1132,-1.0582,7.9847,0.4001,-0.7854,0.4752
273241.0,4.1659,-0.3543,8.0302,0.4507,-0.8727,0.4736
273251.0,4.197,0.2179,7.2305,0.589,-0.9158,0.5412
273261.0,4.1563,0.6009,6.1268,0.6284,-0.9222,0.6247
273271.0,4.537,0.1891,5.3989,0.5199,-0.8748,0.7056
273281.0,4.7764,-0.5363,4.9153,0.3459,-0.7689,0.7364
273291.0,4.8243,-1.1229,4.6495,0.1229,-0.655,0.7066
273301.0,5.126,-2.2505,4.7788,-0.0851,-0.5156,0.646
273311.0,5.375,-3.1077,5.2409,-0.1618,-0.3283,0.5337
273321.0,5.2984,-3.134,6.0693,-0.0644,-0.1341,0.3954
273331.0,5.1834,-2.976,6.098,0.2602,0.0128,0.306
273341.0,5.2936,-2.6408,5.6072,0.6545,0.1548,0.2379
273351.0,5.1787,-1.7909,4.604,1.0115,0.364,0.1729
273361.0,5.0039,-0.9385,3.6272,1.1627,0.6045,0.1192
273371.0,4.944,-0.0599,3.2106,1.0839,0.8583,0.0649
273381.0,4.5753,1.0846,2.7366,0.9019,1.1185,0.0404
273391.0,4.1563,1.1636,3.0382,0.5444,1.3149,0.0575
273401.0,3.8978,0.917,2.9473,0.1926,1.3952,0.083
273411.0,3.4189,0.4334,2.2386,-0.182,1.3739,0.0952
273421.0,2.7916,-0.8547,1.9585,-0.5672,1.2797,0.0905
273431.0,2.3248,-1.4844,-0.1939,-0.6252,1.1685,0.0665
273441.0,1.9728,-1.4198,-5.3079,-0.6173,1.118,0.0154
273451.0,1.719,-1.1444,-10.6303,-0.7966,1.4553,-0.0676
273461.0,0.905,-0.2658,-15.7108,-0.7705,2.4589,-0.116
273471.0,-1.8842,1.9968,-19.2757,-0.5018,4.3665,-0.0867
273481.0,-6.2537,2.1835,-15.1577,-0.4954,6.6088,0.0378
273491.0,-11.2097,0.7518,-7.0892,-0.3017,8.5228,0.249
273501.0,-15.9071,-1.0343,1.4868,0.1809,9.8207,0.422
273511.0,-18.4425,-3.4788,11.3078,0.9381,10.7311,0.4842
273521.0,-20.3771,-3.2178,21.7417,1.7687,11.2419,0.3597
273531.0,-21.3467,-1.664,31.5149,2.3993,10.8806,0.1777
273541.0,-20.4752,2.9353,31.0815,2.262,9.1821,-0.0452
273551.0,-21.4113,0.498,42.6743,0.9551,7.9423,-0.2756
273561.0,-19.3188,3.6512,42.624,0.8971,5.9772,-0.3916
273571.0,-18.9932,3.0215,47.9247,-0.2724,3.7397,-0.5481
273581.0,-18.6915,3.5219,47.6279,-0.4395,1.541,-0.4901
273591.0,-17.7386,4.2545,43.0286,-0.5385,-0.5869,-0.3922
273601.0,-17.0707,2.332,41.5993,-0.928,-2.3264,-0.3113
273611.0,-16.0148,2.3296,34.4119,-0.4794,-3.6971,-0.1634
273621.0,-15.3444,0.7542,30.811,-0.5704,-4.7284,-0.1203
273631.0,-14.1378,1.1396,24.8159,-0.3453,-5.5781,-0.0974
273641.0,-12.9981,1.3192,20.6667,-0.2538,-6.0533,-0.0548
273651.0,-12.1003,1.3838,17.3532,-0.0968,-6.3194,0.0261
273661.0,-10.9942,1.3503,13.0532,0.0665,-6.57,0.149
273671.0,-9.2847,-0.2897,10.2759,-0.0995,-6.8169,0.2309
273681.0,-7.5753,-1.7382,5.3822,-0.2192,-7.0691,0.2384
273691.0,-5.7676,-4.0079,0.7254,-0.7838,-7.3288,0.0995
273701.0,-2.8252,-5.1739,-7.7835,-1.5947,-7.688,-0.2038
273711.0,-0.0024,-6.7181,-13.9965,-2.5334,-7.2852,-0.6481
273721.0,3.0287,-4.6687,-21.0067,-2.4312,-5.9336,-1.0711
273731.0,3.9337,-2.9137,-23.061,-2.2934,-4.0802,-1.3909
273741.0,5.2194,-0.3807,-24.1024,-2.0593,-2.3519,-1.5484
273751.0,4.9823,2.0183,-24.0881,-1.6485,-0.6838,-1.5096
273761.0,4.7669,4.4412,-25.0673,-1.2292,0.7625,-1.3212
273771.0,3.0406,6.5003,-25.29,-1.0674,2.2104,-1.0153
273781.0,0.2466,7.2113,-23.6787,-1.0408,3.7344,-0.5699
273791.0,-3.5985,5.4899,-19.2111,-0.8221,5.3664,-0.0282
273801.0,-7.8123,1.992,-12.7036,-0.0782,7.0861,0.4794
273811.0,-11.2623,-2.5402,-3.1795,1.1201,8.7341,0.7769
273821.0,-14.461,-6.3111,5.964,2.5951,10.0484,0.7173
273831.0,-16.4482,-4.6735,12.9359,3.3603,10.6252,0.1985
273841.0,-19.4529,-2.2745,24.7082,2.7436,10.5034,-0.4693
273851.0,-21.8782,3.8762,27.9164,1.9678,9.1252,-0.9142
273861.0,-22.9101,4.3072,37.5914,0.3038,7.8992,-1.1041
273871.0,-26.3602,8.7388,47.5656,0.1405,6.521,-0.9509
273881.0,-20.8415,1.5107,55.6341,-0.977,3.3571,-0.8328
273891.0,-16.6972,3.3998,46.9551,0.7093,0.8184,-0.3485
273901.0,-15.5072,1.7933,42.8873,1.0924,-1.0946,-0.0442
273911.0,-14.0947,0.1796,36.5595,1.0403,-3.0235,0.033
273921.0,-12.6055,0.9912,27.3873,0.8998,-4.3537,-0.0357
273931.0,-11.6789,0.0,24.0881,0.1235,-5.0694,-0.2341
273941.0,-10.228,1.7382,17.8464,0.0314,-5.4174,-0.3581
273951.0,-9.4236,1.3096,16.3859,-0.3421,-5.484,-0.4119
273961.0,-8.1211,1.9273,13.5368,-0.1804,-5.5776,-0.3714
273971.0,-6.9647,2.3798,10.489,0.0883,-5.609,-0.2501
273981.0,-5.8083,1.4174,8.4922,0.3533,-5.5765,-0.083
273991.0,-4.2808,0.9768,3.9672,0.8344,-5.4994,0.0798
274001.0,-2.5355,0.2035,0.3232,0.8642,-5.3062,0.133
274011.0,-0.103,0.1245,-4.0725,0.6822,-5.0082,0.083
274021.0,1.573,-0.2346,-6.2106,0.3155,-4.292,-0.0335
274031.0,2.5833,-0.0527,-7.5417,0.0064,-3.4582,-0.1846
274041.0,3.7517,0.3783,-8.9639,-0.5715,-2.9341,-0.365
274051.0,4.2808,0.1652,-8.8681,-1.184,-2.4009,-0.5215
274061.0,4.956,1.0415,-9.8952,-1.1148,-1.7017,-0.5837
274071.0,4.6591,2.1979,-10.6781,-0.6625,-0.7764,-0.5295
274081.0,4.4173,3.6559,-12.3996,-0.1644,0.1293,-0.3634
274091.0,4.0127,5.0853,-15.3277,-0.0756,0.8844,-0.1442
274101.0,3.2657,5.9304,-17.7602,-0.4949,1.6485,0.0947
274111.0,1.7214,5.1571,-18.2821,-0.9743,2.75,0.389
274121.0,-0.735,2.1572,-15.6126,-1.2654,4.0222,0.6715
274131.0,-4.0079,-1.233,-11.9112,-1.1898,5.1466,0.8375
274141.0,-6.8283,-3.9983,-8.2983,-0.6577,6.2582,0.8673
274151.0,-10.2903,-6.4667,-1.6712,0.2943,7.6209,0.7471
274161.0,-13.8912,-6.8043,5.2361,1.6863,8.9794,0.4794
274171.0,-17.6931,-3.45,11.1713,2.5658,9.8393,0.0154
274181.0,-21.4401,1.5179,20.9301,2.2657,10.1836,-0.4699
274191.0,-24.3897,5.6336,29.6091,1.6304,9.7595,-0.7098
274201.0,-17.3651,10.4555,34.0001,0.9083,7.7497,-0.654
274211.0,-27.562,3.6799,51.3676,-0.7375,7.9349,-0.5534
274221.0,-24.5645,6.9192,53.9605,-0.3352,4.3607,-0.2698
274231.0,-22.6946,4.8842,57.2478,-0.8189,0.6572,0.0575
274241.0,-19.2757,3.8403,46.9934,-0.0154,-2.668,0.5353
274251.0,-16.5056,2.9544,31.5484,0.249,-4.9455,0.7849
274261.0,-14.7219,-1.7621,23.8223,-0.9514,-6.3444,0.5976
274271.0,-11.303,-1.4341,11.6119,-1.3729,-6.9983,0.2586
274281.0,-8.5114,-2.0853,5.9328,-1.9672,-6.5886,-0.1096
274291.0,-5.8059,-0.6129,0.7326,-1.8007,-5.4866,-0.364
274301.0,-4.5873,0.7757,0.4166,-1.6389,-4.0068,-0.481
274311.0,-4.221,0.984,3.4405,-1.2052,-2.7244,-0.4257
274321.0,-3.723,1.9321,4.3527,-0.3778,-1.9129,-0.241
274331.0,-3.2968,1.6041,6.5888,-0.0032,-1.5277,-0.0527
274341.0,-2.6695,1.324,7.0844,0.2256,-1.492,0.0915
274351.0,-2.0758,0.8667,7.343,0.0915,-1.6022,0.1341
274361.0,-1.7621,0.1748,8.1834,-0.2139,-1.765,0.0942
274371.0,-1.5012,0.1652,8.2983,-0.3464,-1.9135,0.033
274381.0,-1.2905,0.1053,8.4683,-0.4097,-2.0231,-0.0229
274391.0,-1.2019,0.3232,7.9607,-0.3799,-2.1279,-0.0548
274401.0,-1.0367,0.3256,7.355,-0.4023,-2.2258,-0.0772
274411.0,-0.8882,0.3735,6.7157,-0.3555,-2.2514,-0.0841
274421.0,-0.589,1.1372,5.3295,-0.1916,-2.1465,-0.0686
274431.0,-0.4597,1.6903,4.4963,-0.1708,-1.9209,-0.0325
274441.0,-0.2059,2.0207,4.1468,-0.2267,-1.6469,0.0266
274451.0,-0.0239,1.9297,4.5993,-0.3427,-1.3399,0.1022
274461.0,0.2466,1.1516,5.9352,-0.3735,-1.0185,0.183
274471.0,0.3041,0.7709,7.1012,-0.2437,-0.7535,0.248
274481.0,0.3089,-0.0646,9.007,-0.1628,-0.6157,0.2927
274491.0,0.3879,-0.656,10.2663,0.0032,-0.6481,0.3076
274501.0,0.3759,-0.8859,10.8529,0.0979,-0.8141,0.2778
274511.0,0.2562,-0.984,11.5305,0.0825,-1.0711,0.2198
274521.0,0.2346,0.0239,10.726,0.1203,-1.3702,0.1676
274531.0,0.2394,0.7997,9.9695,0.0165,-1.6166,0.1538
274541.0,0.6249,1.0439,9.1219,-0.0511,-1.7437,0.1995
274551.0,0.984,1.0918,7.9775,-0.0303,-1.7129,0.2746
274561.0,1.1564,0.5938,8.327,-0.0245,-1.5405,0.3496
274571.0,1.2426,-0.1006,8.837,0.2123,-1.3101,0.4411
274581.0,1.3264,-0.8739,9.6247,0.514,-1.1126,0.5066
274591.0,1.221,-1.2713,10.4315,0.746,-1.0541,0.5177
274601.0,1.0965,-1.0726,10.2304,0.8104,-1.1988,0.4816
274611.0,1.142,-0.9242,10.0054,0.5901,-1.4841,0.4087
274621.0,1.4485,-0.4334,9.177,0.4119,-1.7203,0.3453
274631.0,1.7669,0.0599,8.2576,0.3996,-1.7352,0.3368
274641.0,1.9824,0.1532,8.0709,0.5406,-1.5607,0.3783
274651.0,2.0686,0.4405,7.5465,0.7572,-1.358,0.4385
274661.0,2.1308,0.2059,7.8386,0.7875,-1.2388,0.4879
274671.0,2.4469,-0.5818,7.9607,0.7716,-1.2228,0.5146
274681.0,2.6312,-0.9337,7.3981,0.7567,-1.2515,0.4874
274691.0,2.7677,-1.0678,6.8163,0.6306,-1.2797,0.4129
274701.0,2.988,-0.8164,6.3039,0.531,-1.235,0.3278
274711.0,3.1699,-0.0096,5.5354,0.5183,-1.0993,0.2629
274721.0,3.2202,0.51,5.6671,0.505,-0.8817,0.2416
274731.0,3.1771,1.257,5.5881,0.621,-0.6678,0.2687
274741.0,3.2777,1.743,5.9233,0.6955,-0.4848,0.3304
274751.0,3.201,2.0087,6.1363,0.7476,-0.3895,0.4124
274761.0,3.3112,2.1356,5.3534,0.6864,-0.4337,0.4917
274771.0,3.474,1.391,4.774,0.4236,-0.5364,0.5428
274781.0,4.0869,0.4621,3.3998,0.2554,-0.5688,0.5545
274791.0,4.4724,-0.3926,1.9465,0.183,-0.3746,0.5151
274801.0,4.7357,-1.0511,1.1037,0.2171,0.0591,0.4289
274811.0,4.4556,-1.0295,1.1516,0.3698,0.655,0.3118
274821.0,3.9002,-0.3855,2.1237,0.5608,1.2526,0.2006
274831.0,3.5434,0.5195,3.4931,0.7907,1.7331,0.1309
274841.0,2.6312,1.6568,4.7333,0.9307,2.0013,0.099
274851.0,2.0135,2.3152,5.533,0.8333,1.9454,0.1054
274861.0,1.798,2.5929,4.5849,0.5034,1.5852,0.1192
274871.0,1.585,2.2027,2.8635,-0.158,1.0914,0.1032
274881.0,1.4269,2.1452,0.1508,-0.7934,0.6859,0.0756
274891.0,2.466,3.2154,-7.2903,-1.3532,0.3762,0.0947
274901.0,1.0056,1.1612,-8.9232,-2.03,0.9839,0.1836
274911.0,-0.0958,2.1572,-12.323,-1.3106,2.4185,0.3693
274921.0,-2.241,0.0168,-9.0214,-0.7918,4.002,0.5566
274931.0,-4.3574,-2.7485,-3.6727,0.2975,5.5515,0.7168
274941.0,-6.8953,-3.7948,-0.1915,1.5181,6.5679,0.671
274951.0,-8.3342,-4.2856,3.3519,1.9465,6.9627,0.3964
274961.0,-9.9623,-2.7174,5.5833,2.0923,7.2703,0.0144
274971.0,-12.038,-1.2306,9.572,1.8778,7.6842,-0.3677
274981.0,-14.3317,0.9313,15.0236,1.4713,7.9657,-0.712
274991.0,-16.5128,3.4955,21.9429,1.0163,7.9391,-0.9227
275001.0,-18.1073,6.1435,27.0832,0.7992,7.4416,-0.887
275011.0,-18.6987,7.1108,32.4127,0.9237,6.9664,-0.6279
275021.0,-19.168,8.2504,36.4469,1.4404,6.2906,-0.273
275031.0,-17.5806,6.6942,40.5171,0.9376,4.35,-0.0458
275041.0,-16.2303,4.2186,41.8602,0.7205,2.3227,0.1389
275051.0,-14.1569,4.6088,35.1158,0.9386,0.4842,0.215
275061.0,-12.8952,3.3734,31.6849,0.0474,-0.9855,0.0559
275071.0,-11.461,3.1987,26.1662,-0.6848,-2.104,-0.1495
275081.0,-10.4339,2.6073,22.5725,-1.3792,-2.6861,-0.3608
275091.0,-9.5864,2.5666,19.9461,-1.6267,-2.8532,-0.5034
275101.0,-8.7963,2.5139,18.5934,-1.4394,-2.718,-0.5177
275111.0,-8.3965,1.2258,19.3571,-0.8716,-2.4605,-0.4241
275121.0,-7.7668,1.0654,17.9733,0.0053,-2.3599,-0.3124
275131.0,-7.7644,1.0295,17.9445,0.2661,-2.4919,-0.3102
275141.0,-7.683,1.9321,17.7722,0.1421,-2.9319,-0.3746
275151.0,-7.7189,3.4213,16.6301,-0.2011,-3.5322,-0.4268
275161.0,-7.6543,4.5442,15.9861,-0.7402,-4.2037,-0.4268
275171.0,-7.6878,4.8842,13.7403,-1.1589,-4.988,-0.3203
275181.0,-7.1395,3.9504,10.0796,-1.5442,-5.8389,-0.1634
275191.0,-5.9975,2.2817,4.2138,-1.8682,-6.578,-0.0239
275201.0,-6.0573,0.5339,-4.7501,-2.1716,-6.9515,0.0213
275211.0,1.221,-2.2865,-11.6143,-2.6223,-6.6871,-0.0596
275221.0,0.4238,-0.5555,-18.8041,-2.2971,-4.7012,-0.2107
275231.0,3.1388,-1.798,-18.5503,-2.7824,-3.4337,-0.4257
275241.0,3.2896,-0.2346,-19.0147,-2.7026,-1.9278,-0.5768
275251.0,3.0718,0.17,-17.3819,-2.4961,-0.7748,-0.6055
275261.0,2.8587,2.1213,-19.7067,-1.74,0.2304,-0.5231
275271.0,2.1763,0.9792,-18.816,-1.0445,1.5921,-0.3118
275281.0,0.5195,-0.1724,-17.9876,-0.2065,3.1065,-0.1463
275291.0,-1.8986,-1.3623,-12.9,0.3278,4.6879,-0.1197
275301.0,-5.2002,-2.4373,-4.8195,0.9317,6.1305,-0.1479
275311.0,-7.908,-1.6281,3.1077,1.9411,7.3831,-0.1979
275321.0,-10.9128,0.5315,10.6255,2.6361,8.1631,-0.2873
275331.0,-13.0987,1.8052,19.7139,2.4584,8.3265,-0.3852
275341.0,-14.801,3.4644,27.7608,2.0119,7.7848,-0.422
275351.0,-9.5505,3.9935,29.1997,1.3154,6.4795,-0.3629
275361.0,-19.7737,3.7589,43.0334,1.4106,6.5269,-0.232
275371.0,-19.3451,3.1412,47.0197,0.6226,3.787,-0.2384
275381.0,-16.3739,3.3184,45.5856,0.8099,1.0536,-0.0011
275391.0,-14.1425,4.3958,37.3639,1.4633,-1.0307,0.3038
275401.0,-12.2846,2.7797,31.1749,0.8338,-2.8425,0.3698
275411.0,-10.2927,2.0135,23.3674,0.2591,-4.0478,0.3209
275421.0,-8.588,0.5578,17.7291,-0.2911,-4.5027,0.2017
275431.0,-6.6511,0.6608,12.5001,-0.5215,-4.4671,0.0447
275441.0,-5.284,0.4453,9.6582,-0.7263,-4.0792,-0.0835
275451.0,-4.2234,-0.6177,9.3087,-0.7982,-3.621,-0.182
275461.0,-3.2489,0.0168,7.9224,-0.4938,-3.2863,-0.2645
275471.0,-2.6959,0.4717,7.0629,-0.3304,-3.0969,-0.3054
275481.0,-2.0614,0.6057,5.9879,-0.2075,-3.0644,-0.3049
275491.0,-1.2426,0.9768,3.316,-0.0341,-3.0607,-0.274
275501.0,-0.3328,0.7183,0.5794,-0.0724,-2.9575,-0.2543
275511.0,0.6608,0.5674,-2.8204,-0.2634,-2.7595,-0.273
275521.0,2.0806,-0.2562,-4.8387,-0.5667,-2.286,-0.3331
275531.0,1.8076,0.3136,-5.7533,-0.7492,-1.5367,-0.4315
275541.0,2.2505,0.8188,-5.9256,-1.0121,-1.0115,-0.5028
275551.0,2.2577,1.0654,-5.5522,-1.0445,-0.4688,-0.4911
275561.0,1.6664,1.8651,-7.0485,-0.7125,0.1107,-0.3975
275571.0,1.2641,2.3128,-8.3749,-0.4874,0.7439,-0.2655
275581.0,0.3615,2.739,-9.3518,-0.2911,1.6139,-0.107
275591.0,-1.2929,2.624,-8.3653,-0.2453,2.6207,0.0506
275601.0,-2.7509,0.2753,-4.4221,-0.133,3.7253,0.215
275611.0,-4.4149,-2.4253,0.8787,0.2671,4.723,0.2671
275621.0,-5.7796,-3.8978,5.8083,0.7588,5.368,0.1352
275631.0,-6.8498,-4.537,10.9798,1.0977,5.7489,-0.1357
275641.0,-8.9639,-2.15,15.67,1.1776,5.7947,-0.506
275651.0,-10.4938,0.7063,19.6372,0.9184,5.3797,-0.7849
275661.0,-12.3684,3.8235,22.2828,0.6013,4.7624,-0.8673
275671.0,-11.959,5.9161,23.7385,0.2815,4.1404,-0.7519
275681.0,-13.6829,6.1172,28.4814,0.2187,3.903,-0.4848
275691.0,-13.4985,5.6336,31.4023,0.2719,2.9846,-0.1671
275701.0,-13.2184,3.0502,35.4869,0.274,1.8427,0.1245
275711.0,-12.3182,2.0494,34.5292,0.8248,0.5507,0.3544
275721.0,-11.7675,1.0582,32.8149,0.8902,-0.7939,0.4033
275731.0,-11.2312,0.407,29.7982,0.5688,-2.2306,0.3038
275741.0,-10.4076,0.6919,24.8686,0.1006,-3.5348,0.1149
275751.0,-9.5816,1.221,20.3507,-0.481,-4.4469,-0.1
275761.0,-8.5856,2.2625,15.6892,-0.8514,-4.9279,-0.2442
275771.0,-7.5992,2.9209,12.4379,-1.1419,-5.0567,-0.3001
275781.0,-6.7684,3.1005,10.3118,-1.1877,-4.9886,-0.2496
275791.0,-5.7126,2.8084,7.9799,-0.9222,-4.8444,-0.0974
275801.0,-4.6017,1.7597,5.4731,-0.5507,-4.6459,0.0915
275811.0,-3.0215,0.2945,2.2817,-0.2512,-4.4197,0.2315
275821.0,-1.3862,-0.9936,-0.5315,-0.2102,-4.0861,0.2325
275831.0,0.7614,-1.4461,-3.4907,-0.3533,-3.6322,0.1144
275841.0,1.3264,-1.9609,-3.9792,-0.613,-2.8936,-0.066
275851.0,1.9992,-1.8651,-4.4365,-0.8977,-2.3376,-0.2682
275861.0,2.5714,-2.0758,-3.5386,-1.201,-1.8842,-0.4523
275871.0,2.7725,-1.6879,-3.8403,-1.0717,-1.4463,-0.5587
275881.0,2.9497,-1.3096,-5.2553,-0.8551,-1.0589,-0.6114
275891.0,3.1244,-0.8523,-7.2544,-0.8003,-0.6859,-0.6556
275901.0,3.055,0.0599,-10.3765,-0.9243,-0.2501,-0.6981
275911.0,3.0885,0.3807,-12.7587,-1.1722,0.39,-0.7077
275921.0,1.6927,1.4245,-14.1809,-1.2191,1.5463,-0.6667
275931.0,-0.0599,2.557,-12.955,-1.2058,2.8564,-0.5646
275941.0,-3.1675,4.1563,-10.635,-1.0195,4.2048,-0.3555
275951.0,-5.7485,3.4093,-4.9919,-0.7061,5.5244,-0.0059
275961.0,-8.351,1.8938,1.6233,0.1501,6.8504,0.3459
275971.0,-11.1067,1.2282,8.1954,1.002,7.7784,0.5268
275981.0,-13.0125,1.3815,16.7139,1.2356,8.2148,0.5353
275991.0,-13.4147,0.6393,24.5908,1.2914,7.9556,0.4613
276001.0,-15.5719,2.9257,24.3275,0.886,6.8978,0.2309
276011.0,-18.2702,-0.4573,39.7437,-0.2086,6.4018,-0.0298
276021.0,-17.1904,3.7445,43.6463,0.3954,4.656,-0.1841
276031.0,-17.8655,4.197,48.1235,-0.6061,1.9098,-0.3677
276041.0,-17.6596,6.8259,46.8497,-0.5401,-0.9929,-0.216
276051.0,-17.1688,9.1459,37.7997,-0.0277,-3.4034,0.1884
276061.0,-16.8983,7.7069,32.293,-0.2815,-5.1386,0.5683
276071.0,-15.6677,7.6854,22.8143,0.0271,-6.2837,0.9823
276081.0,-13.9941,5.2385,16.9222,0.0649,-6.6988,1.3516
276091.0,-11.7675,2.9592,11.5017,0.3874,-6.6003,1.6346
276101.0,-9.4834,1.8771,6.4667,0.588,-6.2225,1.782
276111.0,-7.4508,0.2155,5.4731,0.2677,-5.7234,1.7693
276121.0,-5.9233,-0.2897,4.5131,0.0633,-5.286,1.6714
276131.0,-5.1068,-1.0965,4.7573,-0.2368,-4.9933,1.5431
276141.0,-4.0486,-2.4684,5.1332,-0.481,-4.9433,1.3979
276151.0,-2.9784,-2.7342,4.446,-0.4757,-4.9886,1.2249
276161.0,-1.8555,-2.5211,3.1364,-0.2368,-4.9417,1.0962
276171.0,-0.5291,-1.9848,0.9505,0.2033,-4.7065,1.0429
276181.0,0.3376,-1.4413,-1.3479,0.5497,-4.2824,1.0344
276191.0,1.4748,-0.7781,-2.6935,0.6407,-3.77,1.0275
276201.0,2.0303,-0.1053,-2.8036,0.5284,-3.239,1.0254
276211.0,2.1763,0.0192,-2.387,0.2826,-2.9107,1.0451
276221.0,2.6217,-0.1197,-2.7629,0.0165,-2.8058,1.0882
276231.0,2.9592,-0.5602,-5.6503,-0.3868,-2.9825,1.1318
276241.0,4.5394,-1.9968,-11.7388,-1.1158,-3.2555,1.11
276251.0,5.6503,-3.6631,-17.2071,-1.8768,-2.9644,0.9637
276261.0,5.284,-2.7246,-22.9197,-2.0726,-1.7107,0.7822
276271.0,4.6639,-2.8802,-24.0833,-2.1593,-0.1336,0.6513
276281.0,2.7198,-1.9752,-23.7337,-1.474,1.7789,0.6268
276291.0,0.1006,-0.7207,-22.7713,-0.4587,3.5981,0.7066
276301.0,-3.7828,1.3503,-22.0434,0.8418,5.5127,0.8657
276311.0,-9.1099,2.4157,-20.8224,1.8949,7.4975,1.0946
276321.0,-14.1928,0.4238,-16.6876,2.2716,9.5349,1.276
276331.0,-19.1177,-5.7126,-5.6024,2.188,11.401,1.2047
276341.0,-23.0897,-10.8026,7.9511,2.9,13.1123,0.7513
276351.0,-26.4033,-8.1714,22.0386,3.6987,14.0605,-0.1144
276361.0,-15.5791,-2.8778,26.4703,3.8663,12.8213,-0.8631
276371.0,-25.582,2.7557,44.3262,3.9243,13.0799,-1.3138
276381.0,-25.1463,7.8793,50.7068,2.7899,9.6259,-1.6346
276391.0,-23.7218,7.5178,62.0146,0.165,5.2083,-1.7687
276401.0,-22.9365,9.9766,55.0738,0.6848,1.5256,-1.1882
276411.0,-20.626,10.0533,46.3805,0.9003,-1.16,-0.5667
276421.0,-18.8184,8.5521,38.5419,0.4922,-3.1134,-0.1405
276431.0,-17.1233,8.0637,28.9914,-0.1123,-4.5043,0.0974
276441.0,-15.6581,4.9943,25.3737,-1.0765,-5.3126,0.1687
276451.0,-13.5943,4.3742,18.0643,-0.9519,-5.6478,0.2591
276461.0,-11.7651,3.055,14.0133,-1.011,-5.5244,0.2916
276471.0,-9.9455,2.0494,11.3294,-0.9301,-5.2844,0.2698
276481.0,-8.2169,2.5642,7.7069,-0.6013,-4.9162,0.2506
276491.0,-7.0294,2.4612,6.5817,-0.5587,-4.4469,0.2304
276501.0,-5.6767,2.7198,5.1451,-0.4358,-4.0244,0.2373
276511.0,-4.798,2.2051,5.0398,-0.5092,-3.6365,0.2474
276521.0,-3.8858,0.7566,5.6024,-0.5901,-3.4018,0.2538
276531.0,-3.0311,-0.3615,5.2984,-0.5662,-3.3167,0.2081
276541.0,-2.4062,-1.3503,5.1571,-0.5922,-3.3055,0.1117
276551.0,-1.6951,-1.9106,4.604,-0.5433,-3.3204,-0.0027
276561.0,-1.2043,-1.9417,3.0023,-0.5545,-3.422,-0.1346
276571.0,-0.5674,-1.5634,-0.0814,-0.9482,-3.7588,-0.3081
276581.0,-0.9074,-0.7997,-5.2481,-1.9837,-4.2984,-0.5529
276591.0,2.636,0.079,-10.8505,-3.3917,-4.8018,-0.8125
276601.0,2.3224,1.3551,-14.8584,-3.6343,-4.0483,-0.8902
276611.0,2.32,3.6919,-19.9509,-3.1262,-2.9256,-0.7678
276621.0,3.5027,5.0685,-23.9372,-2.5797,-1.5602,-0.4736
276631.0,1.8675,4.9368,-25.0003,-1.7847,0.2586,-0.0479
276641.0,0.7877,3.304,-26.2069,-0.8008,2.1471,0.406
276651.0,-1.8531,0.1556,-23.4177,0.0341,4.5602,0.7173
276661.0,-5.8658,-4.4293,-13.9582,0.6055,7.0478,0.7742
276671.0,-9.3565,-9.1363,-0.2945,1.3085,8.84,0.4879
276681.0,-12.8976,-9.3685,10.1275,2.7494,10.1942,-0.0952
276691.0,-16.8911,-2.5642,21.1169,3.2432,10.7758,-0.8657
276701.0,-11.382,4.1204,23.274,2.3663,9.2582,-1.3734
276711.0,-21.2701,7.6207,41.968,1.1478,9.2646,-1.5282
276721.0,-22.9149,12.3924,49.888,0.7615,7.0122,-1.251
276731.0,-21.9453,11.2623,61.5597,-0.6045,3.3912,-0.7407
276741.0,-21.0378,10.07,59.7832,0.6055,-0.1298,0.3469
276751.0,-19.393,7.3191,48.1258,2.2333,-2.9538,1.434
276761.0,-18.148,1.6831,39.3463,2.1428,-5.2594,1.939
276771.0,-15.9406,-1.1037,27.6937,1.8337,-6.9536,1.9837
276781.0,-13.4985,-3.4907,19.2949,1.0637,-7.8018,1.6927
276791.0,-10.8601,-3.6152,10.817,0.2661,-8.1371,1.2159
276801.0,-8.4491,-3.0694,4.8123,-0.8918,-8.1536,0.6572
276811.0,-6.3351,-2.557,2.0111,-1.8826,-7.8785,0.1453
276821.0,-5.3822,-1.5251,-2.4373,-1.9273,-7.3165,-0.1325
276831.0,-0.7159,-2.9784,-4.8339,-1.5059,-6.363,-0.2187
276841.0,-0.0814,-2.5115,-6.11,-0.5545,-4.8295,-0.2857
276851.0,1.6975,-1.9369,-6.6128,0.091,-3.786,-0.3421
276861.0,3.055,-2.4684,-6.0023,0.5789,-2.784,-0.3528
276871.0,3.2298,-2.3774,-6.1411,1.0504,-1.8709,-0.389
276881.0,4.1922,-3.2441,-5.126,1.1036,-1.1712,-0.4917
276891.0,4.1156,-3.4644,-3.9528,0.9913,-0.5741,-0.6917
276901.0,3.8978,-2.9544,-2.8252,0.6619,-0.249,-0.9573
276911.0,3.948,-2.3679,-2.6336,0.2363,-0.1522,-1.2074
276921.0,3.9145,-1.0295,-3.5841,-0.0553,0.0016,-1.4011
276931.0,3.632,0.8164,-6.189,-0.3842,0.1607,-1.5069
276941.0,3.6823,2.0662,-8.1547,-0.8014,0.4762,-1.5101
276951.0,3.4117,4.5155,-11.4922,-0.8562,1.1185,-1.3909
276961.0,2.2745,6.6511,-15.8951,-1.0594,1.839,-1.126
276971.0,0.7661,8.6335,-19.9652,-1.2962,3.0309,-0.7093
276981.0,-3.9696,9.6989,-22.1703,-1.475,4.8018,-0.1495
276991.0,-10.137,5.9017,-20.9445,-1.4942,6.9776,0.5273
277001.0,-17.8703,-2.2098,-12.4187,-0.8971,9.9909,1.0185
277011.0,-25.685,-13.8576,3.9337,0.2368,12.5414,0.9062
277021.0,-30.4351,-14.1569,19.0147,2.6244,14.5841,0.0458
277031.0,-40.8331,0.9098,19.7234,4.5208,15.0013,-1.0296
277041.0,-48.8178,8.4443,42.7293,3.2752,15.4877,-1.8885
277051.0,-44.2592,14.2407,60.0681,1.1111,13.1368,-2.4514
277061.0,-40.9001,12.3253,78.4508,-2.8229,7.805,-2.8085
277071.0,-38.9417,16.4314,78.4508,-2.1657,1.135,-1.8821
277081.0,-36.186,16.9007,69.123,-0.6066,-5.2062,-0.4135
277091.0,-34.5531,9.165,50.283,-1.2185,-9.8749,0.4778
277101.0,-30.0592,5.1188,25.1942,-1.0275,-12.3934,0.936
277111.0,-23.5901,2.1548,7.4651,-1.4069,-12.577,0.9557
277121.0,-18.0331,1.0822,-4.7142,-2.0039,-11.301,0.6955
277131.0,-9.5122,0.2825,-10.2903,-2.61,-9.2364,0.3799
277141.0,-10.3573,-0.1125,-4.5705,-2.5531,-6.2747,0.1128
277151.0,-6.8307,0.3974,-2.241,-2.1386,-5.2817,-0.0016
277161.0,-6.28,-0.3041,1.8316,-1.267,-4.3782,0.0841
277171.0,-4.3503,1.1995,-1.7957,0.274,-3.7993,0.3171
277181.0,-3.0358,0.8595,-1.1851,0.5896,-3.1964,0.4576
277191.0,-1.9465,1.1037,-0.4717,0.514,-2.7739,0.5119
277201.0,-1.6257,1.0989,1.8364,0.0479,-2.618,0.4986
277211.0,-0.9816,0.3041,3.7445,-0.2426,-2.7063,0.5087
277221.0,-0.4741,-0.0622,3.3327,-0.158,-2.8218,0.547
277231.0,0.1053,-0.9313,2.6767,-0.1937,-2.9362,0.5555
277241.0,1.0774,-1.9441,0.8619,-0.2677,-2.9873,0.5151
277251.0,1.7119,-2.8563,0.091,-0.4284,-2.8005,0.3932
277261.0,2.4229,-2.8515,-0.2777,-0.4012,-2.4323,0.2352
277271.0,2.8347,-2.0949,-0.0646,-0.1963,-1.8911,0.1101
277281.0,2.8467,-1.063,1.3312,0.0367,-1.3266,0.0479
277291.0,2.6743,0.0694,2.818,0.281,-0.9088,0.0607
277301.0,2.411,0.9002,4.1635,0.4028,-0.6997,0.1304
277311.0,2.4469,1.3575,4.6926,0.3437,-0.713,0.2315
277321.0,2.6815,0.9936,5.114,0.1256,-0.7902,0.3315
277331.0,2.9042,0.3184,4.8435,-0.0846,-0.8615,0.4065
277341.0,3.1963,-0.68,4.8507,-0.3129,-0.8567,0.4347
277351.0,3.4477,-1.7214,5.6647,-0.3539,-0.7184,0.4358
277361.0,3.7014,-2.3104,6.3063,-0.0873,-0.5119,0.4273
277371.0,3.7828,-2.6863,7.0413,0.257,-0.3374,0.398
277381.0,3.723,-2.4205,6.8067,0.5076,-0.3177,0.3427
277391.0,3.9433,-2.4756,6.3901,0.4693,-0.414,0.2549
277401.0,4.2306,-2.3415,5.6671,0.323,-0.4885,0.1352
277411.0,4.2066,-1.8483,5.2792,0.2102,-0.3996,0.0096
277421.0,4.0103,-1.4653,5.6982,0.2575,-0.1309,-0.0654
277431.0,3.6823,-0.8045,6.5314,0.4571,0.2038,-0.0926
277441.0,3.1244,-0.0311,8.0876,0.6279,0.4305,-0.0803
277451.0,2.9329,0.4597,9.4762,0.7907,0.4635,-0.0154
277461.0,2.7629,0.6081,9.8474,0.8695,0.3086,0.066
277471.0,2.7797,0.3855,9.8138,0.7497,0.0197,0.1096
277481.0,2.7988,0.3232,8.7125,0.5795,-0.2857,0.1133
277491.0,2.976,0.3855,7.5872,0.3858,-0.4448,0.0915
277501.0,2.9688,0.34,7.1227,0.3251,-0.3688,0.0883
277511.0,3.1101,0.067,7.2425,0.506,-0.0915,0.1176
277521.0,2.8611,0.3208,7.6303,0.7333,0.1942,0.132
277531.0,2.624,0.7566,9.1028,0.8232,0.3586,0.1368
277541.0,2.4421,1.0965,10.3286,0.9557,0.3512,0.182
277551.0,2.4253,1.3408,10.5752,1.0626,0.1575,0.2395
277561.0,2.6935,1.5562,9.9958,1.0382,-0.166,0.2756
277571.0,2.9185,1.7741,8.655,0.9525,-0.473,0.2975
277581.0,3.2082,2.1261,6.6702,0.8003,-0.6811,0.2985
277591.0,3.5147,2.5067,5.2098,0.605,-0.7279,0.2948
277601.0,3.4931,2.964,3.6655,0.5055,-0.6593,0.3299
277611.0,3.474,3.1053,1.9824,0.4241,-0.5843,0.4049
277621.0,3.9241,2.6145,-0.419,0.2559,-0.5295,0.4895
277631.0,3.9935,1.403,-2.9042,-0.1133,-0.4544,0.5257
277641.0,4.0893,0.5531,-7.0509,-0.6433,-0.4252,0.4837
277651.0,3.9624,-0.316,-10.6805,-1.2813,-0.1809,0.3762
277661.0,4.5729,-0.8954,-15.5958,-1.4064,0.339,0.2794
277671.0,3.3615,0.498,-22.1224,-1.1084,1.5335,0.1958
277681.0,2.0351,1.5083,-26.5732,-0.8306,3.2916,0.1873
277691.0,-3.0167,3.1651,-27.3011,-0.2645,5.8916,0.2772
277701.0,-11.9135,3.5027,-23.1974,0.2118,8.6468,0.4848
277711.0,-21.3228,0.7063,-13.5967,0.9498,11.516,0.7817
277721.0,-28.7591,-5.952,3.8235,2.4679,14.2521,0.8924
277731.0,-34.7375,-5.6264,17.6333,4.9439,16.2763,0.5124
277741.0,-44.2736,-0.1293,26.4248,5.6915,16.2172,-0.2799
277751.0,-43.5529,2.1955,39.7222,3.7487,14.375,-1.0797
277761.0,-38.2115,7.7668,45.9447,3.6104,13.0171,-1.4771
277771.0,-33.4662,9.5337,58.1671,-0.0218,8.9884,-2.3349
277781.0,-30.8852,8.7197,73.0255,-2.9601,4.0659,-2.5451
277791.0,-28.2564,17.1664,53.8121,-1.8166,-0.5412,-1.7868
277801.0,-25.7736,10.4387,54.4896,-2.5435,-3.2544,-0.9163
277811.0,-22.12,5.9065,40.4788,0.0899,-4.5916,0.2517
277821.0,-19.6708,3.3136,27.4854,1.0589,-5.3318,0.7838
277831.0,-17.5112,-1.4724,23.2764,-0.207,-6.3321,0.588
277841.0,-14.2766,-0.7566,13.8529,-0.5252,-6.8786,0.2389
277851.0,-12.4403,-1.1923,11.5161,-1.0366,-6.4503,-0.1437
277861.0,-11.1187,1.0511,7.6351,-0.8684,-5.8548,-0.414
277871.0,-10.3597,2.9808,6.8953,-1.1882,-5.394,-0.5784
277881.0,-9.6869,2.6767,8.5042,-1.3691,-5.1945,-0.5773
277891.0,-8.5281,3.5626,5.7628,-0.68,-5.0258,-0.4092
277901.0,-7.4627,3.0263,4.4652,-0.3342,-4.7715,-0.2171
277911.0,-6.1483,1.9824,2.739,-0.1112,-4.5549,-0.0617
277921.0,-5.1954,1.2617,1.2953,-0.0729,-4.3059,0.0016
277931.0,-4.0079,0.5243,0.4788,-0.1373,-4.0174,-0.0021
277941.0,-2.7007,0.4094,-0.4453,-0.1288,-3.6263,-0.049
277951.0,-1.6927,0.5267,-0.3807,-0.1894,-3.1304,-0.125
277961.0,-1.0319,0.6273,0.2203,-0.3054,-2.6771,-0.2107
277971.0,-0.5722,1.0391,1.4796,-0.539,-2.3477,-0.3124
277981.0,-0.4118,1.5634,3.3088,-0.7668,-2.1731,-0.389
277991.0,-0.4621,2.0087,4.5394,-0.7732,-2.1439,-0.381
278001.0,-0.3184,1.9609,4.5011,-0.5837,-2.2141,-0.2831
278011.0,0.4262,1.0104,3.8116,-0.2714,-2.1902,-0.1548
278021.0,1.482,-0.1604,3.1149,0.1596,-1.8964,-0.0729
278031.0,1.8052,-0.3543,3.0071,0.4539,-1.45,-0.1075
278041.0,1.8794,0.5387,3.9217,0.3113,-1.1781,-0.2395
278051.0,1.7214,1.7382,5.3415,-0.2027,-1.2255,-0.3762
278061.0,1.6065,2.648,6.5529,-0.7168,-1.5022,-0.4268
278071.0,1.8699,3.1388,6.0334,-0.8945,-1.798,-0.3475
278081.0,2.2482,2.7797,4.5298,-0.7721,-1.8576,-0.1655
278091.0,3.4381,0.5291,4.4796,-0.3629,-1.4617,0.049
278101.0,3.7924,-0.9146,4.4317,0.4268,-0.7333,0.1724
278111.0,3.7661,-0.7757,5.5809,0.887,-0.1107,0.1426
278121.0,3.3854,-0.0335,8.2815,0.8572,0.1304,0.0442
278131.0,2.9928,1.4844,9.7803,0.713,-0.0149,-0.0165
278141.0,2.7509,2.3559,10.9247,0.4715,-0.3762,0.0048
278151.0,2.7605,2.6815,9.8426,0.3113,-0.8285,0.108
278161.0,3.0933,1.5371,8.1139,-0.0458,-1.235,0.2065
278171.0,3.7206,-0.1413,7.0006,-0.4166,-1.4213,0.2144
278181.0,4.2665,-1.0942,6.0478,-0.4273,-1.2521,0.1655
278191.0,4.5418,-1.245,5.9592,-0.2043,-0.8737,0.0835
278201.0,4.5969,-0.2322,5.6503,0.0591,-0.5656,0.0048
278211.0,4.6328,0.0982,5.9185,0.2038,-0.3517,-0.017
278221.0,4.6807,0.6416,5.2505,0.4438,-0.1735,-0.0027
278231.0,4.6543,1.0702,4.0797,0.5726,0.0335,0.0245
278241.0,4.7884,0.5195,3.5506,0.4252,0.2533,0.0367
278251.0,4.9632,0.2993,3.2346,0.224,0.4911,-0.0027
278261.0,4.695,0.3136,3.1987,0.1288,0.8391,-0.0474
278271.0,4.4341,-0.2035,4.0318,0.2336,1.3335,-0.0564
278281.0,3.8882,-0.0359,4.8147,0.522,1.8278,-0.0793
278291.0,3.2202,0.7709,5.4612,0.6284,2.1088,-0.124
278301.0,2.7174,1.0463,4.7142,0.299,1.9816,-0.1761
278311.0,2.6336,0.6608,2.9904,-0.6465,1.4851,-0.2895
278321.0,2.3774,1.2617,-0.9002,-1.8491,0.8349,-0.4379
278331.0,2.375,4.4724,-11.4036,-3.2485,0.0553,-0.513
278341.0,3.7924,4.8123,-20.1879,-4.3516,0.165,-0.2857
278351.0,-2.9784,9.2225,-29.0584,-3.6008,2.9852,0.2831
278361.0,-6.4596,6.4811,-28.7232,-3.0596,5.8506,1.1111
278371.0,-17.9876,0.5411,-19.2614,-1.4431,9.8781,1.9172
278381.0,-28.4934,-7.3526,-2.1644,0.5614,12.9947,2.3009
278391.0,-32.8006,-12.6318,11.9926,3.2948,15.2796,2.096
278401.0,-42.6455,-6.7588,15.1242,5.2424,16.1097,1.1706
278411.0,-49.4115,-4.7477,36.0495,3.828,16.6019,-0.183
278421.0,-43.8737,-3.3016,57.1209,1.4085,14.607,-1.5325
278431.0,-40.3088,0.0718,78.4508,-2.0119,9.5227,-2.7861
278441.0,-36.751,7.932,78.4508,-2.0896,2.9383,-2.7111
278451.0,-33.3512,14.1306,71.8979,-0.7652,-3.4082,-1.7538
278461.0,-31.9027,10.9607,55.2965,-1.1728,-8.2052,-0.8796
278471.0,-28.4264,7.6567,30.5979,-0.7072,-11.0828,-0.0894
278481.0,-21.5239,5.1954,10.0844,-0.8535,-11.7363,0.3272
278491.0,-14.7794,3.2633,-2.7102,-1.3127,-10.5055,0.4496
278501.0,-7.3167,0.7757,-12.5887,-1.5357,-8.2557,0.5124
278511.0,-7.4196,-3.2657,-5.3678,-1.4809,-4.6842,0.4007
278521.0,-5.1667,-4.956,-0.4717,-1.0935,-3.1815,0.1793
278531.0,-4.6687,-5.7748,6.256,-0.5177,-2.3727,-0.0697
278541.0,-4.3263,-2.5115,6.4811,0.8322,-2.014,-0.1958
278551.0,-4.1875,-0.3855,6.7852,1.2366,-2.0364,-0.2426
278561.0,-4.0941,0.8308,7.4172,0.9951,-2.2918,-0.2517
278571.0,-3.6919,1.8914,7.6686,0.5518,-2.6622,-0.2331
278581.0,-3.4812,2.3607,8.1379,0.1293,-3.0501,-0.174
278591.0,-3.3878,3.158,6.4931,-0.1027,-3.4641,-0.0479
278601.0,-2.806,2.4205,4.968,-0.5502,-3.886,0.0958
278611.0,-1.6879,0.6584,2.9042,-0.8349,-4.1409,0.2166
278621.0,-0.5435,-0.9481,0.8859,-0.7604,-3.9988,0.2804
278631.0,0.4166,-2.5833,-0.6632,-0.3565,-3.4891,0.2959
278641.0,1.561,-3.7541,-1.5012,0.174,-2.7191,0.2331
278651.0,1.7645,-3.4453,-0.8643,0.473,-1.938,0.0633
278661.0,1.9201,-1.834,0.6895,0.4555,-1.4207,-0.1282
278671.0,1.8723,-0.3496,2.8156,0.3086,-1.119,-0.2219
278681.0,2.0446,0.5531,3.9552,0.1974,-1.0222,-0.207
278691.0,2.4756,0.6177,4.4412,-0.0277,-1.0791,-0.157
278701.0,2.8563,-0.2658,5.0182,-0.2783,-1.1552,-0.1139
278711.0,3.2226,-1.4748,5.7509,-0.1963,-1.0536,-0.075
278721.0,3.3902,-2.1404,5.7772,0.2549,-0.7886,-0.0521
278731.0,3.3734,-2.1261,5.8012,0.5545,-0.5678,-0.0883
278741.0,3.4524,-1.7861,6.5074,0.5459,-0.4693,-0.166
278751.0,3.3662,-0.9792,6.924,0.4613,-0.4406,-0.2325
278761.0,3.486,-0.2586,7.1012,0.3246,-0.456,-0.2591
278771.0,3.7206,0.2825,7.2137,0.2118,-0.439,-0.2426
278781.0,3.5219,0.6081,6.9647,0.1852,-0.3586,-0.1857
278791.0,3.6105,0.0215,7.367,0.1634,-0.2182,-0.1165
278801.0,3.7182,-1.1995,8.1139,0.24,-0.0255,-0.0713
278811.0,3.6344,-2.3894,9.4786,0.3746,0.1724,-0.1075
278821.0,3.3232,-2.3152,10.398,0.4443,0.1862,-0.2336
278831.0,3.1268,-1.5921,11.3725,0.3262,0.0367,-0.3874
278841.0,2.9042,-0.0383,11.7771,0.2448,-0.1517,-0.4927
278851.0,2.6959,1.0343,11.7483,0.1995,-0.2975,-0.4938
278861.0,2.7414,1.3838,12.0404,0.1474,-0.3746,-0.4353
278871.0,2.399,1.3455,12.9047,0.1623,-0.397,-0.3517
278881.0,2.2314,0.3208,14.1856,0.3193,-0.4619,-0.2506
278891.0,2.308,0.0622,14.4729,0.6449,-0.6391,-0.1889
278901.0,2.2386,0.103,14.3389,0.903,-0.8945,-0.1607
278911.0,2.3176,0.1365,13.4363,1.0946,-1.2068,-0.1389
278921.0,2.8467,0.4932,11.7843,1.243,-1.4537,-0.1336
278931.0,3.2633,0.7757,10.3214,1.3441,-1.5107,-0.1341
278941.0,3.4596,1.3431,9.0668,1.3521,-1.458,-0.1458
278951.0,3.4955,1.8555,8.0685,1.1047,-1.4793,-0.1713
278961.0,3.5458,1.8028,6.1842,0.506,-1.7507,-0.2033
278971.0,3.6176,1.834,3.474,-0.5193,-2.287,-0.2964
278981.0,3.565,3.0574,-0.4956,-1.6873,-2.9708,-0.4028
278991.0,3.7589,7.3909,-13.0077,-2.8457,-3.9318,-0.3938
279001.0,8.9471,8.2001,-26.2859,-3.5683,-4.2032,-0.107
279011.0,2.4517,12.7611,-39.1236,-3.0149,-1.7006,0.439
279021.0,4.7956,10.7595,-50.0197,-3.3779,-0.0122,1.1887
279031.0,-2.5522,6.0094,-53.2183,-3.3289,3.3544,1.9167
279041.0,-9.3565,-2.4972,-51.9781,-2.6499,7.1484,2.5089
279051.0,-24.7704,-10.0868,-39.15,-1.0445,12.2232,2.6409
279061.0,-41.0989,-18.0379,-17.4992,1.2473,16.711,2.2785
279071.0,-49.7156,-18.5838,3.699,4.3388,17.4357,1.2638
279081.0,-76.6145,-1.3024,8.4396,7.1681,17.4357,-0.1532
279091.0,-78.4532,8.7724,26.9898,5.3355,17.4357,-1.4633
279101.0,-73.8108,12.7156,55.0068,2.1497,17.4357,-2.2162
279111.0,-63.0369,13.5703,78.4508,-1.7969,16.2385,-2.5946
279121.0,-50.3884,18.2989,78.4508,-2.1221,8.1046,-1.5484
279131.0,-44.513,19.6995,78.4508,-1.4271,-1.1025,0.0303
279141.0,-39.8132,7.1084,62.3259,-2.7468,-7.8721,1.0541
279151.0,-28.7089,-2.6791,31.1534,-1.2707,-10.2171,1.7262
279161.0,-18.9956,-8.157,10.8577,-0.5135,-8.6591,1.5048
279171.0,-15.4594,-11.9423,9.0429,-1.376,-5.8852,0.5534
279181.0,-14.0276,-10.647,13.1561,-1.4484,-3.7886,-0.4315
279191.0,-13.2375,-5.5522,16.9174,-0.8253,-2.7606,-1.0573
279201.0,-12.1865,-1.5083,19.4242,-0.4065,-2.7414,-1.2324
279211.0,-11.5377,-0.4262,22.1559,-0.5044,-3.5593,-1.1387
279221.0,-11.8034,-1.1157,21.8208,-0.5965,-5.0418,-0.9637
279231.0,-11.6669,-2.32,16.6948,-0.5018,-6.6892,-0.828
279241.0,-11.1522,-2.9736,9.8928,-0.3773,-7.8103,-0.8237
279251.0,-10.8146,-2.478,2.6839,-0.2379,-8.1333,-0.944
279261.0,-9.9575,-0.4932,-2.7916,-0.5513,-7.9333,-1.1909
279271.0,-8.9735,1.8794,-3.869,-1.1616,-7.4161,-1.4495
279281.0,-8.0517,4.4963,-3.9313,-1.1786,-6.7365,-1.4926
279291.0,-7.2329,6.1148,-3.8188,-0.6832,-6.0826,-1.26
279301.0,-5.7389,6.3853,-6.1794,0.0654,-5.6234,-0.8226
279311.0,-3.158,5.4684,-9.1818,0.6502,-5.0141,-0.3656
279321.0,-1.3144,4.0821,-10.252,1.0999,-3.8881,-0.0021
279331.0,-0.3352,2.4349,-8.157,1.1925,-2.6595,0.215
279341.0,0.3687,0.3472,-2.6671,0.9982,-1.7075,0.2735
279351.0,0.6225,0.498,0.8787,0.9206,-1.2856,0.2171
279361.0,1.3551,0.9122,3.7493,0.4752,-1.3228,0.1272
279371.0,1.7023,1.1588,7.003,-0.0617,-1.582,0.0596
279381.0,1.7597,1.5419,7.8506,-0.2575,-2.0646,0.0878
279391.0,2.1356,1.0582,6.8761,-0.3395,-2.651,0.1783
279401.0,2.7438,0.4908,4.2449,-0.2171,-3.0352,0.2852
279411.0,3.6129,-0.2107,1.1899,-0.0511,-3.0533,0.3794
279421.0,4.4388,-1.6975,0.1724,0.074,-2.6265,0.4214
279431.0,4.8626,-1.652,-0.4118,0.331,-1.9624,0.3922
279441.0,4.8315,-1.2306,0.8882,0.3102,-1.3478,0.3288
279451.0,4.7405,-1.166,3.2346,0.1681,-0.9504,0.2916
279461.0,4.6136,-1.6281,5.9735,0.1974,-0.7492,0.299
279471.0,4.7022,-1.9249,7.3478,0.4991,-0.7604,0.3299
279481.0,4.8076,-1.81,7.3454,0.8269,-0.8865,0.3491
279491.0,4.6663,-1.8699,7.0581,0.9147,-1.0823,0.3421
279501.0,4.8291,-2.1691,6.4667,0.8519,-1.3074,0.3038
279511.0,4.9153,-2.332,5.9975,0.7758,-1.4495,0.2357
279521.0,5.138,-2.0494,4.9177,0.6635,-1.5889,0.141
279531.0,5.1308,-1.2043,3.9863,0.3443,-1.7964,0.0181
279541.0,5.2936,-0.4812,3.2633,0.108,-1.9688,-0.0458
279551.0,5.849,0.0239,1.7023,0.2799,-1.9582,0.0085
279561.0,6.45,0.012,-0.1149,0.6923,-1.7139,0.132
279571.0,7.1563,-0.6009,-2.1189,1.1089,-1.3452,0.257
279581.0,7.3789,-1.8603,-3.7637,1.21,-0.9759,0.2873
279591.0,7.3263,-3.0718,-5.1427,0.9195,-0.7428,0.1596
279601.0,6.62,-3.7014,-6.8857,0.3618,-0.6928,-0.1054
279611.0,6.3734,-3.8978,-10.2208,-0.2171,-0.7375,-0.4401
279621.0,6.0238,-2.8467,-16.1776,-0.5241,-0.5321,-0.7907
279631.0,3.7972,-0.5698,-19.9006,-1.0573,0.1171,-1.1504
279641.0,2.4756,5.8179,-26.025,-1.4042,0.7066,-1.3899
279651.0,-0.7781,15.4522,-33.3512,-1.8629,1.4324,-1.2308
279661.0,-5.4947,23.0538,-41.7956,-2.3982,2.3865,-0.3613
279671.0,-11.9279,25.7951,-49.4427,-2.3509,4.2521,1.1339
279681.0,-23.602,22.2038,-57.4824,-1.4755,7.5821,3.0139
279691.0,-43.0645,5.9999,-57.049,-0.654,12.9069,4.7252
279701.0,-63.5732,-18.8783,-30.9498,0.0974,17.4357,5.2919
279711.0,-78.4532,-43.3063,8.3414,2.9394,17.4357,4.0888
279721.0,-74.7135,-30.6362,15.4019,7.797,17.4357,1.126
279731.0,-78.4532,-2.0327,33.3776,10.124,17.4357,-2.112
279741.0,-78.4532,10.5824,63.6594,4.2314,17.4357,-4.8853
279751.0,-78.4532,14.9111,78.4508,-3.1671,17.4357,-5.8133
279761.0,-70.21,29.4678,78.4508,-0.9541,8.5159,-3.5519
279771.0,-61.4903,23.207,78.4508,-0.6428,-0.2692,-0.9998
279781.0,-56.3906,9.1554,78.4508,0.1713,-7.5906,1.2068
279791.0,-46.2488,-6.426,50.6948,1.1871,-11.557,2.2891
279801.0,-36.8396,-16.034,27.5501,1.293,-12.652,1.8422
279811.0,-27.428,-13.9821,7.75,0.7141,-12.1119,0.5135
279821.0,-22.9939,-10.8721,5.4396,-1.1462,-10.6859,-1.0493
279831.0,-18.8448,-3.9313,1.6472,-1.0578,-9.163,-2.0348
279841.0,-17.0611,2.2529,1.0415,-0.2107,-7.4666,-2.3009
279851.0,-15.026,5.8131,0.9194,0.787,-6.3204,-1.9922
279861.0,-12.6558,7.118,-0.972,1.4463,-5.858,-1.4324
279871.0,-10.4627,6.3351,-2.3487,1.3702,-5.7505,-0.9424
279881.0,-8.181,5.6455,-4.3766,1.1568,-5.5505,-0.6173
279891.0,-6.3494,5.0949,-4.6759,0.8232,-5.0588,-0.431
279901.0,-5.8993,4.968,-3.8642,0.5263,-4.5022,-0.3038
279911.0,-5.0518,5.3702,-3.3447,0.1825,-4.1622,-0.1756
279921.0,-3.7373,5.4013,-2.4828,-0.3975,-4.0547,-0.041
279931.0,-2.1715,5.0254,-1.9393,-0.9094,-4.0095,0.1139
279941.0,-1.5251,4.0055,-0.419,-1.0238,-3.7844,0.3022
279951.0,-0.7733,3.1819,-0.5794,-0.5507,-3.4928,0.5465
279961.0,-0.0455,2.1476,-1.5012,-0.133,-3.2166,0.7471
279971.0,0.9385,1.1013,-2.6552,0.0165,-2.9383,0.8386
279981.0,1.9082,0.6345,-3.4189,0.0069,-2.4855,0.8232
279991.0,2.5187,0.6656,-2.9521,-0.0644,-1.822,0.7583
280001.0,2.727,1.1923,-1.3551,-0.1724,-1.1009,0.6933
280011.0,2.6839,1.4389,2.6025,-0.3714,-0.5337,0.6721
280021.0,2.1117,1.0487,6.5505,-0.3464,-0.3592,0.7545
280031.0,2.0686,-0.0239,8.2432,-0.1756,-0.671,0.8828
280041.0,2.7485,-1.7214,8.0493,-0.1873,-1.2792,0.9211
280051.0,3.2346,-2.8515,6.3518,-0.2778,-1.8102,0.8258
280061.0,3.7828,-3.2274,4.1539,-0.2756,-1.972,0.6417
280071.0,3.9145,-2.4205,2.1308,-0.174,-1.6895,0.4411
280081.0,3.9887,-1.4581,2.399,-0.1325,-1.094,0.2953
280091.0,3.7972,-0.8452,4.4628,0.0021,-0.4422,0.2442
280101.0,3.6607,-0.4597,6.7253,0.1825,-0.0394,0.2618
280111.0,3.1005,-0.2466,8.9495,0.1171,-0.0803,0.2788
280121.0,2.9233,-0.0335,10.1035,-0.0697,-0.5374,0.3001
280131.0,3.1939,-0.1484,9.6319,-0.1352,-1.0972,0.3597
280141.0,3.5937,-0.3687,7.1826,0.0277,-1.4452,0.4576
280151.0,3.8595,-0.6967,4.8339,0.1666,-1.4463,0.5353
280161.0,4.051,-1.3048,3.5961,0.24,-1.1653,0.5773
280171.0,4.6519,-1.992,3.9289,0.3746,-0.6832,0.571
280181.0,4.8315,-1.8866,3.8738,0.5193,-0.2469,0.5092
280191.0,4.1659,-2.0758,5.5593,0.249,-0.0543,0.3741
280201.0,4.3503,-2.0039,6.5553,0.0165,-0.1527,0.2267
280211.0,4.5945,-1.4509,6.6463,0.0607,-0.2442,0.1123
280221.0,4.853,-0.5124,5.2337,0.373,-0.1777,0.0734
280231.0,4.6304,0.3376,4.0462,0.629,0.0926,0.0974
280241.0,4.774,0.3998,3.9911,0.7604,0.5135,0.1639
280251.0,4.6902,0.2418,4.6687,0.879,0.9956,0.2224
280261.0,4.2066,-0.0718,6.4572,0.8466,1.3345,0.2203
280271.0,3.9624,-0.2227,8.2361,0.7104,1.3239,0.1548
280281.0,4.0606,-0.0934,8.8585,0.5295,1.0254,0.0511
280291.0,4.2353,0.1532,8.6742,0.3863,0.6886,-0.0564
280301.0,4.312,0.9744,7.4053,0.34,0.455,-0.1479
280311.0,4.1013,2.2338,5.7724,0.2123,0.3081,-0.2027
280321.0,4.2784,3.6895,3.3232,-0.099,0.1788,-0.1809
280332.0,3.9145,4.8171,0.5076,-0.8179,0.0192,-0.0788
280341.0,3.5889,4.7956,-2.2434,-1.9332,-0.2671,0.0984
280351.0,2.4181,3.486,-5.4348,-3.0586,-0.5992,0.3235
280361.0,2.9018,0.5459,-11.2887,-3.7248,-0.9743,0.6167
280371.0,3.3351,-0.7422,-20.2813,-2.892,0.2022,0.9312
280381.0,0.0407,-3.8355,-21.6005,-2.0646,2.1577,1.0344
280391.0,-0.3926,-4.3503,-25.3594,-0.7817,4.3537,0.9615
280401.0,-6.9288,-3.3136,-21.0833,0.3331,7.4421,0.7407
280411.0,-14.5448,-2.7342,-11.4108,1.2941,10.0479,0.5672
280421.0,-19.1919,-1.4629,-4.6926,2.5307,11.8491,0.4299
280431.0,-25.4791,0.6153,3.0646,3.1687,13.2853,0.1804
280441.0,-31.0097,1.0319,10.5919,3.0325,14.0233,-0.0846
280451.0,-33.2698,-0.1053,24.4616,2.0454,14.3218,-0.4262
280461.0,-31.8668,0.6273,41.9225,2.2311,14.0951,-0.6486
280471.0,-27.6985,5.0566,54.3292,1.9933,11.3579,-0.9211
280481.0,-24.6507,6.3446,66.7695,0.621,6.8733,-0.9621
280491.0,-21.871,9.7947,61.8279,0.7439,1.9837,-0.5103
280501.0,-20.334,9.2967,51.4394,0.6093,-2.0226,0.041
280511.0,-18.8424,7.1371,38.0678,0.2102,-4.9263,0.4645
280521.0,-16.3261,5.0925,24.7393,-0.2416,-6.52,0.713
280531.0,-13.2806,2.6887,14.5041,-0.6609,-6.8398,0.8274
280541.0,-10.0509,0.9577,7.1443,-0.7907,-6.1565,0.8642
280551.0,-7.5417,-0.9194,4.3215,-0.6987,-4.8326,0.8477
280561.0,-5.5689,-1.8459,3.1292,-0.2794,-3.3411,0.7742
280571.0,-4.5442,-2.2793,4.8052,0.0681,-1.9534,0.6306
280581.0,-4.2042,-2.0542,7.944,0.4023,-0.9339,0.4736
280591.0,-4.0007,-1.1396,10.7332,0.7189,-0.4432,0.3406
280601.0,-3.8259,-0.0814,12.5767,0.8179,-0.4667,0.2421
280611.0,-3.5267,0.9122,13.5536,0.6832,-0.8306,0.1724
280621.0,-3.2825,1.6376,13.6805,0.3539,-1.3771,0.1261
280631.0,-3.158,1.6472,13.1154,-0.0814,-1.9944,0.1
280641.0,-2.8419,1.0534,11.5568,-0.4938,-2.5887,0.0766
280651.0,-2.7078,-0.0239,9.9934,-0.8349,-3.0224,0.0261
280661.0,-2.0566,-1.2067,8.6742,-0.8663,-3.1831,-0.033
280671.0,-1.3479,-1.7214,6.5314,-0.5337,-3.0666,-0.1075
280681.0,-0.9673,-1.2426,4.6711,-0.3038,-2.8032,-0.2352
280691.0,-0.3543,0.158,3.0263,-0.3597,-2.5451,-0.3714
280701.0,0.0934,1.4293,1.8316,-0.6476,-2.2929,-0.4305
280711.0,0.7829,1.7789,-0.5459,-1.151,-2.1205,-0.3922
280721.0,1.2761,0.2969,-1.7597,-2.0359,-1.9837,-0.3517
280731.0,1.5443,-1.4437,-3.6033,-2.684,-1.781,-0.3549
280741.0,2.5426,-1.8244,-7.3167,-2.8931,-1.4021,-0.4007
280751.0,2.1356,-1.7717,-8.7412,-2.5414,-0.1639,-0.389
280761.0,0.6416,-1.1229,-8.8202,-1.6219,1.6123,-0.2724
280771.0,-1.1612,-1.2139,-5.6575,-0.9264,3.1129,-0.1559
280781.0,-3.0167,0.0575,-2.727,-0.1485,4.2947,-0.0516
280791.0,-5.2289,1.6424,0.0599,0.4709,5.17,0.0644
280801.0,-6.9935,2.7174,2.3463,0.8264,5.8069,0.2192
280811.0,-8.6287,1.1732,7.6207,0.8535,6.545,0.3863
280821.0,-10.1873,-1.8028,13.9558,0.9594,6.9701,0.4193
280831.0,-11.6191,-2.6264,21.9692,1.2281,7.1069,0.2309
280841.0,-12.4522,-1.3264,28.2947,1.4947,6.4684,-0.0186
280851.0,-11.7244,0.0646,33.0831,0.9913,4.681,-0.3044
280861.0,-11.1282,2.0207,35.7119,0.5082,2.643,-0.439
280871.0,-10.6997,4.6639,33.459,0.6274,0.8977,-0.3161
280881.0,-10.7164,5.1451,30.8277,0.4555,-0.5768,-0.0819
280891.0,-10.4148,3.6775,27.5405,0.0761,-1.9747,0.1575
280901.0,-9.6223,1.3599,23.6547,-0.1399,-3.0996,0.3331
280911.0,-8.4443,-0.3639,18.4952,-0.009,-3.7594,0.4182
280921.0,-7.0844,-1.6879,14.0683,0.1389,-3.9249,0.389
280931.0,-5.9951,-2.0327,10.8074,0.141,-3.795,0.2347
280941.0,-5.2361,-1.6951,8.8322,0.0043,-3.5359,0.0319
280951.0,-4.5011,-1.4509,8.0469,-0.132,-3.2289,-0.1293
280961.0,-3.8116,-1.1468,7.616,-0.0878,-2.917,-0.2272
280971.0,-3.0861,-1.1205,6.9288,0.0607,-2.6467,-0.2645
280981.0,-2.2529,-1.1684,6.2489,0.1383,-2.4365,-0.299
280991.0,-1.4293,-0.893,5.1906,0.042,-2.3216,-0.3597
281001.0,-0.8021,-1.3192,4.3551,-0.3049,-2.2993,-0.4353
281011.0,-0.1125,-2.0231,3.3567,-0.7056,-2.3285,-0.5417
281021.0,0.4477,-2.3391,1.9872,-0.9759,-2.3062,-0.6753
281031.0,0.8308,-2.3032,0.1053,-0.9775,-2.1242,-0.787
281041.0,1.1995,-1.233,-3.6871,-0.7572,-1.7565,-0.8604
281051.0,2.0399,0.1413,-8.7676,-0.8487,-1.226,-0.9051
281061.0,1.5945,0.9457,-10.5608,-1.1589,-0.0596,-0.9014
281071.0,0.3711,1.7214,-9.8067,-1.2845,1.3766,-0.8163
281081.0,-1.1085,2.3176,-7.1515,-1.2638,2.6813,-0.6635
281091.0,-3.7613,3.3998,-3.5793,-0.9466,3.8429,-0.4124
281101.0,-5.4085,2.545,0.972,-0.2724,4.8779,-0.008
281111.0,-6.5481,0.759,4.7429,0.8056,5.8101,0.3613
281121.0,-8.7388,1.1468,7.513,1.5937,6.545,0.4704
281131.0,-10.0604,1.4748,11.7124,1.3835,6.7264,0.4012
281141.0,-11.2863,1.2833,18.2462,0.8407,6.6594,0.2847
281151.0,-11.9135,2.6217,23.7002,0.4491,6.0884,0.1628
281161.0,-12.5049,3.3471,29.0512,-0.3491,4.7124,0.0777
281171.0,-11.8776,2.9161,32.3983,-0.853,2.9569,0.1708
281181.0,-11.0852,1.3072,32.6449,-0.5726,1.4191,0.3927
281191.0,-10.5034,0.1915,30.4662,0.0734,0.1932,0.5635
281201.0,-10.0173,-0.7661,27.3418,0.4209,-0.9088,0.597
281211.0,-9.3901,-1.5443,23.717,0.2629,-2.0151,0.4688
281221.0,-8.6383,-1.7262,19.5343,-0.1426,-2.9697,0.2288
281231.0,-7.6471,-1.6712,15.4857,-0.5332,-3.5465,-0.0234
281241.0,-6.6655,-1.1205,11.9327,-0.7854,-3.7008,-0.2426
281251.0,-5.9209,-0.6943,9.8857,-0.977,-3.5652,-0.3916
281261.0,-5.1404,-0.7614,8.3318,-1.0637,-3.364,-0.4523
281271.0,-5.1404,-0.7614,8.3318,-1.0637,-3.364,-0.4523
281281.0,-4.2066,-1.2139,7.8554,-1.0866,-3.1496,-0.4794
281291.0,-3.3471,-1.6975,7.7979,-0.8077,-2.9005,-0.464
281301.0,-2.3894,-1.7502,6.6894,-0.2474,-2.659,-0.4124
281311.0,-1.6783,-1.5131,4.9416,0.1352,-2.4983,-0.3805
281321.0,-1.1349,-1.2929,2.7653,0.1187,-2.4498,-0.389
281331.0,-0.2849,-0.7805,-0.5698,-0.2836,-2.4381,-0.4677
281341.0,0.3543,0.5339,-4.4532,-1.1627,-2.2961,-0.6119
281351.0,0.2274,0.9649,-7.1251,-2.3791,-1.8698,-0.721
281361.0,0.7781,0.1724,-6.5864,-3.2113,-0.9658,-0.7285
281371.0,-0.5626,0.3208,-3.8882,-2.9229,0.5752,-0.6098
281381.0,-2.8922,1.7047,-0.7111,-2.0119,1.8821,-0.3826
281391.0,-4.3981,4.3814,0.5483,-0.9796,2.7739,-0.0202
281401.0,-5.7509,5.6575,2.7821,-0.2847,3.6721,0.4826
281411.0,-6.8091,3.2777,8.0182,0.1463,4.5235,1.0131
281421.0,-7.6183,1.2498,12.6749,0.6284,5.021,1.35
281431.0,-7.5322,-2.3559,20.7553,0.6561,5.037,1.4548
281441.0,-7.0366,-6.7229,29.1255,0.8407,4.3085,1.3585
281451.0,-6.4691,-8.5281,33.0328,1.1834,2.7398,0.9951
281461.0,-6.7995,-8.3055,34.5603,1.0594,0.6204,0.4369
281471.0,-7.355,-5.9975,31.3257,0.8035,-1.6666,-0.1245
281481.0,-8.0876,-3.8116,26.3242,0.2714,-3.6168,-0.6008
281491.0,-9.0309,-1.9728,21.1408,-0.2804,-5.0599,-0.9429
281501.0,-9.4427,-0.0192,15.2175,-0.5231,-5.9879,-1.1079
281511.0,-8.8202,1.7621,9.4762,-0.5545,-6.3939,-1.0956
281521.0,-7.7907,3.0574,4.7381,-0.4284,-6.2699,-0.9168
281531.0,-5.9233,2.7533,1.6951,-0.0937,-5.6947,-0.5827
281541.0,-4.1922,1.3958,-0.0192,0.464,-4.8119,-0.2038
281551.0,-2.4301,-0.407,-0.4693,1.052,-3.8035,0.1011
281561.0,-1.4964,-1.7957,0.3543,1.4479,-2.8835,0.2591
281571.0,-0.4932,-3.1484,2.0207,1.5378,-2.2498,0.2804
281581.0,0.1341,-3.9911,3.3902,1.3755,-1.9757,0.1532
281591.0,0.7566,-3.3639,4.0749,0.978,-2.0124,-0.0995
281601.0,1.008,-2.387,4.7453,0.4725,-2.1609,-0.3491
281611.0,1.336,-1.324,4.3981,0.2118,-2.2631,-0.4965
281621.0,1.403,-0.2945,3.6703,0.1229,-2.2455,-0.5497
281631.0,1.9417,-0.1987,3.2825,0.2022,-2.0933,-0.5098
281641.0,2.1404,0.1724,1.9201,0.5018,-1.8257,-0.4321
281651.0,2.6671,0.5578,0.7183,0.7295,-1.4745,-0.3416
281661.0,3.3998,0.2107,0.3639,0.9402,-0.9557,-0.2341
281671.0,3.6464,0.6369,-0.5267,1.2058,-0.3283,-0.1602
281681.0,3.4716,1.0654,-0.1365,1.1355,0.2687,-0.1288
281691.0,3.1675,0.7638,1.2091,0.9323,0.7487,-0.0825
281701.0,3.0502,-0.1556,2.8228,0.8594,1.152,-0.0372
281711.0,2.6983,-0.6249,4.6735,0.9094,1.4543,-0.0532
281721.0,2.2936,-0.0192,5.5665,0.9232,1.4899,-0.1107
281731.0,2.138,0.7159,4.8147,0.5624,1.1281,-0.1788
281741.0,1.5993,1.9656,1.9249,-0.4837,0.3565,-0.2836
281751.0,1.1588,2.7725,-2.2458,-2.0609,-0.5582,-0.3597
281761.0,0.1341,5.4612,-13.465,-3.6482,-1.5,-0.315
281771.0,6.4189,4.7285,-22.7258,-4.0393,-0.8359,0.0612
281781.0,-5.0829,9.0381,-24.1623,-2.7489,3.2794,0.6263
281791.0,-7.9751,7.6351,-21.7202,-2.0774,5.46,1.4271
281801.0,-17.1928,4.1515,-15.7586,-0.0378,9.2832,2.4216
281811.0,-24.2293,-10.8194,0.1532,1.699,12.4919,3.0618
281821.0,-30.5811,-17.7147,13.4865,4.2457,14.9997,2.4419
281831.0,-26.0537,-13.1681,21.3946,6.1448,15.7899,1.0248
281841.0,-32.3864,-3.5721,39.3918,6.5083,16.4902,-0.4363
281851.0,-32.5588,3.9002,56.4098,3.9408,13.3837,-1.8502
281861.0,-31.8932,7.774,78.4508,-0.4688,7.8641,-2.8942
281871.0,-32.1039,15.433,78.4508,-0.9972,1.7006,-2.5712
281881.0,-32.8987,17.0778,71.8883,-0.4214,-3.9509,-1.4239
281891.0,-34.1341,12.9407,54.6884,-0.5731,-8.9209,-0.3124
281901.0,-32.439,9.0621,31.1414,-0.5039,-12.3817,0.5614
281911.0,-27.2316,3.7397,11.8274,-0.4528,-13.5226,1.1068
281921.0,-19.4553,0.9337,-4.0007,-0.1139,-12.5009,1.3367
281931.0,-10.1706,-1.5155,-14.2096,-0.1064,-10.3778,1.3138
281941.0,-8.7197,-3.7062,-10.2927,-0.1016,-6.7663,1.0679
281951.0,-6.6032,-4.5849,-6.9791,-0.331,-4.9385,0.6832
281961.0,-3.1268,-5.0925,-1.98,-0.5236,-3.8791,0.2293
281971.0,-2.7821,-2.9951,0.6297,0.0867,-2.8362,-0.1
281981.0,-2.5809,-1.5658,3.6224,0.4353,-2.3615,-0.3113
281991.0,-1.6735,0.4764,3.9983,0.6119,-2.3817,-0.4209
282001.0,-1.4461,1.9656,3.948,0.3097,-2.5909,-0.4603
282011.0,-0.838,2.3439,4.063,-0.1995,-2.9123,-0.4406
282021.0,-0.0766,2.5738,3.213,-0.3751,-3.04,-0.3533
282031.0,0.17,2.6983,2.059,-0.4715,-2.9814,-0.2421
282041.0,0.5124,2.5019,1.3503,-0.6971,-2.8952,-0.1431
282051.0,1.4126,2.0063,0.996,-0.9285,-2.7558,-0.0484
282061.0,1.9537,1.2809,1.0151,-0.9796,-2.5015,0.0426
282071.0,2.2673,0.5986,0.7542,-0.7556,-2.1428,0.1368
282081.0,2.9521,-0.4166,1.0367,-0.3134,-1.6437,0.2373
282091.0,3.292,-1.1181,0.814,0.2554,-1.0818,0.2975
282101.0,3.3136,-1.3623,1.0822,0.6497,-0.5241,0.2794
282111.0,3.146,-1.3312,2.3703,0.8663,0.0106,0.2107
282121.0,2.8467,-0.7039,3.8211,1.0036,0.4544,0.1272
282131.0,2.2434,-0.1269,5.7054,0.8732,0.6577,0.05
282141.0,2.0901,0.1867,7.4244,0.5491,0.5518,-0.0117
282151.0,2.1644,0.4501,8.248,0.2309,0.2868,-0.0495
282161.0,2.2841,0.4357,8.4755,-0.0293,-0.0011,-0.0569
282171.0,2.5139,0.2777,7.9464,-0.1474,-0.2416,-0.0341
282181.0,2.8299,-0.1341,6.9863,-0.1224,-0.3219,-0.0005
282191.0,3.237,-0.8308,6.4763,0.0388,-0.1692,0.017
282201.0,3.3399,-1.0582,6.28,0.3177,0.1394,-0.0005
282211.0,3.2417,-0.7805,6.4045,0.5199,0.4262,-0.0564
282221.0,3.2274,-0.5914,6.9097,0.6098,0.6524,-0.1149
282231.0,3.0765,-0.2035,7.5753,0.6822,0.8551,-0.1719
282241.0,2.739,0.3136,8.0924,0.7066,0.9855,-0.2155
282251.0,2.478,0.6369,8.7317,0.6173,1.0169,-0.249
282261.0,2.162,0.7781,9.3302,0.514,0.9966,-0.2751
282271.0,1.6472,1.142,9.5217,0.4491,0.9477,-0.2911
282281.0,1.5179,1.221,10.1442,0.4044,0.903,-0.2879
282291.0,1.3862,1.4676,10.2903,0.4768,0.8588,-0.2687
282301.0,1.166,1.6831,10.5345,0.5092,0.7902,-0.2506
282311.0,1.2546,1.9058,10.6518,0.5273,0.6582,-0.2219
282321.0,1.312,2.1763,10.0437,0.5401,0.4879,-0.1841
282331.0,1.47,2.2553,9.2057,0.5124,0.381,-0.149
282341.0,1.506,2.4373,8.2145,0.5215,0.4257,-0.1165
282351.0,1.3264,2.8132,7.3885,0.4757,0.5827,-0.0963
282361.0,1.0989,2.7892,7.2616,0.257,0.7636,-0.083
282371.0,1.008,2.3727,7.8626,-0.042,0.9317,-0.0851
282381.0,0.7207,1.8531,9.1219,-0.3262,1.0483,-0.1181
282391.0,0.5914,1.6041,10.3094,-0.531,1.0318,-0.165
282401.0,0.3903,1.4389,11.4658,-0.6582,0.9088,-0.2139
282411.0,0.2346,1.8675,11.8154,-0.5981,0.737,-0.2389
282421.0,0.0958,2.5881,11.497,-0.3852,0.6119,-0.2134
282431.0,-0.0096,3.4022,10.5752,-0.1235,0.5545,-0.1357
282441.0,-0.1556,3.9528,9.754,0.0905,0.5906,-0.0117
282451.0,-0.261,3.7828,9.4092,0.2767,0.7274,0.1458
282461.0,0.012,3.2585,9.2368,0.4326,0.8908,0.2767
282471.0,0.067,2.818,9.2225,0.4273,0.9796,0.3342
282481.0,0.1724,2.308,8.9807,0.2682,0.9615,0.3331
282491.0,0.2107,1.5251,8.691,0.0048,0.9307,0.2868
282501.0,0.182,0.9481,8.3222,-0.2517,0.9424,0.1857
282511.0,0.091,0.9649,7.762,-0.4651,1.0222,0.0442
282521.0,-0.0575,1.415,7.8554,-0.7077,1.1611,-0.1016
282531.0,-0.5746,2.1859,8.6933,-0.8748,1.2978,-0.191
282541.0,-0.7709,2.7294,8.9184,-0.8684,1.3404,-0.1623
282551.0,-0.7542,2.2865,8.9902,-0.7136,1.4181,-0.0399
282561.0,-0.7638,1.7813,8.6167,-0.232,1.7145,0.1197
282571.0,-1.2546,1.1732,8.667,0.4198,2.2689,0.2634
282581.0,-2.0016,1.3815,10.3549,0.9966,2.9436,0.3363
282591.0,-2.7725,1.4868,12.129,1.4851,3.3347,0.3735
282601.0,-3.3662,2.1452,14.1737,1.665,3.5082,0.3613
282611.0,-3.9385,2.2266,16.8193,1.4287,3.3332,0.315
282621.0,-4.1707,2.1261,18.6101,1.0493,2.8479,0.2591
282631.0,-4.2449,1.7693,19.7881,0.7162,2.2966,0.2097
282641.0,-4.3383,1.1277,20.2286,0.6215,1.8347,0.1777
282651.0,-4.4101,1.0008,20.1017,0.6971,1.4936,0.107
282661.0,-4.6543,1.8148,19.9605,0.6939,1.2084,-0.0261
282671.0,-4.8985,2.8826,20.638,0.5321,0.9126,-0.1554
282681.0,-5.545,4.1037,20.8224,0.249,0.4518,-0.2437
282691.0,-5.8131,4.4604,21.2533,-0.183,-0.1671,-0.2778
282701.0,-5.4827,4.7692,20.8391,-0.4597,-0.7886,-0.2549
282711.0,-5.5617,4.6974,20.0826,-0.5779,-1.284,-0.1916
282721.0,-5.5282,4.5849,19.065,-0.6545,-1.7299,-0.1213
282731.0,-5.3295,4.9704,17.5639,-0.7482,-2.1747,-0.0665
282741.0,-5.296,5.1787,16.2231,-0.9509,-2.5893,0.0021
282751.0,-4.9297,4.6998,15.0667,-1.1009,-2.9495,0.1048
282761.0,-4.5035,4.3574,13.2495,-1.0946,-3.2289,0.2139
282771.0,-4.1683,3.7469,11.4467,-1.1142,-3.4359,0.3113
282781.0,-3.6488,2.5881,9.7109,-1.1653,-3.5742,0.3874
282791.0,-3.0047,1.2785,8.4851,-1.1861,-3.5726,0.4055
282801.0,-2.1835,0.2442,8.0014,-1.0445,-3.3965,0.3719
282811.0,-1.7454,0.2083,7.5298,-0.7258,-3.14,0.3102
282821.0,-1.5945,0.5674,7.0366,-0.5662,-2.9867,0.2352
282831.0,-1.2378,0.6512,7.0892,-0.6396,-2.9617,0.1735
282841.0,-0.3855,0.589,6.4859,-0.7013,-3.0043,0.1208
282851.0,0.2179,0.7997,5.4947,-0.7146,-2.9527,0.0654
282861.0,0.6393,0.8715,4.6974,-0.7412,-2.7659,0.0223
282871.0,0.8523,0.7542,4.8985,-0.7785,-2.4765,-0.0138
282881.0,1.2186,0.8068,5.9233,-0.6598,-2.1497,-0.0378
282891.0,1.4485,1.6759,6.1842,-0.415,-1.9284,-0.0351
282901.0,1.5347,2.2458,6.3734,-0.3959,-1.8901,0.0096
282911.0,2.2314,1.9944,6.1339,-0.5183,-1.9864,0.0921
282921.0,2.727,1.4341,5.3846,-0.5992,-2.0289,0.165
282931.0,3.2848,0.4525,4.5681,-0.5566,-1.8911,0.2192
282941.0,3.9289,-0.3041,3.8523,-0.3842,-1.5602,0.2288
282951.0,4.039,-0.498,3.5674,-0.24,-1.143,0.1783
282961.0,4.2042,-0.6033,4.1037,-0.174,-0.7567,0.1064
282971.0,4.3455,-0.5028,4.7597,-0.0846,-0.4379,0.0346
282981.0,4.3096,-0.316,5.2744,-0.0027,-0.1921,-0.0223
