time_ms,ax,ay,az,gx,gy,gz
1084411.0,-1.1492,5.4588,42.3869,2.6233,1.2175,0.2304
1084421.0,-2.1165,5.8802,40.9121,2.6824,1.1552,0.2634
1084431.0,-1.1109,7.0102,38.9585,2.3211,1.3377,0.2932
1084441.0,-1.1013,7.5369,39.3511,1.9965,1.6022,0.3773
1084451.0,-1.0247,7.9392,39.9066,1.9576,1.9044,0.5044
1084461.0,-0.6991,8.5712,38.6999,1.648,2.2093,0.6997
1084471.0,-0.316,5.861,44.4364,1.9497,2.6121,0.82
1084481.0,-1.0247,6.7804,45.7867,1.897,2.3972,0.8237
1084491.0,-0.9481,8.0541,45.5952,2.196,2.0534,0.9589
1084501.0,-2.4612,8.4467,48.4299,1.4085,1.6927,1.1382
1084511.0,-0.1341,8.6479,47.5488,1.3505,1.1643,1.3106
1084521.0,0.0096,6.7421,49.3014,1.0248,0.6008,1.3202
1084531.0,0.6225,6.5027,48.066,0.9206,0.2469,1.2435
1084541.0,0.182,6.2537,48.8034,1.1424,-0.1341,1.2441
1084551.0,0.2969,6.7325,46.9072,1.466,-0.365,1.3266
1084561.0,0.6225,6.4356,46.4379,1.7597,-0.5044,1.3862
1084571.0,0.5267,6.1387,43.8809,1.9316,-0.613,1.3893
1084581.0,1.2067,6.043,41.9273,1.814,-0.5571,1.3452
1084591.0,2.0016,6.0142,40.2609,1.4617,-0.4012,1.2004
1084601.0,1.743,6.2537,39.4852,1.0972,-0.199,1.0227
1084611.0,0.7566,6.9815,38.3647,0.6556,-0.0144,0.8743
1084621.0,0.4884,7.9296,38.3551,0.3464,0.2836,0.8264
1084631.0,-0.4693,7.173,38.7286,0.4076,0.6689,0.8397
1084641.0,-0.0862,6.7229,38.403,0.6784,1.2441,0.812
1084651.0,-0.4118,5.7174,40.0694,0.8636,1.8991,0.7141
1084661.0,-2.0207,5.43,43.0477,0.9514,2.2476,0.5188
1084671.0,-2.4517,6.1579,45.327,0.9684,2.3413,0.3475
1084681.0,-3.055,7.0964,48.5831,0.7625,2.2902,0.2458
1084691.0,-4.0701,7.6231,50.9007,0.3682,1.9662,0.116
1084701.0,-4.1276,8.0445,52.9502,-0.1697,1.3995,0.0059
1084711.0,-4.1563,7.0102,54.6644,-0.8434,0.7593,-0.1453
1084721.0,-3.9456,6.1387,55.5934,-1.5282,-0.0192,-0.3735
1084731.0,-4.6352,5.1715,57.0203,-1.9529,-0.7152,-0.6204
1084741.0,-5.6216,5.1332,56.9054,-2.2104,-1.499,-0.8695
1084751.0,-5.7365,6.0621,55.5742,-2.3078,-2.1045,-1.0605
1084761.0,-6.1196,7.7955,54.0515,-2.4631,-2.4323,-1.1419
1084771.0,-5.8514,8.8777,53.3428,-2.8452,-2.7723,-1.1536
1084781.0,-5.3056,9.2703,54.3196,-3.2203,-3.0197,-1.0807
1084791.0,-4.8937,8.849,55.6987,-3.1389,-3.331,-0.961
1084801.0,-4.4053,7.7859,56.2637,-3.0416,-3.8653,-0.878
1084811.0,-5.114,6.7229,56.0818,-3.0767,-4.3942,-0.8418
1084821.0,-5.7844,5.3247,56.1392,-3.016,-4.9167,-0.8934
1084831.0,-5.6695,4.5586,55.6221,-2.9873,-5.7489,-0.9748
1084841.0,-5.0566,4.8459,53.0364,-2.8122,-6.3587,-1.1164
1084851.0,-4.1276,6.2441,49.809,-3.1948,-6.7663,-1.2249
1084861.0,-3.9552,6.5027,47.9223,-3.5838,-7.1106,-1.3462
1084871.0,-2.988,7.106,46.505,-3.9685,-7.25,-1.4175
1084881.0,-2.3846,7.3454,45.5377,-4.416,-7.6167,-1.4724
1084891.0,-1.5323,6.7995,44.944,-4.5948,-7.9577,-1.541
1084901.0,0.2203,6.9049,44.3981,-4.2324,-8.1147,-1.541
1084911.0,1.1875,7.3454,42.9903,-3.5167,-8.2259,-1.4309
1084921.0,1.7047,8.3318,40.0311,-2.9564,-8.3111,-1.2845
1084931.0,3.486,9.7396,36.6983,-2.5435,-8.1408,-1.0743
1084941.0,4.5586,9.9695,34.5435,-2.3605,-7.9109,-0.8253
1084951.0,6.2824,9.845,32.6856,-2.1253,-7.5783,-0.5933
1084961.0,7.6806,9.4619,31.2587,-1.9688,-7.0388,-0.4001
1084971.0,8.1882,9.2416,30.3968,-2.0609,-6.7626,-0.2512
1084981.0,8.9256,8.8202,30.7032,-2.2184,-6.545,-0.1224
1084991.0,9.5768,8.7628,30.6075,-2.3104,-6.4391,0.0378
1085001.0,11.1378,8.4084,29.8796,-2.2322,-6.2459,0.2203
1085011.0,12.2296,7.3263,29.0081,-2.022,-6.0975,0.4097
1085021.0,13.5512,6.4835,28.3665,-1.5405,-5.6941,0.5337
1085031.0,13.7906,5.3151,27.6961,-1.003,-5.3467,0.6082
1085041.0,14.1737,3.371,27.0545,-0.4773,-5.0577,0.6715
1085051.0,14.6142,1.6568,25.6467,0.0351,-4.7752,0.5859
1085061.0,15.2367,1.7621,22.8598,0.0452,-4.4522,0.4145
1085071.0,15.773,2.308,20.8966,-0.257,-4.1909,0.2517
1085081.0,16.2997,2.9113,19.2398,-1.0445,-3.927,0.1086
1085091.0,16.6541,2.9497,18.5982,-1.5453,-3.5742,0.0426
1085101.0,17.3915,2.7869,18.0906,-1.8677,-3.2081,0.0388
1085111.0,17.9278,2.6815,17.7267,-1.9497,-2.8495,0.0399
1085121.0,18.6748,2.6911,16.3285,-1.7773,-2.3626,0.091
1085131.0,19.3068,2.1356,16.0986,-1.342,-1.7443,0.1878
1085141.0,19.2111,0.316,14.6334,-1.0275,-1.3473,0.2309
1085151.0,20.3411,-1.0247,11.4251,-0.8721,-0.7742,0.1373
1085161.0,21.1456,-2.5379,9.4715,-1.1589,-0.1038,-0.1006
1085171.0,21.7202,-2.059,5.4588,-1.6639,0.8689,-0.4156
1085181.0,21.3371,-1.4748,5.2194,-2.336,2.112,-0.6997
1085191.0,20.9253,0.3448,6.9528,-2.3402,3.5492,-0.8195
1085201.0,19.6708,1.4174,11.7029,-1.5128,4.9109,-0.7247
1085211.0,18.5311,2.988,14.5759,-0.6141,5.8979,-0.5199
1085221.0,16.5775,3.9361,16.0986,-0.0958,6.4641,-0.3198
1085231.0,15.8783,4.1851,18.1002,0.2586,7.1255,-0.1224
1085241.0,14.6908,4.6926,18.8759,0.5491,7.7162,0.0048
1085251.0,13.6948,5.5354,19.7282,0.8141,8.5777,0.1495
1085261.0,12.3637,6.9719,21.6149,0.9993,9.4961,0.315
1085271.0,10.6494,8.2456,25.0817,1.2143,10.1782,0.5151
1085281.0,9.1267,9.9407,27.6961,1.3069,10.7519,0.7497
1085291.0,7.288,11.6262,32.111,1.202,11.1249,1.0664
1085301.0,4.2617,12.7084,36.7462,0.8397,10.7795,1.4505
1085311.0,2.5762,13.1873,39.0542,0.7258,10.3528,1.8294
1085321.0,0.5363,13.5033,38.8818,0.5529,10.1112,2.2615
1085331.0,-0.2969,12.9287,38.6041,0.2224,9.9228,2.6015
1085341.0,-0.9194,12.5265,38.0965,-0.0601,9.9266,2.8867
1085351.0,-2.4804,12.5935,37.8284,-0.431,10.0442,3.1538
1085361.0,-3.9073,12.7563,38.5466,-0.8056,10.2315,3.4023
1085371.0,-5.8323,13.3405,39.1021,-1.2866,10.2942,3.7221
1085381.0,-8.2744,13.3596,41.7645,-1.5022,10.232,4.0792
1085391.0,-10.4291,14.0875,42.7509,-1.3707,10.3278,4.5198
1085401.0,-13.3788,14.0971,42.5306,-1.591,10.3751,5.0056
1085411.0,-15.093,10.9942,44.8386,-0.7636,10.7529,5.5026
1085421.0,-16.6253,8.6574,47.0604,0.1676,11.383,5.8234
1085431.0,-18.5982,7.9775,49.2439,0.9706,11.9113,5.9533
1085441.0,-20.322,8.2169,54.176,1.583,12.6148,6.1193
1085451.0,-22.946,7.3646,61.4161,1.9342,12.6031,6.264
1085461.0,-25.2062,5.9951,67.4399,1.8188,11.9566,6.2906
1085471.0,-26.2596,4.3,73.9234,1.3494,10.9434,6.2135
1085481.0,-26.9587,2.0111,78.4508,0.7897,9.2875,6.0501
1085491.0,-27.1119,0.4118,78.4508,0.2054,7.3469,5.8006
1085501.0,-26.7672,0.3448,78.4508,-0.3831,5.1897,5.5127
1085511.0,-26.4799,0.9673,78.4508,-1.1978,2.9107,5.3302
1085521.0,-26.2596,1.0918,78.4508,-2.0534,0.6199,5.261
1085531.0,-25.5797,-0.5459,78.4508,-2.6393,-1.358,5.277
1085541.0,-24.6699,-2.6719,76.1931,-3.1027,-3.0224,5.2647
1085551.0,-23.5685,-5.5929,71.9984,-3.1182,-4.1952,5.2136
1085561.0,-21.8064,-7.5753,66.463,-2.9628,-4.88,5.1274
1085571.0,-20.7817,-9.6343,62.3737,-2.6462,-5.3025,4.9875
1085581.0,-19.3451,-11.0038,58.6388,-2.4573,-5.5787,4.8279
1085591.0,-17.8224,-12.5743,56.9245,-2.2711,-5.7984,4.648
1085601.0,-16.5966,-14.2982,54.7123,-2.4424,-6.2087,4.3287
1085611.0,-14.9207,-16.1178,53.2854,-2.9245,-6.7679,3.8573
1085621.0,-13.5703,-18.3109,52.6724,-3.2847,-7.4288,3.264
1085631.0,-11.971,-19.9102,50.9007,-3.2805,-7.9992,2.6026
1085641.0,-10.1993,-20.8679,47.6159,-3.0256,-8.3403,1.9177
1085651.0,-7.8913,-20.8487,43.6511,-2.7297,-8.2451,1.1728
1085661.0,-6.4643,-20.3124,40.6823,-2.4866,-7.8758,0.447
1085671.0,-5.7557,-18.8472,39.6192,-2.2024,-7.4405,-0.1745
1085681.0,-5.0374,-16.7211,39.15,-1.9284,-7.109,-0.6455
1085691.0,-4.7884,-15.8209,39.4373,-1.5447,-6.8509,-0.9817
1085701.0,-4.6831,-14.1833,38.652,-1.2329,-6.702,-1.2776
1085711.0,-3.1795,-13.2064,39.4756,-1.168,-6.5051,-1.5197
1085721.0,-2.5857,-11.6167,39.2362,-0.8817,-6.5131,-1.6714
1085731.0,-2.241,-11.2527,38.8914,-0.8721,-6.6088,-1.8273
1085741.0,-1.3503,-11.5496,37.8858,-0.4528,-6.5349,-1.9773
1085751.0,-0.3256,-12.038,36.6026,-0.0192,-6.4151,-2.1737
1085761.0,0.5363,-11.5879,34.6297,-0.016,-6.2683,-2.4967
1085771.0,1.2641,-10.6303,34.3233,-0.0777,-6.2135,-2.8037
1085781.0,1.6855,-9.2512,34.3712,-0.2405,-6.1661,-3.0463
1085791.0,2.0016,-7.2496,32.9251,-0.2251,-6.2545,-3.2161
1085801.0,1.8387,-4.6352,31.5556,-0.3171,-6.3146,-3.2608
1085811.0,2.2984,-2.806,29.6115,-0.2937,-6.0421,-3.148
1085821.0,2.3272,-1.5227,27.7919,-0.1474,-5.7234,-2.883
1085831.0,3.553,-1.7238,25.5318,-0.2405,-5.3094,-2.66
1085841.0,6.0334,-3.2178,25.503,-0.3916,-4.805,-2.568
1085851.0,6.8857,-3.9073,25.5797,-0.597,-4.5176,-2.5579
1085861.0,7.8051,-4.4532,25.4935,-0.7657,-4.416,-2.6143
1085871.0,8.5712,-4.0989,24.2581,-1.1882,-4.316,-2.6941
1085881.0,8.9735,-4.2904,23.5111,-1.5149,-4.3287,-2.7638
1085891.0,9.0692,-3.7062,21.9213,-1.897,-4.3649,-2.8245
1085901.0,9.9599,-4.0414,19.2111,-2.0492,-4.2431,-2.8127
1085911.0,11.9519,-5.114,16.3955,-1.9438,-3.6812,-2.8335
1085921.0,13.4937,-6.1962,13.6661,-1.6187,-2.7595,-2.9399
1085931.0,14.4035,-7.5944,11.3389,-1.4622,-1.7256,-3.124
1085941.0,15.457,-8.6479,9.2991,-1.3255,-0.5257,-3.4289
1085951.0,15.2367,-9.0022,10.0556,-1.1275,0.82,-3.7652
1085961.0,14.6812,-8.3127,11.0133,-0.8312,2.0055,-4.0457
1085971.0,13.8959,-7.4412,12.651,-0.6763,2.9931,-4.2697
1085981.0,12.8808,-6.6942,14.0971,-0.531,3.8834,-4.432
1085991.0,12.9478,-6.0525,15.8305,-0.4081,4.8151,-4.5927
1086001.0,12.2966,-6.3686,17.8799,0.0229,6.0129,-4.7566
1086011.0,11.0995,-5.8706,21.1073,0.3555,7.0798,-4.979
1086021.0,9.7683,-4.5681,25.5988,0.688,7.7305,-5.1908
1086031.0,7.5657,-1.9154,29.6211,0.8759,7.9482,-5.294
1086041.0,5.3726,1.4748,32.5994,0.6816,7.6571,-5.2386
1086051.0,4.0414,4.2808,32.7431,0.2905,6.9451,-4.9965
1086061.0,4.6639,5.9855,30.4064,0.1846,7.0276,-4.6118
1086071.0,3.6679,6.7038,28.5868,0.2458,7.8705,-4.1627
1086081.0,3.1795,6.0621,28.558,0.2363,8.8783,-3.7588
1086091.0,1.6089,4.4819,31.5843,0.0921,9.8574,-3.4779
1086101.0,0.1915,2.7485,37.6656,0.0452,10.4305,-3.3635
1086111.0,-2.9401,1.4653,42.9711,-0.042,10.2889,-3.2752
1086121.0,-4.3766,-0.0575,47.4052,-0.0543,9.818,-3.2959
1086131.0,-5.1906,-1.3695,49.4163,-0.2506,9.0342,-3.422
1086141.0,-5.612,-1.5706,48.6023,-0.4119,8.3935,-3.6881
1086151.0,-6.7229,-1.6951,48.3533,-0.4736,8.3164,-3.9025
1086161.0,-7.8626,-1.4748,48.9471,-0.4268,8.6005,-4.1574
1086171.0,-8.6479,-1.7717,53.2854,-0.0282,8.8049,-4.349
1086181.0,-10.161,-1.0343,57.4704,0.1697,8.4079,-4.5661
1086191.0,-11.722,-0.0766,60.9851,0.2166,7.4597,-4.7369
1086201.0,-12.7467,1.9058,60.966,0.0399,6.4535,-4.8135
1086211.0,-14.1833,2.0399,60.2956,0.0873,5.7245,-4.7667
1086221.0,-13.5991,0.2107,59.8359,0.4198,5.8931,-4.6858
1086231.0,-13.7331,-2.9497,63.7815,1.0179,6.0895,-4.8635
1086241.0,-13.4267,-4.7884,70.6768,1.8262,5.9022,-5.2339
1086251.0,-14.9111,-4.7118,77.2753,2.5222,4.8241,-5.6484
1086261.0,-15.7538,-1.8962,78.4508,2.7659,3.2895,-6.0363
1086271.0,-16.0316,1.6376,78.4508,2.4589,1.7022,-6.2827
1086281.0,-16.089,4.6256,78.2904,1.7815,0.0772,-6.43
1086291.0,-15.5432,6.6655,76.0303,0.6848,-1.2978,-6.5349
1086301.0,-15.7347,7.4316,75.312,-0.4188,-2.4014,-6.6418
1086311.0,-16.7786,8.169,75.7047,-1.2898,-3.7046,-6.6402
1086321.0,-17.0084,7.9871,77.6296,-1.5873,-4.93,-6.4944
1086331.0,-17.1042,8.1594,76.8634,-1.176,-6.4657,-6.2805
1086341.0,-16.2901,9.2033,72.1804,-0.8338,-7.9434,-6.0145
1086351.0,-14.7196,9.5098,65.716,-0.2655,-8.9571,-5.7564
1086361.0,-13.5895,10.6877,57.8248,-0.2038,-9.4104,-5.5398
1086371.0,-12.7084,12.1051,51.8776,-0.5875,-9.5796,-5.3562
1086381.0,-11.3006,13.3596,48.2001,-0.9397,-9.5466,-5.0748
1086391.0,-9.8833,14.2694,45.26,-0.9253,-9.4785,-4.673
1086401.0,-8.1307,14.3844,41.5442,-1.0142,-9.2534,-4.2404
1086411.0,-6.5793,13.7906,40.7589,-0.8588,-8.8219,-3.8275
1086421.0,-4.9416,13.7427,39.5426,-0.2198,-8.368,-3.3619
1086431.0,-3.5243,13.9247,38.0391,0.448,-8.0067,-2.8436
1086441.0,-2.4229,14.5663,35.1852,0.8205,-7.7124,-2.3259
1086451.0,-0.814,14.5951,32.2451,0.7359,-7.4075,-1.8603
1086461.0,0.7757,14.6238,30.4447,0.2687,-7.0031,-1.483
1086471.0,2.1069,14.0396,29.5828,-0.2458,-6.6509,-1.1584
1086481.0,3.6871,12.9383,28.7783,-0.6194,-6.3023,-0.8679
1086491.0,4.7022,12.1147,28.2037,-0.9807,-5.832,-0.5938
1086501.0,4.9512,11.2144,28.4623,-1.1563,-5.5728,-0.3863
1086511.0,5.7078,10.0556,28.74,-0.8934,-5.07,-0.1304
1086521.0,6.4548,9.5193,29.1422,-0.3315,-4.5969,0.1245
1086531.0,6.7516,9.1267,29.3625,0.1713,-4.2979,0.3794
1086541.0,7.5848,8.9352,28.1654,0.3661,-4.1569,0.6018
1086551.0,8.8107,8.3701,26.7001,0.2395,-3.9132,0.7466
1086561.0,9.5385,8.2552,25.6467,-0.0724,-3.5891,0.8514
1086571.0,9.8641,8.0445,24.622,-0.4448,-3.231,0.8971
1086581.0,10.228,7.9104,25.3307,-0.9966,-2.8399,0.9621
1086591.0,10.1514,7.7572,26.9108,-1.0238,-2.7457,1.0908
1086601.0,10.2376,7.2975,26.9779,-0.8253,-2.5015,1.3095
1086611.0,10.6398,7.0102,26.4416,-0.6348,-2.2333,1.5022
1086621.0,10.7739,6.4739,26.4894,-0.3581,-2.0077,1.6639
1086631.0,11.0421,6.8187,25.3498,-0.157,-1.6527,1.8278
1086641.0,11.157,7.288,24.4113,-0.067,-1.3452,2.0486
1086651.0,11.2911,7.6231,23.6068,-0.274,-1.1281,2.2679
1086661.0,11.8657,8.0349,22.1703,-0.6444,-0.887,2.5275
1086671.0,12.2775,7.5082,21.3084,-1.019,-0.4496,2.7649
1086681.0,12.287,6.5984,20.5806,-1.1653,0.0841,3.0384
1086691.0,12.2009,5.2577,22.0075,-1.1808,0.68,3.297
1086701.0,11.9806,4.0701,22.6491,-1.0025,1.127,3.5231
1086711.0,11.8561,2.9113,23.0322,-0.7726,1.5421,3.736
1086721.0,11.8274,1.8387,23.1854,-0.6476,1.9576,3.8951
1086731.0,12.4403,0.8332,23.626,-0.4315,2.3216,4.0105
1086741.0,12.3158,-0.1053,23.9899,-0.1431,2.7771,4.1271
1086751.0,12.2392,-0.929,24.2102,0.1921,3.3246,4.2005
1086761.0,12.22,-1.1971,24.1719,0.2549,3.7376,4.2234
1086771.0,11.4443,-1.4078,23.8079,0.0474,4.1223,4.1946
1086781.0,10.5249,-1.8387,24.3634,-0.3517,4.5304,4.151
1086791.0,9.6343,-2.2505,26.5756,-0.5119,4.8736,4.1563
1086801.0,9.6534,-3.055,27.5525,-0.2916,5.2333,4.1718
1086811.0,8.7724,-4.3383,30.052,0.3661,5.7314,4.2191
1086821.0,8.2935,-5.3343,31.5364,1.408,6.2624,4.2596
1086831.0,8.2456,-6.3782,33.2219,2.3232,6.7243,4.1952
1086841.0,7.9679,-6.6367,33.8253,2.9128,7.1127,4.0148
1086851.0,7.6136,-5.6407,34.6489,2.9452,7.1761,3.7626
1086861.0,7.2401,-5.4875,36.0854,2.8021,7.166,3.4641
1086871.0,6.5505,-4.2138,35.597,2.5472,7.2282,3.165
1086881.0,5.1523,-3.3615,36.6026,1.9028,7.2878,2.8622
1086891.0,4.2425,-2.7007,37.7901,1.3218,7.3463,2.5845
1086901.0,2.9592,-2.4995,40.1843,0.9823,7.2841,2.3525
1086911.0,1.6376,-2.0111,41.7836,0.9248,7.225,2.2024
1086921.0,0.2203,-1.3791,43.1722,0.8173,7.1335,2.0593
1086931.0,-1.8579,-1.3408,43.9767,0.4981,6.5503,1.8693
1086941.0,-2.4804,-0.7183,42.8466,0.2778,6.1331,1.6437
1086951.0,-3.8978,0.3735,41.027,0.1953,5.924,1.4484
1086961.0,-4.0031,3.1603,37.8763,0.1628,6.2161,1.3404
1086971.0,-5.5162,6.6367,36.4302,0.0,6.8089,1.4154
1086981.0,-7.1635,10.0269,35.7023,-0.3363,7.5267,1.7028
1086991.0,-8.8873,11.5113,37.6464,-0.8349,8.1445,2.1572
1087001.0,-11.4251,11.3389,40.9408,-1.2744,8.3696,2.6361
1087011.0,-14.4993,9.5481,44.2832,-1.3798,8.6495,3.1278
1087021.0,-16.022,7.5753,48.3916,-0.895,8.9485,3.5519
1087031.0,-17.9565,5.5737,51.7914,-0.4603,8.8714,3.827
1087041.0,-18.5599,4.7405,54.4729,-0.0346,8.7128,3.952
1087051.0,-19.5271,5.1236,57.0586,0.2059,8.4776,4.0409
1087061.0,-19.824,5.8131,59.472,0.041,7.8242,4.076
1087071.0,-20.5231,6.675,61.3682,-0.4182,6.9515,4.2191
1087081.0,-21.567,6.5027,62.9483,-0.8269,5.8713,4.3532
1087091.0,-22.0745,5.5258,62.9388,-1.0866,4.8928,4.5363
1087101.0,-22.4576,4.1946,62.9867,-1.1185,4.0366,4.6581
1087111.0,-22.8981,3.371,62.1726,-1.2212,3.1586,4.6922
1087121.0,-22.4672,3.3327,59.3858,-1.3138,2.6185,4.7135
1087131.0,-22.3714,3.5051,58.7729,-1.6485,2.1497,4.7837
1087141.0,-21.816,4.2425,57.5183,-2.2269,1.5234,4.8933
1087151.0,-21.5574,3.62,56.7234,-2.9234,0.9876,5.087
1087161.0,-21.8638,2.2601,57.3842,-3.33,0.4284,5.3323
1087171.0,-21.8543,-0.6512,56.8958,-3.3731,-0.157,5.5175
1087181.0,-22.3044,-4.1468,57.1065,-2.9229,-0.4656,5.6015
1087191.0,-22.4193,-8.3989,57.3651,-2.104,-0.7093,5.5042
1087201.0,-20.9924,-10.8888,55.8519,-1.433,-0.854,5.1375
1087211.0,-19.3356,-11.5496,56.2829,-1.1717,-0.8812,4.5996
1087221.0,-18.263,-10.1418,56.6755,-1.5516,-1.2872,4.0616
1087231.0,-17.0276,-9.2033,57.729,-2.4094,-2.0614,3.5774
1087241.0,-16.587,-8.4276,58.6484,-3.2054,-2.9809,3.1645
1087251.0,-17.334,-8.0158,59.29,-3.7445,-4.0999,2.8894
1087261.0,-18.2438,-7.4124,57.8248,-3.7615,-5.1748,2.7899
1087271.0,-18.014,-8.2648,57.48,-3.1368,-5.7734,2.8138
1087281.0,-16.7881,-9.4236,55.7083,-1.8757,-6.297,2.8846
1087291.0,-14.9398,-9.8641,52.2511,-0.8402,-6.7067,2.891
1087301.0,-12.9191,-9.4715,48.0564,-0.3762,-6.9111,2.7611
1087311.0,-11.5401,-8.8969,44.9248,-0.5624,-7.3027,2.6153
1087321.0,-9.8545,-9.1075,42.0709,-1.1366,-7.639,2.3727
1087331.0,-8.7436,-9.7109,39.6001,-1.8587,-8.0381,2.0438
1087341.0,-6.8187,-10.7548,37.7039,-2.4786,-8.2658,1.6256
1087351.0,-5.9951,-11.0421,35.7406,-2.5243,-8.2595,1.2036
1087361.0,-5.545,-10.3717,33.9881,-2.0348,-8.0099,0.9099
1087371.0,-4.8267,-9.6247,32.1781,-1.292,-7.5619,0.7827
1087381.0,-3.6966,-9.0884,30.1095,-0.4315,-6.9765,0.7338
1087391.0,-1.9058,-9.3565,28.6921,0.3634,-6.28,0.6572
1087401.0,-0.0575,-9.596,27.4471,0.6619,-5.6425,0.5177
1087411.0,1.0726,-9.6055,26.4511,0.4911,-5.3312,0.2336
1087421.0,2.3367,-9.0692,25.5509,-0.0037,-4.9864,-0.1064
1087431.0,2.5187,-8.5425,24.9476,-0.5736,-4.6464,-0.4411
1087441.0,3.7828,-7.92,25.2062,-0.9163,-4.2021,-0.7609
1087451.0,3.9744,-7.5944,25.9531,-0.6864,-3.703,-0.9732
1087461.0,3.8882,-6.4548,25.6563,-0.2416,-3.0032,-1.0557
1087471.0,3.802,-5.3822,25.9915,0.3624,-2.2721,-1.036
1087481.0,4.118,-5.0949,26.6044,0.9333,-1.5719,-0.8971
1087491.0,4.5011,-5.2002,26.7768,1.1323,-1.0126,-0.854
1087501.0,4.5203,-5.8802,27.2077,0.9237,-0.6939,-0.9115
1087511.0,5.1523,-5.9855,28.0792,0.4784,-0.5172,-1.094
1087521.0,5.2577,-6.043,29.2763,-0.0899,-0.5215,-1.284
1087531.0,5.3726,-5.7461,30.3202,-0.5662,-0.7125,-1.4851
1087541.0,5.6599,-5.4109,30.0999,-1.0515,-0.7944,-1.6272
1087551.0,5.9472,-5.4875,30.3872,-1.193,-0.9222,-1.7129
1087561.0,6.2153,-5.7652,29.5349,-1.0594,-0.994,-1.731
1087571.0,6.4835,-6.6367,28.0984,-0.8195,-0.9509,-1.7315
1087581.0,7.1443,-7.8721,25.187,-0.5236,-0.6577,-1.8422
1087591.0,7.1156,-9.1746,23.3483,-0.3124,-0.1501,-2.0774
1087601.0,6.9911,-9.6055,21.1264,-0.1352,0.5369,-2.3902
1087611.0,6.4835,-9.3565,19.9868,0.0112,1.4543,-2.7228
1087621.0,5.4109,-7.9871,19.6803,0.1474,2.4977,-2.9873
1087631.0,4.2713,-6.4452,20.2741,0.1352,3.4098,-3.1687
1087641.0,3.1125,-4.9033,22.5055,-0.0931,4.2452,-3.3044
1087651.0,2.1644,-3.7062,25.7903,-0.1905,4.7725,-3.3252
1087661.0,0.8428,-3.122,28.1175,-0.1016,5.0897,-3.2842
1087671.0,0.3543,-3.2944,29.8701,0.075,5.4031,-3.2097
1087681.0,-0.2203,-3.3519,31.0001,0.2623,5.7122,-3.1921
1087691.0,-0.7757,-3.9456,32.9634,0.2921,5.9586,-3.2065
1087701.0,-1.7621,-4.3862,35.032,0.2309,6.0076,-3.2783
1087711.0,-2.3367,-4.8267,38.087,0.3719,5.9793,-3.363
1087721.0,-3.5243,-4.0031,39.8587,0.87,5.8298,-3.3869
1087731.0,-4.2904,-3.4955,40.3375,1.2159,5.6776,-3.3518
1087741.0,-5.2385,-2.7869,39.3128,1.5469,5.7702,-3.2869
1087751.0,-5.0949,-3.3136,39.8682,1.408,5.5893,-3.306
1087761.0,-4.4245,-4.0031,39.3319,1.1765,5.642,-3.4369
1087771.0,-5.047,-4.4819,41.1803,0.7641,5.6218,-3.6466
1087781.0,-5.6024,-5.2002,42.1954,0.4166,5.2136,-3.8913
1087791.0,-3.7445,-6.4931,41.7261,0.1517,4.9609,-4.2165
1087801.0,-7.6231,-6.6655,41.0558,0.049,5.2871,-4.4463
1087811.0,-8.7436,-5.9568,41.0845,0.4119,5.5702,-4.6986
1087821.0,-9.3853,-5.9855,43.3255,0.3124,5.7042,-4.9407
1087831.0,-9.6438,-5.6599,43.5553,0.729,6.1667,-5.1556
1087841.0,-10.9654,-5.114,46.639,0.9472,6.4593,-5.4201
1087851.0,-12.0285,-3.6871,48.7076,1.0807,6.4008,-5.6058
1087861.0,-13.4554,-3.1987,51.2742,1.1382,6.1267,-5.7346
1087871.0,-15.342,-2.3367,52.1553,1.0637,5.6282,-5.8229
1087881.0,-16.1369,-2.3655,52.7012,1.0137,5.4041,-5.8809
1087891.0,-16.5391,-1.9824,53.7546,1.1855,5.4547,-5.9001
1087901.0,-16.9797,-1.245,54.9804,0.944,5.2541,-5.9927
1087911.0,-17.334,-1.1396,57.8343,0.6348,4.7762,-6.1347
1087921.0,-18.1385,-0.4214,60.5925,0.431,4.1361,-6.2901
1087931.0,-18.579,0.5267,62.7089,0.5002,3.305,-6.3646
1087941.0,-19.2015,1.8483,61.8949,0.687,2.5025,-6.3279
1087951.0,-20.5614,3.6583,60.286,1.0727,2.1178,-6.1874
1087961.0,-21.0498,5.1427,59.8263,0.8296,1.6075,-5.9905
1087971.0,-21.1743,6.4165,58.9836,0.721,1.1605,-5.7282
1087981.0,-21.1456,7.5753,59.1176,0.3001,0.861,-5.4451
1087991.0,-21.5765,8.1977,63.1399,0.2293,0.183,-5.0748
1088001.0,-21.3467,8.4946,65.2276,0.4869,-0.7615,-4.673
1088011.0,-21.6819,8.3797,65.6107,1.0722,-1.7278,-4.2415
1088021.0,-21.0786,8.9735,63.3123,1.3681,-2.643,-3.8786
1088031.0,-20.3316,9.5577,59.855,1.2643,-3.3087,-3.5524
1088041.0,-19.575,9.73,56.7713,0.7114,-3.8094,-3.272
1088051.0,-18.7801,9.7013,54.7602,-0.0952,-4.3341,-3.0549
1088061.0,-17.3149,9.0405,54.3771,-0.8014,-4.8018,-2.8399
1088071.0,-16.4817,8.1307,54.6644,-0.8876,-5.2051,-2.5983
1088081.0,-16.3668,7.2113,54.492,-0.5268,-5.6925,-2.3009
1088091.0,-15.7922,5.8419,52.4713,0.0511,-6.1496,-2.0082
1088101.0,-13.781,4.7118,48.6214,0.332,-6.4843,-1.8752
1088111.0,-12.2679,3.553,45.1834,0.0623,-6.8052,-1.9353
1088121.0,-10.1993,3.3615,41.0941,-0.6353,-6.8233,-2.13
1088131.0,-9.1554,3.237,39.9544,-1.3095,-6.462,-2.3562
1088141.0,-8.7436,3.8786,41.4963,-1.4213,-6.2257,-2.453
1088151.0,-8.5808,4.6352,42.2912,-1.1579,-6.2177,-2.3807
1088161.0,-8.4755,5.3056,41.6208,-0.7822,-6.123,-2.1886
1088171.0,-8.2839,6.0047,41.3335,-0.4252,-6.106,-1.93
1088181.0,-7.422,6.541,40.1268,-0.2905,-6.2193,-1.6836
1088191.0,-6.3111,6.9049,39.0255,-0.1825,-6.1773,-1.4293
1088201.0,-4.9608,7.2592,38.901,0.0436,-6.0714,-1.1105
1088211.0,-3.3327,7.5657,37.8475,0.1266,-6.0868,-0.7897
1088221.0,-2.6336,7.1922,36.9856,-0.0138,-6.1134,-0.5177
1088231.0,-1.8292,6.8283,36.8516,-0.1421,-6.2358,-0.3028
1088241.0,-0.5459,6.0334,36.3248,-0.183,-6.3603,-0.0718
1088251.0,-0.9673,5.1906,35.8556,-0.2666,-6.5966,0.0958
1088261.0,-0.9577,4.118,34.9553,-0.3906,-6.7663,0.2081
1088271.0,-0.7183,3.1316,35.2139,-0.6066,-6.9148,0.2645
1088281.0,1.2163,2.9401,35.3193,-0.9216,-7.4389,0.2293
1088291.0,3.869,3.1987,32.9825,-1.6629,-8.094,0.1038
1088301.0,4.6543,3.5051,31.5652,-1.433,-7.8534,0.1362
1088311.0,4.4436,6.4739,26.7289,-1.3835,-7.5156,0.3054
1088321.0,5.2289,7.4124,24.8518,-1.781,-7.257,0.6279
1088331.0,6.3494,7.853,21.9979,-2.171,-6.6892,1.0201
1088341.0,7.6902,6.2537,20.7338,-2.5621,-6.2433,1.3558
1088351.0,9.3948,3.5434,20.3986,-2.5893,-5.5808,1.5788
1088361.0,10.6877,1.5993,19.8048,-2.2966,-4.946,1.6751
1088371.0,12.0668,0.0958,18.8472,-1.9678,-4.3761,1.6474
1088381.0,12.9287,-0.4214,17.5926,-1.3798,-3.7051,1.6033
1088391.0,13.465,0.9194,13.4267,-1.0658,-2.9351,1.6043
1088401.0,13.9821,1.8579,9.2703,-1.0041,-1.7932,1.6442
1088411.0,14.8919,2.9784,6.043,-1.4042,-0.3288,1.7405
1088421.0,13.8481,3.0358,6.4739,-2.0013,1.1334,1.8831
1088431.0,13.0436,2.3176,9.2799,-2.3578,2.5898,2.0912
1088441.0,12.153,-0.0383,14.2599,-2.0923,3.6891,2.3328
1088451.0,11.8082,-1.561,17.8991,-1.6629,4.5533,2.4674
1088461.0,10.9271,-1.494,21.385,-1.0264,5.2998,2.5196
1088471.0,9.3087,0.2203,23.6834,-0.6806,5.658,2.6196
1088481.0,8.0924,2.8347,23.7122,-0.6087,5.9703,2.8213
1088491.0,6.1292,5.3439,24.507,-0.8535,6.2821,3.1911
1088501.0,5.0853,6.3398,24.1814,-1.2712,6.5439,3.6588
1088511.0,4.4436,4.5969,25.1774,-1.9752,6.9888,4.0653
1088521.0,3.4764,2.0686,27.1694,-2.7239,7.3229,4.317
1088531.0,1.6951,-0.565,30.2052,-3.2001,7.5608,4.5075
1088541.0,1.0247,-3.1125,33.3943,-3.3071,7.8843,4.6443
1088551.0,-0.3926,-6.0717,37.8954,-2.8989,8.1844,4.6975
1088561.0,-1.2163,-7.7764,41.4771,-1.7831,8.3041,4.673
1088571.0,-2.6049,-7.9775,44.0054,-0.9041,8.2754,4.5559
1088581.0,-3.9361,-6.9815,44.6279,-0.4103,7.8577,4.4107
1088591.0,-4.8363,-5.9185,43.517,-0.6125,7.5278,4.2729
1088601.0,-4.7309,-5.3822,43.3542,-0.9381,7.5246,4.1659
1088611.0,-6.1292,-5.3056,45.5569,-1.4399,7.4767,4.0632
1088621.0,-7.2975,-4.6639,48.4012,-1.5256,7.117,4.0233
1088631.0,-8.4755,-3.869,50.4123,-1.6836,6.8148,4.0733
1088641.0,-10.1131,-3.0263,52.0499,-1.6911,6.2646,4.2308
1088651.0,-11.3485,-1.992,52.5767,-1.7884,5.4978,4.4405
1088661.0,-13.149,-1.5993,52.5288,-1.7528,4.9433,4.7166
1088671.0,-13.714,-2.3272,51.437,-1.491,4.4176,5.0801
1088681.0,-13.7331,-4.1468,49.4546,-1.0366,4.367,5.3052
1088691.0,-13.8002,-5.4684,48.3341,-0.6641,4.5283,5.4494
1088701.0,-14.1833,-6.4548,48.315,-0.7184,4.5794,5.4685
1088711.0,-14.7291,-6.79,49.5217,-0.8466,4.6118,5.4605
1088721.0,-15.8496,-6.5027,51.0827,-1.1095,4.3686,5.485
1088731.0,-16.6349,-6.6176,52.4234,-1.3665,4.0403,5.5228
1088741.0,-17.5734,-7.1251,53.8025,-1.4958,3.646,5.5882
1088751.0,-18.3204,-8.4659,55.8711,-1.2281,3.2443,5.6713
1088761.0,-18.761,-9.9311,56.666,-0.7732,2.8378,5.6729
1088771.0,-19.0387,-10.908,57.3363,-0.1288,2.4663,5.6415
1088781.0,-18.4832,-11.5113,58.2653,0.489,2.1827,5.6095
1088791.0,-18.33,-11.5592,58.9836,0.8434,1.6815,5.5223
1088801.0,-18.6365,-11.6933,58.9261,0.8242,0.9732,5.4281
1088811.0,-18.9812,-12.1051,58.7058,0.5832,0.2921,5.3217
1088821.0,-18.3587,-12.6701,57.1161,0.2698,-0.3805,5.1482
1088831.0,-18.9238,-13.8576,57.5662,0.0915,-0.9775,4.9848
1088841.0,-18.7705,-14.777,56.8767,0.2102,-1.3995,4.8209
1088851.0,-18.4258,-15.6868,56.9437,0.5779,-1.8049,4.6517
1088861.0,-18.3587,-16.6541,56.8671,1.0211,-2.1918,4.4761
1088871.0,-16.5104,-17.7171,56.7809,1.574,-2.5132,4.2452
1088881.0,-15.4474,-18.5024,55.7753,1.6762,-3.0203,3.9392
1088891.0,-14.4706,-19.1536,55.4497,1.6261,-3.7131,3.5189
1088901.0,-14.1833,-18.9717,53.9557,1.2866,-4.5256,3.0506
1088911.0,-13.1777,-18.7801,50.4506,0.7338,-5.2738,2.5148
1088921.0,-12.6605,-18.3779,47.9415,-0.0202,-5.8415,1.922
1088931.0,-11.8752,-17.3819,45.9878,-0.4651,-6.1193,1.3638
1088941.0,-11.3868,-15.9071,45.5186,-0.1607,-6.1374,1.0371
1088951.0,-11.5017,-13.963,43.8618,0.6976,-6.0858,0.936
1088961.0,-10.4962,-12.3062,41.6112,1.4724,-5.7261,0.9397
1088971.0,-10.6781,-11.0804,41.4676,2.1072,-5.2684,1.0648
1088981.0,-9.9216,-10.4962,41.3239,2.2546,-5.3935,1.1648
1088991.0,-8.3414,-10.7739,40.0215,1.8954,-5.6627,1.1435
1089001.0,-7.7955,-11.2911,38.9393,1.4601,-5.9027,1.0036
1089011.0,-6.8857,-11.6646,37.9433,1.1297,-6.0751,0.8312
1089021.0,-6.0621,-12.5743,36.8228,1.1382,-6.0416,0.5997
1089031.0,-4.7884,-12.9766,35.1565,1.4021,-5.8043,0.3315
1089041.0,-3.3232,-12.3349,34.2179,1.6272,-5.3818,0.049
1089051.0,-2.5474,-10.9846,33.8061,1.806,-4.9784,-0.1719
1089061.0,-2.4804,-9.1554,33.7966,1.6958,-4.8635,-0.3113
1089071.0,-2.0016,-7.9009,32.1972,1.3681,-4.9119,-0.3821
1089081.0,-1.4461,-6.9815,30.5596,0.903,-4.8289,-0.4518
1089091.0,-0.747,-6.8378,28.9028,0.4198,-4.5102,-0.5007
1089101.0,0.2873,-7.9487,29.6689,0.3741,-4.0387,-0.5757
1089111.0,0.7853,-9.1459,30.1382,0.7764,-3.5726,-0.6396
1089121.0,1.743,-9.4236,29.3433,1.4,-2.9793,-0.7567
1089131.0,2.739,-9.7205,29.0943,1.6836,-2.4807,-0.9418
1089141.0,3.4668,-9.663,28.7975,1.6389,-2.1013,-1.2058
1089151.0,4.0223,-9.5481,28.989,1.2553,-1.9481,-1.5298
1089161.0,4.3958,-8.6957,27.8206,0.6566,-2.0061,-1.9151
1089171.0,4.6543,-7.422,26.7097,-0.0362,-1.8576,-2.2524
1089181.0,4.6256,-6.5505,26.6618,-0.4289,-1.4591,-2.4802
1089191.0,4.0701,-5.9472,28.0696,-0.1799,-0.7966,-2.544
1089201.0,3.4955,-5.5737,29.1135,0.572,-0.1846,-2.5254
1089211.0,3.6488,-6.0717,29.8701,1.2888,0.2911,-2.4993
1089221.0,4.5394,-5.861,29.3625,1.6458,0.7455,-2.5781
1089231.0,4.9033,-5.1236,29.8988,1.3516,0.9104,-2.7989
1089241.0,4.7692,-4.3574,29.42,0.4741,0.9429,-3.0463
1089251.0,4.2808,-4.367,30.0807,-0.3911,0.9956,-3.3039
1089261.0,3.869,-4.3191,31.7375,-0.8051,1.06,-3.5077
1089271.0,4.0318,-3.9935,31.5843,-0.6162,1.3601,-3.6274
1089281.0,2.8252,-3.7924,31.3353,-0.0963,1.8624,-3.6274
1089291.0,2.4995,-2.7581,29.6977,0.6737,2.6478,-3.5428
1089301.0,1.1588,-2.8156,29.8892,1.1557,3.5433,-3.4518
1089311.0,0.9002,-3.4764,30.5787,1.2255,4.2388,-3.4641
1089321.0,1.0439,-4.051,31.7088,0.6492,4.3937,-3.6519
1089331.0,0.3543,-4.5681,31.5364,-0.2559,4.599,-3.9626
1089341.0,0.4501,-2.1835,32.1685,-1.3803,5.0556,-4.1478
1089351.0,-1.0056,-2.7869,35.1469,-1.8496,5.0583,-4.2989
1089361.0,-4.549,-2.7581,38.1827,-0.8753,6.4801,-4.184
1089371.0,-8.3318,-1.6185,42.4827,-0.8253,6.6503,-4.0371
1089381.0,-7.4412,-3.3615,46.6199,-0.7748,6.0224,-3.9499
1089391.0,-8.1499,-5.4875,48.5257,-1.0988,5.5207,-4.0451
1089401.0,-7.6327,-7.422,50.374,-1.3101,4.9832,-4.3165
1089411.0,-7.7093,-9.1363,53.8121,-0.9317,4.8337,-4.6645
1089421.0,-8.0158,-8.9352,55.3156,-0.331,4.6842,-5.0721
1089431.0,-8.5042,-8.0158,56.6085,0.2953,4.4995,-5.4313
1089441.0,-9.2512,-6.8091,55.9573,0.2655,4.0866,-5.9676
1089451.0,-11.406,-2.308,54.9134,0.2772,4.5895,-6.3481
1089461.0,-14.4801,0.7566,58.7346,-0.4273,4.4948,-6.4944
1089471.0,-15.6964,2.7102,63.0728,-0.0708,4.2787,-6.4104
1089481.0,-16.6253,4.4724,65.3042,-0.0138,4.2159,-6.3667
1089491.0,-16.9988,6.043,68.5891,-0.0511,3.7232,-6.4136
1089501.0,-18.646,8.6095,70.7056,-0.3821,3.2672,-6.512
1089511.0,-21.4999,12.9287,74.0479,-0.4773,3.0176,-6.4295
1089521.0,-23.8654,18.7035,77.7924,-1.0158,2.4727,-6.0916
1089531.0,-26.681,21.9788,78.4508,-1.8933,1.1307,-5.5941
1089541.0,-28.3952,26.3458,78.4508,-2.9958,-0.3751,-4.9667
1089551.0,-30.1478,28.1558,78.4508,-3.3576,-1.9944,-4.0196
1089561.0,-31.1342,26.7193,78.4508,-3.0112,-3.8679,-2.9506
1089571.0,-30.732,23.0897,78.4508,-2.3365,-5.8735,-2.0556
1089581.0,-30.4926,19.891,78.4508,-1.698,-8.078,-1.4048
1089591.0,-29.8222,16.7307,78.4508,-1.176,-10.422,-0.9206
1089601.0,-27.6578,15.6293,78.4508,-1.2627,-12.104,-0.6864
1089611.0,-26.5469,15.9741,76.9018,-2.105,-13.5976,-0.5566
1089621.0,-25.5892,17.7171,70.629,-2.6313,-14.5804,-0.2139
1089631.0,-25.685,17.9852,67.8038,-2.7963,-15.0364,0.3895
1089641.0,-26.3171,16.0412,69.882,-1.1691,-15.5169,1.3888
1089651.0,-28.2324,12.9861,70.5906,0.9567,-16.8036,2.5382
1089661.0,-30.1957,9.098,63.7145,2.8154,-17.4363,3.5859
1089671.0,-26.7001,3.4955,54.3675,3.5965,-17.4363,4.317
1089681.0,-25.6371,-0.6991,43.517,3.6838,-17.4363,4.6203
1089691.0,-23.9037,-2.0303,32.7239,3.0565,-17.4363,4.7379
1089701.0,-25.4264,-3.6679,20.5518,2.0369,-17.4363,4.8316
1089711.0,-22.3906,-4.8171,4.9991,0.298,-17.4363,4.9348
1089721.0,-18.2151,-9.3565,-8.2935,-0.6737,-17.4363,5.0162
1089731.0,-8.8777,-14.4322,-20.4082,-0.795,-17.4363,4.9768
1089741.0,-0.0575,-19.4505,-37.1484,-1.4367,-17.4363,4.6129
1089751.0,5.0661,-23.1471,-50.7858,-2.9053,-17.4363,3.7876
1089761.0,6.79,-25.12,-66.6258,-2.1098,-17.4363,3.0134
1089771.0,7.8051,-15.5623,-78.4532,-0.845,-17.4363,2.4158
1089781.0,13.3884,-10.3908,-78.4532,-0.3464,-17.4363,1.9656
1089791.0,19.9868,1.6664,-78.4532,-1.1611,-14.4586,1.5197
1089801.0,25.5988,18.9429,-78.4532,-2.9048,-4.681,1.1068
1089811.0,9.7205,32.3217,-78.4532,-4.1233,6.6429,1.3207
1089821.0,-14.6908,46.3517,-78.4532,-0.356,17.4357,2.2178
1089831.0,-57.049,64.4136,-78.4532,2.4371,17.4357,3.9046
1089841.0,-78.4532,74.0,-78.4532,3.5487,17.4357,6.6743
1089851.0,-78.4532,53.7163,-78.4532,1.7272,17.4357,9.5009
1089861.0,-78.4532,16.3572,-78.4532,-1.2393,17.4357,10.8743
1089871.0,-78.4532,-18.8567,-7.7476,7.6417,17.4357,11.1052
1089881.0,-78.4532,-27.0066,46.4571,17.4357,17.4357,9.3551
1089891.0,-78.4532,-23.444,78.4508,17.4357,17.4357,5.9182
1089901.0,-78.4532,-15.3133,78.4508,13.3023,17.4357,1.9156
1089911.0,-78.4532,-32.9538,78.4508,1.0908,17.4357,-1.5346
1089921.0,-78.4532,-55.8998,78.4508,-1.0669,17.4357,-4.0606
1089931.0,-78.4532,-37.8763,78.4508,1.731,13.6615,-5.5569
1089941.0,-78.4532,-13.216,78.4508,2.5472,0.9227,-6.1337
1089951.0,-78.4532,9.5193,78.4508,2.5536,-5.6904,-5.7287
1089961.0,-78.4532,25.4168,78.4508,1.4835,-13.0926,-4.5544
1089971.0,-78.4532,31.3545,78.4508,0.6689,-17.4363,-2.485
1089981.0,-78.4532,29.6498,78.4508,1.6198,-17.4363,0.0021
1089991.0,-78.4532,22.7545,78.4508,-1.6863,-17.4363,1.8682
1090001.0,-73.7223,-3.5147,78.4508,-2.8149,-17.4363,2.7074
1090011.0,-52.433,-24.6028,54.7889,-4.8337,-17.4363,1.8816
1090021.0,-40.2992,-45.3653,55.2773,-4.0951,-17.1654,-0.4268
1090031.0,-34.4574,-42.7126,51.0731,-3.1602,-15.7723,-3.1645
1090041.0,-32.4462,-31.1917,53.2375,-1.6676,-15.7702,-5.3153
1090051.0,-30.6649,-11.406,46.2177,-0.8402,-15.4595,-6.4583
1090061.0,-32.6473,3.4572,43.7085,-1.1744,-16.2215,-6.8792
1090071.0,-32.5037,18.4066,36.6792,-1.873,-16.9409,-6.4625
1090081.0,-31.5939,25.5605,32.5707,-2.6856,-17.2234,-5.3653
1090091.0,-27.179,27.2939,27.9547,-3.0309,-17.1601,-4.0334
1090101.0,-26.3266,24.2389,25.4456,-3.0219,-17.0148,-2.7079
1090111.0,-22.6491,16.1465,22.812,-1.7645,-16.9808,-1.6522
1090121.0,-17.3244,8.9639,15.2654,-0.4954,-16.0985,-1.1446
1090131.0,-14.279,3.2848,11.4826,0.2267,-15.2115,-1.0892
1090141.0,-10.659,1.1301,7.671,0.5438,-14.0983,-1.3564
1090151.0,-8.1786,3.9744,8.5808,0.9924,-12.2264,-1.5197
1090161.0,-8.6766,7.9296,13.4267,0.7061,-11.3877,-1.4335
1090171.0,-9.0118,12.3445,18.0619,-0.2549,-11.6384,-1.1307
1090181.0,-7.2305,18.1385,19.5558,-2.0465,-12.3562,-0.5406
1090191.0,-5.6024,19.3068,22.4002,-3.7737,-13.3645,0.447
1090201.0,-3.5243,13.6469,23.6739,-3.7466,-13.7908,1.657
1090211.0,-3.5626,2.1261,27.6387,-2.1364,-14.1531,2.6489
1090221.0,-3.869,-8.2073,25.5509,0.7843,-15.1721,3.1586
1090231.0,-1.5419,-14.9015,16.338,3.1134,-15.5978,3.2156
1090241.0,3.1699,-17.2095,7.0868,4.8513,-14.9167,2.9484
1090251.0,5.5162,-16.7115,0.0958,4.9758,-14.2207,2.5313
1090261.0,8.4372,-15.3516,-2.7485,3.5295,-14.0632,1.8693
1090271.0,10.9559,-11.722,-4.9512,1.7874,-14.1015,1.2755
1090281.0,12.1434,-7.7668,-6.6463,-0.68,-14.7821,0.7753
1090291.0,14.0013,-5.1811,-12.038,-2.2705,-16.0597,0.5454
1090301.0,16.3859,-1.5897,-24.6124,-3.5705,-16.81,0.4438
1090311.0,20.9636,2.2793,-38.8914,-4.1084,-16.4657,0.589
1090321.0,20.0921,4.1946,-52.9885,-2.8548,-15.7495,1.1068
1090331.0,27.1886,3.8978,-78.4532,-2.0997,-13.1937,1.7709
1090341.0,32.7239,-2.5283,-78.4532,-1.4452,-8.7399,2.0987
1090351.0,35.4725,-7.2209,-78.4532,-2.6446,-3.5928,1.7182
1090361.0,40.7302,-10.1801,-78.4532,-3.0671,3.2321,0.8221
1090371.0,32.0344,-5.5162,-78.4532,-2.751,10.3453,-0.033
1090381.0,17.3819,2.1261,-78.4532,-1.1286,15.8378,-0.4523
1090391.0,-0.3543,15.8305,-78.4532,1.8842,17.4357,-0.216
1090401.0,-22.6875,32.8772,-78.4532,4.2936,17.4357,0.8636
1090411.0,-49.9047,46.4571,-78.4532,4.8475,17.4357,2.975
1090421.0,-78.4532,39.7054,-78.4532,1.2797,17.4357,5.328
1090431.0,-78.4532,16.3955,-78.4532,-1.7597,17.4357,7.2628
1090441.0,-78.4532,-18.7035,-68.3784,5.8048,17.4357,8.219
1090451.0,-78.4532,-58.045,-12.3541,14.6411,17.4357,5.4925
1090461.0,-78.4532,-72.257,78.4508,17.4357,17.4357,-0.6705
1090471.0,-78.4532,-24.6794,78.4508,17.4357,17.4357,-6.7238
1090481.0,-78.4532,17.2095,78.4508,16.2864,17.4357,-9.7728
1090491.0,-78.4532,53.5631,78.4508,8.3888,17.4357,-9.7504
1090501.0,-78.4532,52.7299,78.4508,-3.8286,17.4357,-7.572
1090511.0,-78.4532,32.1972,78.4508,-3.7626,-4.1116,-4.7938
1090521.0,-78.4532,18.2917,78.4508,-2.7244,-17.4363,-2.6765
1090531.0,-78.4532,6.7421,78.4508,1.1611,-17.4363,-1.1009
1090541.0,-78.4532,-1.1588,78.4508,0.1703,-17.4363,-1.0866
1090551.0,-78.4532,-6.608,78.4508,0.1767,-17.4363,-1.8619
1090561.0,-65.7639,-2.0973,56.5606,-2.3126,-17.4363,-3.2549
1090571.0,-57.8535,6.0525,43.6032,-3.298,-17.4363,-4.2367
1090581.0,-49.9909,19.1632,30.2531,-4.5134,-17.4363,-4.3011
1090591.0,-44.3981,21.7106,35.7598,-3.8562,-17.4363,-3.6104
1090601.0,-38.9968,22.2278,35.3863,-1.06,-17.1218,-2.469
1090611.0,-33.7966,17.6117,32.7527,0.7391,-16.7711,-1.632
1090621.0,-27.0257,14.6908,23.5111,1.3936,-16.6168,-1.3255
1090631.0,-21.9692,14.2599,17.6309,0.4406,-15.9176,-1.4346
1090641.0,-20.9253,18.1672,17.1233,-0.7971,-15.5366,-1.3856
1090651.0,-20.9349,20.7721,20.1975,-2.1439,-15.9692,-1.0477
1090661.0,-18.761,22.6875,18.6843,-2.1332,-16.5647,-0.2246
1090671.0,-16.702,21.6053,14.4322,-1.7001,-16.6275,0.8397
1090681.0,-10.9463,16.5008,7.0773,-0.9658,-16.2661,1.6996
1090691.0,-5.3726,12.0668,-1.5323,-0.7418,-14.7704,2.2205
1090701.0,-1.1588,7.2401,-2.3272,-1.0169,-13.2241,2.4254
1090711.0,2.2122,2.2505,-0.3256,-0.9301,-12.2226,2.4323
1090721.0,4.1084,-0.2394,2.2314,-0.9088,-11.4729,2.2604
1090731.0,5.3151,-1.2067,5.5737,-0.6018,-10.8178,2.0747
1090741.0,5.9759,-1.0151,9.4906,-0.4406,-10.6119,1.9289
1090751.0,7.5848,-0.3065,12.1625,-0.597,-10.879,1.7389
1090761.0,10.0269,1.2163,12.4594,-1.5165,-11.292,1.5378
1090771.0,11.3485,2.5857,19.3739,-1.9763,-11.9087,1.5186
1090781.0,11.8657,4.6831,22.9365,-1.1802,-13.2453,1.9513
1090791.0,12.0859,4.8937,21.0786,0.1479,-14.1675,2.7122
1090801.0,10.9463,4.2713,13.6948,1.1121,-15.2722,3.6753
1090811.0,12.8712,1.5323,-2.1069,-0.2799,-16.868,4.3239
1090821.0,18.9333,-3.9648,-19.01,-1.4942,-16.1815,4.5703
1090831.0,24.1623,-4.7597,-34.85,-3.214,-14.06,4.5623
1090841.0,28.7975,-7.6423,-40.8163,-4.8742,-11.5761,4.4889
1090851.0,32.7144,-11.157,-42.1475,-5.1477,-9.0002,4.3655
1090861.0,36.1333,-15.1888,-40.2609,-3.6833,-6.1901,4.1515
1090871.0,35.5587,-17.4872,-38.1157,-0.7615,-3.8456,3.9775
1090881.0,34.6393,-17.6788,-38.9872,1.69,-2.5621,3.8259
1090891.0,31.9578,-13.6853,-53.3141,2.5126,-2.8255,3.7184
1090901.0,34.9266,-13.1394,-74.9002,3.4736,-0.7982,3.4742
1090911.0,30.8277,-8.8107,-78.4532,4.118,3.3614,3.3129
1090921.0,29.0752,-4.0989,-78.4532,1.5591,6.4295,2.9245
1090931.0,18.4066,0.2586,-78.4532,-3.165,8.3621,2.4701
1090941.0,-4.4436,2.49,-78.4532,-5.3036,12.0007,2.4509
1090951.0,-21.8543,1.6664,-78.4532,-1.1728,17.4357,2.4493
1090961.0,-56.1775,3.7924,-78.4532,3.4933,17.4357,2.2141
1090971.0,-78.4532,3.0167,-78.4532,5.2621,17.4357,1.4037
1090981.0,-78.4532,11.0804,-78.4532,8.6415,17.4357,0.9951
1090991.0,-78.4532,17.7746,-78.4532,17.4357,17.4357,1.7358
1091001.0,-78.4532,-2.5187,-25.2732,17.4357,17.4357,0.1852
1091011.0,-78.4532,-16.0412,78.4508,17.4357,17.4357,-3.8876
1091021.0,-78.4532,14.3461,78.4508,17.4357,17.4357,-7.0494
1091031.0,-78.4532,4.3574,78.4508,16.5232,17.4357,-8.0801
1091041.0,-78.4532,38.403,78.4508,17.4357,17.4357,-7.1197
1091051.0,-78.4532,50.805,78.4508,11.1781,4.0504,-5.4558
1091061.0,-78.4532,56.0052,78.4508,3.2666,-17.2708,-4.6932
1091071.0,-78.4532,46.3422,78.4508,-5.8229,-17.4363,-4.2761
1091081.0,-78.4532,38.9106,78.4508,-7.0005,-17.4363,-2.8457
1091091.0,-78.4532,30.4926,78.4508,-6.2358,-17.4363,-1.0765
1091101.0,-78.4532,22.4863,75.0343,-2.875,-17.4363,0.7391
1091111.0,-66.3385,7.5753,39.6576,-1.1526,-17.4363,1.64
1091121.0,-53.0076,-4.1851,18.3587,2.925,-17.4363,1.5522
1091131.0,-33.5859,-5.5737,-1.6568,1.9002,-17.133,0.5811
1091141.0,-21.069,-5.545,-1.2546,1.0318,-12.5978,-0.5534
1091151.0,-13.4267,-1.2258,0.9194,-0.6561,-8.3222,-1.5532
1091161.0,-11.473,1.3216,17.4011,-0.8993,-5.0327,-2.1449
1091171.0,-13.034,5.5258,30.799,-0.92,-3.5737,-2.336
1091181.0,-15.5144,6.0238,47.2903,-0.3033,-4.0116,-2.3216
1091191.0,-16.4913,7.8913,53.6301,0.829,-4.8731,-2.1646
1091201.0,-16.4913,8.6574,57.6428,1.0621,-6.2129,-2.1423
1091211.0,-16.7594,11.3006,55.5072,-0.4401,-8.8559,-2.3136
1091221.0,-16.0124,14.3461,49.809,-2.502,-11.0828,-2.4153
1091231.0,-13.1968,19.6325,40.1364,-4.5033,-11.79,-2.2296
1091241.0,-12.0476,20.6572,38.9776,-5.419,-11.499,-1.6841
1091251.0,-11.2815,20.4273,37.0335,-5.2386,-11.5202,-0.8599
1091261.0,-10.1897,14.5855,37.2921,-4.2212,-11.4101,0.0516
1091271.0,-8.2935,7.7189,34.4382,-2.4802,-10.8237,0.7093
1091281.0,-7.173,1.7717,35.9034,-1.3149,-10.6098,0.9966
1091291.0,-7.1347,-2.059,36.5355,-0.4518,-11.2712,1.0211
1091301.0,-6.0047,-4.2042,34.9362,-0.571,-12.5706,0.7843
1091311.0,-4.3862,-3.9169,29.6881,-1.1111,-14.0707,0.4299
1091321.0,-3.9265,-0.2298,18.8663,-2.3583,-15.3052,0.0894
1091331.0,-1.7142,1.7238,10.0269,-3.2086,-15.3483,-0.0654
1091341.0,0.6416,2.5379,4.9129,-2.0486,-13.9706,0.1112
1091351.0,2.3559,2.7102,4.0031,0.0106,-12.2833,0.4715
1091361.0,5.1906,3.304,1.9824,2.3338,-11.0254,0.961
1091371.0,9.2512,2.3559,-0.3352,3.629,-9.8345,1.3207
1091381.0,13.3309,2.9209,-2.241,4.2351,-8.5808,1.4681
1091391.0,16.3763,6.8474,-1.2258,3.5965,-7.2458,1.6458
1091401.0,19.575,9.1171,6.2153,2.7356,-6.4955,2.0353
1091411.0,20.7338,9.7492,13.3405,2.6451,-6.322,2.6834
1091421.0,21.3371,7.0102,21.0307,3.272,-6.5551,3.4523
1091431.0,21.318,3.5817,22.1703,4.5501,-6.9233,4.1984
1091441.0,22.1799,-0.7087,22.812,5.4808,-6.8925,4.7853
1091451.0,22.879,-6.7038,18.3492,5.6106,-7.9397,5.0051
1091461.0,26.9587,-12.6127,6.1962,4.3011,-9.1305,4.6124
1091471.0,31.9003,-17.4202,-10.1801,2.3083,-8.8996,3.6977
1091481.0,37.905,-20.3124,-22.63,0.0011,-7.5305,2.3519
1091491.0,40.6727,-16.769,-32.2068,-1.086,-5.3935,1.0738
1091501.0,38.5179,-10.9176,-37.4262,-2.6542,-4.5847,0.0362
1091511.0,41.0462,1.0151,-48.0947,-2.6989,-3.6716,-0.2384
1091521.0,34.0647,14.7674,-65.6873,-3.5348,-3.2517,0.298
1091531.0,29.3433,23.5973,-78.4532,-4.4639,-3.6035,1.6075
1091541.0,29.4487,20.4082,-78.4532,-6.437,0.9817,2.7994
1091551.0,13.7906,13.5991,-78.4532,-7.4975,8.4281,3.4236
1091561.0,-10.0078,8.7628,-78.4532,-6.0741,17.4357,3.8434
1091571.0,-49.8856,0.8428,-78.4532,-3.2523,17.4357,3.9887
1091581.0,-78.4532,-5.3822,-78.4532,-0.4252,17.4357,3.5444
1091591.0,-78.4532,-1.5131,-78.4532,8.2744,17.4357,3.5875
1091601.0,-78.4532,-5.9089,-73.0806,16.5902,17.4357,2.7638
1091611.0,-78.4532,-5.5833,9.2033,17.4357,17.4357,0.1783
1091621.0,-78.4532,17.4489,78.4508,17.4357,17.4357,-3.007
1091631.0,-78.4532,44.2927,78.4508,10.8397,17.4357,-5.0657
1091641.0,-78.4532,36.3536,78.4508,1.8092,17.4357,-5.0221
1091651.0,-78.4532,20.1209,78.4508,-0.6726,17.4357,-3.4923
1091661.0,-78.4532,7.9296,78.4508,-1.0248,-1.7246,-2.4717
1091671.0,-78.4532,-3.486,78.4508,-2.311,-17.4363,-2.8314
1091681.0,-78.4532,-2.9209,78.4508,-6.5359,-17.4363,-4.1563
1091691.0,-78.4532,-2.7581,78.4508,-9.3806,-17.4363,-5.3126
1091701.0,-78.4532,6.359,77.3423,-7.895,-17.4363,-5.3546
1091711.0,-67.9474,11.0804,44.2448,-7.4161,-17.4363,-4.8428
1091721.0,-54.607,8.983,35.2331,-4.9337,-13.5529,-3.9515
1091731.0,-47.5393,6.6272,33.787,-3.6902,-8.352,-3.1991
1091741.0,-40.7972,0.2969,48.7268,-1.6192,-5.394,-2.635
1091751.0,-34.6776,-0.7757,56.3882,-0.4512,-3.9137,-2.3945
1091761.0,-31.8908,-5.3917,69.6234,-0.6236,-5.3062,-2.6382
1091771.0,-27.8589,-8.102,71.261,-1.4128,-8.0727,-3.4327
1091781.0,-25.3211,-11.1091,71.9984,-2.5142,-10.8673,-4.6911
1091791.0,-23.1567,-7.2592,63.3506,-3.4763,-13.4465,-6.1688
1091801.0,-23.8175,1.2258,55.0666,-5.824,-15.5132,-7.4794
1091811.0,-24.871,10.4579,47.9319,-7.1117,-16.9893,-8.1472
1091821.0,-26.2596,19.9581,40.28,-7.7635,-17.4363,-7.9168
1091831.0,-25.9148,27.9834,34.1892,-6.0916,-17.4363,-6.6589
1091841.0,-23.2716,31.1055,24.4304,-3.5497,-16.4806,-4.6922
1091851.0,-18.7801,25.0625,20.0251,-0.8232,-14.6315,-2.7947
1091861.0,-14.3652,17.0084,16.3668,0.4523,-13.1645,-1.6575
1091871.0,-11.6837,7.853,20.7529,0.5619,-12.0923,-1.2212
1091881.0,-10.3334,3.2561,26.0106,0.2485,-12.2929,-1.4122
1091891.0,-10.0652,4.2042,30.9427,-0.2501,-13.1666,-1.6793
1091901.0,-11.6071,9.2991,28.4814,-1.1855,-14.7225,-1.6389
1091911.0,-8.5138,11.3581,22.1607,-3.3598,-16.0192,-1.433
1091921.0,-4.9416,10.2185,21.634,-3.2911,-15.4563,-0.862
1091931.0,-5.2768,8.1211,24.5166,-0.8695,-14.3027,0.1862
1091941.0,-3.5338,4.7884,23.3483,1.5218,-14.3537,1.2542
1091951.0,0.8619,1.3982,18.263,2.2567,-14.6863,1.9773
1091961.0,2.8635,-0.7278,11.3102,1.7852,-15.3062,2.3785
1091971.0,7.7093,-4.3766,0.0,-0.4943,-15.9841,2.3461
1091981.0,12.5169,-9.1363,-8.9256,-2.7707,-15.4972,1.8528
1091991.0,14.6717,-9.8641,-18.6939,-4.3862,-14.5671,1.242
1092001.0,20.1975,-10.7069,-23.7409,-4.4857,-12.3892,0.7806
1092011.0,21.2988,-7.3646,-26.5086,-2.0838,-9.0257,0.7599
1092021.0,25.8957,-4.9129,-25.4168,0.5342,-6.4279,1.0158
1092031.0,33.9402,-1.3408,-22.8598,4.1122,-2.9633,1.8996
1092041.0,36.6792,-1.9154,-17.0659,5.866,-1.5362,2.5674
1092051.0,40.0119,-4.5586,-12.8712,4.3559,-2.3727,2.5786
1092061.0,38.1827,-6.6272,-11.8082,1.5016,-6.1369,2.163
1092071.0,33.1453,-7.4029,-32.609,0.0628,-8.8868,1.9044
1092081.0,36.7845,-12.1242,-59.1847,-0.9908,-9.0864,1.1393
1092091.0,38.8531,-5.0949,-78.4532,-1.3521,-7.0739,0.2485
1092101.0,36.4398,10.8409,-78.4532,-2.9538,-4.1856,-0.2038
1092111.0,29.6689,29.0177,-78.4532,-5.5473,0.1415,-0.0575
1092121.0,12.8904,48.1713,-78.4532,-5.6792,8.6298,1.4591
1092131.0,-12.1242,58.6675,-78.4532,-2.56,17.4357,4.0121
1092141.0,-47.5105,59.5007,-78.4532,1.259,17.4357,6.8765
1092151.0,-78.4532,42.9711,-78.4532,4.9476,17.4357,9.3152
1092161.0,-78.4532,22.2086,-78.4532,7.2208,17.4357,10.6369
1092171.0,-78.4532,-6.4739,-78.4532,13.2826,17.4357,11.2536
1092181.0,-78.4532,-40.2417,-33.9498,17.4357,17.4357,8.7783
1092191.0,-78.4532,-52.4426,58.3228,17.4357,17.4357,3.877
1092201.0,-78.4532,-23.3961,78.4508,17.4357,17.4357,-0.7987
1092211.0,-78.4532,-1.6472,78.4508,8.0525,17.4357,-3.6253
1092221.0,-78.4532,7.0102,78.4508,0.6933,17.4357,-4.6203
1092231.0,-78.4532,9.2416,78.4508,-1.0084,13.9142,-3.7796
1092241.0,-78.4532,8.916,78.4508,-0.1197,-5.9394,-2.0305
1092251.0,-78.4532,5.5641,78.4508,-0.3852,-17.4363,-1.2004
1092261.0,-78.4532,7.9296,78.4508,-4.8076,-17.4363,-1.5139
1092271.0,-78.4532,8.8107,78.4508,-7.5459,-17.4363,-1.5926
1092281.0,-78.4532,12.153,57.2597,-7.1697,-17.4363,-0.6987
1092291.0,-71.7111,2.0111,41.4388,-5.2754,-11.3287,0.6742
1092311.0,-49.7707,-39.0351,63.59,-0.5944,-0.3097,0.6588
1092321.0,-42.5593,-53.9366,78.4508,2.013,0.7928,-1.0882
1092331.0,-40.6631,-53.6014,78.4508,2.5568,-1.9752,-3.4986
1092341.0,-39.1979,-42.3391,78.4508,0.8471,-8.3978,-6.023
1092351.0,-39.4948,-26.0393,78.4508,-2.1151,-14.9172,-8.1206
1092361.0,-41.1228,-8.9352,78.4508,-4.4751,-17.4363,-9.3051
1092371.0,-40.8355,6.5218,71.2419,-6.0874,-17.4363,-9.5945
1092381.0,-42.205,16.271,49.129,-5.8511,-17.4363,-8.9831
1092391.0,-38.0103,20.5231,25.5988,-4.1845,-17.4363,-7.8668
1092401.0,-31.6609,23.7505,9.3757,-2.3498,-17.4363,-6.6386
1092411.0,-26.9779,24.9763,6.1962,-0.0005,-15.2727,-5.1865
1092421.0,-24.1814,25.6658,10.7356,1.6288,-12.478,-3.7998
1092431.0,-22.381,24.2676,19.5271,2.1247,-11.5554,-2.5376
1092441.0,-20.0059,21.9213,26.1064,1.6974,-11.9747,-1.608
1092451.0,-18.0714,20.5806,30.6458,0.3693,-13.0937,-0.8796
1092461.0,-17.1329,16.0603,31.2204,-2.0758,-15.2509,-0.4603
1092471.0,-14.0492,8.6479,27.9451,-4.2957,-17.2734,-0.4417
1092481.0,-11.9902,3.4093,26.6139,-4.1856,-17.3985,-0.4842
1092491.0,-11.3389,3.122,26.0202,-1.6517,-17.0941,-0.1165
1092501.0,-10.2089,5.1236,22.1224,0.3964,-17.1718,0.5853
1092511.0,-7.6614,7.9871,14.1833,1.4692,-17.4363,1.3659
1092521.0,-3.6583,11.971,1.1109,0.2379,-17.4363,2.1279
1092531.0,-1.0151,12.967,-6.3782,-1.8794,-17.4363,2.908
1092541.0,3.8403,11.224,-16.8456,-4.2558,-17.4363,3.6599
1092551.0,9.1746,3.3615,-28.6059,-6.8201,-17.0484,4.0558
1092561.0,18.397,-8.8011,-35.913,-8.2137,-14.8475,3.8663
1092571.0,24.9763,-20.7721,-29.3242,-4.5384,-11.7608,3.3156
1092581.0,30.4351,-20.9924,-33.6433,0.8636,-8.3435,2.7484
1092591.0,33.7678,-17.8512,-37.972,3.8307,-5.5063,2.1306
1092601.0,40.2417,-9.9503,-39.9927,3.8025,-3.1038,1.4128
1092611.0,40.9408,0.1341,-35.6353,0.9078,-2.594,0.9136
1092621.0,42.3199,9.4906,-28.1079,-2.1673,-3.0698,1.0036
1092631.0,38.9776,14.3652,-31.4311,-4.5017,-4.3362,1.7416
1092641.0,38.3743,4.7405,-32.293,-4.3255,-4.5581,2.5765
1092651.0,36.5451,-2.3655,-40.213,-0.9397,-3.3539,3.1027
1092661.0,31.0193,-8.1307,-45.26,4.2228,-1.6586,3.4401
1092671.0,37.407,-6.9528,-66.2045,7.597,-0.3666,3.24
1092681.0,36.593,-2.4612,-78.4532,5.4228,-0.3906,2.0742
1092691.0,33.4231,12.7276,-78.4532,0.0623,1.1712,0.5688
1092701.0,17.6884,41.0749,-78.4532,-6.4455,5.2019,0.3746
1092711.0,-8.8873,68.0528,-78.4532,-9.4721,12.9628,2.6813
1092721.0,-46.5624,78.4508,-78.4532,-4.3846,17.4357,7.0223
1092731.0,-78.4532,77.2082,-78.4532,5.4664,17.4357,11.7916
1092741.0,-78.4532,52.1744,-78.4532,12.13,17.4357,14.6746
1092751.0,-78.4532,13.2064,-78.4532,17.4357,17.4357,14.8108
1092761.0,-78.4532,-27.9164,-78.4532,17.4357,17.4357,11.7235
1092771.0,-78.4532,-47.5393,-2.6145,17.4357,17.4357,5.0913
1092781.0,-78.4532,-11.655,78.4508,17.4357,17.4357,-0.8125
1092791.0,-78.4532,54.7698,78.4508,7.4767,17.4357,-1.7938
1092801.0,-78.4532,44.015,78.4508,0.7253,17.4357,1.334
1092811.0,-78.4532,26.2788,78.4508,1.8991,17.4357,5.683
1092821.0,-78.4532,9.7205,78.4508,8.0668,2.9005,9.6749
1092831.0,-78.4532,-14.4227,78.4508,9.6291,-11.5096,10.3847
1092841.0,-78.4532,-41.2377,78.4508,6.1007,-17.4363,8.0487
1092851.0,-78.4532,-55.2773,78.4508,7.2011,-17.4363,4.7273
1092861.0,-78.4532,-31.9195,78.4508,0.0197,-17.4363,0.5444
1092871.0,-71.6249,-17.9374,54.2239,-8.2994,-17.4363,-2.2455
1092881.0,-53.8217,-9.1075,29.056,-10.7088,-17.4363,-3.0761
1092891.0,-47.9415,-11.0421,35.6257,-9.9239,-14.0882,-2.5094
1092901.0,-42.3486,-22.1224,42.3103,-3.2879,-10.9152,-1.4042
1092911.0,-29.6977,-30.0712,37.3017,1.5405,-7.7609,-1.0892
1092921.0,-20.1783,-41.3335,36.5738,5.2424,-5.2615,-2.0199
1092931.0,-13.1873,-40.2513,31.728,3.5944,-4.1819,-4.4745
1092941.0,-15.4474,-36.095,42.952,0.9376,-4.9103,-7.2841
1092951.0,-18.3779,-22.0267,45.3845,-1.5889,-6.4332,-9.7345
1092961.0,-24.2102,-3.1316,47.1562,-2.9841,-8.1599,-11.1345
1092971.0,-27.3705,19.5941,41.209,-4.2106,-9.0491,-11.2909
1092981.0,-30.1478,34.2084,40.7972,-4.1648,-9.5296,-10.092
1092991.0,-27.3514,40.8451,36.1333,-2.8782,-9.081,-8.0493
1093001.0,-23.7409,35.7789,37.407,-1.2292,-8.2259,-6.0294
1093011.0,-20.1304,28.3952,39.1691,0.9748,-8.1073,-4.3878
1093021.0,-15.9837,21.0019,40.711,2.3195,-8.4797,-3.3262
1093031.0,-14.3365,18.6077,37.7135,2.5632,-9.694,-2.8085
1093041.0,-13.0245,20.1209,29.3242,0.0708,-11.6772,-2.5674
1093051.0,-9.6247,17.7458,21.567,-3.4124,-13.5199,-2.5674
1093061.0,-5.3534,15.5815,15.8496,-4.1643,-13.2783,-2.3972
1093071.0,0.3735,16.9701,10.228,-3.2799,-11.5021,-1.8411
1093081.0,4.1946,15.6102,8.2935,-2.5717,-10.1069,-1.0472
1093091.0,6.3111,12.7755,6.4931,-2.8425,-10.3038,-0.4166
1093101.0,7.0677,8.102,1.8771,-2.8707,-10.4693,0.1708
1093111.0,10.6398,3.5338,-7.2975,-1.607,-8.7149,0.6375
1093121.0,10.7835,1.4844,-12.4882,0.364,-5.1471,1.0094
1093131.0,9.8067,3.3232,-12.2392,1.2244,-1.8709,1.3393
1093141.0,8.3606,1.9824,-3.1508,1.2308,0.796,1.7113
1093151.0,6.5888,-0.2777,8.8585,1.4426,2.5366,1.9507
1093161.0,5.8323,-3.3519,23.7122,2.1513,3.9025,2.1072
1093171.0,4.6448,-5.1523,35.348,2.4142,3.9515,2.0428
1093181.0,3.7637,-6.6846,42.5019,0.9567,2.2977,1.6772
1093191.0,3.1891,-7.5465,45.4994,-0.5571,0.0463,1.3329
1093201.0,3.1795,-7.4029,41.276,-1.8012,-1.4335,1.0387
1093211.0,2.49,-7.8626,38.4126,-1.6102,-1.5245,1.0009
1093221.0,2.0782,-6.9528,32.8676,-0.4725,-0.4874,1.2052
1093231.0,0.7949,-8.7053,31.4023,0.1538,0.7269,1.3212
1093241.0,1.2929,-11.2623,33.0879,0.8971,1.897,1.2861
1093251.0,0.9481,-13.714,36.162,0.8748,2.8622,0.9573
1093261.0,0.0575,-13.7906,43.7756,0.7982,3.3209,0.5295
1093271.0,-1.2354,-10.6686,49.8473,0.257,2.8734,0.2607
1093281.0,-2.4421,-9.7109,55.5742,-0.7476,1.3202,0.1666
1093291.0,-2.308,-11.1666,56.915,-1.1387,-0.5491,0.1197
1093301.0,-1.4653,-12.3349,52.9597,-0.9759,-1.9438,0.008
1093311.0,-1.0726,-13.0149,47.4052,-0.174,-2.4365,-0.1086
1093321.0,-0.2586,-12.4498,39.0351,0.7189,-2.1912,-0.248
1093331.0,0.1245,-10.7452,32.8963,1.077,-1.2845,-0.4704
1093341.0,-1.063,-8.1786,30.6554,0.8562,-0.3118,-0.6455
1093351.0,-1.7717,-6.0334,31.795,0.7625,0.5811,-0.7199
1093361.0,-2.1165,-4.2329,34.5244,0.7551,1.4622,-0.6513
1093371.0,-2.9497,-3.802,38.7478,0.7583,1.8017,-0.5933
1093381.0,-3.735,-3.3806,42.1667,0.8519,1.7187,-0.5417
1093391.0,-3.6966,-2.6911,44.4651,0.9551,1.5671,-0.5459
1093401.0,-4.1563,-2.739,46.0261,0.8849,1.1728,-0.621
1093411.0,-4.5394,-0.9002,47.2711,0.7811,0.5864,-0.6673
1093421.0,-5.2672,1.2737,46.9934,0.6854,0.0511,-0.5848
1093431.0,-5.2194,3.6392,44.1012,-0.009,-0.4709,-0.4071
1093441.0,-4.7118,3.9169,42.6455,-0.6162,-0.754,-0.1474
1093451.0,-3.3519,3.9456,41.0653,-1.003,-0.6417,0.149
1093461.0,-2.6049,1.7334,40.7397,-1.1664,-0.397,0.481
1093471.0,-1.8387,-0.814,41.3431,-1.0397,-0.158,0.7215
1093481.0,-1.312,-4.9033,44.0054,-0.4512,0.1101,0.8349
1093491.0,-0.565,-8.6574,44.3023,0.2826,0.1091,0.738
1093501.0,0.0575,-9.5193,43.948,0.3991,-0.0048,0.4321
1093511.0,-0.2298,-8.8777,43.3829,0.1932,-0.2437,0.0841
1093521.0,-0.1245,-6.1579,41.8411,-0.3352,-0.5577,-0.1809
1093531.0,-0.4022,-4.0989,41.458,-0.8466,-0.6848,-0.2543
1093541.0,-0.6895,-3.122,40.5003,-0.8477,-0.6364,-0.1921
1093551.0,-0.1532,-1.2546,38.4796,-1.011,-0.5034,-0.0415
1093561.0,-0.8332,-2.0494,39.217,-1.035,-0.1474,0.1463
1093571.0,-0.6225,-3.6105,40.9504,-0.3868,0.1745,0.373
1093581.0,-0.6321,-4.6926,40.7493,-0.0106,0.3331,0.4949
1093591.0,-0.6512,-6.5027,42.0422,0.2442,0.3789,0.4768
1093601.0,-0.4405,-7.3646,42.6072,0.4635,0.2059,0.3342
1093611.0,-0.3448,-6.5218,42.1092,0.2395,0.0181,0.1091
1093621.0,-0.3735,-4.9608,41.3143,-0.1064,-0.1889,-0.0697
1093631.0,-0.7087,-3.7062,40.5769,-0.4656,-0.3932,-0.1149
1093641.0,-0.7661,-2.8443,40.4141,-0.6071,-0.3959,-0.0862
1093651.0,-0.5746,-2.873,39.3703,-0.5587,-0.2522,0.0234
1093661.0,-1.0247,-3.055,40.0598,-0.4422,-0.0383,0.1644
1093671.0,-0.9194,-4.1084,40.6919,-0.0835,0.0756,0.3054
1093681.0,-0.6225,-5.0853,40.7206,0.3171,0.0952,0.4065
1093691.0,-0.1149,-5.794,39.7916,0.3927,-0.0442,0.3267
1093701.0,-0.0192,-5.2289,38.1348,0.1219,-0.1399,0.1724
1093711.0,-0.2777,-4.2808,37.0814,-0.0974,0.0005,0.1022
1093721.0,-0.3352,-3.2657,36.0279,-0.1389,0.3491,0.1346
1093731.0,0.0383,-3.7254,36.2769,-0.1868,0.854,0.183
1093741.0,-0.7374,-4.0893,37.1772,-0.108,1.2435,0.1751
1093751.0,-1.2258,-4.5969,39.5522,-0.1288,1.4112,0.1442
1093761.0,-1.6281,-5.0661,41.8411,-0.0665,1.4628,0.0867
1093771.0,-2.4995,-5.0661,44.4268,0.1767,1.3697,0.042
1093781.0,-2.5474,-3.5434,44.331,0.2549,1.1105,0.0021
1093791.0,-3.1987,-3.2274,45.5377,0.2208,0.853,0.0585
1093801.0,-2.8635,-2.5187,44.513,0.0559,0.473,0.125
1093811.0,-3.055,-2.9688,43.9575,-0.3203,0.3911,0.1729
1093821.0,-2.8826,-4.0606,43.948,-0.3294,0.3895,0.2075
1093831.0,-2.6815,-4.3574,44.2927,-0.3991,0.4555,0.1985
1093841.0,-2.6719,-4.051,45.1163,-0.3704,0.3597,0.182
1093851.0,-2.7581,-4.5298,45.7293,-0.3581,0.2379,0.2038
1093861.0,-2.6624,-4.9321,47.0413,-0.099,-0.033,0.2086
1093871.0,-2.2027,-5.4205,45.5952,0.0984,-0.3719,0.1772
1093881.0,-1.5419,-5.8131,43.5553,0.0596,-0.6034,0.1133
1093891.0,-1.4174,-5.4492,42.4061,0.0271,-0.5098,0.0362
1093901.0,-1.0822,-5.1523,41.6687,0.1389,-0.3459,0.0037
1093911.0,-1.063,-4.2234,40.7876,-0.0106,-0.3177,-0.0154
1093921.0,-1.1971,-4.1851,40.8547,-0.0431,-0.2698,0.0011
1093931.0,-1.0822,-4.4915,40.1651,-0.2442,-0.2687,-0.0341
1093941.0,-0.929,-4.8554,41.1611,-0.2155,-0.34,-0.0979
1093951.0,-0.7566,-3.984,40.2992,-0.0995,-0.4438,-0.0862
1093961.0,-0.6704,-4.2521,39.9066,0.0011,-0.3661,-0.0436
1093971.0,0.2682,-4.8746,38.9201,0.3267,-0.1415,-0.0351
1093981.0,0.3065,-5.679,38.7286,0.3145,0.0372,-0.0915
1093991.0,0.2682,-5.6216,39.3224,0.3549,0.1288,-0.2166
1094001.0,0.1149,-4.7884,38.6903,0.1772,0.3001,-0.3294
1094011.0,-0.7278,-3.5817,40.0694,0.1415,0.257,-0.3964
1094021.0,-0.996,-1.6664,39.4948,-0.0569,0.2767,-0.3922
1094031.0,-1.3599,-1.4748,40.3375,-0.0101,0.3618,-0.299
1094041.0,-1.7334,-0.4501,39.6192,0.0596,0.4816,-0.1383
1094051.0,-1.7717,-0.9002,40.5578,0.0447,0.6077,0.0271
1094061.0,-1.5993,-1.8196,41.5155,0.2304,0.7109,0.1245
1094071.0,-1.3695,-2.5379,42.3391,0.3155,0.8019,0.2086
1094081.0,-1.6568,-3.6296,43.7564,0.4156,0.7428,0.1937
1094091.0,-1.7526,-4.1755,44.5992,0.6268,0.6055,0.1144
1094101.0,-1.8483,-3.4189,43.5553,0.4023,0.3725,0.0
1094111.0,-1.9345,-2.308,43.2393,0.0426,0.1932,-0.0692
1094121.0,-2.0111,-1.6951,42.5785,-0.4624,0.0213,-0.1405
1094131.0,-2.2505,-1.5131,43.3734,-0.6673,-0.0857,-0.0931
1094141.0,-2.1452,-1.5897,43.7277,-0.4858,-0.0261,0.0367
1094151.0,-2.241,-2.4804,43.3446,-0.1463,-0.0176,0.1995
1094161.0,-1.8579,-3.4285,42.952,0.075,0.0149,0.2485
1094171.0,-2.0207,-4.4436,42.3774,0.2921,0.0777,0.1932
1094181.0,-1.6281,-4.0127,41.8985,0.29,0.1304,0.1
1094191.0,-1.8483,-2.7102,41.6974,0.2033,0.1618,0.0479
1094201.0,-2.1261,-1.6185,41.4963,-0.058,0.1128,0.0511
1094211.0,-1.8962,-1.4748,41.5921,-0.2554,0.1,0.1091
1094221.0,-2.0877,-1.3599,41.3622,-0.3555,0.0463,0.2139
1094231.0,-2.1835,-1.9632,41.2952,-0.3954,0.1745,0.2634
1094241.0,-1.5227,-3.0071,42.1475,-0.1618,0.1884,0.3257
1094251.0,-1.1588,-3.5817,42.703,0.1554,0.3315,0.3198
1094261.0,-1.1588,-4.0223,42.5976,0.3246,0.3884,0.3214
1094271.0,-0.9002,-4.6256,42.6838,0.3719,0.2522,0.2267
1094281.0,-0.5459,-4.4341,42.3103,0.0165,0.124,0.0639
1094291.0,-0.929,-4.6831,41.956,-0.2895,-0.0921,-0.0894
1094301.0,-0.9194,-3.6105,41.2186,-0.6034,-0.1437,-0.2277
1094311.0,-1.3408,-2.9018,42.0326,-0.5662,-0.0325,-0.2405
1094321.0,-1.7526,-2.1452,42.2146,-0.1288,0.0021,-0.199
1094331.0,-1.5323,-1.3695,41.4101,0.0069,0.133,-0.0952
1094341.0,-1.5227,-1.561,40.5674,-0.0559,0.2538,-0.0543
1094351.0,-1.1875,-1.9537,41.4101,-0.348,0.2666,-0.0436
1094361.0,-1.0151,-3.0454,43.2393,-0.2719,0.2006,-0.0617
1094371.0,-1.4174,-2.8635,43.7947,-0.1937,0.0112,-0.0686
1094381.0,-1.494,-2.2122,43.2201,-0.0596,-0.2432,-0.0564
1094391.0,-1.4748,-1.1396,41.8506,-0.232,-0.4023,-0.0447
1094401.0,-1.2641,-0.929,40.6344,-0.4225,-0.4305,0.0341
1094411.0,-1.3886,-0.565,40.0789,-0.3741,-0.365,0.1336
1094421.0,-1.0151,-1.3503,39.7629,-0.3267,-0.1256,0.2559
1094431.0,-0.6704,-3.1316,40.5099,-0.0974,0.0117,0.3022
1094441.0,-0.0575,-3.984,39.9544,-0.0713,0.1282,0.2512
1094451.0,0.0479,-4.8842,40.9887,-0.0351,0.248,0.1421
1094461.0,-0.0575,-4.7501,41.5059,-0.0192,0.2969,0.0303
1094471.0,-0.3639,-4.2617,42.0709,-0.0346,0.1618,-0.0601
1094481.0,-0.1437,-3.0167,41.0845,-0.1942,-0.0495,-0.099
1094491.0,-0.3256,-2.3463,40.6631,-0.4198,-0.1272,-0.0777
1094501.0,-0.2107,-2.624,40.5003,-0.4762,-0.1894,-0.0064
1094511.0,0.3543,-4.0797,39.9544,-0.4762,-0.125,-0.0106
1094521.0,0.0383,-5.2289,40.6535,-0.1027,0.0851,-0.0921
1094531.0,0.3735,-4.4053,39.7246,0.2224,0.2634,-0.2038
1094541.0,0.2203,-3.2561,39.0734,0.183,0.3352,-0.2826
1094551.0,0.0766,-2.4229,38.7861,-0.1149,0.4432,-0.3507
1094561.0,-0.498,-1.4557,39.217,-0.3421,0.5976,-0.3278
1094571.0,-1.1492,-1.0822,40.3662,-0.4603,0.6891,-0.2602
1094581.0,-1.0247,-0.8906,41.7166,-0.3751,0.6337,-0.149
1094591.0,-1.2067,-1.1684,41.9751,-0.2645,0.6098,-0.0074
1094601.0,-1.3695,-1.6472,42.1954,-0.0756,0.5757,0.0681
1094611.0,-1.0822,-2.4421,42.2912,0.0984,0.4901,0.0883
1094621.0,-0.9768,-3.122,41.7932,0.2097,0.5124,0.0181
1094631.0,-1.0343,-3.2178,41.0079,0.1479,0.4683,-0.1155
1094641.0,-0.6416,-2.6911,39.9449,-0.2219,0.5241,-0.2363
1094651.0,-1.1013,-1.6568,40.9504,-0.4156,0.6588,-0.2783
1094661.0,-1.312,-0.5555,41.7166,-0.6055,0.696,-0.2027
1094671.0,-1.5802,-0.5938,42.8466,-0.5944,0.5864,-0.0559
1094681.0,-1.4269,-0.9577,43.2584,-0.5295,0.5199,0.0447
1094691.0,-1.6855,-2.3367,43.7373,-0.216,0.4624,0.1495
1094701.0,-1.1301,-3.5434,43.4212,0.0357,0.3938,0.1181
1094711.0,-1.0439,-3.6775,41.9273,-0.0165,0.2607,-0.0016
1094721.0,-0.8428,-3.2274,41.956,-0.133,0.2618,-0.099
1094731.0,-1.1013,-2.4804,41.5921,-0.1219,0.2437,-0.1213
1094741.0,-1.3216,-1.5706,41.1515,-0.3166,0.2607,-0.124
1094751.0,-1.2258,-1.2163,41.1228,-0.3288,0.3555,-0.0341
1094761.0,-1.3791,-1.0726,41.2665,-0.3017,0.5124,0.0766
1094771.0,-1.4269,-1.9249,41.9368,-0.1697,0.5529,0.1676
1094781.0,-1.5323,-2.7964,42.4636,-0.0479,0.5465,0.2102
1094791.0,-1.4844,-3.553,42.454,0.0527,0.4475,0.1692
1094801.0,-0.9481,-4.0318,41.3239,-0.0952,0.3693,0.0303
1094811.0,-1.063,-4.0223,42.0039,-0.2203,0.4443,-0.0862
1094821.0,-1.1109,-3.9169,42.4348,-0.2448,0.39,-0.1836
1094831.0,-1.3024,-3.3998,42.8179,-0.306,0.2538,-0.2458
1094841.0,-1.5227,-2.5379,43.0477,-0.2645,0.0639,-0.282
1094851.0,-1.7909,-1.4269,42.2624,-0.2671,-0.0793,-0.2123
1094861.0,-1.8675,-0.5555,41.6208,-0.2379,-0.1681,-0.091
1094871.0,-1.7047,-0.4501,40.5865,-0.2687,-0.107,0.041
1094881.0,-1.5131,-1.5131,40.5674,-0.0383,0.0889,0.1548
1094891.0,-1.2737,-2.3272,39.7054,0.1368,0.1868,0.2027
1094901.0,-0.3735,-3.5147,40.0406,0.0974,0.3959,0.1352
1094911.0,-0.9194,-3.62,40.2992,0.0926,0.3544,0.0415
1094921.0,-0.7087,-3.6009,40.2226,-0.1383,0.3171,-0.099
1094931.0,-0.9864,-2.4421,40.1364,-0.2623,0.4411,-0.1809
1094941.0,-1.5036,-1.7621,41.0366,-0.3613,0.4347,-0.1692
1094951.0,-1.8387,-0.5746,41.1611,-0.3331,0.3682,-0.0702
1094961.0,-1.5131,-0.814,41.1037,-0.3874,0.3778,0.1022
1094971.0,-1.2354,-2.3559,41.4963,-0.3453,0.3246,0.1921
1094981.0,-1.0822,-3.4668,40.7876,-0.4198,0.274,0.1942
1094991.0,-0.6608,-4.2234,40.3375,-0.505,0.2506,0.0867
1095001.0,-0.747,-4.3574,40.4524,-0.4268,0.3565,0.0176
1095011.0,-0.9673,-4.1946,39.8299,-0.2235,0.4225,-0.0117
1095021.0,-0.6991,-4.4341,39.2745,-0.1676,0.6183,-0.0782
1095031.0,-1.0726,-4.6543,39.4086,-0.0607,0.8312,-0.1437
1095041.0,-1.1971,-4.9129,40.2992,-0.0963,1.0871,-0.281
1095051.0,-1.5993,-4.3,41.4676,0.1713,1.168,-0.3874
1095061.0,-1.8675,-2.6528,42.0039,0.0734,1.1951,-0.4166
1095071.0,-2.4229,-2.0782,43.8809,0.0601,0.9913,-0.3884
1095081.0,-2.8539,-1.3024,43.1244,-0.1011,0.6359,-0.3251
1095091.0,-2.4708,-1.2737,43.9192,-0.1905,0.4369,-0.2602
1095101.0,-2.6145,-1.6568,42.5976,0.0255,0.3645,-0.1596
1095111.0,-2.3942,-1.5993,41.6687,0.0005,0.3916,-0.1261
1095121.0,-2.1452,-2.5474,41.5346,0.24,0.4693,-0.1314
1095131.0,-1.7334,-1.9345,40.2034,0.1224,0.6481,-0.1942
1095141.0,-1.9154,-1.9537,40.7302,-0.0761,0.829,-0.2224
1095151.0,-2.375,-1.9537,41.5921,-0.1628,0.8455,-0.2453
1095161.0,-2.5283,-1.8004,42.3391,-0.3592,0.7396,-0.2634
1095171.0,-2.4708,-1.8292,42.7604,-0.5513,0.5279,-0.2565
1095181.0,-2.5091,-2.0686,42.0709,-0.696,0.4459,-0.2629
1095191.0,-2.6336,-2.2984,41.9273,-0.6763,0.4049,-0.2384
1095201.0,-2.1069,-2.3655,40.9217,-0.828,0.4651,-0.2645
1095211.0,-2.624,-2.3367,40.9217,-0.9232,0.6566,-0.2964
1095221.0,-3.0837,-1.3312,40.778,-1.1701,0.8423,-0.2426
1095231.0,-3.1412,-1.9824,42.521,-1.2925,0.911,-0.1383
1095241.0,-3.1412,-3.055,43.4212,-1.2063,0.9355,-0.0527
1095251.0,-2.9305,-5.4684,44.5705,-0.9514,0.977,-0.0548
1095261.0,-2.3272,-7.1539,45.0301,-0.4135,1.1068,-0.1868
1095271.0,-2.4517,-7.5082,44.2832,-0.2597,1.1925,-0.4353
1095281.0,-2.4517,-7.2784,44.9248,-0.3634,1.2164,-0.7178
1095291.0,-2.7581,-6.541,45.8059,-0.5635,1.276,-1.0036
1095301.0,-3.802,-5.1427,47.3765,-0.7652,0.9386,-1.2106
1095311.0,-4.0701,-3.3327,47.9415,-1.1084,0.547,-1.342
1095321.0,-4.6831,-2.6049,49.4163,-0.9333,0.2751,-1.3202
1095331.0,-5.0757,-1.2641,48.5831,-0.6173,0.008,-1.2191
1095341.0,-4.8554,-0.4022,47.9798,-0.5662,-0.3182,-1.1212
1095351.0,-4.5011,-0.0766,46.1602,-0.5459,-0.5816,-0.9684
1095361.0,-4.3958,-0.0575,45.0301,-0.5523,-0.7285,-0.8514
1095371.0,-4.2234,0.1245,43.766,-0.6199,-0.8322,-0.7434
1095381.0,-4.0893,0.1532,42.3774,-0.7551,-1.0312,-0.6002
1095391.0,-3.3806,-0.6129,41.1037,-0.8439,-1.0392,-0.4997
1095401.0,-3.2944,-1.6376,39.399,-0.9062,-0.9355,-0.4709
1095411.0,-2.7677,-3.0071,38.834,-0.7779,-0.5875,-0.4544
1095421.0,-2.6719,-4.0701,39.5139,-0.299,-0.2097,-0.497
1095431.0,-2.6145,-3.7254,39.0925,-0.1304,0.0686,-0.5997
1095441.0,-2.4421,-2.8635,39.0255,-0.2038,0.2767,-0.6832
1095451.0,-3.7445,-1.1779,39.8108,-0.5912,0.4177,-0.7253
1095461.0,-4.0989,-0.4693,41.4484,-1.21,0.1713,-0.6886
1095471.0,-3.8307,0.0766,42.205,-1.7187,-0.091,-0.5981
1095481.0,-4.1946,-0.2011,43.1148,-1.8555,-0.1958,-0.389
1095491.0,-3.5913,-2.0686,44.6662,-1.3654,-0.3006,-0.1091
1095501.0,-2.4421,-4.1659,43.2297,-0.8578,-0.4044,0.0293
1095511.0,-1.5993,-5.8131,41.7549,-0.6348,-0.3533,-0.0048
1095521.0,-1.4269,-6.3782,40.6823,-0.5582,-0.2139,-0.1181
1095531.0,-0.9385,-6.6463,39.4181,-0.9184,-0.182,-0.3139
1095541.0,-1.0918,-6.924,38.834,-1.309,-0.1873,-0.4906
1095551.0,-1.1205,-6.6463,39.2458,-1.607,0.0192,-0.629
1095561.0,-1.3312,-7.2305,40.8547,-1.292,0.2863,-0.7056
1095571.0,-1.3408,-7.1443,40.9121,-0.8083,0.6508,-0.7609
1095581.0,-1.4653,-6.5027,41.9847,-0.3496,0.8977,-0.8163
1095591.0,-1.6759,-4.7022,41.8123,-0.3491,0.9482,-0.845
1095601.0,-2.5474,-4.6448,43.7085,-0.572,0.8493,-0.8413
1095611.0,-2.8826,-4.5203,43.766,-0.8689,0.6114,-0.8844
1095621.0,-2.9975,-4.549,44.7333,-1.2813,0.2724,-0.9312
1095631.0,-2.7869,-4.9895,44.695,-1.45,-0.1261,-0.9541
1095641.0,-2.7007,-5.6982,43.5649,-1.549,-0.3006,-0.9919
1095651.0,-2.0016,-6.4165,42.6743,-1.4612,-0.165,-1.0594
1095661.0,-1.7813,-5.8993,42.2146,-1.2191,0.1266,-1.1238
1095671.0,-2.3846,-4.8171,42.9137,-1.0648,0.3517,-1.1579
1095681.0,-3.1316,-3.5434,43.0573,-1.2888,0.2932,-1.1297
1095691.0,-3.2944,-4.118,44.5034,-1.7315,0.0649,-1.1126
1095701.0,-3.1795,-4.7118,44.2832,-2.303,-0.3767,-1.1909
1095711.0,-3.3615,-5.363,45.0301,-2.7712,-0.6747,-1.2159
1095721.0,-3.055,-5.8706,45.9208,-2.4429,-0.7827,-1.135
1095731.0,-2.9592,-6.6176,45.8154,-1.7432,-0.7492,-1.0057
1095741.0,-2.9688,-6.1866,45.4132,-0.7817,-0.6646,-0.8966
1095751.0,-2.5762,-5.2768,43.0286,-0.572,-0.5864,-0.8056
1095761.0,-2.3559,-5.6216,42.9807,-0.9248,-0.7434,-0.803
1095771.0,-2.1165,-5.4396,42.1188,-1.5628,-1.0115,-0.8487
1095781.0,-1.5802,-5.8419,41.707,-2.204,-1.2079,-0.8998
1095791.0,-1.1875,-6.4165,41.6974,-2.4073,-1.2223,-0.8817
1095801.0,-0.7183,-7.3071,41.8602,-2.2971,-1.0296,-0.8381
1095811.0,-0.4788,-8.1977,42.5881,-1.7091,-0.8306,-0.7854
1095821.0,-0.3543,-8.2456,42.1954,-1.1542,-0.5997,-0.7056
1095831.0,-0.2011,-8.5042,43.0669,-0.6002,-0.4353,-0.6614
1095841.0,-0.6129,-8.3127,42.9999,-0.3246,-0.4161,-0.688
1095851.0,-0.5938,-8.6766,42.2912,-0.6204,-0.613,-0.7641
1095861.0,-0.4022,-8.9543,42.454,-1.1286,-0.8865,-0.9621
1095871.0,-0.1341,-8.6862,41.5346,-1.6932,-1.0291,-1.1361
1095881.0,-0.1341,-7.6902,41.2282,-2.2705,-1.0967,-1.2845
1095891.0,-0.2298,-7.039,42.0326,-2.518,-1.0754,-1.2606
1095901.0,-0.3735,-6.8187,43.7181,-2.1551,-1.0371,-1.135
1095911.0,-0.6033,-7.4412,45.0589,-1.2015,-1.0105,-0.9131
1095921.0,-0.5555,-8.2265,44.3981,-0.2288,-1.1669,-0.7524
1095931.0,-0.747,-9.3278,41.6112,-0.0436,-1.3867,-0.803
1095941.0,0.3735,-11.0133,39.1596,-0.3033,-1.5671,-1.0669
1095951.0,0.6129,-10.8697,36.6026,-0.9849,-1.5208,-1.5027
1095961.0,-0.0575,-9.1842,36.8037,-1.5591,-1.1797,-1.9204
1095971.0,-1.1684,-5.0278,36.842,-2.2413,-1.0871,-2.1311
1095981.0,-1.3982,-1.5706,39.399,-2.2732,-0.87,-1.9422
1095991.0,-1.561,0.6704,40.2513,-1.8512,-0.5151,-1.4058
1096001.0,-1.743,0.5746,42.4061,-1.4282,-0.4055,-0.812
1096011.0,-1.4174,-0.8428,44.3885,-0.9168,-0.5316,-0.2027
1096021.0,-0.6895,-3.7158,45.4228,-0.4848,-0.6928,0.282
1096031.0,-0.067,-6.4452,45.8346,-0.0702,-0.9104,0.5843
1096041.0,0.5171,-9.1937,46.1889,-0.0005,-1.2159,0.6784
1096051.0,1.3312,-11.2049,45.0876,-0.1517,-1.6692,0.5417
1096061.0,1.8866,-12.0859,44.0629,-0.6242,-2.0391,0.2788
1096071.0,2.2505,-11.9231,43.201,-0.9158,-2.1955,0.0516
1096081.0,2.9592,-11.6741,42.5306,-1.0924,-2.1556,-0.125
1096091.0,2.624,-11.1474,43.5745,-1.0376,-1.9901,-0.2661
1096101.0,1.8196,-9.8545,45.2408,-0.7758,-1.8102,-0.2751
1096111.0,0.8332,-9.232,47.4531,-0.4113,-1.9231,-0.1751
1096121.0,0.5842,-8.6095,49.3206,0.0596,-2.1944,-0.0511
1096131.0,0.316,-8.734,50.0388,0.4017,-2.6467,0.0649
1096141.0,0.3735,-8.4755,49.1865,0.4566,-3.124,0.1304
1096151.0,0.4405,-8.2839,49.0428,0.299,-3.5072,0.1405
1096161.0,0.5938,-6.608,48.7076,-0.3097,-3.9541,0.125
1096171.0,-0.067,-6.0334,48.1043,-1.2696,-4.5538,0.1176
1096181.0,-0.4405,-6.2249,49.7707,-2.0476,-4.8603,0.1681
1096191.0,-1.8579,-6.6846,52.0404,-2.5153,-5.4973,0.307
1096201.0,-0.747,-8.2361,55.2582,-2.7015,-6.2236,0.3991
1096211.0,-1.7717,-9.2129,55.1241,-2.262,-7.1255,0.5789
1096221.0,-1.1971,-10.908,53.5152,-2.2221,-7.7561,0.6635
1096231.0,-0.7757,-14.2982,53.8983,-1.5282,-8.0881,0.6662
1096241.0,0.0862,-16.4338,53.7929,-0.713,-7.9684,0.5614
1096251.0,-1.9249,-18.3683,58.3132,1.0222,-8.3286,0.5007
1096261.0,-1.2354,-16.3859,55.8807,2.088,-9.2093,0.439
1096271.0,-2.7964,-14.5472,53.3237,1.9539,-10.3416,0.34
1096281.0,-2.6336,-11.9231,46.6007,0.687,-11.7709,0.1857
1096291.0,-0.4788,-11.0995,43.1722,-0.8604,-12.6244,0.0873
1096301.0,1.494,-11.2911,38.1923,-1.9108,-13.3816,0.0138
1096311.0,3.9073,-14.0683,36.8899,-3.4566,-14.367,-0.2144
1096321.0,3.553,-17.334,37.091,-2.4536,-15.5733,-0.3677
1096331.0,5.4205,-18.4449,28.0888,-1.4415,-16.7339,-0.5055
1096341.0,6.4739,-21.6053,22.2565,1.2563,-17.4363,-0.6556
1096351.0,9.0788,-18.1002,5.6216,4.8055,-17.4363,-0.6838
1096361.0,8.2744,-8.9543,-15.3708,4.9215,-17.4363,-0.9078
1096371.0,10.6015,10.0652,-45.1259,1.8411,-17.4363,-1.0637
1096381.0,21.3563,19.259,-78.4532,-1.5463,-17.4363,-0.7066
1096391.0,35.1373,23.6739,-78.4532,-6.6493,-17.4363,-1.3372
1096401.0,40.4812,36.5547,-78.4532,-9.3625,-17.0968,-2.1056
1096411.0,32.1493,57.6907,-78.4532,-4.8215,-5.8628,-1.7517
1096421.0,2.2122,78.4508,-78.4532,1.7145,6.8584,-0.1687
1096431.0,-24.4783,78.4508,-78.4532,6.0278,17.4357,2.8995
1096441.0,-78.4532,78.4508,-78.4532,8.0344,17.4357,7.3969
1096451.0,-78.4532,78.4508,-78.4532,7.7806,17.4357,12.9777
1096461.0,-78.4532,78.4508,-78.4532,6.2172,17.4357,17.4357
1096471.0,-78.4532,47.9032,-78.4532,7.2101,17.4357,17.4357
1096481.0,-78.4532,-10.9271,-37.8188,15.0231,17.4357,17.4357
1096491.0,-78.4532,-50.1633,45.3366,17.4357,17.4357,17.4357
1096501.0,-78.4532,-78.4532,78.4508,17.4357,17.4357,13.6269
1096511.0,-78.4532,-66.329,78.4508,17.4357,17.4357,3.5774
1096521.0,-78.4532,-31.0289,78.4508,13.3166,17.4357,-4.3623
1096531.0,-78.4532,-18.8855,78.4508,2.9335,17.4357,-9.32
1096541.0,-78.4532,27.4663,78.4508,-1.1994,17.4357,-9.436
1096551.0,-78.4532,54.99,78.4508,1.1281,3.9717,-4.7044
1096561.0,-78.4532,78.4508,-7.2496,-17.4363,-17.4363,3.7099
1096571.0,-78.4532,-78.4532,78.4508,-9.4636,-17.4363,-0.041
1096581.0,-78.4532,13.2351,26.7193,5.2456,-17.4363,3.1054
1096591.0,-78.4532,-78.4532,78.4508,-12.7228,-17.4363,-2.1769
1096601.0,-78.4532,-49.3206,48.4012,13.6726,-17.4363,-3.3667
1096611.0,-78.4532,-27.0641,15.1601,-17.4363,-17.4363,-8.1913
1096621.0,-78.4532,-40.146,68.139,0.215,-17.4363,-9.7004
1096631.0,-60.4296,20.6572,-11.3389,-16.1172,-17.4363,-11.2558
1096641.0,-64.8254,-8.734,78.4508,-5.6702,-17.4363,-10.3177
1096651.0,-47.8936,30.5213,-4.1851,-1.8544,-17.4363,-8.2978
1096661.0,-46.8114,2.5953,32.4271,-0.8248,-17.4363,-6.8983
1096671.0,-30.8086,9.3374,-11.1091,5.618,-17.4363,-6.0687
1096681.0,-27.0545,4.5011,-7.0485,0.5071,-17.4363,-6.2864
1096691.0,-20.0347,2.6432,-2.6624,4.0792,-17.4363,-6.4189
1096701.0,-13.8864,13.283,-9.7109,-1.1057,-17.4363,-6.8036
1096711.0,-14.7579,12.2775,10.5632,0.4113,-17.4363,-6.537
1096721.0,-14.1066,25.3594,-6.8474,-0.6274,-17.4363,-5.5728
1096731.0,-14.6429,20.6284,-13.3884,-2.2711,-17.4363,-4.5634
1096741.0,-3.055,16.1944,-36.0375,-2.71,-17.4363,-3.9084
1096751.0,1.6759,9.0788,-40.2705,-0.7082,-14.2925,-3.5284
1096761.0,5.5354,11.1474,-40.462,1.4654,-8.7777,-3.1182
1096771.0,8.916,9.7205,-20.9062,2.4051,-4.4352,-2.6446
1096781.0,13.2926,12.402,-0.6225,3.977,-2.4749,-2.1306
1096791.0,13.3884,17.1808,15.7634,3.5268,-2.6382,-1.4378
1096801.0,13.5895,19.077,25.7137,2.2625,-4.1739,-0.6002
1096811.0,12.1147,18.9908,30.8948,0.6316,-6.0746,0.2645
1096821.0,11.2719,17.1042,32.3121,-0.0617,-7.8918,1.1813
1096831.0,11.5688,13.8672,25.7616,-0.1979,-8.9129,2.071
1096841.0,11.3102,7.5944,22.0554,0.3102,-8.7894,2.7744
1096851.0,13.3022,2.7485,20.0826,2.3301,-7.4214,3.364
1096861.0,12.3732,-1.3312,21.7872,4.3298,-6.1379,3.8429
1096871.0,13.8481,-5.0278,26.8151,5.9522,-5.4978,4.1579
1096881.0,13.7331,-8.7532,30.3393,6.9489,-6.1688,4.1712
1096891.0,15.2942,-8.4276,29.7647,6.5987,-7.6481,3.8743
1096901.0,15.0069,-5.7844,23.8175,5.0519,-9.8042,3.5093
1096911.0,18.3396,-3.122,13.1968,2.8798,-11.7815,3.123
1096921.0,21.6915,1.9728,-3.5243,-0.2144,-12.8319,2.6973
1096931.0,19.575,4.4341,-17.7746,-3.7392,-13.9749,2.4222
1096941.0,20.5614,6.1579,-36.5738,-6.1448,-13.9866,2.3759
1096951.0,19.824,8.0828,-51.0444,-5.2557,-12.2168,2.8122
1096961.0,19.0483,15.0547,-78.4532,-5.4052,-11.7389,3.5295
1096971.0,24.0091,17.1138,-78.4532,-7.1947,-9.8856,4.2691
1096981.0,22.5534,18.0044,-78.4532,-7.2719,-3.9116,4.9465
1096991.0,17.516,22.0937,-78.4532,-5.8202,5.592,5.8011
1097001.0,-4.7501,23.9707,-78.4532,-2.9383,17.4357,6.579
1097011.0,-35.8556,21.9788,-78.4532,-0.7795,17.4357,7.3235
1097021.0,-78.4532,11.8369,-78.4532,2.3184,17.4357,7.9998
1097031.0,-78.4532,6.0238,-78.4532,6.4716,17.4357,8.3824
1097041.0,-78.4532,-6.0813,-78.4532,16.0629,17.4357,8.4505
1097051.0,-78.4532,-15.1984,-34.9841,17.4357,17.4357,6.1773
1097061.0,-78.4532,-18.7993,69.9011,17.4357,17.4357,2.6116
1097071.0,-78.4532,-0.182,78.4508,14.9806,17.4357,-1.135
1097081.0,-78.4532,-7.8243,78.4508,5.3307,17.4357,-3.2358
1097091.0,-78.4532,3.5626,78.4508,0.8381,17.4357,-4.5395
1097101.0,-78.4532,-13.5799,78.4508,-6.719,15.4621,-4.4463
1097111.0,-78.4532,-13.6757,78.4508,3.5056,-7.5001,-2.212
1097121.0,-78.4532,-5.6695,78.4508,-1.5272,-17.4363,-2.858
1097131.0,-78.4532,-15.4187,78.4508,-5.1418,-17.4363,-4.4724
1097141.0,-78.4532,-4.3958,78.4508,-6.7685,-17.4363,-5.3227
1097151.0,-78.4532,1.2354,78.4508,-7.9546,-17.4363,-5.3642
1097161.0,-78.4532,4.9799,66.0225,-5.8362,-17.4363,-4.317
1097171.0,-70.016,0.249,54.358,-2.8133,-17.4363,-2.8777
1097181.0,-56.3404,-7.3263,48.0756,1.2265,-17.4363,-1.7581
1097191.0,-45.825,-15.1409,43.6607,2.1481,-17.4363,-1.6277
1097201.0,-38.1061,-20.8774,45.0301,3.5018,-17.4363,-2.2498
1097211.0,-31.364,-17.2766,36.9473,2.5978,-17.4363,-3.4225
1097221.0,-26.3937,-13.5991,34.0647,0.5422,-17.4363,-4.8608
1097231.0,-23.8175,-1.5993,23.5015,-2.137,-17.4363,-6.031
1097241.0,-21.8351,7.9583,15.9262,-5.0902,-17.4363,-6.5939
1097251.0,-20.2358,12.6605,8.6287,-4.8199,-17.4363,-6.321
1097261.0,-19.4313,17.1616,-3.1795,-3.2267,-17.4363,-5.3829
1097271.0,-14.1162,18.1959,-19.3164,-1.3425,-17.4363,-4.035
1097281.0,-6.1387,14.461,-32.5803,-0.0516,-17.0356,-2.9123
1097291.0,2.9018,10.1706,-35.8843,0.9833,-12.6622,-2.1545
1097301.0,8.3893,8.0732,-31.5843,1.7714,-8.7666,-1.7054
1097311.0,11.4443,7.6231,-21.3467,1.2675,-6.2433,-1.4005
1097321.0,13.4363,4.5107,-8.2744,0.4496,-5.1636,-1.2435
1097331.0,16.4913,1.3408,1.9345,-0.4422,-4.7119,-1.3175
1097341.0,16.0412,0.1053,14.1928,-0.8732,-4.5522,-1.4388
1097351.0,14.3077,1.4269,22.314,0.0463,-5.4222,-1.2318
1097361.0,15.0547,3.1603,22.9365,1.6171,-5.5664,-0.7753
1097371.0,14.2599,5.1332,22.0267,3.0096,-5.3493,-0.1208
1097381.0,16.271,2.9305,20.5806,2.9703,-5.3504,0.3767
1097391.0,18.4066,-0.1437,21.883,2.8676,-5.5404,0.6135
1097401.0,20.7912,1.3024,19.2973,2.1375,-5.659,0.7418
1097411.0,20.9157,0.9673,16.2997,0.2043,-6.3167,0.8349
1097421.0,23.7601,-3.8882,16.6445,-1.8214,-7.2048,0.6779
1097431.0,25.9627,-8.4851,14.0013,-1.2292,-7.4772,0.4326
1097441.0,24.3921,-8.5617,6.2249,-0.5763,-7.564,0.1612
1097451.0,26.9108,-9.2225,-1.8866,0.6412,-7.6635,-0.0952
1097461.0,30.8756,-5.7174,-17.4777,1.1164,-7.0271,-0.5199
1097471.0,34.0934,0.182,-31.7663,-0.7519,-6.5221,-1.0382
1097481.0,34.8596,8.5425,-53.3237,-5.8958,-7.44,-1.6629
1097491.0,30.9714,19.144,-78.3862,-14.2069,-9.0443,-2.254
1097501.0,24.5454,34.1126,-78.4532,-17.4363,-7.8566,-1.707
1097511.0,12.9,54.5782,-78.4532,-17.4363,-3.5354,0.6146
1097521.0,7.1922,60.535,-78.4532,-16.8105,3.3624,4.135
1097531.0,-5.7748,59.5677,-78.4532,-11.2733,14.3819,7.8699
1097541.0,-33.8061,49.1865,-78.4532,-5.5664,17.4357,11.5506
1097551.0,-69.4606,26.0489,-78.4532,1.1111,17.4357,14.2463
1097561.0,-78.4532,-10.1801,-78.4532,8.6133,17.4357,15.2956
1097571.0,-78.4532,-50.7283,-57.4034,17.0611,17.4357,13.3566
1097581.0,-78.4532,-75.1971,24.8614,17.4357,17.4357,8.1477
1097591.0,-78.4532,-59.5773,78.4508,17.4357,17.4357,2.4243
1097601.0,-78.4532,-7.5178,78.4508,17.4357,17.4357,-0.9637
1097611.0,-78.4532,23.377,78.4508,15.3312,17.4357,-1.5405
1097621.0,-78.4532,36.6792,78.4508,-4.9204,17.4357,-2.5126
1097631.0,-78.4532,7.7381,78.4508,-3.6263,12.7473,0.1878
1097641.0,-78.4532,30.3202,78.4508,0.721,-13.1277,4.3596
1097651.0,-78.4532,15.1697,78.4508,-5.3727,-17.4363,5.9788
1097661.0,-78.4532,-2.5283,78.4508,-6.2332,-17.4363,6.4572
1097671.0,-78.4532,-20.8774,78.4508,-9.4668,-17.4363,5.941
1097681.0,-78.4532,-57.4321,31.5843,-7.142,-17.4363,3.7658
1097691.0,-48.5831,-63.5708,-18.4354,-6.1911,-17.4363,-0.0266
1097701.0,-35.099,-60.5446,-24.7752,-4.1978,-16.9148,-3.7541
1097711.0,-28.5293,-38.2498,-15.208,-0.9099,-10.7732,-6.1518
1097721.0,-23.875,-18.2342,4.0031,-0.854,-6.3534,-7.0665
1097731.0,-21.3946,-3.1316,26.8438,3.3534,-4.068,-6.6461
1097741.0,-20.8679,14.3556,32.36,3.4332,-3.6764,-5.6159
1097751.0,-21.0977,18.3492,45.6526,2.0901,-5.5888,-4.3899
1097761.0,-18.2917,18.9046,47.5105,0.1155,-7.8758,-3.3571
1097771.0,-18.0044,13.1968,50.8337,-1.5612,-10.1985,-2.5999
1097781.0,-16.1752,7.4029,44.9631,-2.2194,-12.1449,-2.1678
1097791.0,-12.6414,0.4118,41.8315,-2.4264,-12.7744,-2.0332
1097801.0,-11.3772,-4.0318,38.5466,-1.1605,-13.0655,-2.1348
1097811.0,-11.3102,-5.6503,35.9513,0.2293,-13.3172,-2.2008
1097821.0,-11.8944,-6.5027,29.0465,1.4282,-14.135,-2.3078
1097831.0,-7.7381,-6.5027,17.3723,1.2851,-14.1207,-2.6893
1097841.0,-3.3423,-5.1715,9.3182,1.2446,-12.6888,-3.1097
1097851.0,-1.1301,-0.2298,3.8882,0.8429,-10.539,-3.3002
1097861.0,0.4501,4.0318,4.7118,-0.2698,-8.881,-3.1746
1097871.0,1.8675,5.2289,9.2225,-1.1616,-7.3373,-2.7611
1097881.0,2.9209,4.3862,14.279,-1.8241,-6.2534,-2.3216
1097891.0,2.7294,0.565,23.6356,-2.0247,-5.8655,-2.0002
1097901.0,3.9935,-1.7813,30.234,-1.5788,-6.2055,-1.8475
1097911.0,4.9895,-3.7062,36.593,-0.7157,-7.1202,-1.8071
1097921.0,6.675,-4.9129,36.842,0.5539,-8.5165,-1.8853
1097931.0,12.1051,-3.7062,29.4295,0.5651,-9.8627,-2.0885
1097941.0,14.7674,-3.4189,23.4536,0.1357,-10.2841,-2.3397
1097951.0,16.5008,-1.7813,15.4091,-0.7359,-9.6531,-2.4855
1097961.0,16.7498,-2.0877,14.3077,-1.4952,-8.649,-2.5658
1097971.0,15.7347,-1.4365,12.1913,-2.3748,-8.0189,-2.5515
1097981.0,17.1808,-1.5227,11.6741,-3.7775,-7.6406,-2.5685
1097991.0,17.2574,-3.8116,14.6621,-3.9137,-7.1378,-2.5467
1098001.0,17.6788,-5.7844,16.0028,-2.4057,-6.4662,-2.4445
1098011.0,19.8048,-7.9392,15.6868,-0.1612,-5.4728,-2.3498
1098021.0,21.4329,-8.5138,13.4746,2.2466,-4.4825,-2.3466
1098031.0,22.132,-6.541,7.6231,3.2549,-3.4555,-2.4387
1098041.0,23.3099,-5.928,3.5913,3.0181,-2.3174,-2.6148
1098051.0,25.187,-4.0606,0.5938,2.0029,-0.845,-2.8883
1098061.0,24.3251,-1.8292,1.7717,0.7652,0.746,-3.1161
1098071.0,21.7681,1.245,4.7501,0.0096,2.0167,-3.1267
1098081.0,20.4752,4.4149,8.734,-0.7322,3.2049,-2.9293
1098091.0,18.6269,4.9704,14.5472,-0.8775,4.0914,-2.5472
1098101.0,18.1959,3.9456,20.1592,-0.5396,4.7188,-2.1678
1098111.0,18.2438,3.3519,24.0282,0.0495,5.0843,-1.9076
1098121.0,18.646,5.296,26.4799,0.2352,5.2243,-1.6778
1098131.0,17.9278,8.1403,28.8166,0.1075,5.2323,-1.2872
1098141.0,17.085,10.2568,30.6841,0.2602,5.1743,-0.6886
1098151.0,15.9741,11.5879,31.728,0.5103,5.2466,0.0521
1098161.0,14.9111,11.6071,32.5803,0.8434,5.4025,0.8131
1098171.0,13.0245,9.6822,33.4518,1.3063,5.5052,1.5117
1098181.0,12.8233,5.6503,33.5667,1.9039,5.6601,2.022
1098191.0,13.5129,1.9728,32.8772,2.5882,5.9581,2.1785
1098201.0,12.4115,1.561,31.5173,2.775,6.156,2.0758
1098211.0,12.1817,3.802,29.3625,2.0332,6.4189,1.9614
1098221.0,10.9942,4.3,29.6785,1.0424,6.5732,1.8693
1098231.0,10.2759,4.3096,29.5061,-0.0394,6.6365,1.7991
1098241.0,9.4236,4.4628,29.6594,-1.0759,6.7498,1.674
1098251.0,7.3071,5.8131,30.3489,-1.3766,7.225,1.7645
1098261.0,5.0949,6.7995,32.0727,-0.746,8.1594,2.0736
1098271.0,3.0454,6.5984,34.8021,0.1761,9.1635,2.4349
1098281.0,0.9385,6.6367,37.5698,0.7604,9.7047,2.7383
1098291.0,-1.1013,7.3837,41.2569,1.069,9.6855,3.0453
1098301.0,-2.7102,8.1977,43.0573,1.2909,9.644,3.3837
1098311.0,-4.2808,8.3222,44.015,1.4798,9.6233,3.7322
1098321.0,-5.2481,7.7093,44.762,1.5665,9.8366,4.0472
1098331.0,-7.2113,7.2018,46.0166,1.516,10.1532,4.2659
1098341.0,-8.3414,7.4986,48.3341,0.9759,10.2522,4.3894
1098351.0,-10.8793,6.924,52.931,0.0915,9.7643,4.4799
1098361.0,-11.9614,4.865,57.7481,-0.2788,8.8714,4.6038
1098371.0,-12.8425,3.0263,59.7018,-0.7726,7.7188,4.6507
1098381.0,-12.6701,0.814,61.7321,-0.9136,6.338,4.623
1098391.0,-12.3445,0.1149,59.7114,-0.7231,5.2477,4.5985
1098401.0,-11.8082,0.2682,56.6564,-0.6657,4.6187,4.5469
1098411.0,-11.9135,0.996,52.5384,-0.6582,4.4735,4.5836
1098421.0,-12.4594,1.3695,49.627,-1.127,4.5815,4.6017
1098431.0,-13.5991,0.6512,49.2535,-2.0007,4.7246,4.5964
1098441.0,-14.7866,-0.68,52.7969,-2.3434,4.7986,4.6246
1098451.0,-15.9358,-1.2258,56.8958,-1.69,4.5559,4.7715
1098461.0,-16.5775,-0.2969,58.4856,-0.6875,4.0632,5.0178
1098471.0,-16.2901,0.747,57.48,0.2405,3.5795,5.3115
1098481.0,-15.7922,1.7238,54.3292,0.6854,3.264,5.576
1098491.0,-15.5336,3.5721,51.0635,0.4044,2.9958,5.7298
1098501.0,-16.5679,5.7269,48.3916,-0.7338,2.6473,5.8234
1098511.0,-18.5407,6.3877,46.2943,-2.0109,2.4898,6.0911
1098521.0,-17.9182,2.4612,48.4874,-2.5509,2.9484,6.3556
1098531.0,-18.9142,-1.8292,52.5288,-2.2232,3.04,6.4242
1098541.0,-19.4218,-3.6009,55.3156,-2.112,2.4796,6.3114
1098551.0,-19.4026,-5.1236,59.6731,-1.3351,1.649,6.2055
1098561.0,-17.4298,-3.62,56.8862,-0.655,0.7354,6.0895
1098571.0,-17.2574,-1.3695,53.0555,-0.8152,0.0436,5.9676
1098581.0,-16.6732,1.4078,49.7324,-1.135,-0.2719,5.9964
1098591.0,-17.7937,4.7501,48.0851,-1.4931,-0.4358,6.2454
1098601.0,-20.638,7.3263,46.7827,-1.2223,-0.4534,6.81
1098611.0,-21.3371,5.7844,47.1275,-0.1894,0.0271,7.6326
1098621.0,-20.1113,1.2258,47.1754,1.2036,0.7189,8.2589
1098631.0,-19.2781,-2.7869,48.6119,1.9922,1.2276,8.4452
1098641.0,-18.6556,-5.4492,51.8871,2.2764,1.102,8.3925
1098651.0,-17.1712,-6.9049,52.8831,1.7251,0.4597,8.2259
1098661.0,-15.5815,-10.6494,55.7753,1.226,-0.2719,7.8891
1098671.0,-14.5472,-12.6988,55.0954,0.6965,-1.0185,7.3501
1098681.0,-15.3229,-13.8481,56.8479,0.0335,-1.8682,6.7451
1098691.0,-15.0739,-14.71,56.1105,-0.2905,-2.7191,6.1464
1098701.0,-14.9973,-15.026,54.674,-0.6348,-3.5263,5.5068
1098711.0,-13.8481,-14.6908,53.5918,-0.82,-4.1143,4.8997
1098721.0,-13.034,-14.4993,52.366,-0.7604,-4.7241,4.3335
1098731.0,-11.9423,-13.4171,49.2822,-0.8056,-5.2929,3.877
1098741.0,-10.5153,-13.3118,47.0317,-0.9881,-5.6138,3.4279
1098751.0,-9.6534,-12.3158,44.8386,-1.1206,-5.8405,2.9931
1098761.0,-9.2225,-11.3581,43.0094,-1.2308,-5.974,2.6409
1098771.0,-8.3031,-10.3238,40.7014,-1.0983,-6.0416,2.3205
1098781.0,-7.7955,-8.1211,38.1061,-1.2228,-5.9219,2.1157
1098791.0,-7.8721,-7.9009,37.0144,-1.1547,-5.7181,2.0673
1098801.0,-6.359,-9.5385,35.7981,-0.8631,-5.2977,1.9986
1098811.0,-5.0853,-11.2911,36.0471,-0.3145,-4.7683,1.7842
1098821.0,-4.3479,-12.5073,36.7845,0.1123,-4.4362,1.4378
1098831.0,-3.055,-13.4171,36.909,0.1075,-4.3628,0.9408
1098841.0,-1.2833,-12.9,37.9433,-0.2751,-4.3798,0.306
1098851.0,-1.5514,-11.3102,38.9393,-0.6545,-4.7725,-0.2416
1098861.0,-0.9768,-9.2512,37.2921,-1.4931,-5.4829,-0.7375
1098871.0,-0.8906,-8.4084,36.3919,-2.1497,-6.1427,-1.1371
1098881.0,0.4022,-6.7325,33.2219,-2.3195,-6.3736,-1.4282
1098891.0,0.9768,-5.5737,30.2531,-2.2923,-6.1555,-1.582
1098901.0,0.5746,-5.114,29.6306,-1.6139,-5.502,-1.5548
1098911.0,1.9824,-5.0757,27.8781,-0.0591,-4.6629,-1.4394
1098921.0,3.1699,-4.2713,24.9284,0.9227,-3.6343,-1.3792
1098931.0,3.7158,-4.0223,24.1048,1.1323,-2.7595,-1.4426
1098941.0,4.3862,-3.3136,23.9707,0.8673,-2.1865,-1.5607
1098951.0,4.9033,-2.5379,24.4496,0.2331,-1.8166,-1.7363
1098961.0,5.3247,-2.4229,25.3977,-0.2985,-1.4096,-1.897
1098971.0,6.0717,-2.2122,26.1255,-0.6391,-0.8338,-2.0077
1098981.0,5.6886,-1.7334,28.491,-0.7897,-0.3453,-2.0838
1098991.0,5.6503,-1.5514,30.1382,-0.7939,-0.0575,-2.1242
1099001.0,5.4875,-1.3312,32.9442,-0.596,0.1612,-2.1343
1099011.0,5.2864,-1.6664,34.5723,0.1889,0.249,-2.0401
1099021.0,5.6312,-1.561,35.3288,0.8077,0.3826,-1.9827
1099031.0,5.6695,-1.9441,34.4286,1.1201,0.3757,-2.0279
1099041.0,6.0334,-1.2163,32.9442,0.6864,0.3868,-2.196
1099051.0,6.1292,-0.3831,32.4079,-0.0319,0.5396,-2.3583
1099061.0,5.7748,0.5842,32.9825,-0.4672,0.7785,-2.4121
1099071.0,5.43,2.0303,33.8349,-0.8562,1.0238,-2.3344
1099081.0,5.1715,1.9632,36.0184,-0.9035,1.2095,-2.2013
1099091.0,4.9033,1.9345,37.7518,-0.6641,1.234,-2.0124
1099101.0,4.5873,1.4269,38.1061,-0.5529,1.1605,-1.8709
1099111.0,4.1563,0.6225,40.2705,-0.0479,1.1738,-1.724
1099121.0,4.5011,-0.7374,40.4716,0.7678,1.1728,-1.615
1099131.0,4.1946,-1.1492,38.652,0.8556,1.0419,-1.657
1099141.0,4.7118,-0.3735,38.2976,0.6753,0.9711,-1.7459
1099151.0,4.616,0.0479,37.7997,0.447,1.0589,-1.757
1099161.0,4.4341,-0.0575,38.2019,0.2895,1.1201,-1.748
1099171.0,4.6064,-0.431,39.7054,0.3661,1.202,-1.7437
1099181.0,3.8307,-1.0343,41.3718,0.9222,1.1478,-1.6708
1099191.0,3.8499,-1.9537,41.1707,1.5421,0.9919,-1.6692
1099201.0,3.3136,-2.739,40.2513,1.9273,0.8322,-1.764
1099211.0,3.304,-2.7677,38.336,1.989,0.7684,-1.9475
1099221.0,3.6488,-2.8826,37.1963,1.8682,0.9413,-2.1779
1099231.0,3.869,-2.0686,35.7119,1.4718,1.1643,-2.4738
1099241.0,3.6392,-0.9768,35.7885,0.9067,1.3329,-2.7361
1099251.0,3.1795,0.249,36.9952,0.5694,1.4777,-2.8692
1099261.0,2.873,1.81,36.9186,0.3161,1.789,-2.9037
1099271.0,2.1356,1.81,40.1077,0.6465,2.0779,-2.7633
1099281.0,1.8483,1.6855,40.7876,1.2372,2.1258,-2.6473
1099291.0,1.8483,1.561,40.2896,1.3468,2.1013,-2.6095
1099301.0,1.5419,0.0958,40.529,1.417,2.1774,-2.6579
1099311.0,1.6951,-0.814,39.3224,1.3558,2.46,-2.8197
1099321.0,1.7142,-1.4844,40.1556,1.2936,2.834,-3.1155
1099331.0,0.8523,-0.2873,40.711,1.0312,3.0426,-3.3683
1099341.0,-0.2682,0.8523,41.5921,0.2889,3.0219,-3.5976
1099351.0,-0.7661,0.9768,45.1834,-0.0665,2.9069,-3.7423
1099361.0,-2.0111,1.245,47.2232,-0.0197,2.5563,-3.8286
1099371.0,-2.9497,2.0016,48.8609,0.091,2.1077,-3.8461
1099381.0,-3.9744,1.6185,50.5177,0.7833,1.6389,-3.8392
1099391.0,-3.371,1.9824,48.3341,1.5623,1.0908,-3.8599
1099401.0,-3.735,2.9401,44.8769,1.4825,0.6737,-4.0127
1099411.0,-3.7062,4.1563,40.4524,1.0797,0.6348,-4.1744
