time_ms,ax,ay,az,gx,gy,gz
115791.0,-0.9433,1.9489,9.584,-0.0138,0.0341,-0.0394
115801.0,-0.8787,2.0255,9.5577,-0.0117,0.0521,-0.0511
115811.0,-0.893,2.1524,9.6031,-0.0043,0.0814,-0.0575
115821.0,-0.8667,2.3272,9.6941,0.0037,0.1027,-0.0564
115831.0,-0.8739,2.5019,9.6558,-0.0027,0.1086,-0.05
115841.0,-0.8571,2.5426,9.6941,-0.0234,0.1038,-0.0372
115851.0,-0.8452,2.5498,9.6774,-0.0325,0.1091,-0.0197
115861.0,-0.9625,2.4876,9.6223,-0.0234,0.1235,0.0005
115871.0,-1.0415,2.3703,9.6343,-0.0239,0.1288,0.0192
115881.0,-1.0319,2.0782,9.5648,-0.0282,0.1399,0.0266
115891.0,-1.0175,1.7406,9.5984,-0.0341,0.1655,0.0138
115901.0,-1.0463,1.7142,9.7205,-0.0208,0.1963,-0.0223
115911.0,-1.1516,1.9321,9.9096,-0.0048,0.2208,-0.0569
115921.0,-1.2282,2.2338,9.9431,0.008,0.2208,-0.083
115931.0,-1.2665,2.4972,10.0006,-0.0021,0.223,-0.0931
115941.0,-1.3527,2.7342,10.1179,-0.0287,0.224,-0.0905
115951.0,-1.415,2.7677,10.2687,-0.0458,0.2171,-0.0713
115961.0,-1.4078,2.7366,10.3453,-0.0484,0.2001,-0.0458
115971.0,-1.3958,2.569,10.3334,-0.0463,0.1783,-0.0245
115981.0,-1.2761,2.4349,10.1562,-0.0468,0.1596,-0.016
115991.0,-1.2761,2.4349,10.1562,-0.0468,0.1596,-0.016
116001.0,-1.2354,2.4612,10.0604,-0.0612,0.1602,-0.0213
116011.0,-1.2665,2.5402,10.1035,-0.0873,0.174,-0.0282
116021.0,-1.336,2.6025,10.2376,-0.116,0.1751,-0.0282
116031.0,-1.3647,2.624,10.4028,-0.1266,0.1596,-0.0208
116041.0,-1.3671,2.624,10.3549,-0.1016,0.1447,-0.0059
116051.0,-1.4102,2.5953,10.3022,-0.058,0.1506,0.0101
116061.0,-1.4317,2.5857,10.1945,-0.0335,0.1559,0.0218
116071.0,-1.4533,2.5235,10.2041,-0.0527,0.1511,0.0255
116081.0,-1.415,2.399,10.3046,-0.0782,0.1415,0.0218
116091.0,-1.3958,2.4684,10.4004,-0.0984,0.124,0.0122
116101.0,-1.4245,2.6121,10.4267,-0.1022,0.1006,0.009
116111.0,-1.415,2.6983,10.4651,-0.1059,0.0649,0.0181
116121.0,-1.3958,2.7174,10.2951,-0.0984,0.0298,0.0351
116131.0,-1.3527,2.6959,9.9766,-0.0942,0.0037,0.0543
116141.0,-1.3192,2.5953,9.7396,-0.0921,0.0005,0.0734
116151.0,-1.3527,2.4995,9.5385,-0.0878,0.0266,0.0873
116161.0,-1.3575,2.3367,9.56,-0.1,0.0511,0.0883
116171.0,-1.3312,2.2841,9.5074,-0.1133,0.0601,0.0814
116181.0,-1.3168,2.229,9.4164,-0.1224,0.0702,0.0724
116191.0,-1.3072,2.2075,9.4355,-0.1128,0.0931,0.0633
116201.0,-1.3647,2.308,9.4068,-0.0873,0.1282,0.0596
116211.0,-1.4222,2.3631,9.5026,-0.0697,0.1548,0.0607
116221.0,-1.5036,2.3846,9.5217,-0.0537,0.158,0.0686
116231.0,-1.4988,2.3822,9.3877,-0.0521,0.1399,0.0772
116241.0,-1.4413,2.3918,9.2105,-0.0564,0.1394,0.0819
116251.0,-1.4437,2.3798,9.0525,-0.0846,0.149,0.0819
116261.0,-1.4413,2.3152,9.1387,-0.1187,0.1676,0.0793
116271.0,-1.3455,2.2793,9.1219,-0.1117,0.1894,0.0819
116281.0,-1.2905,2.2649,9.1961,-0.0708,0.2293,0.0862
116291.0,-1.2905,2.3918,9.2177,-0.0016,0.2703,0.0921
116301.0,-1.3024,2.6121,9.0621,0.0607,0.3086,0.1059
116311.0,-1.3264,2.5714,9.2799,0.0463,0.3315,0.1224
116321.0,-1.3719,2.636,9.2296,0.0415,0.34,0.1368
116331.0,-1.3982,2.5139,9.4906,0.0096,0.3523,0.1511
116341.0,-1.4365,2.478,9.493,0.0027,0.3555,0.1644
116351.0,-1.4653,2.5067,9.6845,-0.0309,0.34,0.1713
116361.0,-1.506,2.3583,9.7995,-0.0495,0.315,0.1846
116371.0,-1.573,2.1644,9.7947,-0.033,0.2794,0.1974
116381.0,-1.4533,1.9489,9.5864,0.0032,0.24,0.1995
116391.0,-1.3312,1.8938,9.1578,0.0133,0.2134,0.1841
116401.0,-1.2809,2.1213,8.8011,-0.0021,0.2267,0.1548
116411.0,-1.1995,2.308,8.825,-0.0426,0.2746,0.1293
116421.0,-1.2761,2.5809,8.9088,-0.0708,0.3278,0.1181
116431.0,-1.1564,2.5163,9.3206,-0.0782,0.3565,0.124
116441.0,-1.1492,2.569,9.2799,-0.0154,0.3954,0.1389
116451.0,-1.2163,2.4205,9.5026,0.0021,0.414,0.1511
116461.0,-1.1708,2.5115,9.1411,0.0399,0.3863,0.1602
116471.0,-0.996,2.4732,8.6622,0.0527,0.4049,0.1666
116481.0,-1.0558,2.4397,8.5305,0.0309,0.5119,0.1586
116491.0,-1.2498,2.3487,9.1099,0.0069,0.6492,0.1431
116501.0,-1.4269,2.1237,9.6343,0.0293,0.7455,0.1314
116511.0,-1.4126,2.0279,10.3238,0.0761,0.8109,0.108
116521.0,-1.6496,2.466,10.738,0.1453,0.8817,0.075
116531.0,-2.1883,3.0646,11.6933,0.1277,0.9296,0.0532
116541.0,-2.5642,3.4093,12.4355,0.041,0.8913,0.0596
116551.0,-3.067,3.5961,13.204,-0.1075,0.8019,0.075
116561.0,-3.3615,3.4931,14.3556,-0.2214,0.7109,0.1016
116571.0,-3.723,3.2561,15.2654,-0.2176,0.6226,0.1399
116581.0,-3.9528,2.7461,16.3093,-0.2166,0.4502,0.1548
116591.0,-5.0159,3.6272,15.4689,-0.19,0.1469,0.1431
116601.0,-3.0957,2.2817,15.0212,-0.4363,-0.1501,0.133
116611.0,-3.6943,2.7629,15.5216,-0.4427,-0.1261,0.0351
116621.0,-4.1659,3.4309,16.6277,-0.5007,-0.3437,-0.0319
116631.0,-3.8523,4.1061,15.8712,-0.4236,-0.5997,-0.0096
116641.0,-3.7613,4.4724,15.4498,-0.3794,-0.7678,0.042
116651.0,-3.8331,4.446,15.1601,-0.4044,-0.9269,0.1107
116661.0,-3.7781,4.1252,14.6717,-0.4417,-1.0903,0.182
116671.0,-3.6464,3.7493,14.3652,-0.5241,-1.2904,0.2288
116681.0,-3.3926,3.7493,13.4602,-0.514,-1.4293,0.2639
116691.0,-3.2322,3.7781,13.0939,-0.5412,-1.5123,0.3006
116701.0,-3.122,3.7924,12.6534,-0.5449,-1.5841,0.3501
116711.0,-2.8467,3.4405,12.3421,-0.5688,-1.6911,0.4124
116721.0,-2.5666,3.0813,11.5903,-0.5502,-1.7836,0.4677
116731.0,-2.2482,2.6791,11.0277,-0.5816,-1.8698,0.5044
116741.0,-1.8914,2.5019,10.2927,-0.5656,-1.9124,0.5358
116751.0,-1.7071,2.3104,9.9,-0.5369,-1.9012,0.5763
116761.0,-1.403,1.798,9.5433,-0.4837,-1.9082,0.6284
116771.0,-0.8835,1.3527,8.8131,-0.3884,-1.9039,0.6699
116781.0,-0.4788,0.9409,8.2384,-0.3145,-1.8581,0.6822
116791.0,-0.1317,0.577,7.9009,-0.2543,-1.7831,0.6721
116801.0,0.1437,0.2849,7.4867,-0.2043,-1.7209,0.6497
116811.0,0.3496,0.1006,7.1539,-0.1809,-1.6692,0.6087
116821.0,0.5986,0.0407,6.7947,-0.1681,-1.6102,0.5593
116831.0,0.929,0.0359,6.3973,-0.1809,-1.5261,0.5002
116841.0,1.221,-0.0239,6.6822,-0.215,-1.408,0.4337
116851.0,1.1875,0.158,6.9456,-0.216,-1.3133,0.3688
116861.0,1.166,0.2777,7.5537,-0.1703,-1.2994,0.3124
116871.0,1.4174,0.893,6.5386,0.0101,-1.3244,0.2852
116881.0,1.64,1.1468,5.8419,0.0388,-1.3255,0.2735
116891.0,1.8459,1.1923,5.1858,0.0628,-1.2537,0.274
116901.0,2.0758,1.0582,4.64,0.0388,-1.1685,0.2724
116911.0,2.1955,0.9242,4.3479,-0.0532,-1.0871,0.2554
116921.0,2.2098,0.7254,3.9504,-0.1293,-1.0403,0.2405
116931.0,2.5019,0.4932,2.3822,-0.2192,-1.06,0.2208
116941.0,3.0813,0.6009,0.5124,-0.3858,-0.9977,0.1697
116951.0,3.4836,0.3711,-2.0207,-0.5348,-0.771,0.1208
116961.0,3.8307,-0.0311,-2.5498,-0.7072,-0.3294,0.0617
116971.0,3.6655,0.1844,-2.6719,-0.6955,0.1735,-0.0255
116981.0,3.5099,1.1277,-3.4165,-0.5055,0.6715,-0.0654
116991.0,2.557,1.8866,-4.4077,-0.4816,1.1084,-0.0628
117001.0,2.0901,1.8148,-5.9185,-0.7886,1.4106,-0.0314
117011.0,1.7741,1.2809,-7.2185,-1.1616,1.8459,0.0128
117021.0,1.245,0.1796,-8.3199,-1.3436,2.5903,0.0601
117031.0,-0.8236,-0.2107,-5.9137,-1.2632,3.728,0.1059
117041.0,-3.2394,-0.6656,-1.1349,-0.6321,4.9758,0.2299
117051.0,-5.928,-1.233,3.9337,0.2352,5.9485,0.3735
117061.0,-7.1754,-2.4373,8.3606,0.8939,6.4838,0.4289
117071.0,-8.6886,-3.1699,12.9502,1.2835,6.7786,0.3262
117081.0,-10.003,-3.5602,18.3611,1.4293,6.8222,0.091
117091.0,-10.9822,-2.9209,22.6563,1.4894,6.653,-0.2293
117101.0,-10.817,-2.4086,29.6929,1.1818,6.2039,-0.6114
117111.0,-12.7132,0.1149,35.1014,1.0174,5.3126,-0.9488
117121.0,-12.5073,2.8491,37.2945,0.7184,3.7886,-1.143
117131.0,-11.9183,5.545,36.0782,0.2804,2.1508,-1.1914
117141.0,-11.4898,7.0701,33.3273,-0.2778,0.6657,-1.1068
117151.0,-10.7763,7.2425,29.2069,-0.7886,-0.6157,-0.9142
117161.0,-9.7013,6.2896,24.7153,-1.0248,-1.5202,-0.6651
117171.0,-8.6215,5.612,19.7905,-0.886,-1.9486,-0.4124
117181.0,-7.6064,4.6448,16.6158,-0.6141,-1.9608,-0.1756
117191.0,-6.8809,3.9959,14.9901,-0.2677,-1.7522,0.0213
117201.0,-6.541,3.4764,14.7603,0.0165,-1.5708,0.1729
117211.0,-5.9783,2.7485,14.8584,0.2171,-1.5793,0.2895
117221.0,-5.5067,2.1332,14.8201,0.3762,-1.7304,0.3597
117231.0,-5.0135,1.8699,13.7164,0.5082,-1.9678,0.3879
117241.0,-4.6352,1.64,12.05,0.4672,-2.2386,0.3709
117251.0,-4.13,1.6592,10.2951,0.2049,-2.5116,0.3049
117261.0,-3.6895,1.719,8.9208,-0.1197,-2.6904,0.2224
117271.0,-3.2609,1.9776,7.8003,-0.3118,-2.7425,0.166
117281.0,-2.7988,2.2505,7.1108,-0.3427,-2.6967,0.1575
117291.0,-2.2913,2.4924,6.1531,-0.2373,-2.6329,0.1963
117301.0,-1.7166,2.6049,5.0398,-0.0867,-2.51,0.2735
117311.0,-0.9218,2.2553,4.3144,0.0814,-2.3035,0.3719
117321.0,-0.4118,1.7478,4.3287,0.2794,-1.9954,0.4581
117331.0,-0.0431,1.2881,4.9847,0.5422,-1.6607,0.5295
117341.0,-0.0144,1.3096,5.3941,0.7817,-1.4335,0.5773
117351.0,0.1987,1.3431,4.9752,0.8136,-1.3713,0.6093
117361.0,0.498,1.0127,4.7381,0.5896,-1.3468,0.613
117371.0,0.972,0.1245,4.9823,0.3661,-1.2207,0.5992
117381.0,1.2785,-1.0606,6.541,0.2692,-1.011,0.5513
117391.0,1.3312,-2.0949,8.7436,0.3863,-0.8546,0.4603
117401.0,1.5036,-2.6695,10.1849,0.6449,-0.9237,0.3076
117411.0,1.5586,-1.8962,9.4116,0.7907,-1.2446,0.0835
117421.0,1.6616,0.0,7.4795,0.6572,-1.5942,-0.1431
117431.0,2.0734,1.5874,5.5474,0.3374,-1.7496,-0.2756
117441.0,2.2529,2.6911,4.3934,-0.0309,-1.7166,-0.3161
117451.0,2.387,3.1484,4.0677,-0.2421,-1.5522,-0.2655
117461.0,2.4205,3.0478,3.4668,-0.224,-1.3446,-0.1431
117471.0,2.9209,2.5666,2.5857,-0.0963,-1.1185,-0.009
117481.0,3.158,2.3343,1.2809,0.1203,-0.7758,0.0931
117491.0,3.3639,2.0087,0.3448,0.2299,-0.3751,0.1538
117501.0,3.6392,1.6879,-0.1963,0.24,0.0697,0.1612
117511.0,3.3686,1.9345,-0.3256,0.2027,0.5811,0.1277
117521.0,3.213,2.0135,-0.0239,0.0208,0.9871,0.0793
117531.0,2.794,2.3966,0.1245,-0.2698,1.3015,0.0192
117541.0,2.0135,2.4517,0.8739,-0.6258,1.5586,-0.0223
117551.0,1.2881,1.9369,1.0127,-0.8668,1.7464,-0.0277
117561.0,0.2059,1.2067,0.249,-1.0648,1.8502,-0.0447
117571.0,-0.4764,0.3687,-1.8076,-1.2249,1.9949,-0.0803
117581.0,-0.8452,-1.1085,-2.5594,-1.2068,2.56,-0.1203
117591.0,-1.8866,-1.9345,-1.1732,-0.7583,3.5859,-0.1894
117601.0,-3.8235,-1.5778,2.9066,-0.0223,4.7406,-0.2831
117611.0,-5.9927,-0.3017,7.2544,0.6912,5.5494,-0.3682
117621.0,-7.3574,0.5124,12.402,1.1025,5.9517,-0.4358
117631.0,-8.7939,1.3503,17.8847,1.3989,6.1879,-0.4895
117641.0,-10.2975,1.4844,24.938,1.4128,6.0895,-0.5555
117651.0,-11.6837,1.7502,31.1055,1.2207,5.385,-0.655
117661.0,-9.9718,2.2529,33.775,0.7386,4.0675,-0.7955
117671.0,-10.4794,2.8371,36.6744,0.0335,2.685,-0.9828
117681.0,-10.1562,4.3862,35.597,-0.5039,1.1691,-1.0951
117691.0,-9.5864,5.2648,33.4829,-1.0589,-0.3038,-1.1089
117701.0,-8.5736,6.043,28.2803,-1.2717,-1.5069,-0.9988
117711.0,-7.7093,5.7628,23.6547,-1.3361,-2.2242,-0.8125
117721.0,-6.8857,5.7197,19.1392,-1.144,-2.5142,-0.5944
117731.0,-6.2153,5.1954,16.587,-0.9551,-2.5541,-0.3698
117741.0,-5.6096,4.6112,14.6956,-0.655,-2.4584,-0.1469
117751.0,-5.0326,3.5554,13.7858,-0.3964,-2.3748,0.0436
117761.0,-4.4388,2.6432,12.9407,-0.165,-2.345,0.1751
117771.0,-3.9959,2.0279,12.2248,-0.0048,-2.3759,0.2432
117781.0,-3.6081,1.7669,11.1282,0.0607,-2.4626,0.257
117791.0,-3.2777,1.5874,9.9838,-0.0303,-2.6084,0.2309
117801.0,-2.8683,1.494,8.7077,-0.1548,-2.7356,0.1868
117811.0,-2.4541,1.2474,7.671,-0.24,-2.7808,0.1442
117821.0,-1.8866,0.9649,6.3925,-0.2166,-2.7553,0.1096
117831.0,-1.221,0.7614,5.3295,-0.1336,-2.6372,0.067
117841.0,-0.5986,1.0965,4.2928,-0.0399,-2.4328,0.0202
117851.0,-0.1652,1.7957,4.0989,0.0431,-2.1359,-0.0011
117861.0,0.0982,2.3559,4.063,0.1394,-1.8549,0.0388
117871.0,0.4956,2.2865,4.2353,0.1873,-1.6501,0.1213
117881.0,0.9218,1.8028,4.1611,0.2783,-1.4713,0.2139
117891.0,1.482,0.5315,4.9129,0.4448,-1.2015,0.2921
117901.0,1.6664,-0.2418,5.6072,0.7306,-0.9014,0.3097
117911.0,1.7214,-0.3615,6.6679,0.9328,-0.7136,0.2639
117921.0,1.7262,0.4908,6.8977,0.9929,-0.6758,0.1889
117931.0,1.8148,1.3431,7.0246,0.8184,-0.7274,0.1229
117941.0,1.8507,1.7502,7.0916,0.538,-0.7944,0.0873
117951.0,2.0303,1.7526,7.2784,0.2724,-0.8764,0.0745
117961.0,2.1931,1.6017,6.6319,0.1277,-0.9775,0.0697
117971.0,2.4876,1.64,5.3893,0.0372,-1.0467,0.0506
117981.0,2.9784,1.8603,3.7996,-0.0234,-0.9833,0.0309
117991.0,3.1987,2.0734,3.2034,-0.0585,-0.7141,0.0192
118001.0,3.1005,2.3487,3.1627,-0.0633,-0.3879,0.0218
118011.0,3.0311,2.3224,3.3088,-0.0878,-0.1415,0.0436
118021.0,2.9353,2.2362,3.3686,-0.0692,0.075,0.074
118031.0,2.8156,2.0806,3.1364,0.0628,0.3352,0.1144
118041.0,2.7916,1.5467,2.6671,0.2112,0.629,0.1453
118051.0,2.6193,1.3096,2.6169,0.2341,0.9381,0.1176
118061.0,2.1093,0.6967,2.8539,0.0303,1.1212,0.0383
118071.0,2.0806,0.3639,2.7054,-0.2485,1.1802,-0.0894
118081.0,1.4629,0.7542,1.8603,-0.5539,1.226,-0.2437
118091.0,1.3048,1.0367,0.6345,-0.8982,1.2749,-0.3618
118101.0,0.9792,1.3958,-0.3089,-1.0509,1.5852,-0.4145
118111.0,0.1604,1.9249,-0.7638,-0.9881,2.1375,-0.398
118121.0,-0.7135,1.798,0.2562,-0.8434,2.7696,-0.3171
118131.0,-1.9178,1.5969,1.8507,-0.4842,3.4885,-0.1979
118141.0,-3.134,0.146,5.5138,-0.0186,4.2127,-0.0772
118151.0,-4.4676,-0.5962,9.1626,0.6492,4.8209,-0.0367
118161.0,-5.9879,-0.3639,12.7755,1.0813,5.1115,-0.1203
118171.0,-7.1754,0.4046,15.864,1.1132,5.0593,-0.2788
118181.0,-8.0661,1.008,18.4234,0.7535,4.7284,-0.4624
118191.0,-8.5641,1.4006,20.1879,0.1203,4.2143,-0.655
118201.0,-8.8801,1.506,21.4832,-0.6917,3.5832,-0.8423
118211.0,-8.7843,1.415,23.4584,-1.4053,2.9889,-0.9807
118221.0,-8.2049,0.4477,28.819,-1.5213,2.6531,-1.0089
118231.0,-9.2632,1.9728,33.2722,-0.5529,2.336,-0.9269
118241.0,-10.1706,5.2912,32.542,0.3001,1.2212,-0.7764
118251.0,-9.2464,6.6152,27.9403,0.2091,-0.3714,-0.5619
118261.0,-7.7644,6.0094,22.4385,-0.2815,-1.4128,-0.3586
118271.0,-7.2042,4.616,20.2238,-0.7748,-1.7246,-0.2288
118281.0,-7.3263,3.4692,19.5989,-0.9626,-1.8682,-0.1325
118291.0,-7.118,2.4612,18.7849,-0.9104,-2.2077,-0.0372
118301.0,-6.2321,1.9249,16.3189,-0.5917,-2.5446,0.0516
118311.0,-5.3415,1.7286,14.0252,-0.2246,-2.6308,0.1139
118321.0,-4.853,1.8435,13.0388,0.0921,-2.5222,0.1554
118331.0,-4.8291,2.1404,13.0101,0.3134,-2.4818,0.1921
118341.0,-4.8985,2.4948,12.2296,0.4113,-2.6616,0.24
118351.0,-4.4652,2.5211,10.6015,0.3437,-2.9734,0.2932
118361.0,-3.7326,2.4181,8.0924,0.1841,-3.206,0.332
118371.0,-3.0023,2.0997,6.1316,-0.0777,-3.2571,0.3395
118381.0,-2.2697,1.7645,5.0254,-0.3283,-3.1634,0.3214
118391.0,-1.6448,1.3743,4.5586,-0.4406,-2.9841,0.3086
118401.0,-0.8571,0.6895,4.4508,-0.389,-2.7824,0.3118
118411.0,-0.1915,0.1197,4.5155,-0.124,-2.5451,0.3193
118421.0,0.3783,0.0982,3.6799,0.2086,-2.3418,0.3092
118431.0,0.9673,0.4238,2.8922,0.4055,-2.1444,0.2794
118441.0,1.3192,1.0965,1.6544,0.5055,-1.9071,0.2591
118451.0,1.98,1.2474,0.6704,0.3868,-1.6522,0.2543
118461.0,2.5259,0.8882,0.735,0.1836,-1.2888,0.2474
118471.0,2.8323,-0.0551,2.1404,0.099,-0.8578,0.2315
118481.0,2.8132,-0.8068,3.7781,0.1825,-0.531,0.1825
118491.0,2.9904,-1.4509,5.2888,0.3634,-0.3709,0.1027
118501.0,2.8587,-1.324,5.7628,0.6577,-0.3006,-0.0021
118511.0,2.8802,-0.8045,5.2984,0.8689,-0.3411,-0.1155
118521.0,3.158,-0.3663,4.1204,0.9935,-0.3379,-0.2102
118531.0,3.2465,0.5267,2.1356,0.9504,-0.2682,-0.3108
118541.0,3.4764,1.0606,1.0008,0.6981,-0.0479,-0.4023
118551.0,3.5027,1.6472,0.3543,0.4965,0.3815,-0.456
118561.0,3.4477,2.0494,1.1061,0.2698,0.8902,-0.4848
118571.0,2.6624,2.873,2.5809,0.1176,1.3713,-0.4901
118581.0,2.1955,3.8235,4.2186,0.0043,1.6958,-0.4369
118591.0,1.5969,4.5155,5.6958,-0.0255,1.8938,-0.3203
118601.0,1.0175,5.1164,6.1196,-0.0601,1.9443,-0.1532
118611.0,0.7254,4.4987,5.7772,-0.2219,1.8762,0.0346
118621.0,0.5938,3.2777,3.7757,-0.5103,1.7783,0.1618
118631.0,0.4693,1.6305,1.6472,-0.9855,1.8448,0.19
118641.0,0.0407,-0.0838,0.1006,-1.4537,2.196,0.1352
118651.0,-0.7015,-1.5897,-0.1915,-1.8555,2.759,0.0037
118661.0,-1.9058,-2.6145,1.1253,-2.0492,3.4731,-0.1596
118671.0,-3.6703,-2.6743,4.039,-1.931,4.2441,-0.3134
118681.0,-5.9352,-2.5522,7.7333,-1.5277,4.8603,-0.3996
118691.0,-7.4364,-3.8642,11.9782,-0.853,5.2844,-0.4103
118701.0,-8.5617,-5.3175,16.0531,0.1368,5.6239,-0.472
118711.0,-9.8306,-5.0925,19.9533,1.0664,5.7915,-0.7035
118721.0,-11.1426,-2.8778,24.0378,1.4979,5.6431,-1.0882
118731.0,-12.7324,1.2234,28.7137,1.0935,5.0317,-1.525
118741.0,-14.1162,4.9632,34.2514,-0.0814,3.8685,-1.8166
118751.0,-14.4801,6.4955,38.0558,-1.4223,2.0598,-1.8438
118761.0,-13.9199,7.0054,36.6313,-2.262,-0.0138,-1.6511
118771.0,-12.6845,6.8235,30.562,-2.4397,-1.6836,-1.3164
118781.0,-11.7076,6.3183,24.0881,-2.17,-2.4935,-0.9402
118791.0,-11.169,5.9113,19.4194,-1.6927,-2.6398,-0.5651
118801.0,-10.3477,4.6759,17.3436,-1.1589,-2.5254,-0.1916
118811.0,-9.6055,3.8547,16.4625,-0.4342,-2.2774,0.1511
118821.0,-8.7819,3.5841,16.4314,0.2112,-2.0971,0.4358
118831.0,-9.4547,2.9185,16.5152,0.5608,-2.1763,0.6683
118841.0,-7.9703,2.1572,14.6334,0.5161,-2.61,0.8109
118851.0,-7.3861,1.0223,13.8337,0.0016,-3.0612,0.8056
118861.0,-6.7588,-0.1317,12.8904,-0.4017,-3.4412,0.7327
118871.0,-6.1627,-0.9194,12.4235,-0.5459,-3.695,0.6279
118881.0,-5.9089,-0.5339,11.2815,-0.4198,-3.9259,0.5252
118891.0,-5.5162,0.3831,9.3637,-0.1953,-4.1265,0.4874
118901.0,-4.7692,0.929,7.1754,-0.0069,-4.2463,0.5268
118911.0,-4.0031,1.1995,4.798,0.0883,-4.2686,0.6039
118921.0,-3.1484,0.905,2.8156,0.0367,-4.1941,0.6768
118931.0,-1.9992,0.0814,1.2881,-0.0862,-4.0451,0.7237
118941.0,-0.577,-0.9505,0.8308,-0.0761,-3.704,0.7333
118951.0,0.182,-1.391,1.1899,0.1511,-3.2156,0.7125
118961.0,0.6512,-1.6448,2.071,0.4358,-2.8016,0.6976
118971.0,0.9768,-1.9513,2.6288,0.6838,-2.5419,0.6971
118981.0,1.6688,-2.7557,2.6887,0.8375,-2.4089,0.6902
118991.0,2.332,-3.9121,2.9137,1.0041,-2.229,0.6412
119001.0,2.6456,-4.5322,3.1101,1.2271,-2.0082,0.5273
119011.0,3.067,-4.3096,3.4046,1.3771,-1.8784,0.3544
119021.0,3.5291,-3.0742,2.8084,1.4899,-1.7985,0.182
119031.0,4.051,-1.6305,2.1404,1.4516,-1.7028,0.0553
119041.0,4.4388,-0.3903,1.9465,1.3191,-1.5394,-0.0096
119051.0,4.5298,0.3424,2.2769,1.1962,-1.3611,-0.0053
119061.0,4.7214,-0.0263,2.4517,1.1733,-1.2446,0.0553
119071.0,4.9895,-0.5459,1.6448,1.2787,-1.1627,0.1011
119081.0,5.0063,-0.4094,-0.0239,1.3117,-1.0876,0.0718
119091.0,5.2457,0.68,-2.6336,1.0062,-1.0653,-0.0293
119101.0,5.1834,3.3471,-4.7357,0.2597,-1.0493,-0.1767
119111.0,4.5298,7.5369,-8.4108,-0.8184,-1.1318,-0.2607
119121.0,3.3399,10.7619,-12.3325,-2.428,-1.4713,-0.1974
119131.0,3.2489,10.2831,-17.9302,-3.6806,-1.7134,0.1314
119141.0,2.4301,7.6543,-25.9675,-3.9195,-1.2042,0.6087
119151.0,3.4955,3.5937,-31.8477,-3.43,0.2033,1.0557
119161.0,1.8292,-0.3041,-32.439,-1.4404,3.5471,1.4521
119171.0,-5.3726,-5.9735,-19.3715,0.8344,7.4921,1.6213
119181.0,-11.1977,-8.406,-8.1355,2.8904,9.9516,1.4016
119191.0,-16.204,-9.0644,2.5043,3.7652,11.0999,0.796
119201.0,-19.8599,-7.4364,12.4259,3.6455,11.491,-0.0835
119211.0,-22.2493,-4.865,22.0841,2.7154,10.986,-0.9599
119221.0,-23.4416,-3.4979,33.1046,1.7028,10.1415,-1.6038
119231.0,-23.1136,-0.1748,41.0773,1.4144,9.3051,-1.964
119241.0,-23.207,2.0063,50.3333,1.085,8.1807,-2.1375
119251.0,-20.8942,4.063,53.6469,0.7992,5.8234,-2.1024
119261.0,-18.0307,5.3391,51.9997,0.4725,3.4263,-1.9651
119271.0,-16.0459,6.7421,46.3422,0.0255,1.3713,-1.8214
119281.0,-14.5089,6.9145,40.0239,-0.5619,-0.2118,-1.6458
119291.0,-13.3764,6.1675,35.4342,-0.8684,-1.1148,-1.4271
119301.0,-12.9574,5.43,33.3752,-0.5055,-1.3984,-1.1691
119311.0,-13.2232,6.1746,30.8948,0.2426,-1.6213,-0.8982
119321.0,-13.0412,6.28,28.3809,0.5582,-2.1902,-0.6604
119331.0,-12.3684,5.6527,25.6323,0.5566,-2.8511,-0.4821
119341.0,-12.208,5.5498,23.5015,0.4486,-3.4284,-0.3714
119351.0,-12.3948,5.715,21.3491,0.3533,-4.0377,-0.257
119361.0,-12.2846,5.8873,17.765,0.3097,-4.756,-0.1032
119371.0,-11.4922,6.3159,12.2918,0.2762,-5.3408,0.0814
119381.0,-9.9814,5.849,8.7436,0.1415,-5.5063,0.273
119391.0,-9.2105,5.9807,6.4859,0.1282,-5.344,0.4475
119401.0,-8.6167,5.6551,5.7221,0.0255,-5.3073,0.6226
119411.0,-7.6782,5.2241,3.4213,0.1144,-5.3887,0.8328
119421.0,-6.359,4.027,0.5363,0.2299,-5.3626,1.0483
119431.0,-4.5011,2.4205,-2.6767,0.2395,-5.195,1.1887
119441.0,-2.8084,1.1684,-4.6855,0.0702,-4.8374,1.1909
119451.0,-1.4293,0.395,-5.4085,-0.1038,-4.3213,1.1126
119461.0,-0.1365,-0.5195,-5.3151,-0.2368,-3.7961,1.0084
119471.0,1.1181,-1.1277,-4.3694,-0.2176,-3.2794,0.886
119481.0,1.968,-1.1205,-3.304,0.091,-2.7446,0.7907
119491.0,2.4421,-1.0367,-2.6169,0.5326,-2.2764,0.7487
119501.0,3.2896,-0.984,-3.5027,0.8737,-1.9763,0.7301
119511.0,4.5514,-1.3791,-5.0254,0.8892,-1.6916,0.6816
119521.0,5.5761,-2.332,-5.8419,0.6886,-1.2015,0.572
119531.0,6.0908,-3.8666,-3.8475,0.4246,-0.514,0.3847
119541.0,5.7892,-4.1994,-0.3472,0.3709,0.1341,0.1261
119551.0,5.3151,-3.7158,3.644,0.5092,0.481,-0.124
119561.0,4.9823,-2.0423,6.2153,0.8657,0.5502,-0.3155
119571.0,4.4891,0.3352,6.9863,1.1462,0.3555,-0.4214
119581.0,4.4149,2.3272,6.1627,1.1659,0.0037,-0.4273
119591.0,4.6328,3.6152,4.3838,0.9754,-0.298,-0.3592
119601.0,4.7621,3.8235,2.3679,0.7333,-0.4305,-0.2458
119611.0,4.8267,3.7469,0.3232,0.5885,-0.3315,-0.133
119621.0,5.114,3.7709,-1.652,0.5406,-0.0718,-0.0378
119631.0,5.2505,5.0589,-3.9696,0.5337,0.3629,0.0415
119641.0,4.8746,6.7636,-5.7365,0.1868,0.8221,0.1383
119651.0,4.0079,7.3478,-7.5465,-0.7764,1.0142,0.2586
119661.0,2.6145,6.6391,-8.4348,-2.1795,0.8679,0.3815
119671.0,1.245,4.798,-12.3996,-3.1235,0.5603,0.5853
119681.0,0.8882,2.2553,-20.6667,-3.2842,0.6024,0.8413
119691.0,1.1157,-1.4988,-29.2021,-2.8479,1.7235,1.0472
119701.0,-1.3791,-4.5155,-32.226,-1.5772,4.6076,1.11
119711.0,-9.177,-7.8578,-21.5095,-0.2139,8.3765,0.9647
119721.0,-17.3364,-8.5593,-8.2169,1.5069,11.2217,0.6854
119731.0,-23.6882,-9.6941,6.6008,3.1224,12.991,0.2591
119741.0,-27.7823,-10.6303,22.2733,4.3777,13.9573,-0.4278
119751.0,-29.4702,-9.402,39.0614,4.5309,13.5199,-1.4676
119761.0,-29.6953,-4.9728,53.7881,3.1756,11.3015,-2.6989
119771.0,-28.8214,-0.6967,63.1638,0.8647,7.7933,-3.7248
119781.0,-27.2053,5.3989,65.1414,-1.1185,4.06,-4.2787
119791.0,-24.8614,10.9295,59.7545,-1.6756,1.2148,-4.1223
119801.0,-21.8447,14.9901,50.86,-1.3223,-0.5108,-3.4449
119811.0,-19.4074,15.4378,44.2951,-0.9051,-1.3133,-2.5371
119821.0,-18.014,12.6486,40.7565,-0.5795,-1.674,-1.6581
119831.0,-17.7889,9.742,39.3942,-0.3602,-2.1221,-0.9919
119841.0,-17.6285,7.3287,36.8372,-0.2006,-2.8835,-0.531
119851.0,-17.0036,5.0326,32.7,-0.4087,-3.9414,-0.3022
119861.0,-15.8975,3.8092,27.4854,-0.8455,-4.9694,-0.2959
119871.0,-14.9255,4.4796,22.2924,-1.2425,-5.6223,-0.3991
119881.0,-14.0588,5.5186,18.2318,-1.5346,-5.9357,-0.4507
119891.0,-12.8928,5.7796,14.6908,-1.6006,-6.1033,-0.3773
119901.0,-11.631,5.8778,11.1211,-1.3968,-6.0831,-0.2166
119911.0,-10.7284,5.4779,8.3366,-1.1275,-5.9118,-0.0176
119921.0,-9.5433,4.7597,5.8323,-0.8695,-5.716,0.1793
119931.0,-8.8298,3.6847,4.5681,-0.6864,-5.4345,0.3283
119941.0,-8.3438,1.9034,3.1244,-0.5305,-5.2381,0.4188
119951.0,-6.4931,-0.6297,1.1756,-0.5598,-5.1684,0.3805
119961.0,-4.2617,-2.1548,-0.2155,-0.687,-4.9486,0.1559
119971.0,-2.6408,-1.8699,-0.656,-0.8301,-4.5549,-0.166
119981.0,-2.1021,-0.7542,0.8452,-0.977,-4.1579,-0.4347
119991.0,-2.5211,-0.431,2.6743,-0.8429,-3.9504,-0.5433
120001.0,-2.5594,0.0144,1.7095,-0.3954,-4.0425,-0.5454
120011.0,-1.9082,0.5914,-1.3934,0.1389,-4.0669,-0.4906
120021.0,-0.7757,0.8404,-3.6224,0.5901,-3.7003,-0.4156
120031.0,-0.1844,1.7669,-4.4125,0.9232,-3.0565,-0.3528
120041.0,0.3496,1.9776,-2.9377,0.9897,-2.4733,-0.281
120051.0,1.221,2.1452,-1.4892,0.9637,-2.063,-0.2027
120061.0,1.9417,2.2051,0.5171,0.7583,-1.8741,-0.1346
120071.0,2.4397,2.3439,1.8962,0.5986,-1.823,-0.0458
120081.0,2.4038,1.7813,3.0574,0.5587,-1.8486,0.0878
120091.0,2.2673,1.0343,3.1556,0.7652,-1.9007,0.2368
120101.0,2.4277,0.8236,1.1779,1.0115,-1.996,0.3469
120111.0,3.1029,0.3831,-1.5012,0.969,-2.0215,0.3911
120121.0,4.1156,0.17,-3.5865,0.6827,-1.8198,0.3491
120131.0,4.7357,0.0694,-3.881,0.3272,-1.3404,0.2586
120141.0,5.1499,0.1197,-1.9106,0.0532,-0.7769,0.1729
120151.0,5.0709,0.723,0.3065,0.016,-0.3704,0.1368
120161.0,5.1811,0.8452,1.391,0.1554,-0.1862,0.1852
120171.0,5.4684,0.316,1.9704,0.3688,-0.0043,0.2613
120181.0,5.4372,-0.3136,2.9185,0.5965,0.2506,0.298
120191.0,5.1092,-0.4046,4.5538,0.7189,0.4241,0.2692
120201.0,4.6448,0.0335,5.7341,0.6987,0.3709,0.2091
120211.0,4.8794,0.2825,4.944,0.5454,0.0639,0.1532
120221.0,5.6096,0.7566,2.8252,0.2586,-0.1676,0.0841
120231.0,6.3686,0.9529,0.8954,-0.1368,-0.1415,0.0229
120241.0,6.8761,0.9002,0.8691,-0.547,0.0878,-0.0197
120251.0,7.027,0.8882,1.3743,-0.7035,0.3406,-0.0048
120261.0,7.2209,0.4908,1.4245,-0.6002,0.522,0.0708
120271.0,7.0294,0.4334,0.5267,-0.3592,0.7035,0.1607
120281.0,6.4715,-0.2993,-0.6177,-0.3012,0.8258,0.2267
120291.0,6.0645,-1.0798,-3.1436,-0.5401,0.8136,0.2081
120301.0,6.1507,-1.7957,-6.8331,-1.0898,0.8109,0.0889
120311.0,6.505,-2.2003,-10.9942,-1.7161,1.1387,-0.0947
120321.0,5.7341,-2.1835,-13.4315,-2.2572,2.0018,-0.2868
120331.0,3.9816,-2.1428,-12.5552,-2.4259,3.305,-0.3757
120341.0,1.0798,-2.7916,-8.6383,-1.8416,4.9024,-0.3161
120351.0,-1.834,-4.719,-1.7047,-0.5901,6.5572,-0.1942
120361.0,-4.8147,-6.699,7.5417,1.0461,8.0173,-0.1825
120371.0,-7.5034,-7.8219,17.571,2.4467,8.8953,-0.4049
120381.0,-8.983,-7.9009,28.9291,2.801,8.8762,-0.9323
120391.0,-10.6087,-5.0566,40.4836,2.0529,7.8237,-1.6762
120401.0,-11.2288,-0.4453,49.2703,0.555,5.6409,-2.3397
120411.0,-11.1809,2.9401,52.4354,-0.953,2.7936,-2.6441
120421.0,-9.6103,6.4404,48.4012,-1.6325,0.1245,-2.5483
120431.0,-7.8793,8.7293,39.2817,-1.6958,-1.7922,-2.1359
120441.0,-6.4021,8.497,30.6266,-1.6746,-2.9287,-1.6017
120451.0,-5.2337,7.1036,23.4656,-1.2968,-3.2996,-1.0493
120461.0,-4.2401,5.624,18.3779,-0.6226,-3.1118,-0.5513
120471.0,-3.6105,4.956,15.4163,0.1256,-2.6925,-0.1532
120481.0,-3.1388,5.1834,13.2375,0.6321,-2.3227,0.1623
120491.0,-2.9137,4.5394,12.9478,0.6577,-2.1508,0.4092
120501.0,-2.6863,3.8379,12.8305,0.5539,-2.171,0.5954
120511.0,-2.4325,2.9736,12.5217,0.357,-2.3945,0.7173
120521.0,-1.9273,2.1691,10.6973,0.223,-2.7462,0.7955
120531.0,-1.1612,1.585,8.2432,0.1554,-2.9995,0.8429
120541.0,-0.1891,0.8332,5.7604,0.1229,-3.0772,0.8631
120551.0,0.7422,0.3543,3.2489,0.0697,-3.0123,0.8461
120561.0,1.7286,-0.3448,1.6951,-0.0005,-2.8085,0.8125
120571.0,2.739,-0.8715,0.6345,0.0729,-2.4381,0.7764
120581.0,3.7804,-1.2163,0.7877,0.2267,-1.9709,0.7396
120591.0,4.0893,-1.0056,1.3886,0.4566,-1.4894,0.7061
120601.0,4.2856,-0.814,2.3631,0.5236,-1.2052,0.6699
120611.0,4.5466,-1.0846,2.9568,0.5172,-1.0839,0.6385
120621.0,5.0733,-1.8196,3.9816,0.5167,-0.9339,0.588
120631.0,5.0661,-1.7765,5.2816,0.6353,-0.7231,0.505
120641.0,4.7836,-0.7566,6.4284,0.6375,-0.7066,0.4108
120651.0,4.9057,0.0335,6.5649,0.5018,-0.8902,0.3709
120661.0,5.3917,0.2897,5.8802,0.3751,-1.0621,0.3879
120671.0,5.7317,0.2346,4.6855,0.3342,-1.0552,0.4278
120681.0,5.9352,-0.5243,3.6775,0.2379,-0.9482,0.4454
120691.0,6.2225,-1.4868,3.1053,0.0399,-0.8237,0.3943
120701.0,6.4596,-2.3224,3.0263,-0.0995,-0.6258,0.2873
120711.0,6.7397,-2.8467,3.3447,-0.0559,-0.3432,0.1543
120721.0,6.7062,-2.1093,4.1276,0.1352,0.0032,0.0106
120731.0,6.5146,-1.0415,4.9752,0.3304,0.2857,-0.0809
120741.0,6.4069,-0.1867,5.6719,0.4129,0.4459,-0.1261
120751.0,6.1938,0.3591,6.0717,0.3453,0.5108,-0.1495
120761.0,6.019,0.759,6.2991,0.2001,0.5295,-0.157
120771.0,5.7293,0.9002,6.2417,0.0745,0.5582,-0.1469
120781.0,5.5115,0.5866,6.0214,0.0186,0.6252,-0.1229
120791.0,5.3917,0.1437,5.8035,0.0293,0.77,-0.1149
120801.0,5.2936,-0.2035,6.8881,0.1,1.0312,-0.1304
120811.0,4.7118,0.1389,8.6503,0.3166,1.3377,-0.1522
120821.0,4.063,0.2538,10.6231,0.4821,1.3989,-0.1639
120831.0,4.0606,0.668,10.7045,0.5768,1.176,-0.1852
120841.0,3.9911,1.6688,9.3877,0.4683,0.8913,-0.2325
120851.0,3.8547,3.1292,6.9935,0.0463,0.6199,-0.2772
120861.0,3.7565,4.6352,3.3639,-0.8163,0.3171,-0.2948
120871.0,3.9409,5.0757,-0.5842,-2.1418,0.008,-0.2719
120881.0,4.4891,5.0135,-6.0908,-3.4875,-0.1266,-0.1852
120891.0,5.2505,3.9959,-10.0293,-4.4176,0.3613,0.017
120901.0,4.6304,3.2082,-11.3844,-4.3224,1.7421,0.3693
120911.0,2.2745,-0.249,-7.3406,-3.2634,3.7046,0.8721
120921.0,-0.4669,-4.9464,-2.3008,-1.4479,5.5223,1.3117
120931.0,-2.4636,-9.5409,4.2713,0.3831,6.9803,1.4229
120941.0,-4.865,-12.3253,12.967,2.1072,8.3558,1.1361
120951.0,-7.5441,-12.6845,23.8175,3.0006,9.0379,0.4491
120961.0,-9.4906,-11.0397,35.4629,2.6223,8.4563,-0.5066
120971.0,-10.3046,-7.4867,44.0078,1.2233,6.5253,-1.5133
120981.0,-10.1275,-3.6679,47.9391,-0.5486,3.7929,-2.2849
120991.0,-9.1698,0.1915,45.7508,-1.7751,1.1621,-2.6552
121001.0,-8.4755,3.5458,40.2106,-2.3174,-0.8817,-2.635
121011.0,-7.4939,5.5354,33.4805,-2.1577,-2.1939,-2.278
121021.0,-6.8115,5.8251,26.8127,-1.5149,-2.8548,-1.7304
121031.0,-6.1579,4.8914,21.8375,-0.6524,-3.0926,-1.1414
121041.0,-5.3534,4.0725,16.757,0.3884,-3.0102,-0.5853
121051.0,-4.4005,2.66,13.6254,1.0004,-2.808,-0.1612
121061.0,-3.9002,1.5347,11.9782,1.1733,-2.635,0.0724
121071.0,-3.6559,1.1396,10.9894,0.994,-2.6276,0.1442
121081.0,-3.1963,1.3551,10.2137,0.5635,-2.8053,0.124
121091.0,-2.6336,2.0446,9.1794,0.1862,-2.9947,0.107
121101.0,-2.1356,2.5522,8.3845,0.009,-3.0687,0.1575
121111.0,-1.7717,2.5019,7.3095,0.0596,-3.073,0.2943
121121.0,-0.8188,1.6568,6.1818,0.2629,-3.0511,0.4858
121131.0,0.4477,0.8523,4.719,0.6242,-2.8968,0.6694
121141.0,1.5419,0.0599,3.4788,0.9562,-2.6233,0.8077
121151.0,2.3224,-0.6129,2.7797,1.0504,-2.3589,0.8689
121161.0,3.0215,-1.0942,1.9297,0.9216,-2.1795,0.8636
121171.0,3.6536,-2.0758,2.0063,0.6667,-1.9816,0.8152
121181.0,4.2162,-2.8443,2.138,0.6013,-1.6868,0.7322
121191.0,4.5035,-3.3208,3.2274,0.6502,-1.3297,0.6125
121201.0,4.6519,-3.0215,4.9464,0.7838,-1.0307,0.4842
121211.0,4.6615,-2.3535,6.1651,0.9126,-0.9365,0.3783
121221.0,5.0661,-1.7789,6.3231,0.9099,-1.0578,0.2985
121231.0,5.3582,-1.3934,5.6575,0.7881,-1.1946,0.2304
121241.0,5.8179,-1.2474,4.3886,0.5582,-1.2994,0.1612
121251.0,6.122,-1.221,3.225,0.3022,-1.2558,0.0963
121261.0,6.2249,-1.5538,2.873,0.141,-1.0429,0.0474
121271.0,6.256,-1.9369,3.0718,0.1453,-0.7795,0.0043
121281.0,6.1818,-1.8244,3.1268,0.3182,-0.5002,-0.0436
121291.0,6.3734,-1.7933,3.6847,0.5135,-0.2182,-0.0889
121301.0,6.2848,-1.4557,4.6088,0.7327,0.0729,-0.1405
121311.0,5.8299,-1.0032,6.1914,0.8583,0.257,-0.1926
121321.0,5.5186,-0.9409,7.3981,0.8812,0.1788,-0.2464
121331.0,5.3343,0.0072,6.1148,0.8232,-0.1075,-0.3278
121341.0,5.1954,1.1325,3.9911,0.5193,-0.3299,-0.4161
121351.0,5.2218,1.9968,2.1524,0.1139,-0.3331,-0.4725
121361.0,4.9273,2.6815,1.3408,-0.2352,-0.1208,-0.4789
121371.0,4.5945,3.1125,1.5874,-0.4262,0.1756,-0.4273
121381.0,4.5394,4.3431,1.4988,-0.3719,0.415,-0.3139
121391.0,3.8906,6.189,0.5626,-0.2336,0.6641,-0.1064
121401.0,3.4836,6.9791,-1.3048,-0.415,0.7636,0.1809
121411.0,3.1627,6.359,-3.7804,-1.0302,0.7428,0.447
121421.0,2.9832,4.9632,-7.1682,-1.8619,0.7625,0.6481
121431.0,3.3615,2.3152,-10.1849,-2.5568,1.1291,0.8056
121441.0,2.8563,0.2274,-12.0261,-2.6691,2.1396,0.9099
121451.0,1.2546,-0.7254,-11.1618,-2.2998,3.6503,0.9871
121461.0,-1.8172,-0.2586,-8.2049,-1.5309,5.3211,1.1015
121471.0,-5.8897,0.2634,-4.7238,-0.6816,6.8882,1.301
121481.0,-9.2033,-2.5642,2.8036,-0.0979,8.4021,1.5564
121491.0,-11.0995,-10.1634,20.2262,0.7662,10.158,1.7203
121501.0,-13.0676,-16.6158,43.699,2.4227,11.3563,1.4968
121511.0,-14.0204,-17.2502,63.0393,3.579,9.9803,0.6806
121521.0,-12.5289,-13.726,67.9786,2.7633,5.5345,-0.5497
121531.0,-10.07,-9.1147,58.9213,0.5013,0.3847,-1.8039
121541.0,-8.3438,-4.1396,44.8985,-1.5618,-3.0197,-2.7356
121551.0,-8.2073,0.4884,33.8947,-2.6334,-4.3883,-3.1623
121561.0,-7.7237,4.2066,25.5509,-2.5462,-4.7204,-3.049
121571.0,-6.2991,6.5194,18.6365,-1.582,-4.4777,-2.5153
121581.0,-4.7764,6.5027,13.5201,-0.1586,-3.7674,-1.7554
121591.0,-3.4429,5.4516,9.8138,1.2888,-2.8069,-1.0217
121601.0,-2.9521,4.7716,8.4994,2.129,-1.9433,-0.5151
121611.0,-2.6863,5.3654,8.7843,2.2578,-1.3979,-0.2384
121621.0,-3.0239,6.2106,10.1179,1.7996,-1.176,-0.091
121631.0,-2.8874,6.4332,11.3988,0.9472,-1.3755,-0.0005
121641.0,-2.375,6.5098,11.5712,0.0239,-1.8491,0.0639
121651.0,-1.8004,7.1084,10.3837,-0.6236,-2.2429,0.1703
121661.0,-1.0199,5.8179,10.5177,-0.9237,-2.3514,0.398
121671.0,-1.1468,3.5721,11.3533,-0.6949,-2.2796,0.6737
121681.0,-1.4772,0.9768,11.7795,-0.1676,-2.4243,0.8865
121691.0,-0.6823,-0.814,8.1139,0.5582,-2.7585,1.0004
121701.0,0.735,-1.4844,4.2952,0.9051,-2.8378,0.9413
121711.0,1.7454,-1.4341,1.6616,0.9466,-2.5126,0.7865
121721.0,2.4229,-1.4796,1.6257,0.5513,-2.1348,0.5736
121731.0,2.8683,-0.7685,2.6001,0.0404,-1.9252,0.3485
121741.0,3.0071,0.0958,3.8595,-0.2256,-1.7565,0.2155
121751.0,3.1603,0.4381,5.5929,-0.1437,-1.5942,0.2155
121761.0,2.964,1.3072,6.0094,0.2687,-1.4873,0.3108
121771.0,2.715,1.7142,5.6312,0.5795,-1.5447,0.4571
121781.0,3.134,1.7454,3.304,0.7604,-1.6746,0.6188
121791.0,3.8044,0.996,1.0175,0.7322,-1.5596,0.7423
121801.0,4.6591,-1.1037,0.5459,0.5193,-1.1935,0.7859
121811.0,5.138,-2.5139,1.4509,0.248,-0.8115,0.6838
121821.0,5.5689,-2.9664,3.1939,0.0617,-0.4842,0.5092
121831.0,5.6671,-2.6504,5.1427,0.0154,-0.3193,0.339
121841.0,5.5545,-1.5562,5.4109,0.1453,-0.3294,0.2315
121851.0,5.4803,-0.7374,4.7429,0.2591,-0.3682,0.1921
121861.0,5.4731,-0.2753,3.3902,0.3246,-0.3672,0.1921
121871.0,5.4492,-0.34,2.1117,0.2719,-0.2719,0.1862
121881.0,5.6719,-0.6871,1.2091,0.0984,-0.1469,0.1431
121891.0,6.0669,-0.486,-0.0096,-0.1139,0.0069,0.0617
121901.0,6.9121,-0.2083,-0.7207,-0.3246,0.2959,-0.0074
121911.0,5.4229,0.237,-0.34,-0.4539,0.779,-0.0383
121921.0,5.3319,0.2682,0.2059,-0.5209,1.1472,-0.0176
121931.0,4.7908,-0.103,1.3312,-0.4379,1.541,0.0239
121941.0,4.0486,-0.182,2.3535,-0.1171,1.9273,0.0633
121951.0,3.3758,0.0096,3.0765,0.2139,2.2141,0.0756
121961.0,2.9257,0.5171,3.4836,0.3411,2.3487,0.0426
121971.0,3.1795,2.217,2.5259,0.1128,2.253,-0.0388
121981.0,3.2681,4.2952,0.6847,-0.4645,2.1827,-0.0681
121991.0,2.9856,4.9536,-0.1053,-1.2451,2.3243,0.0383
122001.0,2.3224,4.1851,0.6416,-1.8667,2.6669,0.2639
122011.0,1.2785,2.5259,2.4948,-1.9938,3.1341,0.5704
122021.0,0.0024,-0.2442,4.7094,-1.5884,3.6359,0.9014
122031.0,-1.0463,-2.9209,6.0238,-0.9115,4.0355,1.1105
122041.0,-1.7645,-5.1715,5.8203,-0.3916,4.2691,1.1025
122051.0,-2.217,-7.5417,5.77,-0.2304,4.6081,0.8801
122061.0,-3.2944,-9.7252,7.6543,-0.3794,5.2307,0.4715
122071.0,-4.7669,-11.5448,13.8768,-0.7301,6.0299,-0.0729
122081.0,-6.8905,-11.7436,24.7082,-0.8796,6.753,-0.6476
122091.0,-10.1586,-10.0461,36.3464,-0.4981,6.7749,-1.1291
122101.0,-11.406,-8.1068,44.7309,-0.0686,5.6457,-1.4298
122111.0,-10.9607,-5.9711,46.5912,0.2607,3.7386,-1.5969
122121.0,-9.7659,-4.0438,43.845,0.2799,1.7677,-1.7326
122131.0,-9.3087,-2.2122,39.3008,-0.0585,0.1676,-1.8704
122141.0,-8.6718,-0.7518,34.8668,-0.6651,-1.1494,-1.989
122151.0,-8.3222,0.2011,31.6298,-1.1275,-2.1141,-2.021
122161.0,-8.2935,1.5275,28.3258,-0.969,-2.7558,-1.8943
122171.0,-7.7668,3.5314,22.539,-0.4874,-3.3204,-1.6293
122181.0,-6.3422,4.5657,17.0731,-0.2959,-3.6923,-1.293
122191.0,-5.138,4.3167,13.3764,-0.2309,-3.6301,-0.928
122201.0,-4.6902,2.9018,12.3301,-0.1905,-3.339,-0.6018
122211.0,-4.7118,1.1636,12.0428,-0.049,-3.2081,-0.3602
122221.0,-3.9552,0.1652,9.8426,0.1362,-3.3454,-0.232
122231.0,-2.6624,0.1437,6.6822,0.1298,-3.4672,-0.2283
122241.0,-1.652,0.6369,4.1827,-0.0442,-3.3018,-0.2788
122251.0,-1.245,1.3144,3.553,-0.4252,-2.9921,-0.3283
122261.0,-0.1053,1.7741,3.7852,-0.779,-2.7143,-0.315
122271.0,0.6321,1.6161,4.7716,-0.8806,-2.3754,-0.1953
122281.0,0.5531,0.5076,6.8307,-0.6721,-2.0162,0.0101
122291.0,0.2921,-0.8452,8.3486,-0.075,-1.822,0.232
122301.0,0.3591,-1.9585,7.9966,0.7125,-1.7852,0.4028
122311.0,1.166,-3.0813,6.7588,1.2835,-1.7703,0.4715
122321.0,1.8555,-3.4093,6.2249,1.4457,-1.6517,0.3948
122331.0,2.1979,-3.0215,7.3239,1.176,-1.6059,0.2102
122341.0,2.3248,-1.7669,8.1786,0.7364,-1.7698,0.0223
122351.0,2.636,-0.7278,8.7771,0.2235,-2.0651,-0.0862
122361.0,2.8299,0.0694,9.9742,-0.0952,-2.2668,-0.0819
122371.0,1.7406,0.4046,11.2001,-0.1447,-2.4866,0.033
122381.0,1.3336,-0.7566,11.2767,0.0729,-2.9458,0.241
122391.0,1.7454,-2.0973,8.4084,0.7072,-3.3523,0.4491
122401.0,2.3583,-2.6504,3.9528,1.3297,-3.4428,0.5715
122411.0,3.4836,-2.9999,0.5411,1.5085,-3.273,0.5922
122421.0,4.1683,-3.3112,-0.9984,1.3707,-2.8527,0.5172
122431.0,5.1188,-3.4357,-0.6967,1.0499,-2.4115,0.3719
122441.0,5.2768,-3.1699,0.9002,0.7838,-2.0391,0.2075
122451.0,5.2672,-2.7031,2.387,0.6886,-1.8182,0.0851
122461.0,5.351,-2.2865,3.3112,0.6673,-1.7836,0.0053
122471.0,5.4133,-2.0542,3.7972,0.7333,-1.8784,-0.0394
122481.0,5.5258,-1.9393,2.8299,1.027,-1.9491,-0.0404
122491.0,5.8179,-1.9058,0.8068,1.3313,-1.9135,-0.0404
122501.0,5.9903,-1.9776,-0.6919,1.4042,-1.7757,-0.075
122511.0,6.3758,-1.2522,-1.9728,1.3526,-1.5618,-0.1261
122521.0,8.4204,-0.3136,-3.2322,1.1531,-1.3223,-0.1522
122531.0,7.0557,-0.2035,-4.6088,0.6609,-1.0844,-0.1463
122541.0,9.2799,-0.4262,-5.1858,0.0676,-0.9972,-0.1815
122551.0,8.6191,1.5299,-7.0078,-0.5454,-0.8306,-0.2666
122561.0,7.3957,3.632,-8.181,-1.3117,-0.9136,-0.3155
122571.0,5.8778,5.1523,-12.2703,-1.7783,-1.0445,-0.2128
122581.0,5.1834,5.8897,-18.646,-1.8874,-0.9881,-0.0309
122591.0,4.9081,6.9552,-28.6658,-1.4899,-0.2448,0.2033
122601.0,5.1427,7.015,-36.0902,-0.944,1.7038,0.4624
122611.0,1.2163,7.1922,-33.5883,-0.4587,5.0396,0.7024
122621.0,-5.7557,5.7557,-19.8096,-0.1336,8.1365,0.9727
122631.0,-11.789,3.0622,-6.5434,0.5151,9.9393,1.2909
122641.0,-14.5065,0.7877,3.0382,1.0403,10.6859,1.4644
122651.0,-17.8967,-0.0192,7.0102,0.6572,10.5587,1.3441
122661.0,-18.4114,-6.5601,10.0054,-1.21,9.6488,1.0557
122671.0,-18.5383,-13.4913,13.3692,-2.6824,9.3019,0.6263
122681.0,-18.6748,-21.8854,27.7081,-2.5249,10.5651,0.0122
122691.0,-22.1966,-19.326,45.6407,-0.7646,11.7341,-0.8998
122701.0,-24.5478,-13.0149,66.0919,0.4911,10.8029,-1.7304
122711.0,-23.2238,-6.1794,76.6695,1.1717,7.8997,-2.105
122721.0,-20.887,-2.2242,77.3854,0.8604,4.0238,-2.154
122731.0,-18.5551,-1.8076,70.8588,0.0282,0.2043,-2.0657
122741.0,-16.7211,-1.5227,59.2062,-0.5534,-2.834,-1.9725
122751.0,-15.4474,-0.2227,45.1618,-0.6263,-4.8396,-1.8289
122761.0,-13.6637,1.9824,31.9387,-0.398,-5.7516,-1.6011
122771.0,-12.7419,4.0797,24.0522,0.0,-5.6404,-1.2446
122781.0,-12.1602,6.3494,20.0395,0.5912,-5.136,-0.7434
122791.0,-12.4307,6.7876,18.658,1.0036,-4.921,-0.1282
122801.0,-11.8872,4.0869,15.4881,1.3824,-5.1572,0.5316
122811.0,-10.58,0.8236,9.7803,1.5133,-5.5313,0.969
122821.0,-8.2935,-1.7645,4.604,1.1345,-5.7074,1.0626
122831.0,-6.8091,-3.122,2.648,0.6391,-5.4664,0.9147
122841.0,-6.0382,-3.4453,1.9465,0.4454,-5.1695,0.6955
122851.0,-4.5993,-2.5929,0.5219,0.4683,-5.112,0.5013
122861.0,-2.6887,0.0335,-2.1787,0.7295,-4.9502,0.415
122871.0,-1.0918,2.6552,-3.6727,0.9855,-4.4309,0.5268
122881.0,-0.067,3.6751,-2.818,1.1132,-3.8014,0.8264
122891.0,0.1796,2.1213,-0.6776,1.2164,-3.3656,1.2201
122901.0,1.4676,-1.6041,0.237,1.4766,-3.2203,1.5836
122911.0,2.9999,-5.3726,-0.0742,1.922,-2.9969,1.7687
122921.0,3.8379,-8.1139,0.1508,2.1774,-2.6574,1.6942
122931.0,4.6591,-9.6175,1.075,1.9183,-2.5712,1.3569
122941.0,5.0302,-9.0309,1.391,1.3558,-2.7367,0.8455
122951.0,5.3965,-6.766,0.6512,0.7982,-2.9889,0.3448
122961.0,5.6551,-4.1228,-0.3998,0.5002,-3.0086,0.017
122971.0,5.5905,-2.1931,-0.6009,0.5002,-2.8016,-0.0984
122981.0,5.928,-0.8763,-1.2522,0.7556,-2.5893,-0.0468
122991.0,6.4715,-1.166,-1.743,1.1206,-2.2854,0.107
123001.0,7.1299,-2.3942,-2.1332,1.4846,-1.9129,0.2325
123011.0,7.2377,-2.794,-1.822,1.6256,-1.5862,0.2256
123021.0,7.1156,-2.5163,-1.4533,1.5809,-1.3787,0.1431
123031.0,7.252,-2.2386,-1.8364,1.3995,-1.3329,0.0341
123041.0,7.2544,-2.0782,-2.4493,1.1579,-1.2696,-0.0947
123051.0,7.106,-2.0207,-3.1101,1.0243,-1.0993,-0.2224
123061.0,6.8761,-1.5395,-3.9456,0.9461,-0.878,-0.3624
123071.0,7.3358,-0.5483,-4.5107,0.8237,-0.6678,-0.5002
123081.0,7.3526,0.3998,-4.0294,0.7801,-0.3331,-0.5949
123091.0,7.5896,2.241,-4.9297,0.6981,-0.0585,-0.6013
123101.0,7.932,3.1292,-4.1707,0.6008,0.2474,-0.4986
123111.0,7.6519,3.9433,-3.7613,0.7125,0.5731,-0.3113
123121.0,6.5338,4.3239,-2.6743,0.688,0.7348,-0.1006
123131.0,5.0637,4.2449,-3.4812,0.4906,0.5731,0.1171
123141.0,3.1149,4.0534,-5.6024,-0.0681,0.1724,0.2815
123151.0,4.0701,3.5961,-10.556,-0.8737,-0.4246,0.4039
123161.0,0.2179,3.4788,-18.737,-1.8289,-0.8423,0.4459
123171.0,3.4285,2.15,-32.2954,-3.1804,-1.1861,0.4172
123181.0,3.5865,4.9943,-45.3749,-3.6221,0.4624,0.3565
123191.0,-2.4253,6.8474,-42.6838,-3.5556,3.9882,0.5587
123201.0,-9.8569,7.7045,-36.3512,-2.1806,7.6145,1.1371
123211.0,-18.9573,5.1188,-25.5653,-0.481,10.5938,1.764
123221.0,-27.0042,-0.012,-15.4737,1.0781,12.7962,2.1838
123231.0,-33.6912,-9.402,-4.5801,1.6405,14.5389,2.1056
123241.0,-35.8508,-22.8407,18.4928,0.9466,15.8139,1.2223
123251.0,-35.348,-24.6124,39.6336,0.8583,15.5398,-0.4805
123261.0,-33.3608,-16.7738,58.7944,0.63,13.3433,-2.3205
123271.0,-29.4559,-2.1165,63.9874,0.8673,10.2107,-3.3587
123281.0,-23.0035,8.8346,62.6778,-0.0442,6.512,-3.4848
123291.0,-18.2462,11.2049,55.002,-1.2744,3.4912,-2.7414
123301.0,-13.6493,1.3144,49.4738,-2.1769,1.6527,-1.6501
123311.0,-11.8465,-8.3893,46.5289,-1.5852,1.1696,-0.9051
123321.0,-11.6885,-12.5001,43.608,-0.1543,1.1238,-0.7035
123331.0,-11.8896,-12.9598,42.4133,0.5007,0.4613,-0.9807
123341.0,-11.461,-10.0556,38.2833,0.8019,-0.4965,-1.4133
123351.0,-11.2025,-7.0988,34.3831,0.5566,-1.4314,-1.8619
123361.0,-10.5991,-3.2346,28.922,0.083,-2.3562,-2.2551
123371.0,-9.5409,-0.3567,24.2844,-0.439,-3.0809,-2.4786
123381.0,-8.0397,1.7262,18.5646,-0.5183,-3.3864,-2.4616
123391.0,-6.9504,2.7294,14.6022,-0.3326,-3.1714,-2.2806
123401.0,-6.517,3.4046,12.3038,-0.1107,-2.6962,-2.0247
123411.0,-6.201,3.3375,11.88,0.0037,-2.2599,-1.7565
123421.0,-5.7269,3.5219,13.0149,0.1591,-1.8241,-1.5314
123431.0,-6.0861,4.288,16.022,0.3459,-1.4681,-1.3361
123441.0,-6.438,5.5306,18.6053,0.4502,-1.5798,-1.1318
123451.0,-6.3422,6.8761,18.8543,0.241,-2.2854,-0.92
123461.0,-5.6958,7.0916,17.0156,-0.2235,-3.1725,-0.6811
123471.0,-4.9321,5.2529,14.5352,-0.7364,-3.8184,-0.4427
123481.0,-4.9177,2.1811,13.6158,-1.1371,-4.2638,-0.315
123491.0,-4.8411,-0.2251,10.8098,-1.0461,-4.6672,-0.2836
123501.0,-4.3479,-1.5443,7.434,-0.7774,-4.9476,-0.3704
123511.0,-3.8188,-1.3503,3.6919,-0.365,-4.955,-0.5199
123521.0,-2.7294,-0.9409,1.6328,0.0702,-4.6384,-0.6433
123531.0,-2.0758,0.6967,0.2682,0.5726,-4.1324,-0.7221
123541.0,-1.4222,2.2649,-0.3759,0.7588,-3.7392,-0.7184
123551.0,-0.012,3.201,-0.893,0.5598,-3.5008,-0.6481
123561.0,0.8475,3.4046,-0.1915,0.1075,-3.2682,-0.5518
123571.0,1.3527,2.6145,0.996,-0.2464,-3.0916,-0.4331
123581.0,1.9896,1.6281,1.9872,-0.3139,-2.9942,-0.3193
123591.0,2.399,1.1827,2.5307,-0.0782,-2.8814,-0.215
123601.0,2.8922,0.7135,2.8371,0.3326,-2.7532,-0.0899
123611.0,3.3734,0.431,2.3152,0.7184,-2.6361,0.0261
123621.0,3.8595,0.2083,1.6352,0.7407,-2.626,0.0857
123631.0,4.7597,0.0958,0.5794,0.3986,-2.7425,0.0772
123641.0,5.6336,0.4669,-0.6129,-0.0585,-2.7845,0.0266
123651.0,6.0478,0.5555,-0.8332,-0.4055,-2.6558,0.0043
123661.0,6.3542,0.5363,-1.2354,-0.4683,-2.4743,0.0388
123671.0,6.7493,-0.1676,-1.4269,-0.3044,-2.228,0.1208
123681.0,7.1275,-0.7398,-1.9034,0.0144,-1.922,0.1932
123691.0,7.4292,-1.2881,-2.3367,0.2778,-1.6698,0.2208
123701.0,7.9775,-1.4676,-3.5841,0.5018,-1.4101,0.2102
123711.0,8.2863,-1.9178,-3.9265,0.6226,-1.0621,0.1671
123721.0,8.2959,-1.7047,-5.8754,0.7519,-0.7625,0.0915
123731.0,8.8083,-1.8268,-8.6933,0.5518,-0.5364,-0.0367
123741.0,8.8466,-1.2402,-12.0333,0.1032,-0.1288,-0.2384
123751.0,8.406,0.3519,-13.6517,-0.5151,0.5092,-0.4576
123761.0,7.3382,2.466,-13.5871,-0.9355,1.3154,-0.5502
123771.0,5.5617,4.9273,-11.9662,-0.8987,2.1747,-0.4401
123781.0,4.5298,7.6399,-13.0699,-0.513,2.6675,-0.1224
123791.0,5.8682,8.8274,-16.4553,-0.1788,3.0932,0.3565
123801.0,-0.1269,8.7843,-19.4649,-0.0048,3.9403,0.8721
123811.0,-1.5921,7.8506,-25.1439,-0.3022,4.5485,1.3489
123821.0,-6.1435,4.4005,-28.4024,-0.6162,6.1012,1.8033
123831.0,-11.3413,-0.7518,-28.1678,-0.9929,8.1717,2.0875
123841.0,-18.3156,-7.3143,-19.8072,-1.4729,10.4901,2.13
123851.0,-25.8789,-13.5943,-6.8211,-1.3228,12.6616,1.9837
123861.0,-29.7623,-22.0674,10.6614,-0.6779,14.1973,1.6213
123871.0,-32.4462,-29.7743,35.5683,0.9668,15.4366,0.7615
123881.0,-28.5916,-27.5094,56.2326,3.0235,14.9236,-0.7726
123891.0,-32.9394,-18.0738,73.2698,2.95,11.8587,-2.6175
123901.0,-28.0385,-5.1092,75.6496,1.4213,6.7472,-3.9967
123911.0,-24.4161,5.9544,71.1389,-0.745,2.1274,-4.5373
123921.0,-21.1791,12.4977,62.3929,-1.897,-1.1228,-4.0494
123931.0,-18.1145,12.8688,50.8169,-1.748,-3.2129,-2.8287
123941.0,-14.6525,8.8011,37.8499,-0.7242,-4.3,-1.4394
123951.0,-11.8226,3.5985,27.6626,0.6024,-4.2771,-0.3432
123961.0,-10.5058,-1.391,21.7657,1.7091,-3.563,0.2889
123971.0,-9.9623,-5.193,21.3539,2.0768,-2.9575,0.3783
123981.0,-9.8521,-5.1356,22.0147,1.9608,-2.8968,0.0575
123991.0,-9.8689,-2.2505,22.1703,1.4984,-3.3943,-0.3645
124001.0,-8.8657,1.4006,19.3763,0.8886,-4.2628,-0.6423
124011.0,-6.9025,3.7589,15.8424,0.2214,-5.0114,-0.6933
124021.0,-5.3893,4.3622,12.3924,-0.1022,-5.3115,-0.5055
124031.0,-4.7142,2.8012,9.7851,-0.033,-5.3142,-0.1644
124041.0,-4.2641,0.3472,6.9288,0.4023,-5.2424,0.182
124051.0,-3.4453,-1.5538,3.3279,1.0759,-5.071,0.4145
124061.0,-1.9992,-1.9082,-1.142,1.6809,-4.6831,0.506
124071.0,-0.5339,-1.7909,-3.4189,1.7948,-4.0547,0.4619
124081.0,0.6393,-1.0439,-3.1196,1.5495,-3.3566,0.332
124091.0,1.391,0.182,-1.4605,1.1382,-2.8245,0.2075
124101.0,2.2266,0.2346,0.3232,0.6694,-2.5387,0.1511
124111.0,2.7438,-0.6488,3.1556,0.2634,-2.3817,0.108
124121.0,2.6264,-1.0415,3.7493,0.2373,-2.4296,0.0676
124131.0,3.0191,-2.49,4.7046,0.5044,-2.5057,0.0261
124141.0,3.225,-1.9561,2.3703,1.0956,-2.5201,-0.0575
124151.0,3.9121,-1.4485,0.9601,1.3085,-2.4349,-0.1836
124161.0,4.3646,0.0814,-0.407,1.2824,-2.2162,-0.3251
124171.0,4.798,1.3958,-0.0431,0.9684,-1.9608,-0.4305
124181.0,4.8123,2.9712,1.0822,0.7231,-1.6352,-0.4406
124191.0,4.4939,4.5131,2.5714,0.5236,-1.4207,-0.332
124201.0,4.2976,4.8578,3.4213,0.3539,-1.3819,-0.1043
124211.0,4.5777,3.4453,3.814,0.207,-1.4771,0.1517
124221.0,5.0518,1.7693,2.818,0.2666,-1.5484,0.3432
124231.0,5.4995,0.1556,2.6719,0.4427,-1.383,0.4358
124241.0,5.3989,-0.7638,2.8228,0.6923,-1.1132,0.4342
124251.0,5.4684,-1.3001,2.9568,0.6971,-1.0722,0.3421
124261.0,5.8203,-1.0319,2.162,0.5699,-1.1148,0.1905
124271.0,6.2704,-0.3232,1.6688,0.431,-1.0089,0.0474
124281.0,6.7684,0.5914,1.9585,0.3932,-0.7247,-0.0346
124291.0,6.4524,0.9026,4.1563,0.4454,-0.3927,-0.0239
124301.0,6.0573,0.4357,5.9592,0.7503,-0.2591,0.0713
124311.0,6.5529,-0.6345,6.6439,1.1887,-0.3363,0.1862
124321.0,6.6248,-1.7454,6.7181,1.757,-0.3411,0.249
124331.0,6.5841,-1.9537,5.3486,2.1151,-0.4555,0.2011
124341.0,7.015,-2.2146,3.7828,1.8549,-0.8104,0.0261
124351.0,7.1994,-1.7933,0.8523,1.3723,-1.126,-0.2283
124361.0,7.7596,-0.6105,-2.5355,0.6486,-1.2898,-0.5066
124371.0,8.5665,1.7693,-6.3135,-0.2235,-1.1994,-0.7444
124381.0,7.616,4.6687,-6.6032,-1.3532,-0.8157,-0.9174
124391.0,8.0996,7.5609,-7.7405,-2.4759,-0.6486,-0.8423
124401.0,5.8921,7.8937,-5.8083,-3.2262,-0.6385,-0.5119
124411.0,3.7254,9.347,-13.2136,-2.9692,-1.1685,-0.0186
124421.0,4.8578,7.9368,-26.4679,-2.3599,-1.3329,0.5555
124431.0,4.9201,7.3861,-45.1451,-1.1467,0.0798,1.0195
124441.0,0.5698,6.5003,-57.298,-0.7194,3.2539,1.2515
124451.0,-8.0134,2.7126,-53.757,-0.8732,8.4734,1.3537
124461.0,-26.3554,-2.2314,-29.7096,-1.3042,13.7679,1.3234
124471.0,-41.5274,-0.6416,-7.5992,-1.0754,16.2342,1.2733
124481.0,-36.7678,-8.2648,8.3079,-0.5683,17.0888,1.4191
124491.0,-43.6319,-17.5854,46.2081,0.0958,17.4357,1.2372
124501.0,-41.3503,-20.073,77.881,1.317,17.3453,0.2267
124511.0,-33.0735,-16.5559,78.4508,1.2185,11.5266,-1.2547
124521.0,-23.1447,-10.5082,78.4508,-0.339,3.5992,-2.6457
124531.0,-16.9414,-2.5666,61.2078,-1.8448,-1.8438,-3.6013
124541.0,-13.1059,6.2393,39.9473,-2.6478,-3.8307,-3.8913
124551.0,-11.1067,11.1929,29.5373,-3.0022,-3.8025,-3.5476
124561.0,-10.2113,12.8473,24.4137,-2.1886,-3.0277,-2.6749
124571.0,-10.0796,11.054,23.6332,-0.6274,-2.2072,-1.5841
124581.0,-8.7053,8.4851,20.1137,1.5405,-1.5756,-0.539
124591.0,-7.6207,5.9951,19.3068,2.9522,-1.1126,0.124
124601.0,-7.094,6.2824,18.5718,3.7503,-0.8386,0.4363
124611.0,-6.6679,8.2097,19.3428,3.5503,-1.0041,0.5114
124621.0,-5.5737,11.1522,19.9078,2.6393,-1.6128,0.5273
124631.0,-5.703,13.3142,20.8056,1.5032,-2.3908,0.6758
124641.0,-6.0645,14.4538,19.9509,0.7221,-3.2539,1.0243
124651.0,-6.5386,13.5608,17.2837,0.3251,-4.1542,1.5208
124661.0,-6.268,10.8864,12.639,0.5263,-4.8454,2.0768
124671.0,-5.0877,8.2337,6.4596,1.342,-4.9832,2.577
124681.0,-3.9337,5.7293,1.7238,2.3668,-4.3963,2.9601
124691.0,-2.8611,3.6344,-0.2346,3.1868,-3.4704,3.1932
124701.0,-1.9944,1.7861,1.8172,3.6524,-2.5472,3.2656
124711.0,-1.7286,1.6185,4.4101,3.9408,-1.9598,3.2363
124721.0,-1.5275,1.4222,7.3239,3.8403,-1.8901,3.1905
124731.0,-1.0391,1.9273,7.1682,3.4401,-2.3142,3.1485
124741.0,-0.395,1.719,4.8243,2.5132,-2.9963,3.1006
124751.0,0.4645,0.3065,2.138,1.2425,-3.5119,3.0112
124761.0,0.8571,-1.2522,1.1157,0.0372,-3.7684,2.8457
124771.0,1.1851,-2.0111,-0.1293,-0.5459,-3.8211,2.6893
124781.0,1.3455,-2.8419,-0.4573,-0.4805,-3.6311,2.6153
124791.0,1.8771,-3.8307,-1.64,0.2421,-3.2666,2.6286
124801.0,3.0765,-5.3367,-2.5402,1.234,-2.6978,2.6462
124811.0,4.4221,-5.5545,-4.0582,2.1375,-2.0258,2.5632
124821.0,5.2289,-4.9344,-5.2625,2.4365,-1.4234,2.3626
124831.0,6.0142,-4.3838,-5.5809,2.1114,-0.9371,2.0917
124841.0,6.6367,-4.4963,-5.3247,1.6128,-0.4768,1.8172
124851.0,7.0054,-4.6639,-4.6783,1.3473,0.0835,1.5618
124861.0,6.347,-4.3503,-2.545,1.3915,0.7934,1.3388
124871.0,6.1866,-4.5849,0.5052,1.6719,1.3675,1.1717
124881.0,6.5745,-4.8626,2.0973,2.0768,1.607,0.9966
124891.0,7.118,-5.0254,2.32,2.2806,1.6825,0.754
124901.0,7.1467,-4.1659,2.6911,2.2322,1.7969,0.4257
124911.0,6.4212,-2.1261,3.3806,2.0321,1.8943,0.0931
124921.0,5.6479,-0.4621,4.8315,1.8486,1.93,-0.1261
124931.0,5.1356,1.7717,4.5969,1.9199,1.8581,-0.2086
124941.0,4.1108,3.6224,4.0055,2.0641,1.8241,-0.1447
124951.0,2.8323,4.1587,3.0454,2.2109,1.8257,0.0431
124961.0,1.9632,5.9161,0.0838,2.071,1.673,0.2139
124971.0,0.7542,9.0453,-6.8091,0.9392,1.1579,0.3427
124981.0,2.5498,9.4427,-15.0715,-1.5453,0.5316,0.481
124991.0,-0.5674,10.8649,-23.2956,-4.1792,0.5593,0.6673
125001.0,-5.2289,8.5425,-27.3274,-6.0879,1.2515,1.2313
125011.0,-4.4436,4.8411,-34.1485,-5.0024,3.6694,2.171
125021.0,-13.1178,-2.1213,-27.246,-2.6435,7.8455,2.9687
125031.0,-21.2126,-9.8976,-11.3892,0.2022,11.5069,3.3731
125041.0,-28.4862,-11.6789,-0.0479,3.4481,14.1217,3.1655
125051.0,-34.771,-12.0764,14.5089,5.3493,15.3653,2.4009
125061.0,-35.3217,-12.8712,22.4552,6.4572,15.4376,1.3255
125071.0,-31.6513,-16.3452,41.5059,5.8309,15.2152,-0.3102
125081.0,-35.9058,-11.1737,65.7256,4.7927,14.068,-2.2748
125091.0,-34.7973,-2.8204,78.4508,2.4722,9.0443,-4.0052
125101.0,-27.4208,7.3813,70.4159,-0.3299,2.3429,-5.0748
125111.0,-23.1878,16.7881,54.6644,-1.7879,-1.6543,-5.1892
125121.0,-19.5415,24.0785,39.557,-1.9199,-2.9452,-4.4384
125131.0,-16.7546,23.8175,31.4622,-1.9204,-3.173,-3.2081
125141.0,-14.3101,18.7083,25.776,-1.3643,-3.1256,-1.9076
125151.0,-12.5289,12.7252,21.3395,-0.191,-2.8383,-0.8689
125161.0,-11.1115,8.3294,15.5767,1.1552,-2.3695,-0.2065
125171.0,-10.0628,4.0869,14.9015,1.8422,-1.7608,0.0229
125181.0,-9.3925,3.0239,15.603,2.3652,-1.1834,-0.0686
125191.0,-9.153,4.5179,18.9812,2.4131,-0.9695,-0.315
125201.0,-9.517,9.6271,21.2246,2.0279,-1.3478,-0.5497
125211.0,-10.3477,13.3261,24.7106,1.1424,-2.2434,-0.5518
125221.0,-10.8505,15.4067,24.3466,0.5028,-3.5848,-0.2421
125231.0,-10.9966,15.5168,20.3651,0.0607,-5.0721,0.2714
125241.0,-10.0485,13.611,12.9407,-0.0591,-6.2709,0.8673
125251.0,-8.6,11.3389,5.1427,0.0788,-6.7445,1.3963
125261.0,-6.5338,9.2823,-0.7111,0.3251,-6.487,1.8235
125271.0,-5.6814,7.1874,-3.3686,0.5177,-5.7968,2.1412
125281.0,-4.1899,5.3965,-6.1172,0.588,-5.1402,2.3679
125291.0,-2.2338,1.9632,-5.8466,0.2916,-4.4474,2.4562
125301.0,-0.972,-0.2227,-5.284,0.0032,-3.7354,2.3376
125311.0,-0.4501,-2.1763,-1.9992,-0.4709,-3.2688,2.0476
125321.0,0.4836,-3.4931,-0.3184,-0.4959,-3.0208,1.7342
125331.0,1.2594,-4.0869,0.6704,-0.2522,-2.8495,1.4101
125341.0,1.9273,-2.8084,0.0311,0.1841,-2.7132,1.1036
125351.0,2.7174,-1.2594,-0.7614,0.6566,-2.419,0.9051
125361.0,2.9473,1.2857,-1.9561,0.9876,-2.0524,0.8035
125371.0,3.0933,2.3104,-2.2793,0.8902,-1.7267,0.82
125381.0,3.7876,0.9026,-2.0303,0.5135,-1.4287,0.8721
125391.0,4.1372,-0.5938,-0.9433,-0.033,-1.2068,0.7934
125401.0,4.5729,-2.2505,0.486,-0.4848,-0.994,0.6242
125411.0,4.7812,-3.9433,3.5458,-0.6316,-0.7295,0.3986
125421.0,5.0039,-3.5841,4.7357,-0.2373,-0.613,0.1612
125431.0,5.0949,-2.1668,4.379,0.3342,-0.5401,-0.016
125441.0,5.5043,-0.6057,2.2865,0.7503,-0.4864,-0.107
125451.0,6.1555,-0.2586,0.1413,0.8226,-0.2623,-0.1447
125461.0,6.0166,-0.6153,-0.7398,0.5358,0.1894,-0.223
125471.0,5.9328,-2.1356,0.0934,-0.0937,0.6295,-0.3783
125481.0,5.0781,-3.1053,2.0255,-0.8849,0.9365,-0.6524
125491.0,3.8403,-3.146,4.7214,-1.5096,1.0557,-0.9514
125501.0,3.4524,-2.4301,5.0996,-1.5479,0.986,-1.1393
125511.0,3.1364,-0.5986,3.2561,-1.1361,1.0248,-1.2137
125521.0,3.0191,1.1444,-0.261,-0.6497,1.2106,-1.1717
125531.0,2.9185,2.7246,-5.8754,-0.5513,1.4851,-1.077
125541.0,2.6552,3.5817,-11.5448,-1.2451,1.9358,-1.0057
125551.0,1.7286,4.0223,-16.113,-2.4844,2.6685,-0.9418
125561.0,-0.8643,4.5466,-19.508,-3.8387,3.7631,-0.8067
125571.0,-5.0494,3.96,-18.2055,-4.805,5.2637,-0.473
125581.0,-11.1378,3.4524,-14.0564,-4.2149,7.3447,0.1245
125591.0,-19.3092,1.743,-5.9113,-2.3115,9.5748,0.8524
125601.0,-23.1064,-5.9951,5.1332,0.762,11.6533,1.5176
125611.0,-25.1343,-10.6734,15.9957,4.3931,13.3438,1.4261
125621.0,-26.5158,-7.8003,27.9068,7.0372,13.8615,0.431
125631.0,-25.7832,0.3759,35.7861,7.8817,12.7372,-0.8939
125641.0,-25.1607,10.5058,42.5043,6.1087,10.498,-2.2168
125651.0,-25.7927,15.0907,53.5439,1.9592,7.5996,-3.2267
125661.0,-25.4216,13.5943,66.2188,-2.2934,3.7147,-3.745
125671.0,-25.6658,14.5256,63.3961,-3.91,-0.8599,-3.6349
125681.0,-22.0578,15.7395,42.6862,-3.613,-4.7864,-3.0054
125691.0,-17.0731,16.3476,21.2773,-3.2076,-6.3444,-2.2764
125701.0,-13.5488,14.9877,9.9455,-2.9644,-5.5904,-1.5437
125711.0,-12.6749,12.1099,8.7747,-2.4759,-3.9206,-0.8141
125721.0,-13.0771,8.655,12.1458,-1.5676,-2.6765,-0.1096
125731.0,-12.4762,3.7158,15.6605,-0.2075,-2.1306,0.5465
125741.0,-11.0397,-0.668,16.5894,1.35,-1.9773,0.9791
125751.0,-10.1538,-2.4014,17.0347,2.3168,-2.0444,1.0424
125761.0,-10.0652,-1.8483,17.255,2.3025,-2.5281,0.8248
125771.0,-10.2328,-0.3783,16.0723,1.358,-3.555,0.4715
125781.0,-9.5816,0.3831,13.2423,-0.0112,-4.747,0.1032
125791.0,-8.6167,0.5028,10.0652,-1.2249,-5.5824,-0.24
125801.0,-8.1475,1.1013,8.3151,-2.0151,-5.9719,-0.5507
125811.0,-8.0038,1.9561,6.9312,-2.2327,-6.1853,-0.7444
125821.0,-7.2927,2.9305,4.1875,-1.9864,-6.3444,-0.787
125831.0,-5.9568,4.0342,0.814,-1.5431,-6.2922,-0.7008
125841.0,-4.1156,4.2521,-1.6257,-1.0227,-5.8905,-0.5167
125851.0,-2.7078,4.4532,-4.0055,-0.5183,-5.2418,-0.281
125861.0,-1.4748,3.1987,-3.0502,-0.3565,-4.5708,-0.0729
125871.0,-0.0192,2.1476,-2.8371,0.0357,-3.9387,0.1054
125881.0,0.9768,0.3807,-1.8052,0.3283,-3.4188,0.2022
125891.0,1.9249,-0.5914,-1.4102,0.5545,-2.9969,0.1687
125901.0,2.5881,-0.8212,-1.1349,0.5076,-2.7547,0.0101
125911.0,3.2058,-0.7757,-0.9697,0.2804,-2.5935,-0.2155
125921.0,3.7445,-0.4405,-0.486,0.0894,-2.3876,-0.4422
125931.0,4.221,0.1006,0.2753,0.0724,-2.1306,-0.6252
125941.0,4.4317,1.2713,0.7135,0.24,-1.8645,-0.7471
125951.0,4.7094,2.5618,0.3112,0.4092,-1.6932,-0.7849
125961.0,5.454,3.2561,-1.2258,0.4911,-1.5309,-0.7418
125971.0,6.3494,3.2633,-2.727,0.415,-1.2212,-0.6822
125981.0,6.79,3.0071,-2.739,0.2618,-0.6843,-0.6518
125991.0,6.6487,2.5786,-0.9242,0.1729,-0.1022,-0.6359
126001.0,6.2417,2.0446,0.249,0.2794,0.2969,-0.613
126011.0,6.4356,0.6177,1.3288,0.4837,0.6306,-0.6125
126021.0,6.0047,0.3424,3.1867,0.8759,1.0813,-0.6923
126031.0,5.0877,1.5921,4.2353,1.2952,1.3814,-0.8152
126041.0,4.6424,3.0574,4.6831,1.3952,1.4053,-0.9232
126051.0,4.5538,5.3439,3.699,1.2553,1.3313,-0.9828
126061.0,4.5131,7.3167,2.5905,0.8817,1.3574,-0.936
126071.0,4.3239,8.6024,1.9752,0.4773,1.6064,-0.7519
126081.0,3.6679,8.8178,1.5826,0.0181,1.8475,-0.473
126091.0,3.0023,8.3486,-0.2035,-0.513,1.9938,-0.1666
126101.0,2.0734,6.9887,-1.7334,-1.1983,2.2274,0.1038
126111.0,0.4118,5.8754,-3.2154,-1.7198,2.5988,0.3411
126121.0,-1.2929,5.0087,-6.9552,-2.0492,3.0538,0.5789
126131.0,-2.4517,0.1724,-7.1802,-2.4541,3.9163,0.8109
126141.0,-3.7038,-5.4708,-4.8123,-2.1492,5.3424,0.8822
126151.0,-6.3614,-8.7412,1.1468,-1.4058,6.8105,0.622
126161.0,-8.8322,-8.8466,9.1147,-0.1128,7.962,0.1894
126171.0,-11.1618,-5.1068,14.88,1.6213,8.6021,-0.2703
126181.0,-13.3022,1.8172,18.0092,2.7234,8.5894,-0.7024
126191.0,-14.3652,8.9256,20.7577,2.5153,7.9897,-0.9434
126201.0,-14.6525,12.6055,24.519,1.3218,7.0606,-0.8604
126211.0,-14.516,9.0788,32.0584,-0.0452,6.0624,-0.514
126221.0,-12.7252,3.122,40.0957,-0.4539,4.8566,-0.2144
126231.0,-12.5169,1.1851,44.118,0.0825,3.2422,-0.1836
126241.0,-11.6382,2.9688,38.822,0.5454,0.9317,-0.307
126251.0,-9.7348,5.1451,29.1374,0.0915,-1.2627,-0.4842
126261.0,-8.0804,6.0071,21.0905,-0.6965,-2.2583,-0.6024
126271.0,-8.023,5.454,19.2949,-1.2191,-2.179,-0.6242
126281.0,-8.8202,4.9057,20.638,-1.1015,-1.9396,-0.5231
126291.0,-8.9376,4.2162,21.6843,-0.5672,-2.1407,-0.3209
126301.0,-7.9487,3.3543,20.2238,0.165,-2.6297,-0.0825
126311.0,-6.7109,2.3487,17.4561,0.828,-3.0016,0.1096
126321.0,-5.6982,0.8164,16.0459,1.2531,-3.1368,0.2059
126331.0,-5.4516,-0.3663,15.8089,1.5272,-3.2214,0.1681
126341.0,-5.8969,0.2442,15.2774,1.5804,-3.5497,0.0138
126351.0,-6.0956,1.98,13.0628,1.2824,-4.1755,-0.1639
126361.0,-5.7557,4.0558,9.2201,0.6774,-4.8204,-0.2921
126371.0,-5.1739,5.5641,5.0925,-0.1235,-5.1876,-0.3347
126381.0,-3.9528,5.5545,2.083,-0.9083,-5.2067,-0.2868
126391.0,-2.7102,4.1108,0.6536,-1.4106,-4.8773,-0.2112
126401.0,-1.7526,2.3056,0.34,-1.5554,-4.3521,-0.1745
126411.0,-0.4717,0.2729,1.6472,-1.4867,-3.8296,-0.2261
126421.0,0.2873,0.4836,2.66,-1.0717,-3.3193,-0.3602
126431.0,0.3448,1.8579,3.9816,-0.531,-2.9016,-0.447
126441.0,0.5698,3.6392,4.1563,0.0777,-2.6361,-0.4092
126451.0,0.9409,5.2744,3.3064,0.5284,-2.4855,-0.2682
126461.0,1.4868,6.4596,1.6496,0.7364,-2.3285,-0.0506
126471.0,2.2314,6.0956,-0.1987,0.6151,-2.112,0.1985
126481.0,3.2657,4.0845,-0.7566,0.1591,-1.7996,0.3661
126491.0,3.7781,2.6217,-0.0072,-0.3246,-1.3899,0.3863
126501.0,3.9361,1.2378,1.8914,-0.6944,-1.0078,0.3257
126511.0,4.3096,0.4046,3.6392,-0.8253,-0.7705,0.2272
126521.0,4.3718,0.8523,4.3048,-0.7088,-0.6204,0.1192
126531.0,4.2904,1.8148,4.4341,-0.455,-0.4518,0.0729
126541.0,4.446,2.4349,4.3455,-0.05,-0.2081,0.1235
126551.0,4.3862,2.9856,3.8978,0.4901,0.1256,0.2426
126561.0,4.3167,3.043,3.9504,1.0227,0.5369,0.398
126571.0,3.7397,2.9329,4.1899,1.4638,0.9328,0.5358
126581.0,3.6224,1.7957,3.7541,1.673,1.1637,0.6242
126591.0,4.0749,0.0359,3.1819,1.5963,1.3883,0.5795
126601.0,3.7852,-0.8188,2.8635,1.2212,1.6448,0.357
126611.0,3.6799,-1.7382,2.7078,0.5747,1.7576,0.0293
126621.0,3.4453,-1.4892,1.8603,-0.0963,1.8784,-0.3523
126631.0,2.5594,-0.4453,1.6616,-0.688,2.138,-0.6902
126641.0,1.415,0.996,0.9577,-0.9716,2.4796,-0.8748
126651.0,0.1724,2.9928,-1.1636,-1.061,2.8995,-0.9057
126661.0,-0.9409,3.6799,-3.5314,-1.2521,3.4422,-0.7923
126671.0,-2.6863,3.8211,-4.8626,-1.3473,4.3516,-0.588
126681.0,-5.5857,1.9345,-3.2489,-1.2819,5.65,-0.332
126691.0,-8.2001,-3.0957,3.8403,-0.9237,7.017,-0.1298
126701.0,-10.0868,-6.4667,12.3397,0.1788,8.0817,-0.191
126711.0,-11.8824,-4.81,21.4664,1.657,8.5452,-0.5502
126721.0,-13.1777,0.1844,27.3538,3.0336,8.1913,-0.9365
126731.0,-12.8497,7.3717,30.8996,3.4864,7.1117,-1.251
126741.0,-13.3836,14.9853,32.6952,2.8026,5.6893,-1.3462
126751.0,-13.6733,17.3053,35.2953,0.9365,3.8498,-1.1398
126761.0,-13.1298,14.8033,36.5523,-1.102,1.6889,-0.779
126771.0,-12.2966,11.5113,33.9306,-2.2599,-0.3501,-0.4076
126781.0,-11.3749,8.6119,28.7424,-2.3285,-1.7517,-0.0335
126791.0,-9.9551,5.3486,22.6228,-1.6352,-2.4424,0.3198
126801.0,-8.5449,3.8571,16.7522,-0.8237,-2.6558,0.4997
126811.0,-7.2903,3.2082,13.3716,-0.282,-2.5158,0.5396
126821.0,-6.4141,2.7749,12.2535,0.0708,-2.2242,0.5273
126831.0,-6.0956,2.8539,12.6893,0.2341,-2.0534,0.4789
126841.0,-5.928,3.3591,13.3118,0.2671,-2.1428,0.4401
126851.0,-5.94,3.7828,13.1681,0.1974,-2.4701,0.4369
126861.0,-5.6336,3.9049,11.327,-0.0112,-2.9532,0.4555
126871.0,-4.9728,3.6057,9.2249,-0.3805,-3.3784,0.4619
126881.0,-4.3048,2.9951,7.5968,-0.6891,-3.5582,0.4581
126891.0,-3.8307,1.6233,7.5369,-0.8131,-3.5215,0.4459
126901.0,-3.383,0.8595,7.592,-0.6662,-3.4784,0.4071
126911.0,-3.0239,0.5578,7.5489,-0.3539,-3.4603,0.3602
126921.0,-2.3894,1.6496,5.9831,-0.0894,-3.5284,0.2975
126931.0,-1.2713,2.5714,4.6424,-0.1634,-3.6077,0.2506
126941.0,-1.8387,3.1292,3.6871,-0.2921,-3.554,0.2565
126951.0,-0.4453,2.7892,1.5778,-0.4241,-3.5258,0.3235
126961.0,0.6369,1.4796,0.5531,-0.5034,-3.2666,0.3704
126971.0,1.7214,0.2011,-0.498,-0.3858,-2.8181,0.365
126981.0,2.4517,-0.9864,0.3184,-0.2176,-2.2455,0.2852
126991.0,2.4948,-0.7925,1.6352,0.1176,-1.6682,0.1548
127001.0,2.0853,0.0575,2.8299,0.3395,-1.3537,0.0309
127011.0,2.5498,0.3879,2.0925,0.3916,-1.3367,-0.0495
127021.0,3.3447,0.9074,0.1556,0.2389,-1.3255,-0.1485
127031.0,3.9409,1.4605,-1.4964,0.0718,-1.0392,-0.2299
127041.0,4.2665,1.8459,-2.5498,0.0426,-0.4917,-0.2613
127051.0,4.2617,2.241,-3.1244,0.0346,0.1447,-0.2607
127061.0,4.1922,2.1572,-3.158,-0.0314,0.7918,-0.2437
127071.0,3.45,2.7629,-3.3662,-0.0995,1.4463,-0.2352
127081.0,2.8132,2.3032,-2.8156,-0.2623,2.0896,-0.2022
127091.0,2.0063,1.233,-1.7262,-0.2857,2.8064,-0.1713
127101.0,0.6536,0.5938,-0.012,-0.1948,3.497,-0.1926
127111.0,-0.3424,-0.1556,1.8172,0.0708,4.1494,-0.2331
127121.0,-1.7478,0.2274,3.8834,0.4262,4.789,-0.3235
127131.0,-3.45,1.2139,6.438,0.6662,5.2578,-0.4326
127141.0,-4.8411,2.7869,8.6239,0.7785,5.501,-0.5146
127151.0,-6.3901,4.7812,10.3214,0.6577,5.5451,-0.547
127161.0,-7.5776,6.5434,11.6023,0.2517,5.4105,-0.4991
127171.0,-9.2105,7.4124,12.9861,-0.3379,5.2578,-0.3507
127181.0,-10.3286,5.4971,15.7515,-1.0286,5.0482,-0.141
127191.0,-10.1466,0.4429,20.4273,-1.4218,4.8013,0.0213
127201.0,-9.0525,-4.2904,26.1638,-1.019,4.5512,-0.0266
127211.0,-8.8633,-4.1611,30.5309,0.0149,4.134,-0.3437
127221.0,-9.8186,0.0431,32.1493,0.8285,3.1948,-0.7412
127231.0,-9.7899,4.7142,30.3537,0.7412,1.7075,-1.0286
127241.0,-9.5289,8.0493,27.6219,-0.1554,0.2655,-1.1621
127251.0,-9.3446,9.1674,25.6539,-1.3196,-0.8743,-1.1249
127261.0,-9.3278,7.5513,26.3506,-2.0838,-1.6634,-0.9371
127271.0,-9.4834,6.6248,24.9117,-2.0236,-2.3759,-0.6795
127281.0,-9.3709,4.7429,23.6858,-1.6762,-3.1118,-0.4076
127291.0,-8.5593,4.2353,18.9238,-0.9509,-3.7721,-0.1522
127301.0,-7.5082,3.8786,14.6956,-0.4624,-4.1409,0.0351
127311.0,-6.6822,3.8858,10.9702,-0.1346,-4.2079,0.1815
127321.0,-5.9209,3.3734,8.4659,-0.099,-4.1829,0.2927
127331.0,-4.8602,1.9537,7.5681,-0.249,-4.1281,0.3427
127341.0,-4.5681,1.4389,7.3047,-0.2719,-4.0398,0.3177
127351.0,-4.5011,1.561,6.5434,-0.2469,-4.0914,0.2767
127361.0,-3.7445,1.4413,4.5226,-0.3049,-4.2862,0.2464
127371.0,-3.1603,1.3575,2.0973,-0.4778,-4.4165,0.1809
127381.0,-1.9561,1.1013,-0.8308,-0.505,-4.3133,0.1373
127391.0,-0.4094,0.1221,-2.5762,-0.3916,-3.8812,0.1091
127401.0,0.7685,0.2514,-3.5219,-0.0995,-3.182,0.0511
127411.0,1.2953,0.7853,-2.6839,0.2086,-2.4099,0.0208
127421.0,1.6951,1.6448,-2.0518,0.5044,-1.815,0.0436
127431.0,2.0949,1.8627,-1.6688,0.6359,-1.4165,0.1144
127441.0,2.9377,1.1588,-2.3798,0.7136,-1.0435,0.1995
127451.0,3.5674,-0.1891,-2.3296,0.6662,-0.5156,0.2155
127461.0,3.8355,-1.3408,-0.8691,0.5172,0.0809,0.1192
127471.0,3.5506,-1.4509,1.6568,0.3262,0.5529,-0.0713
127481.0,2.8276,-0.6153,3.9145,0.1809,0.7471,-0.2613
127491.0,2.6959,0.3687,4.2473,0.2277,0.7295,-0.3555
127501.0,2.7629,1.47,3.0023,0.4182,0.812,-0.3693
127511.0,2.6887,2.047,1.8244,0.5816,1.0972,-0.3267
127521.0,2.6552,1.6257,1.889,0.6976,1.5548,-0.2634
127531.0,2.0877,1.4892,2.8084,0.8519,2.0843,-0.2341
127541.0,1.3743,1.3336,4.3,0.9956,2.5142,-0.2214
127551.0,0.8667,0.7183,5.5857,1.1744,2.8303,-0.2155
127561.0,0.2921,0.3304,6.7732,1.3798,3.1107,-0.2623
127571.0,-0.5602,0.7973,7.1036,1.5282,3.3034,-0.3714
127581.0,-1.5299,1.7693,6.8187,1.3835,3.3273,-0.5231
127591.0,-2.3439,3.146,4.877,0.9472,3.248,-0.68
127601.0,-3.3471,4.0773,2.7988,0.2352,3.3353,-0.7992
127611.0,-4.6136,4.5825,1.4222,-0.5263,3.7572,-0.861
127621.0,-6.6224,4.7573,2.2936,-1.2531,4.4213,-0.8673
127631.0,-8.418,2.6264,6.9312,-1.5825,5.3233,-0.7657
127641.0,-11.2695,1.1851,13.6158,-1.2866,6.181,-0.6859
127651.0,-11.7819,-0.814,21.2677,-0.8019,6.3784,-0.6737
127661.0,-11.7819,-1.9058,28.175,-0.1437,5.9831,-0.7923
127671.0,-11.7986,0.6919,30.3681,0.3496,4.9401,-1.077
127681.0,-11.6047,3.8427,31.3521,-0.0053,3.4928,-1.3814
127691.0,-11.3294,7.0485,30.2627,-0.8046,2.0609,-1.566
127701.0,-11.4706,8.6766,30.7751,-1.9316,0.7641,-1.6033
127711.0,-11.4515,9.4906,30.6889,-2.6207,-0.4337,-1.433
127721.0,-11.4634,9.4116,29.499,-2.6765,-1.5218,-1.0802
127731.0,-10.8146,8.679,26.5852,-2.1221,-2.4163,-0.6024
127741.0,-10.1969,7.7261,22.8862,-1.2228,-2.9639,-0.091
127751.0,-9.7755,6.2991,20.1831,-0.3108,-3.2219,0.3879
127761.0,-9.5217,5.4013,17.1999,0.3358,-3.4954,0.7636
127771.0,-9.0285,3.9433,14.8393,0.4725,-3.8988,1.0217
127781.0,-8.442,2.4972,12.0572,0.3469,-4.3266,1.1589
127791.0,-7.7812,1.336,9.4068,0.0229,-4.7315,1.1643
127801.0,-6.5817,0.6871,6.7277,-0.3129,-5.0412,1.0844
127811.0,-6.5362,0.1963,5.3223,-0.4629,-5.1163,0.9871
127821.0,-6.462,0.6919,2.4708,-0.3629,-5.1535,0.9269
127831.0,-4.4173,-0.2945,-0.7925,-0.2522,-5.1556,0.9397
127841.0,-2.3774,-2.1428,-4.5155,-0.049,-4.8305,0.9275
127851.0,-0.4621,-3.2034,-7.1635,0.0968,-4.1489,0.7833
127861.0,1.3479,-4.2353,-6.6966,0.2602,-3.1235,0.5688
127871.0,1.7573,-3.4285,-4.3527,0.6029,-2.0226,0.3225
127881.0,1.7813,-2.2505,-0.2538,0.8716,-1.2127,0.1266
127891.0,1.64,-0.5219,3.1532,1.1643,-0.7455,0.016
127901.0,1.0606,1.7358,5.6503,1.2281,-0.6971,-0.0138
127911.0,0.7566,2.9137,5.193,1.1632,-1.0131,0.1027
127921.0,1.6783,1.8316,1.3192,0.853,-1.4287,0.2623
127931.0,3.2489,-0.0311,-3.1532,0.2155,-1.5304,0.2623
127941.0,4.1396,-0.5411,-7.0485,-0.4736,-1.0653,0.0968
127951.0,4.2449,-1.0702,-6.9815,-1.2116,-0.2464,-0.1256
127961.0,3.4788,0.2897,-6.8714,-1.467,0.6337,-0.298
127971.0,2.4205,1.7334,-7.6734,-1.5644,1.4011,-0.3347
127981.0,1.4509,1.3479,-8.0254,-1.5655,2.22,-0.2331
127991.0,0.1891,0.3831,-7.6255,-1.193,3.3912,-0.1006
128001.0,-2.3152,-0.5962,-3.4788,-0.655,4.8177,-0.0351
128011.0,-4.4484,-1.8627,4.5753,0.0314,6.0826,-0.0447
128021.0,-6.8594,-0.3615,12.6701,0.9216,6.8078,-0.1501
128031.0,-8.5808,2.8491,17.5447,1.3744,6.5822,-0.2804
128041.0,-9.7612,5.4923,19.3236,1.0461,5.7133,-0.3347
128051.0,-9.0261,5.4109,20.8583,0.3959,4.9508,-0.2586
128061.0,-9.5577,2.4972,26.5756,0.099,4.8193,-0.1229
128071.0,-9.8617,0.735,34.8548,0.497,4.639,-0.0841
128081.0,-11.2863,2.15,40.8858,1.1244,3.6295,-0.1463
128091.0,-11.1713,5.1882,41.1731,1.4708,1.7581,-0.1575
128101.0,-10.4842,7.683,36.8779,1.3776,-0.2448,-0.0372
128111.0,-9.4116,8.1738,29.9132,0.9684,-1.8071,0.1825
128121.0,-8.3606,6.845,23.9277,0.2128,-2.8463,0.3634
128131.0,-7.5537,4.4149,20.1448,-0.53,-3.4492,0.472
128141.0,-6.9695,2.4205,17.1185,-0.9488,-3.8264,0.5071
128151.0,-6.5769,1.3599,14.0276,-1.1568,-4.1904,0.4826
128161.0,-5.6407,0.9433,9.9934,-1.226,-4.5554,0.4581
128171.0,-4.2018,0.8452,4.889,-1.2047,-4.7321,0.4518
128181.0,-2.5019,0.2059,0.103,-1.268,-4.6485,0.4369
128191.0,-0.4262,-1.0558,-4.4269,-1.4904,-4.4219,0.356
128201.0,0.0694,-2.3727,-9.0908,-1.8273,-4.0888,0.1634
128211.0,1.7382,-2.5139,-15.706,-2.2168,-3.6567,-0.1139
128221.0,3.1388,-2.308,-21.0378,-2.7324,-2.659,-0.4166
128231.0,3.0981,-2.6121,-20.9301,-2.9085,-0.9285,-0.6545
128241.0,2.0399,-2.0782,-17.0491,-2.3072,0.9972,-0.7694
128251.0,0.1125,-0.4525,-11.2911,-0.9573,2.8692,-0.7269
128261.0,-2.0901,1.2258,-5.679,0.7024,4.457,-0.5332
128271.0,-3.632,2.2098,0.8068,1.9747,5.7234,-0.3257
128281.0,-6.0334,3.7589,9.3326,2.4977,6.6072,-0.2219
128291.0,-9.2153,4.5179,19.8407,2.1439,6.6174,-0.1793
128301.0,-8.5186,4.3551,26.7935,1.417,5.5664,-0.1352
128311.0,-8.4156,2.9473,31.8812,0.7189,4.1978,-0.1107
128321.0,-7.9128,0.158,34.0048,0.481,2.8064,-0.1006
128331.0,-7.5417,-1.1851,33.8325,0.5784,1.5314,-0.2128
128341.0,-7.8697,-1.9824,35.2762,0.928,0.5976,-0.3852
128351.0,-8.8346,1.1492,33.131,1.5798,-0.3741,-0.5428
128361.0,-8.9208,3.948,30.1598,1.7107,-1.5607,-0.5912
128371.0,-8.1714,6.2728,25.1822,1.5868,-2.6042,-0.4922
128381.0,-7.6495,7.3406,20.6548,1.2473,-3.3012,-0.2852
128391.0,-6.8953,7.3646,14.0037,0.6758,-3.8929,-0.0303
128401.0,-4.9057,5.6743,7.1946,-0.6439,-4.5049,0.1229
128411.0,-2.8898,3.5386,0.893,-2.3897,-4.8209,0.0937
128421.0,-1.233,1.075,-3.8618,-4.1526,-4.8374,-0.0825
128431.0,1.1396,-2.0087,-7.0437,-5.3467,-4.697,-0.3155
128441.0,1.7669,-3.2465,-10.9559,-4.9933,-3.9424,-0.4869
128451.0,2.8443,-1.9345,-19.1512,-3.4513,-2.7287,-0.5076
128461.0,3.6488,-0.9002,-24.1527,-1.757,-0.7402,-0.4342
128471.0,1.3767,1.1732,-25.5413,-0.3395,1.8619,-0.3352
128481.0,-1.6448,1.3719,-17.7339,0.4081,4.408,-0.2304
128491.0,-5.5785,1.7095,-8.8657,1.044,6.2364,-0.1442
128501.0,-7.9487,0.6943,1.8938,1.1664,7.0909,-0.1256
128511.0,-9.9335,0.9266,10.319,1.3574,7.4485,-0.1761
128521.0,-12.6318,0.9888,19.5175,1.1616,7.2016,-0.2937
128531.0,-11.0588,0.4429,27.1407,0.9333,6.4269,-0.3986
128541.0,-11.0109,-0.6129,36.2075,1.0105,5.6143,-0.5034
128551.0,-12.2368,1.0415,42.0972,1.5123,4.2266,-0.6385
128561.0,-12.2823,5.6551,42.0565,1.889,2.2317,-0.68
128571.0,-11.2743,9.8354,37.0551,1.9028,0.2692,-0.4752
128581.0,-9.742,11.5592,30.9211,1.3744,-1.2207,-0.0968
128591.0,-8.6215,10.5153,26.1136,0.3757,-2.2822,0.2948
128601.0,-7.4412,7.8985,22.302,-0.7114,-3.2145,0.6157
128611.0,-6.4236,5.1978,15.4163,-1.7107,-4.193,0.8093
128621.0,-4.7764,1.889,6.7804,-2.9889,-5.1876,0.8014
128631.0,-1.8723,-0.3759,-3.4931,-4.1255,-5.7037,0.6055
128641.0,0.1939,-1.6831,-11.9303,-4.8193,-5.2562,0.3198
128651.0,-0.1365,0.5674,-21.7154,-4.4862,-3.8786,0.1548
128661.0,2.2386,1.6616,-26.1471,-3.6583,-1.5586,0.2831
128671.0,-0.8045,4.7621,-26.0537,-2.1231,2.0146,0.6412
128681.0,-6.7828,4.1611,-14.7291,-1.0573,5.1663,1.1653
128691.0,-12.0787,1.5562,-4.1324,0.1761,7.3825,1.7624
128701.0,-15.1864,-7.3789,10.7093,0.986,8.733,2.1939
128711.0,-12.6629,-18.3085,25.9915,1.8762,9.2949,2.055
128721.0,-12.5408,-23.1447,42.454,2.3594,8.683,0.9743
128731.0,-13.5751,-18.567,50.0723,1.996,6.1651,-0.6763
128741.0,-14.9255,-11.6286,49.955,0.3198,2.5946,-2.2311
128751.0,-15.5503,-4.6232,44.1491,-1.69,-0.7178,-3.3401
128761.0,-17.0395,2.1021,38.0534,-3.0469,-2.8356,-3.8589
128771.0,-17.4585,7.8817,31.8477,-3.2124,-3.9722,-3.6801
128781.0,-16.2279,10.6638,26.4799,-2.5094,-4.4224,-2.9112
128791.0,-15.038,10.0868,23.2621,-1.2627,-4.3165,-1.8315
128801.0,-13.9103,7.2592,20.6739,0.0277,-4.1946,-0.7668
128811.0,-12.8593,3.0861,18.931,0.8487,-4.3325,0.0399
128821.0,-11.3916,-1.482,16.9916,1.2616,-4.6826,0.4927
128831.0,-10.4196,-5.2122,16.8001,1.4255,-4.9667,0.5763
128841.0,-11.0133,-5.8993,17.4442,1.5389,-5.2615,0.3847
128851.0,-12.3493,-3.5243,17.3029,1.3675,-5.9788,0.1
128861.0,-12.5767,-0.3184,14.0659,0.8759,-7.1447,-0.0841
128871.0,-12.3613,2.0446,8.9232,0.2384,-8.2573,-0.0777
128881.0,-10.2065,2.4445,3.1077,-0.2144,-8.964,0.1086
128891.0,-14.3796,3.8978,-6.0621,-0.5108,-9.4253,0.3304
128901.0,-6.1723,3.2537,-19.8719,-1.7576,-10.3805,0.5055
128911.0,-7.4555,-0.5602,-32.7024,-2.916,-10.0293,0.4454
128921.0,1.6041,-1.6879,-49.5839,-2.5669,-8.3786,0.2528
128931.0,7.2137,-1.166,-54.1736,-1.7443,-4.7699,-0.0064
128941.0,6.2728,2.6983,-51.5112,-0.4097,0.0468,-0.1405
128951.0,3.0574,3.4907,-40.6679,0.5624,4.3298,0.0027
128961.0,-5.2026,2.9042,-24.1168,1.524,7.672,0.2501
128971.0,-11.3365,4.7836,-11.8944,2.4546,9.4822,0.5076
128981.0,-13.2639,2.7677,0.158,2.3025,10.4651,0.6832
128991.0,-12.6103,-4.9392,14.9087,1.2185,10.8035,0.6369
129001.0,-11.1642,-14.6046,36.6265,-0.7913,9.8579,0.1373
129011.0,-11.8824,-14.0588,54.3101,-1.0009,8.3063,-0.746
129021.0,-13.5943,-8.3342,61.5908,0.4103,5.361,-1.3393
129031.0,-12.6246,-0.17,56.5032,1.1169,1.6389,-1.5793
129041.0,-11.0588,7.0366,46.7851,0.4842,-1.4442,-1.5245
129051.0,-10.5632,10.003,38.6209,-0.4496,-3.2097,-1.0445
129061.0,-10.75,6.0837,34.0192,-0.9009,-4.1127,-0.2597
129071.0,-10.7404,1.1851,28.7568,-0.4528,-4.8412,0.4603
129081.0,-10.2352,-2.2122,20.9995,0.4576,-5.4222,0.9392
129091.0,-8.3438,-4.1515,12.0021,1.0882,-5.684,1.1281
129101.0,-5.2313,-4.2066,4.695,1.0701,-5.4451,1.0286
129111.0,-1.8316,-1.9441,1.1851,0.3751,-4.7848,0.7513
129121.0,1.4868,0.6728,0.7135,-0.8594,-4.2926,0.5103
129131.0,3.6464,1.3527,0.2203,-2.3519,-4.3458,0.4145
129141.0,2.2338,-0.2634,-3.1627,-3.7844,-5.0561,0.39
129151.0,3.1532,-2.7581,-12.402,-4.5176,-6.0671,0.3576
129161.0,3.5051,-2.8802,-25.4025,-3.695,-5.7931,0.3155
129171.0,5.4923,-1.4293,-39.5522,-1.6511,-3.6716,0.3549
129181.0,6.11,-1.4054,-45.1642,-0.1458,-0.332,0.3219
129191.0,3.1747,0.1365,-40.802,0.547,3.4891,0.1421
129201.0,-4.0438,0.917,-25.5557,0.7556,7.1638,0.0303
129211.0,-9.7516,-0.656,-6.9743,1.0999,9.6717,0.0463
129221.0,-16.4984,-1.4389,18.0355,1.6384,11.533,0.0314
129231.0,-14.7363,0.1532,41.5179,2.2785,11.8661,-0.0037
129241.0,-22.8455,-0.8045,67.9786,1.5038,9.959,-0.1735
129251.0,-17.7291,-0.0934,77.0526,0.6375,5.0487,-0.3491
129261.0,-18.1002,1.336,72.6161,0.0303,0.0,-0.4539
129271.0,-15.6078,3.067,54.2861,-0.4592,-4.6054,-0.3805
129281.0,-13.5416,4.7118,36.4589,-0.8354,-7.1766,-0.1761
129291.0,-12.0668,5.4899,21.7346,-0.3821,-7.6656,0.3789
129301.0,-11.2575,3.462,12.864,0.0165,-7.4054,1.0951
129311.0,-8.9687,-2.1524,5.3271,0.2873,-7.2734,1.7677
129321.0,-4.2186,-8.7293,-1.7813,0.4629,-7.1016,2.0859
129331.0,2.7007,-11.3892,-10.9535,0.5146,-6.6642,1.9055
129341.0,5.9951,-11.3222,-16.9916,-0.2038,-5.8532,1.3399
129351.0,6.0262,-8.442,-23.6403,-1.4596,-5.1982,0.6465
129361.0,8.0302,-5.6551,-28.5461,-2.8287,-4.5666,0.0096
129371.0,8.169,0.0622,-34.9122,-3.0006,-3.0139,-0.3528
129381.0,7.1778,3.7517,-36.186,-2.5834,-0.729,-0.2831
129391.0,4.8674,5.1308,-33.6553,-1.6964,2.0422,0.1543
129401.0,0.3112,0.2921,-23.0825,-0.9041,4.8944,0.7226
129411.0,-3.8954,-7.2808,-8.4659,0.3688,7.2474,1.0695
129421.0,-7.6758,-12.7084,5.7102,1.7773,8.8905,0.9136
129431.0,-9.493,-15.8257,23.5039,2.5371,9.6249,0.2171
129441.0,-10.6757,-13.9534,41.9751,2.8782,9.2907,-0.8391
129451.0,-15.8305,-6.4452,60.1352,2.3264,7.4618,-1.8917
129461.0,-17.1161,4.9464,66.3194,1.0291,3.6338,-2.4871
129471.0,-15.8017,10.7476,66.3697,-1.1462,-0.9307,-2.4115
129481.0,-16.8552,12.0189,57.1903,-1.7336,-4.5948,-1.5367
129491.0,-15.7778,7.1778,41.8219,-1.0084,-7.2314,-0.2379
129501.0,-15.0547,0.5028,25.9484,0.2389,-8.6559,0.8711
129511.0,-11.8944,-6.0525,10.3214,1.6187,-8.9778,1.5995
129521.0,-8.6191,-9.9096,0.2562,2.2785,-8.3302,1.7655
129531.0,-5.3726,-10.3765,-7.3861,2.0848,-7.4416,1.5096
129541.0,-0.6871,-9.9407,-10.7428,0.8195,-6.8807,0.9754
129551.0,2.0303,-4.7836,-14.4777,-0.2927,-6.0693,0.4432
129561.0,2.4229,-2.2362,-16.2734,-1.6001,-5.5074,0.1671
129571.0,6.5697,-0.6632,-23.8846,-2.7239,-5.3834,0.1
129581.0,9.3422,-3.8188,-26.1614,-3.3592,-4.5421,0.1261
129591.0,10.331,-4.0055,-33.8756,-2.1859,-2.9341,0.1804
129601.0,10.5991,-5.2505,-35.9513,-1.0392,-0.6859,0.1761
129611.0,9.244,-5.7892,-34.996,-0.1532,1.7671,0.0601
129621.0,6.1746,-5.2361,-26.8366,0.2692,4.2963,-0.1692
129631.0,1.2163,-2.5714,-15.4618,0.6545,6.3657,-0.3959
129641.0,-1.8818,-0.4022,-5.5641,0.522,7.2708,-0.4874
129651.0,-3.7493,-2.988,7.6064,0.3911,8.0711,-0.3406
129661.0,-6.1196,-7.1108,23.8151,0.9998,9.0491,-0.1985
129671.0,-9.4571,-13.2687,47.331,1.4857,9.1475,-0.315
129681.0,-8.078,-15.8065,65.8382,2.3498,7.3932,-0.7466
129691.0,-10.7955,-11.7531,73.7917,2.7952,3.6961,-1.4335
129701.0,-11.1019,-3.9337,64.8541,2.6515,-0.8546,-1.9417
129711.0,-9.9503,3.735,49.9622,1.7373,-4.4979,-2.1386
129721.0,-8.2408,9.8641,33.5404,0.9658,-6.4008,-1.8714
129731.0,-7.1204,10.2855,23.9827,0.2948,-6.9121,-1.2228
129741.0,-5.2481,8.4731,16.9605,0.3421,-6.8196,-0.4033
129751.0,-3.1747,6.5218,10.568,0.7593,-6.6147,0.3954
129761.0,-1.0032,4.7812,1.6065,0.6635,-6.579,1.0302
129771.0,2.5833,-0.7302,-3.7828,-0.647,-6.7397,1.3085
129781.0,1.7526,-4.2976,-12.7683,-1.8922,-7.0393,1.0844
129791.0,6.1627,-3.6919,-30.7655,-3.1267,-7.4176,0.5188
129801.0,10.2663,0.2251,-45.0685,-3.729,-6.0363,-0.0835
129811.0,10.6087,4.8626,-46.7061,-3.1874,-2.5334,-0.2746
129821.0,5.3223,12.1171,-42.181,-2.0321,2.071,-0.0192
129831.0,-0.17,10.398,-24.7058,-1.6336,5.1663,0.6848
129841.0,-7.4172,5.7581,-8.7556,-0.1506,7.4501,1.4942
129851.0,-9.426,-2.2697,2.5019,1.1111,8.443,1.9901
129861.0,-7.604,-15.7155,22.9508,1.3798,9.0363,1.8225
129871.0,-7.6351,-17.4849,41.2138,2.75,9.3929,0.7779
129881.0,-12.5935,-8.1666,61.8781,2.742,7.7832,-0.7125
129891.0,-10.0796,7.5561,62.2971,1.6762,2.7111,-1.5155
129901.0,-10.1418,18.2031,57.1089,-0.3789,-1.74,-1.3234
129911.0,-11.382,17.9469,48.4227,-1.8762,-5.1189,-0.174
129921.0,-11.9519,11.2719,32.1086,-2.0449,-7.7369,1.3351
129931.0,-10.7117,-0.2418,15.0907,-1.7416,-9.4524,2.5839
129941.0,-6.4787,-12.7755,-1.0989,-0.5688,-9.6504,3.272
129951.0,1.1181,-23.1615,-12.1386,0.8844,-8.4872,3.1528
129961.0,6.6415,-23.6715,-24.7321,2.0492,-6.7514,2.3035
129971.0,9.5193,-20.9541,-23.8654,1.5186,-4.6751,1.168
129981.0,9.9072,-13.5201,-21.5526,0.8636,-2.933,0.1479
129991.0,8.2408,-6.0645,-19.7809,-0.3209,-2.121,-0.5268
130001.0,7.762,-1.4269,-21.9022,-2.163,-2.3668,-0.8524
130011.0,7.6255,2.5211,-30.6578,-3.91,-2.3961,-0.8945
130021.0,7.9607,0.3112,-31.218,-5.1269,-1.4138,-0.6657
130031.0,5.8754,-0.644,-35.1062,-4.0483,0.5821,-0.2661
130041.0,4.4484,-5.3008,-31.9602,-2.4892,3.0112,0.0921
130051.0,0.182,-8.272,-22.946,-0.1825,6.0586,0.1916
130061.0,-3.8307,-8.9687,-6.4596,1.6261,8.2573,-0.0639
130071.0,-6.6152,-5.3151,5.5929,2.3865,8.8086,-0.5523
130081.0,-8.157,-2.1524,20.1975,1.2031,7.8774,-1.0983
130091.0,-7.9464,1.8842,28.2707,-0.4927,5.6739,-1.475
130101.0,-7.118,4.2234,31.9267,-2.0838,2.8633,-1.5245
130111.0,-5.3486,8.2337,25.7137,-2.336,0.2421,-1.1579
130121.0,-1.0822,10.252,16.8887,-1.4362,-1.2542,-0.3826
130131.0,1.4796,9.6941,8.8921,0.4635,-0.9972,0.7045
130141.0,3.0502,3.7637,10.817,2.1614,0.3225,1.7996
130151.0,0.644,-1.9585,19.2709,3.6902,1.516,2.5653
130161.0,-1.4317,-5.4708,25.1726,4.4666,1.1142,2.9043
130171.0,-1.5323,-8.4515,26.2764,4.4086,-0.4065,2.8484
130181.0,-0.2394,-8.2815,18.7753,3.8786,-2.2604,2.4451
130191.0,2.7174,-7.3933,5.1811,2.1162,-4.2053,1.7586
130201.0,5.9951,-6.6391,-8.8418,-0.4422,-5.4222,0.8583
130211.0,9.8521,-3.6152,-25.2852,-2.9091,-5.3977,-0.009
130221.0,11.5329,-2.8611,-31.3138,-5.0338,-3.7104,-0.6295
130231.0,6.8187,2.0853,-28.7639,-5.5526,-0.6263,-0.8759
130241.0,3.9768,2.3176,-15.5025,-4.3655,2.0321,-0.547
130251.0,2.6815,1.6544,-9.821,-0.3826,3.885,0.2203
130261.0,0.1053,2.4612,-9.1602,3.8658,5.7138,0.8418
130271.0,-1.1085,1.8435,-5.5115,6.405,6.9457,1.127
130281.0,-1.3791,2.138,-5.4348,7.5768,7.655,1.0531
130291.0,-3.2729,4.3335,-4.0582,6.6211,8.0136,0.613
130301.0,-3.5817,3.5865,2.1691,4.1047,8.2781,0.108
130311.0,-7.9104,1.5179,17.7027,1.3643,8.7362,-0.3145
130321.0,-8.4491,1.4724,29.2188,-0.8205,7.7704,-0.6024
130331.0,-8.509,-0.4645,41.4843,-2.3381,6.123,-0.5752
130341.0,-9.9096,-0.8452,47.8218,-1.724,4.1617,-0.2043
130351.0,-7.8865,-0.3017,41.7932,0.5124,1.9752,0.4097
130361.0,-3.8475,-2.7557,30.0185,2.7005,0.39,0.9711
130371.0,-0.2131,-4.9297,19.9174,4.3149,0.1607,1.152
130381.0,0.6009,-4.786,14.9398,5.0897,0.8668,0.9248
130391.0,-0.3089,-1.6017,15.2582,4.8843,1.5389,0.4683
130401.0,-1.8316,1.6281,17.4274,4.0728,1.6746,0.0894
130411.0,-2.1069,3.8379,19.4577,3.0426,1.2994,-0.1187
130421.0,-2.6025,4.9368,20.65,2.1487,0.7029,-0.1463
130431.0,-2.138,4.2066,19.654,1.6346,-0.0649,-0.0032
130441.0,-0.486,1.9154,15.6892,1.5543,-0.6907,0.1815
130451.0,2.5139,-0.3831,11.3198,1.6565,-0.8093,0.2208
130461.0,3.4644,-0.1628,9.6055,1.8416,-0.2251,0.0766
130471.0,2.5498,1.2139,10.9535,1.9039,0.4746,-0.0952
130481.0,1.5993,3.0263,12.9454,1.7682,0.7609,-0.1937
130491.0,0.7685,4.7118,14.7555,1.4479,0.6811,-0.1905
130501.0,0.237,5.4827,15.4881,1.1073,0.373,-0.0474
130511.0,0.1796,3.9959,15.5623,0.8806,-0.0271,0.1884
130521.0,0.1796,3.9959,15.5623,0.8806,-0.0271,0.1884
130531.0,1.0534,2.0399,13.1897,0.9339,-0.339,0.3618
130541.0,2.2984,-0.3759,10.568,0.9195,-0.4816,0.3672
130551.0,3.3567,-2.0423,8.0948,0.9966,-0.2277,0.1868
130561.0,3.1484,-2.3152,7.3287,0.9344,0.2788,-0.1751
130571.0,2.296,-0.9361,8.3893,0.7098,0.7801,-0.6008
130581.0,0.9936,1.2713,10.0078,0.4081,1.085,-0.9456
130591.0,-0.0599,3.735,10.8026,-0.0144,1.0844,-1.1499
130601.0,-0.7422,5.3558,11.3174,-0.4629,0.9993,-1.1706
130611.0,-0.3448,5.3606,11.4156,-0.7806,0.9168,-1.0355
130621.0,0.0862,5.0925,11.2575,-0.7976,0.9913,-0.8551
130631.0,0.0934,5.0757,11.1905,-0.5736,1.243,-0.6646
130641.0,0.079,3.5243,13.4195,-0.2379,1.6245,-0.4523
130651.0,-0.3615,2.1668,16.0795,0.3677,1.9103,-0.2964
130661.0,-0.9242,2.1548,17.1856,0.9227,1.7703,-0.2501
130671.0,-1.1468,2.4876,16.5559,1.2813,1.3787,-0.2405
130681.0,-1.1636,2.715,14.2024,1.4697,0.9982,-0.249
130691.0,-0.9122,2.9592,11.0181,1.3899,0.7487,-0.3012
130701.0,-0.7398,3.1292,8.2504,1.0765,0.7306,-0.3895
130711.0,-0.8428,2.9425,6.7445,0.6391,0.9466,-0.4943
130721.0,-0.8212,2.6432,6.2752,0.1942,1.2888,-0.613
130731.0,-1.6759,2.5618,7.6638,-0.2395,1.7475,-0.7535
130741.0,-2.4086,3.1771,10.4267,-0.629,2.1018,-0.8865
130751.0,-3.6344,4.3574,13.7786,-0.969,2.1987,-0.9647
130761.0,-4.7238,5.3558,16.5344,-1.1313,1.9874,-0.9237
130771.0,-4.8004,5.7557,17.4489,-1.1297,1.4862,-0.7694
130781.0,-4.4748,6.1651,15.9214,-0.9381,0.9887,-0.5566
