time_ms,ax,ay,az,gx,gy,gz
1230551.0,-0.0622,0.3496,9.5098,0.2852,-0.8828,1.1414
1230561.0,0.2753,-0.2346,8.4252,0.1304,-0.7944,1.0286
1230571.0,0.6847,-0.1604,7.9703,-0.2395,-0.7231,0.8195
1230581.0,1.1205,0.2945,7.7309,-0.704,-0.7178,0.6024
1230591.0,1.6065,1.0151,7.3287,-1.1611,-0.7247,0.4459
1230601.0,1.7214,1.5945,7.2209,-1.5633,-0.6747,0.3884
1230611.0,1.3958,1.9561,7.4915,-1.7932,-0.5454,0.448
1230621.0,0.8523,2.1428,8.5305,-1.7501,-0.3427,0.6194
1230631.0,0.1293,1.9249,10.5393,-1.3026,-0.0585,0.9136
1230641.0,-0.1628,1.0175,11.734,-0.4848,0.1623,1.3143
1230651.0,0.2251,-0.7135,11.6406,0.2203,0.1139,1.6676
1230661.0,1.2953,-2.4301,9.7683,0.5752,-0.0974,1.8358
1230671.0,2.2745,-3.9289,7.9152,0.5247,-0.1447,1.7725
1230681.0,2.4325,-4.616,7.0725,0.157,-0.009,1.5123
1230691.0,2.1763,-4.7238,7.6734,-0.3581,0.1341,1.151
1230701.0,1.7789,-4.3934,8.7867,-0.7093,0.2293,0.8104
1230711.0,1.5921,-3.9911,9.4834,-0.7843,0.2373,0.5545
1230721.0,1.1684,-3.4333,9.3565,-0.6556,0.2155,0.3746
1230731.0,0.7254,-2.9018,8.4803,-0.4033,0.306,0.2746
1230741.0,0.5626,-2.5977,7.75,-0.2634,0.497,0.207
1230751.0,0.5626,-2.6049,8.4587,-0.3278,0.6955,0.1261
1230761.0,0.6991,-2.4565,9.7468,-0.2708,0.9131,0.0527
1230771.0,0.7614,-1.9561,10.7308,-0.1389,1.0174,-0.0138
1230781.0,0.3855,-1.336,11.4299,-0.0607,0.9546,-0.0484
1230791.0,-0.3807,-0.6153,11.5472,0.0474,0.8657,-0.0287
1230801.0,-0.7542,-0.2562,12.0045,0.2006,0.8647,0.0447
1230811.0,-1.2043,0.0814,12.2823,0.3932,0.8812,0.1469
1230821.0,-1.4102,-0.2993,12.7874,0.5076,0.7732,0.2522
1230831.0,-1.2594,-0.7111,12.2032,0.6385,0.6188,0.3187
1230841.0,-0.6393,-1.4461,11.8465,0.6508,0.514,0.3076
1230851.0,-0.1197,-1.81,11.4323,0.5805,0.4225,0.2033
1230861.0,0.2298,-1.5395,10.7978,0.4826,0.3278,0.0458
1230871.0,-0.1484,-0.6967,10.1754,0.3783,0.2831,-0.0926
1230881.0,-0.4405,0.1149,9.8689,0.3358,0.306,-0.1415
1230891.0,-0.6871,0.68,9.5744,0.3709,0.3666,-0.0931
1230901.0,-0.9337,0.8643,9.912,0.4789,0.4629,0.0149
1230911.0,-1.0199,0.9457,9.244,0.6981,0.5571,0.1634
1230921.0,-0.7661,0.1915,8.7149,0.6715,0.555,0.2735
1230931.0,-0.2298,-0.972,8.8514,0.6087,0.6518,0.3001
1230941.0,0.0838,-1.64,9.3422,0.6694,0.8636,0.2283
1230951.0,0.0934,-1.9417,10.908,0.7402,1.0206,0.0734
1230961.0,-0.2203,-1.4054,11.7938,0.9445,1.0312,-0.1064
1230971.0,-0.905,-0.4812,12.6845,1.209,0.9892,-0.248
1230981.0,-2.1069,0.5387,12.706,1.5703,0.9237,-0.2969
1230991.0,-2.3487,0.826,12.4714,1.7602,0.7641,-0.29
1231001.0,-2.059,0.5052,11.7196,1.815,0.6231,-0.282
1231011.0,-1.8675,0.1053,10.726,1.6607,0.5225,-0.3512
1231021.0,-1.4413,-0.091,10.1921,1.2568,0.4204,-0.5316
1231031.0,-1.482,0.4357,9.7659,0.8535,0.3996,-0.7774
1231041.0,-2.0566,2.0183,8.521,0.4145,0.3539,-1.0307
1231051.0,-1.9656,3.8595,8.2217,-0.0463,0.4746,-1.1866
1231061.0,-2.7797,5.7892,8.7867,-0.339,0.8562,-1.1291
1231071.0,-3.4812,5.77,11.4706,-0.5321,1.1861,-0.853
1231081.0,-3.2801,4.5705,13.6493,-0.3757,1.2776,-0.4853
1231091.0,-2.7581,2.8539,14.9326,0.0223,1.2004,-0.1825
1231101.0,-2.229,1.5419,14.9805,0.5092,1.0669,-0.0266
1231111.0,-2.138,1.2186,14.2647,0.795,0.8785,-0.0271
1231121.0,-2.0446,1.3719,13.0029,0.7897,0.6151,-0.1149
1231131.0,-2.8659,1.8244,11.0085,0.5385,0.3437,-0.2219
1231141.0,-3.1795,1.8292,9.9575,0.1932,0.3118,-0.3054
1231151.0,-3.0095,1.6688,10.4938,-0.0383,0.5662,-0.3656
1231161.0,-2.9904,1.1995,12.3852,-0.3267,0.597,-0.4257
1231171.0,-3.0215,1.0702,13.69,-0.3991,0.356,-0.4874
1231181.0,-2.9736,1.5634,13.4123,-0.0388,0.1655,-0.5087
1231191.0,-2.7007,2.4038,12.153,0.4172,0.0511,-0.4832
1231201.0,-2.4541,3.3303,10.7859,0.6556,-0.0867,-0.422
1231211.0,-2.8467,4.0965,8.4659,0.6907,-0.248,-0.3076
1231221.0,-2.9521,3.9241,6.1962,0.5789,-0.1873,-0.1511
1231231.0,-2.5331,3.2992,5.4995,0.3544,0.2246,-0.0229
1231241.0,-2.229,2.3391,7.4939,-0.0905,0.6385,0.0277
1231251.0,-2.4181,1.4629,10.3501,-0.5624,0.6944,0.0213
1231261.0,-2.6145,1.0558,12.1266,-0.7199,0.4794,-0.0005
1231271.0,-2.6432,0.9002,12.73,-0.5662,0.223,-0.0048
1231281.0,-2.4972,0.972,12.5265,-0.2426,0.0372,0.0186
1231291.0,-2.229,0.9601,12.1793,0.0527,-0.1293,0.05
1231301.0,-2.1165,1.0247,11.0828,0.2496,-0.3272,0.0644
1231311.0,-2.0423,1.0894,9.8426,0.298,-0.456,0.0506
1231321.0,-2.0279,1.2258,9.4188,0.232,-0.398,0.0138
1231331.0,-1.9178,1.2761,10.3837,0.0585,-0.2964,-0.0293
1231341.0,-1.8459,1.1803,11.6071,-0.1522,-0.4001,-0.0612
1231351.0,-1.7597,0.9984,11.9878,-0.2655,-0.654,-0.0777
1231361.0,-1.4868,0.8452,11.631,-0.2208,-0.8524,-0.0905
1231371.0,-1.2737,0.9936,10.6877,-0.1479,-0.9658,-0.116
1231381.0,-0.8691,1.1732,9.4571,-0.2826,-1.077,-0.1634
1231391.0,-0.498,1.3431,8.8633,-0.596,-1.077,-0.2261
1231401.0,-0.565,1.5179,9.5074,-0.9168,-0.9504,-0.2714
1231411.0,-1.0487,1.5227,11.1737,-1.0461,-0.8051,-0.2533
1231421.0,-1.2665,1.1851,12.6558,-0.9206,-0.812,-0.1804
1231431.0,-1.0558,0.6033,13.046,-0.6034,-0.9738,-0.0921
1231441.0,-0.6919,0.0096,12.0883,-0.2065,-1.1217,-0.0447
1231451.0,-0.6105,-0.2586,10.9559,0.0415,-1.1738,-0.0788
1231461.0,-0.5435,-0.237,9.8258,0.0617,-1.1797,-0.1761
1231471.0,-0.2993,-0.328,9.7803,-0.0905,-1.126,-0.3155
1231481.0,-0.2346,-0.1365,9.8689,-0.1724,-1.0174,-0.4539
1231491.0,-0.486,0.2298,10.2113,-0.1884,-0.9158,-0.5805
1231501.0,-0.7063,0.8428,10.0892,-0.1309,-0.8588,-0.6651
1231511.0,-0.8045,1.4724,9.7588,-0.0607,-0.8109,-0.6976
1231521.0,-0.6823,2.0303,9.505,-0.0197,-0.7503,-0.679
1231531.0,-0.6823,2.6408,9.1554,-0.0011,-0.6396,-0.6146
1231541.0,-0.8188,2.8587,9.2727,-0.0862,-0.538,-0.5082
1231551.0,-0.7781,2.6001,9.5074,-0.2272,-0.4975,-0.3773
1231561.0,-0.4884,1.8148,9.6845,-0.3618,-0.5034,-0.2623
1231571.0,-0.2083,1.1372,9.3925,-0.4699,-0.5135,-0.2144
1231581.0,-0.0814,0.8068,9.1698,-0.6055,-0.4768,-0.24
1231591.0,-0.0407,0.8523,9.1794,-0.7588,-0.4135,-0.3006
1231601.0,-0.0024,1.0918,9.4619,-0.8849,-0.3544,-0.3533
1231611.0,0.0694,1.4365,9.7923,-0.9078,-0.3161,-0.3581
1231621.0,0.0168,1.5754,10.1347,-0.7779,-0.2677,-0.2937
1231631.0,0.0718,1.391,9.9766,-0.5119,-0.2139,-0.1868
1231641.0,0.1676,1.166,10.0628,-0.2128,-0.1288,-0.0979
1231651.0,0.3256,1.2809,10.0006,0.0793,-0.0463,-0.0452
1231661.0,0.4884,1.3599,10.1059,0.2671,-0.0005,-0.0101
1231671.0,0.5626,1.6113,9.9838,0.3411,0.0112,0.0117
1231681.0,0.4741,1.6951,10.173,0.2496,-0.067,0.0186
1231691.0,0.656,1.8387,10.0293,0.1309,-0.1921,0.0245
1231701.0,0.6847,1.9537,9.6558,0.0325,-0.2847,0.0346
1231711.0,0.8475,2.0303,9.1411,-0.0569,-0.3453,0.0474
1231721.0,0.826,2.162,8.8729,-0.1501,-0.3592,0.0442
1231731.0,0.7159,2.4948,8.7508,-0.2097,-0.3166,0.0404
1231741.0,0.419,2.9137,9.0477,-0.257,-0.2985,0.0623
1231751.0,0.3112,3.1316,9.0908,-0.2198,-0.3097,0.1394
1231761.0,0.2729,3.1029,8.8322,-0.1219,-0.3065,0.257
1231771.0,0.4094,2.897,8.4827,-0.0511,-0.2985,0.3837
1231781.0,0.3926,2.411,8.2097,-0.0234,-0.281,0.4965
1231791.0,0.5722,1.7885,7.8721,-0.0059,-0.2458,0.5789
1231801.0,0.814,1.2067,7.5848,-0.0106,-0.1815,0.6093
1231811.0,0.8452,0.7733,7.4005,-0.0553,-0.1064,0.5832
1231821.0,0.6656,0.6201,7.4005,-0.1394,-0.0431,0.5167
1231831.0,0.3352,0.7446,7.3358,-0.1979,0.0229,0.4528
1231841.0,0.0814,0.8667,7.1036,-0.2293,0.1155,0.4225
1231851.0,0.0383,0.8475,7.1491,-0.299,0.2506,0.4177
1231861.0,-0.0503,0.6153,7.841,-0.4369,0.373,0.4241
1231871.0,-0.0263,0.1293,8.6431,-0.5608,0.3991,0.4443
1231881.0,0.0718,-0.4693,9.2081,-0.5582,0.3773,0.4576
1231891.0,0.2274,-0.9792,9.0812,-0.4454,0.3523,0.4363
1231901.0,0.34,-1.1085,8.7053,-0.3895,0.3395,0.3539
1231911.0,0.3089,-0.8715,8.2145,-0.4688,0.3304,0.2384
1231921.0,0.2849,-0.5243,7.9775,-0.6753,0.3453,0.133
1231931.0,0.2801,-0.3256,8.5401,-0.8668,0.4454,0.0692
1231941.0,0.249,-0.3879,9.4451,-0.9285,0.572,0.0623
1231951.0,0.2251,-0.6823,10.4267,-0.8759,0.613,0.0835
1231961.0,0.1915,-0.8882,10.9415,-0.6694,0.6135,0.1117
1231971.0,0.1197,-0.9505,11.1666,-0.3666,0.6369,0.1362
1231981.0,-0.1484,-0.6776,11.1426,-0.074,0.6667,0.1495
1231991.0,-0.407,-0.1413,10.9726,0.0745,0.6753,0.1564
1232001.0,-0.4908,0.2059,10.9319,0.0239,0.6486,0.1852
1232011.0,-0.4908,0.1652,11.1642,-0.1405,0.6226,0.2426
1232021.0,-0.5866,-0.1844,11.6238,-0.339,0.5784,0.2975
1232031.0,-0.7135,-0.644,11.7531,-0.5396,0.4699,0.3278
1232041.0,-0.8164,-0.984,11.6717,-0.7136,0.3443,0.3209
1232051.0,-0.9002,-1.0582,11.3581,-0.8572,0.2464,0.2905
1232061.0,-1.1612,-0.9337,11.303,-1.0014,0.1979,0.257
1232071.0,-1.4868,-0.747,11.5113,-1.0578,0.2107,0.273
1232081.0,-1.4964,-0.9912,12.5384,-0.9174,0.2953,0.3677
1232091.0,-1.2617,-1.6161,13.398,-0.5305,0.3608,0.5146
1232101.0,-0.8404,-2.5043,13.386,-0.0399,0.3581,0.6396
1232111.0,-0.4238,-3.2178,12.7515,0.3879,0.3661,0.6737
1232121.0,-0.261,-3.5051,12.0955,0.6045,0.4294,0.5928
1232131.0,-0.3615,-3.2753,11.9542,0.5587,0.4842,0.422
1232141.0,-0.7925,-2.2601,12.1051,0.3336,0.4773,0.223
1232151.0,-1.5155,-0.9218,12.1266,0.0351,0.4007,0.0926
1232161.0,-1.9201,-0.0479,12.2751,-0.2405,0.3272,0.0921
1232171.0,-1.9585,0.1101,12.6462,-0.4209,0.3086,0.1985
1232181.0,-1.834,-0.3543,13.1178,-0.5837,0.2315,0.331
1232191.0,-1.6328,-0.9912,13.2519,-0.7492,0.0314,0.4236
1232201.0,-1.3216,-1.7047,13.0101,-0.8349,-0.1873,0.4709
1232211.0,-1.0223,-2.2098,12.3804,-0.7992,-0.3187,0.4784
1232221.0,-0.747,-2.5355,11.7675,-0.7242,-0.3842,0.4491
1232231.0,-0.3591,-2.6935,11.0923,-0.6593,-0.4443,0.3964
1232241.0,-0.0766,-2.7198,10.6781,-0.5976,-0.4496,0.3299
1232251.0,0.1365,-2.5642,10.2999,-0.5119,-0.4055,0.2687
1232261.0,0.3328,-2.6384,10.4531,-0.4262,-0.3491,0.2277
1232271.0,0.51,-2.8443,10.4267,-0.2442,-0.2708,0.1958
1232281.0,0.6608,-2.9736,10.5201,-0.0229,-0.1836,0.1447
1232291.0,0.8236,-3.0167,10.4674,0.1878,-0.1181,0.066
1232301.0,0.8332,-2.7557,10.2185,0.3523,-0.083,-0.0367
1232311.0,0.7135,-2.3535,9.9407,0.4039,-0.0665,-0.1479
1232321.0,0.5052,-1.8699,9.845,0.3576,-0.0458,-0.2538
1232331.0,0.2753,-1.4078,10.0269,0.2767,-0.0106,-0.339
1232341.0,0.012,-1.1133,10.3956,0.1926,0.0122,-0.397
1232351.0,-0.2658,-0.9218,10.7787,0.1788,0.0335,-0.4246
1232361.0,-0.407,-0.759,11.1067,0.2395,0.0559,-0.4315
1232371.0,-0.5483,-0.6488,11.5041,0.3315,0.0426,-0.4305
1232381.0,-0.668,-0.4788,11.5041,0.4379,-0.0128,-0.4299
1232391.0,-0.6369,-0.1628,11.169,0.5172,-0.0798,-0.4347
1232401.0,-0.6823,0.3136,10.8864,0.5161,-0.1373,-0.4363
1232411.0,-0.7614,0.577,10.556,0.4379,-0.2038,-0.4108
1232421.0,-0.7877,0.4429,10.3621,0.3427,-0.2341,-0.3597
1232431.0,-0.6129,0.1293,10.4052,0.3113,-0.2059,-0.315
1232441.0,-0.3352,-0.2418,10.5177,0.3416,-0.182,-0.2905
1232451.0,-0.0527,-0.4956,10.3669,0.3916,-0.2182,-0.2937
1232461.0,0.2514,-0.6871,9.8067,0.431,-0.2756,-0.3203
1232471.0,0.2825,-0.6297,9.3015,0.5103,-0.2309,-0.3719
1232481.0,0.2394,-0.17,9.0118,0.5986,-0.1038,-0.4347
1232491.0,0.1053,0.4262,9.1459,0.6002,-0.0011,-0.481
1232501.0,-0.1269,0.9529,9.3589,0.5614,0.0452,-0.4864
1232511.0,-0.146,1.0942,9.675,0.5268,0.067,-0.4459
1232521.0,-0.0024,1.0391,9.9695,0.538,0.0788,-0.39
1232531.0,0.2155,0.8739,10.252,0.5736,0.0436,-0.3374
1232541.0,0.4238,0.6776,10.0556,0.6444,-0.0351,-0.298
1232551.0,0.5052,0.5866,9.5912,0.737,-0.0894,-0.2804
1232561.0,0.3855,0.838,8.9687,0.8104,-0.0697,-0.2852
1232571.0,0.2394,1.2282,8.6957,0.77,-0.0255,-0.3017
1232581.0,0.1796,1.482,8.655,0.6428,0.0117,-0.3033
1232591.0,0.182,1.4341,8.8083,0.4832,0.0442,-0.2879
1232601.0,0.3112,1.1301,9.1004,0.3629,0.0729,-0.2708
1232611.0,0.419,0.8882,9.2584,0.3491,0.1101,-0.2671
1232621.0,0.4645,0.8811,9.2344,0.4119,0.1612,-0.2868
1232631.0,0.3687,1.2163,9.0501,0.4661,0.2304,-0.3198
1232641.0,0.2538,1.6305,8.8107,0.4129,0.2911,-0.3501
1232651.0,0.0431,2.0518,8.8538,0.2075,0.3124,-0.3719
1232661.0,-0.1891,2.2889,8.9974,-0.0851,0.2964,-0.3698
1232671.0,-0.2586,2.2051,9.2703,-0.3464,0.2948,-0.3342
1232681.0,-0.4334,1.9632,9.979,-0.4784,0.3368,-0.2762
1232691.0,-0.4453,1.5586,10.7643,-0.4252,0.3672,-0.2006
1232701.0,-0.4429,1.1301,11.5257,-0.1894,0.3677,-0.1282
1232711.0,-0.4334,0.9505,11.6071,0.1697,0.3155,-0.0686
1232721.0,-0.2969,0.917,11.1618,0.5044,0.2309,-0.0325
1232731.0,-0.3615,1.2522,10.3932,0.7407,0.1905,-0.0255
1232741.0,-0.4118,1.6999,9.8306,0.77,0.1937,-0.0383
1232751.0,-0.3735,2.0494,9.5026,0.5784,0.1799,-0.0506
1232761.0,-0.3496,2.1428,9.4667,0.2331,0.1325,-0.0617
1232771.0,-0.3136,2.0207,9.4619,-0.1421,0.0915,-0.0681
1232781.0,-0.3807,1.6544,9.7827,-0.4693,0.0708,-0.0654
1232791.0,-0.4453,1.1732,10.1323,-0.6529,0.0734,-0.0612
1232801.0,-0.5315,0.814,10.5393,-0.6635,0.1064,-0.0633
1232811.0,-0.577,0.6728,10.7069,-0.5619,0.1596,-0.0697
1232821.0,-0.7111,0.68,10.9104,-0.4864,0.1889,-0.0883
1232831.0,-0.7446,0.7661,11.2504,-0.4592,0.1713,-0.1043
1232841.0,-0.8643,0.8308,11.497,-0.4432,0.116,-0.108
1232851.0,-0.8643,0.8021,11.7531,-0.3959,0.0229,-0.0968
1232861.0,-0.8499,0.7254,11.5161,-0.2666,-0.0665,-0.0686
1232871.0,-0.7111,0.5986,11.0732,-0.0772,-0.108,-0.0335
1232881.0,-0.565,0.4788,10.6781,0.1219,-0.0857,-0.0106
1232891.0,-0.5291,0.3496,10.2568,0.281,-0.0415,0.0011
1232901.0,-0.4381,0.2251,9.9359,0.3751,0.0043,-0.0144
1232911.0,-0.3472,0.3615,9.6678,0.4369,0.0873,-0.0596
1232921.0,-0.3998,0.735,9.5744,0.3948,0.1713,-0.1219
1232931.0,-0.4788,0.972,9.7181,0.2049,0.1868,-0.1788
1232941.0,-0.565,1.1133,9.9838,-0.0335,0.1532,-0.2198
1232951.0,-0.6249,1.0965,10.0772,-0.2426,0.1006,-0.2416
1232961.0,-0.5674,0.9146,10.2496,-0.3746,0.0697,-0.2559
1232971.0,-0.6752,0.8882,10.331,-0.4017,0.0745,-0.2661
1232981.0,-0.7901,0.8164,10.4004,-0.4065,0.0681,-0.273
1232991.0,-0.8571,0.8188,10.4531,-0.389,0.0633,-0.2778
1233001.0,-0.8882,0.8308,10.6087,-0.3501,0.0564,-0.2794
1233011.0,-0.8571,0.9026,10.6781,-0.3044,0.0266,-0.274
1233021.0,-0.8092,0.9649,10.7883,-0.2352,0.0,-0.2528
1233031.0,-0.7398,0.9792,10.659,-0.1298,-0.0277,-0.2166
1233041.0,-0.6919,0.8523,10.4962,-0.0186,-0.0463,-0.182
1233051.0,-0.6321,0.8739,10.2041,0.0814,-0.0378,-0.166
1233061.0,-0.723,1.0271,9.8761,0.0984,-0.0255,-0.1687
1233071.0,-0.747,1.0965,9.7899,0.041,-0.0032,-0.1719
1233081.0,-0.7326,1.1636,9.9359,-0.0245,0.0468,-0.1713
1233091.0,-0.8116,1.1253,10.2735,-0.0931,0.0782,-0.1634
1233101.0,-0.8547,1.0295,10.4579,-0.1421,0.0692,-0.1543
1233111.0,-0.8332,0.9146,10.5129,-0.1517,0.0468,-0.1389
1233121.0,-0.826,0.7254,10.4651,-0.1171,0.0378,-0.1235
1233131.0,-0.7638,0.5962,10.319,-0.0681,0.0463,-0.1165
1233141.0,-0.6823,0.5363,10.1562,-0.0197,0.0676,-0.1197
1233151.0,-0.6823,0.4932,10.0006,-0.0138,0.0937,-0.1314
1233161.0,-0.7254,0.4046,9.8857,-0.0798,0.1091,-0.1532
1233171.0,-0.6991,0.2466,9.9766,-0.1729,0.1288,-0.1809
1233181.0,-0.6776,0.0766,10.2663,-0.2464,0.1458,-0.2107
1233191.0,-0.6967,-0.0096,10.4483,-0.2767,0.1357,-0.2426
1233201.0,-0.6967,-0.0383,10.5632,-0.2389,0.1149,-0.2692
1233211.0,-0.6656,0.0192,10.5536,-0.1336,0.1229,-0.2852
1233221.0,-0.6704,0.2227,10.4627,-0.009,0.1495,-0.2927
1233231.0,-0.7063,0.498,10.4483,0.0569,0.1543,-0.2937
1233241.0,-0.759,0.7446,10.3334,0.0495,0.124,-0.2794
1233251.0,-0.8452,0.8284,10.4076,-0.017,0.0873,-0.2528
1233261.0,-0.8404,0.6991,10.4411,-0.0394,0.058,-0.2091
1233271.0,-0.8068,0.4118,10.4339,-0.0346,0.0383,-0.1719
1233281.0,-0.6847,0.158,10.2472,-0.016,0.0202,-0.1591
1233291.0,-0.5363,0.0383,10.137,-0.0043,0.0325,-0.1724
1233301.0,-0.5315,0.0311,10.0628,-0.0154,0.0718,-0.2022
1233311.0,-0.5602,0.0599,10.1993,-0.0793,0.0926,-0.2421
1233321.0,-0.6033,0.0646,10.2304,-0.1894,0.074,-0.2815
1233331.0,-0.6536,0.0263,10.3789,-0.3118,0.0357,-0.3272
1233341.0,-0.7542,0.1413,10.3669,-0.3746,-0.0043,-0.3698
1233351.0,-0.7159,0.3041,10.5153,-0.4055,-0.033,-0.4071
1233361.0,-0.5578,0.4597,10.4363,-0.3453,-0.0229,-0.4241
1233371.0,-0.7661,0.68,10.5536,-0.2677,0.0053,-0.4305
1233381.0,-0.8332,0.9649,10.5848,-0.1905,0.0208,-0.4236
1233391.0,-0.9816,1.3336,10.7117,-0.1288,0.0277,-0.4076
1233401.0,-0.8499,1.743,10.5896,-0.1501,-0.0319,-0.3815
1233411.0,-0.8164,2.0279,10.7619,-0.282,-0.1341,-0.3565
1233421.0,-0.6608,2.308,10.7117,-0.3826,-0.2389,-0.3108
1233431.0,-0.8619,2.4948,10.7404,-0.3837,-0.273,-0.2283
1233441.0,-0.8715,2.4612,10.6279,-0.2687,-0.257,-0.1091
1233451.0,-0.6464,2.2482,10.5608,-0.1165,-0.2251,0.0213
1233461.0,-0.4693,1.8196,10.5321,0.025,-0.1894,0.1405
1233471.0,-0.2083,1.3072,10.6015,0.1346,-0.1878,0.2304
1233481.0,-0.0335,0.7877,10.489,0.2379,-0.2203,0.281
1233491.0,0.0263,0.4214,10.0293,0.339,-0.2714,0.2953
1233501.0,0.2083,0.2251,9.7133,0.447,-0.2767,0.2794
1233511.0,0.3184,0.3519,9.2033,0.6114,-0.216,0.2549
1233521.0,0.5052,0.4142,8.8035,0.7215,-0.1437,0.2325
1233531.0,0.7853,0.3136,8.3629,0.7561,-0.049,0.2086
1233541.0,0.7805,0.0862,8.351,0.6955,0.0718,0.1666
1233551.0,0.7949,-0.2418,8.916,0.6114,0.1932,0.0979
1233561.0,0.7446,-0.3663,9.5481,0.6039,0.3017,0.016
1233571.0,0.4812,-0.2801,10.2017,0.6061,0.3368,-0.0782
1233581.0,0.261,0.0934,10.5129,0.6093,0.274,-0.1724
1233591.0,0.3519,0.3974,10.489,0.6534,0.1905,-0.232
1233601.0,0.2059,0.7278,10.1801,0.763,0.1703,-0.2634
1233611.0,0.079,1.2689,9.991,0.8908,0.2134,-0.2804
1233621.0,0.0072,1.8531,9.833,0.9913,0.2719,-0.2629
1233631.0,-0.0096,2.0327,9.9575,1.0302,0.3214,-0.2251
1233641.0,-0.1125,2.1739,9.9144,1.0318,0.3406,-0.1857
1233651.0,-0.0982,2.0446,10.058,0.9349,0.3246,-0.1639
1233661.0,-0.1006,1.7957,10.0652,0.8157,0.2911,-0.1628
1233671.0,-0.0551,1.5682,10.1754,0.6625,0.2325,-0.2001
1233681.0,0.0742,1.7621,9.7276,0.5305,0.1655,-0.2623
1233691.0,-0.0431,2.0614,9.4906,0.3336,0.1522,-0.3278
1233701.0,-0.3184,2.4636,9.3948,0.1235,0.1703,-0.3725
1233711.0,-0.3807,2.6767,9.6822,-0.0325,0.1969,-0.3815
1233721.0,-0.5148,2.8539,10.0006,-0.0223,0.2591,-0.3469
1233731.0,-0.6153,2.7557,10.4435,0.0867,0.3241,-0.281
1233741.0,-0.8212,2.6145,10.908,0.2331,0.3406,-0.2187
1233751.0,-0.6321,2.6647,10.7188,0.3746,0.2911,-0.1751
1233761.0,-0.5028,2.8443,10.7332,0.3996,0.2224,-0.1586
1233771.0,-0.6273,3.2585,10.4651,0.4033,0.1453,-0.1447
1233781.0,-0.5914,3.5003,10.331,0.3783,0.0724,-0.1176
1233791.0,-0.6297,3.7302,9.7564,0.4039,0.0463,-0.0702
1233801.0,-0.6704,3.5865,9.3685,0.3778,0.0591,-0.0202
1233811.0,-0.6991,3.292,9.0285,0.299,0.0835,0.0059
1233821.0,-0.5962,2.8826,9.0453,0.1857,0.1266,-0.0011
1233831.0,-0.5866,2.727,9.4068,0.1495,0.1884,-0.0341
1233841.0,-0.7685,3.1388,9.5361,0.2309,0.2655,-0.0596
1233851.0,-0.8332,3.6655,9.6702,0.3246,0.3491,-0.0474
1233861.0,-0.9457,4.3191,9.7851,0.3586,0.4161,-0.0053
1233871.0,-0.9385,4.5801,10.228,0.2724,0.4411,0.0665
1233881.0,-1.0822,4.3551,10.7859,0.1405,0.4177,0.1511
1233891.0,-1.2785,4.118,11.2264,0.0532,0.3645,0.2261
1233901.0,-1.1444,3.9768,11.5951,0.0303,0.3022,0.2895
1233911.0,-0.8332,3.6847,11.8657,0.0372,0.2453,0.3443
1233921.0,-0.9673,3.4979,12.0213,-0.0069,0.1399,0.3656
1233931.0,-1.0127,3.5027,11.5544,-0.1474,-0.0788,0.3608
1233941.0,-0.7398,3.6224,10.4483,-0.3219,-0.2884,0.3661
1233951.0,-0.5243,3.3734,9.5768,-0.4401,-0.3097,0.3948
1233961.0,-0.5052,2.7461,9.493,-0.4294,-0.1474,0.4305
1233971.0,-0.3926,2.2745,9.8162,-0.3544,0.0138,0.439
1233981.0,-0.3208,1.8196,10.3501,-0.2857,0.0772,0.4198
1233991.0,-0.2298,1.5634,10.7428,-0.2059,0.0676,0.3799
1234001.0,-0.3926,1.7382,10.8314,-0.116,0.0325,0.3235
1234011.0,-0.158,1.9944,10.6063,-0.0165,-0.0245,0.2836
1234021.0,-0.3041,1.992,10.3022,0.0819,-0.0239,0.2677
1234031.0,-0.2179,1.8723,10.0365,0.1623,-0.0378,0.2559
1234041.0,-0.2203,1.8148,9.6558,0.2703,-0.0202,0.2363
1234051.0,-0.1844,1.7933,9.2416,0.4129,0.0734,0.2219
1234061.0,-0.2873,1.8172,9.3302,0.4826,0.1612,0.1868
1234071.0,-0.3998,2.1284,9.2775,0.5577,0.2128,0.1511
1234081.0,-0.5866,2.387,9.2009,0.6061,0.2485,0.1298
1234091.0,-0.6153,2.6312,9.019,0.6391,0.2756,0.1187
1234101.0,-0.8021,2.6671,8.8753,0.6444,0.3246,0.1203
1234111.0,-0.7853,2.6217,8.9136,0.6071,0.3741,0.1155
1234121.0,-1.0511,2.466,8.8633,0.5465,0.4087,0.1027
1234131.0,-1.2186,2.4876,9.2009,0.4305,0.4252,0.0623
1234141.0,-1.1947,2.8299,9.517,0.3618,0.4438,0.0218
1234151.0,-1.3958,3.1388,10.0245,0.3187,0.4512,0.0016
1234161.0,-1.4054,3.1627,10.3214,0.2735,0.381,0.0011
1234171.0,-1.4006,2.7461,10.5153,0.2134,0.2618,0.0021
1234181.0,-1.0678,2.3511,10.386,0.2198,0.1458,-0.0138
1234191.0,-1.5921,2.4325,9.177,0.2512,0.067,-0.0442
1234201.0,-1.0104,2.217,8.4084,0.0639,-0.0378,-0.1123
1234211.0,-1.0774,2.6073,7.1802,-0.1144,-0.0106,-0.2049
1234221.0,-1.2354,3.2178,6.6894,-0.3767,0.1235,-0.2959
1234231.0,-1.257,3.6176,7.197,-0.6247,0.3246,-0.3491
1234241.0,-1.5538,3.8906,7.999,-0.7428,0.5475,-0.3464
1234251.0,-1.7526,3.632,9.5193,-0.8477,0.6651,-0.3129
1234261.0,-1.719,3.3447,10.5082,-0.8365,0.6497,-0.2634
1234271.0,-1.5993,2.9281,11.2336,-0.7779,0.5608,-0.2192
1234281.0,-1.6448,2.7198,11.3485,-0.6891,0.4443,-0.191
1234291.0,-1.4772,2.5379,10.9702,-0.6279,0.3012,-0.1809
1234301.0,-1.5083,2.4181,10.0485,-0.6449,0.1809,-0.1985
1234311.0,-1.4054,2.4421,9.1889,-0.7897,0.132,-0.2469
1234321.0,-1.3743,2.3439,9.3302,-0.9876,0.19,-0.3054
1234331.0,-1.4724,2.2529,9.6678,-1.069,0.2943,-0.3453
1234341.0,-1.5802,2.0877,10.331,-1.093,0.3576,-0.3725
1234351.0,-1.585,1.9465,10.9846,-1.0243,0.3794,-0.3842
1234361.0,-1.5921,1.901,11.2575,-0.8876,0.3624,-0.3831
1234371.0,-1.5203,2.0087,11.1019,-0.7753,0.3044,-0.3868
1234381.0,-1.4485,2.1811,10.9343,-0.7588,0.249,-0.397
1234391.0,-1.6209,2.3439,10.6997,-0.8306,0.1862,-0.4017
1234401.0,-1.561,2.4325,10.5417,-0.994,0.0974,-0.4081
1234411.0,-1.6281,2.4756,10.489,-1.1233,0.0676,-0.3975
1234421.0,-1.8124,2.2865,10.8386,-1.1446,0.1043,-0.3523
1234431.0,-1.7765,1.8244,11.3389,-1.0371,0.1415,-0.2873
1234441.0,-1.6424,1.482,11.7124,-0.8093,0.1447,-0.2283
1234451.0,-1.5155,1.3791,11.8082,-0.5449,0.1133,-0.1953
1234461.0,-1.5323,1.5299,11.6119,-0.3139,0.0676,-0.1761
1234471.0,-1.5802,1.7837,11.4179,-0.1948,-0.0069,-0.1623
1234481.0,-1.6185,2.0542,11.1833,-0.1155,-0.0788,-0.1357
1234491.0,-1.6017,2.2529,10.7141,-0.0814,-0.1368,-0.0958
1234501.0,-1.4796,2.1524,10.5321,-0.1101,-0.1596,-0.0548
1234511.0,-1.549,2.0494,10.6183,-0.1341,-0.1304,-0.0176
1234521.0,-1.5395,1.4964,11.0181,-0.1607,-0.1224,0.0165
1234531.0,-1.2953,0.7733,11.1426,-0.1687,-0.1937,0.0181
1234541.0,-1.0343,0.2562,11.1282,-0.1511,-0.2682,-0.0426
1234551.0,-1.2115,0.5938,10.6949,-0.141,-0.3262,-0.1485
1234561.0,-1.4461,1.1923,10.4291,-0.1974,-0.3916,-0.2474
1234571.0,-1.3743,1.913,9.8067,-0.2246,-0.4262,-0.29
1234581.0,-1.3072,2.3224,9.2943,-0.24,-0.3783,-0.2687
1234591.0,-1.2306,2.3535,9.1698,-0.2102,-0.2613,-0.2027
1234601.0,-1.2234,2.1117,9.3182,-0.1128,-0.1399,-0.1219
1234611.0,-1.1756,1.9178,9.3709,0.0654,-0.0484,-0.0479
1234621.0,-1.0534,1.8364,9.3374,0.3225,0.0537,0.0229
1234631.0,-0.8906,1.8699,9.165,0.6157,0.1799,0.0921
1234641.0,-0.9433,1.9752,9.0525,0.8242,0.2847,0.1479
1234651.0,-0.9457,2.1668,8.7628,0.9136,0.3416,0.1889
1234661.0,-0.8021,2.1189,8.4874,0.8939,0.3831,0.2182
1234671.0,-0.8164,2.0159,8.3199,0.8317,0.4848,0.2288
1234681.0,-0.9792,1.9034,8.6503,0.7162,0.6359,0.215
1234691.0,-1.2689,1.8244,9.4523,0.588,0.7689,0.1836
1234701.0,-1.5347,1.7334,10.4267,0.4885,0.8099,0.1511
1234711.0,-1.6376,1.7669,10.9774,0.4496,0.7652,0.1229
1234721.0,-1.7142,1.7813,11.236,0.4422,0.6806,0.0974
1234731.0,-1.7909,2.0183,11.0732,0.4645,0.6034,0.0788
1234741.0,-1.8579,2.2889,10.659,0.4943,0.5582,0.0665
1234751.0,-1.7741,2.7318,9.9575,0.4661,0.5396,0.0575
1234761.0,-1.9752,3.2274,9.5313,0.315,0.6008,0.0495
1234771.0,-2.3966,3.3615,9.9958,0.0559,0.7077,0.0601
1234781.0,-2.6073,3.0191,11.2767,-0.1745,0.7928,0.0899
1234791.0,-2.7031,2.6169,12.4977,-0.306,0.754,0.1139
1234801.0,-2.7031,2.3798,13.1561,-0.3406,0.6039,0.1219
1234811.0,-2.7869,2.3942,13.2232,-0.2655,0.4438,0.1341
1234821.0,-2.9185,2.3296,13.034,-0.1405,0.323,0.1639
1234831.0,-3.1101,2.1524,12.5528,-0.0021,0.2549,0.2118
1234841.0,-2.9664,1.6185,12.3158,0.1016,0.2607,0.2469
1234851.0,-2.9904,1.166,12.6462,0.1421,0.3262,0.2352
1234861.0,-3.1149,0.8499,13.4099,0.0756,0.2985,0.1634
1234871.0,-3.0694,0.8715,13.8624,-0.0154,0.1453,0.0527
1234881.0,-3.0933,1.1971,14.0444,-0.107,-0.0484,-0.0702
1234891.0,-2.9329,1.6424,13.7619,-0.2049,-0.2538,-0.1809
1234901.0,-2.8323,2.0638,13.4434,-0.3709,-0.4129,-0.282
1234911.0,-3.043,2.7749,13.058,-0.6529,-0.5906,-0.3746
1234921.0,-3.1723,2.9377,13.2064,-1.0637,-0.812,-0.4315
1234931.0,-3.1508,2.6432,13.4434,-1.3665,-1.0131,-0.4454
1234941.0,-3.1316,2.0949,13.8983,-1.4394,-1.1579,-0.4326
1234951.0,-3.043,1.5658,14.1713,-1.2957,-1.3047,-0.4129
1234961.0,-2.818,1.1444,14.291,-0.9839,-1.4702,-0.3948
1234971.0,-2.4612,0.917,13.8888,-0.5593,-1.6192,-0.3858
1234981.0,-1.9465,0.8571,13.0245,-0.2049,-1.7879,-0.4065
1234991.0,-1.798,1.3096,11.552,-0.083,-2.0162,-0.472
1235001.0,-1.5826,1.6783,10.3334,-0.2075,-2.2184,-0.547
1235011.0,-1.4988,1.8723,9.2919,-0.3656,-2.2801,-0.5922
1235021.0,-1.3072,1.5562,8.9543,-0.505,-2.2343,-0.6135
1235031.0,-0.9026,1.0918,8.7388,-0.5523,-2.1444,-0.646
1235041.0,-0.5698,0.8787,8.6383,-0.5976,-2.0726,-0.7279
1235051.0,-0.4836,0.984,8.7029,-0.6838,-2.0332,-0.8434
1235062.0,-0.3208,1.087,9.0501,-0.7561,-2.0087,-0.9434
1235071.0,-0.079,1.257,9.0692,-0.8088,-2.0422,-1.0275
1235081.0,0.012,1.5347,8.9591,-0.8615,-2.1279,-1.094
1235091.0,0.3615,1.5514,8.9759,-0.8093,-2.1423,-1.1142
1235101.0,0.5722,1.743,8.7891,-0.63,-2.071,-1.102
1235111.0,0.5459,2.0446,8.8346,-0.5263,-2.0348,-1.0946
1235121.0,0.7374,2.648,8.3677,-0.5183,-2.1066,-1.0828
1235131.0,0.7973,3.1244,7.4986,-0.6715,-2.2445,-1.0568
1235141.0,1.7645,3.0861,5.9999,-0.9163,-2.3599,-0.9966
1235151.0,1.6712,2.5019,6.778,-1.0467,-2.1859,-0.9344
1235161.0,1.9393,2.6408,5.691,-0.8429,-1.9896,-0.8397
1235171.0,2.4301,1.9537,6.0118,-0.7859,-1.8384,-0.779
1235181.0,2.873,2.3727,4.7285,-0.6902,-1.7081,-0.7508
1235191.0,3.1484,2.545,4.6256,-0.853,-1.5713,-0.745
1235201.0,3.2346,2.9999,4.0989,-0.9743,-1.416,-0.7072
1235211.0,3.3351,3.1388,3.6607,-1.0993,-1.2622,-0.6353
1235221.0,4.0725,3.2801,3.8427,-1.1584,-1.077,-0.5491
1235231.0,4.2306,4.039,3.2322,-0.9993,-0.8306,-0.4103
1235241.0,3.7254,4.4963,2.9568,-0.8157,-0.5726,-0.1953
1235251.0,3.6368,4.5921,2.1811,-0.4906,-0.2485,0.1064
1235261.0,3.5386,4.1779,1.3838,-0.1628,0.1857,0.4278
1235271.0,4.0007,3.3279,0.4525,-0.0388,0.6173,0.6923
1235281.0,4.0869,2.3415,0.577,-0.165,1.0914,0.8445
1235291.0,4.0677,1.7861,0.5986,-0.4331,1.491,0.9057
1235301.0,3.8403,1.4078,1.0271,-0.8743,1.7475,0.8924
1235311.0,3.6775,1.8723,0.5291,-1.3186,1.9039,0.8588
1235321.0,3.3351,2.6336,-0.1915,-1.8124,2.0859,0.861
1235331.0,2.6815,3.6416,-1.2881,-2.3174,2.3344,0.944
1235341.0,1.719,4.4532,-2.0231,-2.9814,2.6116,1.1185
1235351.0,-0.0862,4.6783,-1.2905,-3.7003,2.9043,1.4053
1235361.0,-2.1859,4.276,0.2945,-4.1005,3.1762,1.8257
1235371.0,-3.7637,3.0981,2.4181,-3.9504,3.4438,2.3562
1235381.0,-4.6208,1.3671,4.5801,-3.1581,3.7897,2.9335
1235391.0,-4.8578,-0.4764,5.9304,-2.0034,4.0834,3.4295
1235401.0,-4.7956,-2.2266,6.2082,-0.9429,4.2244,3.7216
1235411.0,-4.8914,-2.7749,4.8291,-0.2118,4.2862,3.7471
1235421.0,-6.9528,-1.5993,2.909,0.0394,4.4314,3.5497
1235431.0,-9.6726,1.1253,0.9361,-0.0527,4.8124,3.3103
1235441.0,-13.7691,2.9329,2.6121,-0.4401,5.5941,3.256
1235451.0,-17.7362,1.1396,10.0724,-0.4879,6.7882,3.5279
1235461.0,-19.9317,-2.0973,20.3076,0.0431,7.6012,3.8381
1235471.0,-19.4864,-4.3096,30.6338,0.6939,7.258,3.877
1235481.0,-17.9302,-3.9337,35.2714,1.4564,5.8415,3.6774
1235491.0,-16.4745,-2.047,34.8739,1.8188,4.0648,3.3784
1235501.0,-15.6581,-0.1293,33.0232,1.4399,2.3594,3.0926
1235511.0,-15.0404,1.0702,30.2029,0.6167,0.7492,2.8872
1235521.0,-14.7243,1.719,27.1766,-0.2224,-0.6917,2.7393
1235531.0,-14.528,2.4804,22.63,-0.6194,-1.8315,2.7127
1235541.0,-14.3508,2.9544,17.741,-0.6588,-2.5174,2.8239
1235551.0,-13.6182,2.9233,13.3118,-0.4613,-2.7164,3.0522
1235561.0,-12.5959,1.8794,10.659,-0.1219,-2.4679,3.3449
1235571.0,-11.6669,0.5555,9.5361,0.2847,-2.0055,3.6056
1235581.0,-10.9535,-0.7997,10.1634,0.7082,-1.5596,3.7945
1235591.0,-10.2256,-1.8387,10.5465,1.3106,-1.1877,3.9435
1235601.0,-9.7396,-2.9377,10.9894,1.9422,-0.8248,4.0414
1235611.0,-8.8298,-3.8379,11.5089,2.4222,-0.5295,4.0334
1235621.0,-8.0086,-4.0869,12.1554,2.5903,-0.3879,3.8775
1235631.0,-7.4124,-3.9624,12.3589,2.4153,-0.4672,3.6152
1235641.0,-6.8522,-3.7373,12.1075,1.9678,-0.6646,3.2879
1235651.0,-6.371,-3.6296,12.2176,1.334,-0.8838,2.9277
1235661.0,-6.0789,-3.5003,12.7012,0.7066,-1.1286,2.56
1235671.0,-6.0501,-3.4429,13.5799,0.2831,-1.3675,2.2141
1235681.0,-5.8323,-3.1029,13.4267,0.1229,-1.682,1.9066
1235691.0,-5.5186,-2.7102,12.785,0.0958,-1.9667,1.6229
1235701.0,-5.3486,-1.9154,11.3509,0.0857,-2.1854,1.3739
1235711.0,-5.217,-1.5419,10.2376,-0.0841,-2.3668,1.1573
1235721.0,-5.0015,-1.2737,9.1099,-0.2623,-2.4679,0.9626
1235731.0,-4.537,-1.1229,8.5042,-0.4081,-2.4381,0.779
1235741.0,-4.3646,-0.8667,8.4803,-0.506,-2.3429,0.6077
1235751.0,-4.2713,-0.644,8.8466,-0.5475,-2.3056,0.4677
1235761.0,-4.1468,-0.3472,9.177,-0.4209,-2.3003,0.381
1235771.0,-3.9121,-0.1915,9.2656,-0.0894,-2.2609,0.365
1235781.0,-3.6559,-0.1437,8.8945,0.3485,-2.2045,0.3906
1235791.0,-3.2178,-0.2322,8.3055,0.7125,-2.1731,0.4129
1235801.0,-2.7797,-0.1748,7.5322,0.9748,-2.1194,0.4055
1235811.0,-2.4038,-0.1293,7.0605,1.1073,-2.013,0.3773
1235821.0,-1.9656,-0.261,7.015,1.1313,-1.8863,0.3384
1235831.0,-1.6664,-0.486,7.4651,1.0818,-1.7922,0.2783
1235841.0,-1.2594,-0.735,8.0278,1.0573,-1.7682,0.2006
1235851.0,-1.0271,-0.7829,8.1259,1.0993,-1.8081,0.108
1235861.0,-0.7901,-0.7111,7.8745,1.1313,-1.8874,0.009
1235871.0,-0.5243,-0.5842,7.3119,1.1217,-1.9582,-0.0878
1235881.0,-0.3472,-0.5531,6.7971,1.0424,-2.005,-0.1809
1235891.0,-0.1556,-0.6943,6.3494,0.9562,-1.9944,-0.2708
1235901.0,0.1796,-0.8284,5.9041,0.9019,-1.9433,-0.3757
1235911.0,0.4908,-0.9242,5.5593,0.8402,-1.8762,-0.5028
1235921.0,0.8092,-1.0056,5.2481,0.7987,-1.7815,-0.6385
1235931.0,1.1037,-1.0558,4.8602,0.7545,-1.6735,-0.7795
1235941.0,1.4605,-1.1085,4.5657,0.655,-1.5798,-0.9333
1235951.0,1.6831,-1.0343,4.2545,0.5151,-1.4862,-1.0988
1235961.0,1.7597,-0.8595,3.9313,0.3421,-1.3941,-1.2654
1235971.0,1.7358,-0.6584,3.5099,0.1447,-1.3159,-1.4239
1235981.0,1.8052,-0.4429,3.0837,-0.0553,-1.2084,-1.5692
1235991.0,1.7478,-0.2777,2.6408,-0.2224,-1.0397,-1.6932
1236001.0,1.506,-0.2466,2.4301,-0.3677,-0.8264,-1.8017
1236011.0,1.4461,-0.3567,2.3152,-0.4736,-0.6082,-1.9113
1236021.0,1.5562,-0.4597,2.0662,-0.5268,-0.3863,-2.038
1236031.0,1.5179,-0.3783,1.4006,-0.5566,-0.1341,-2.1918
1236041.0,1.3264,-0.0862,0.6464,-0.6737,0.1431,-2.369
1236051.0,0.7709,0.3567,0.1867,-0.9211,0.4518,-2.5478
1236061.0,-0.012,0.7638,0.2658,-1.2068,0.8179,-2.685
1236072.0,-0.9337,0.6656,1.5467,-1.3766,1.2702,-2.7553
1236081.0,-1.4605,0.1053,3.6344,-1.1903,1.7709,-2.767
1236091.0,-1.8387,-0.6225,5.3965,-0.6811,2.1535,-2.7973
1236101.0,-2.1069,-0.9816,5.7772,-0.1171,2.3062,-2.9272
1236111.0,-2.2505,-0.6177,4.719,0.2373,2.3642,-3.182
1236121.0,-3.0047,0.6153,3.0335,0.1006,2.436,-3.5268
1236131.0,-3.9744,2.2841,1.5083,-0.6753,2.5281,-3.8599
1236141.0,-5.2194,3.5865,2.0853,-1.9262,2.7047,-4.0845
1236151.0,-7.094,4.5657,5.1236,-3.0767,2.9644,-4.118
1236161.0,-9.0429,5.1164,10.4028,-3.3656,3.3092,-3.8839
1236171.0,-9.651,5.4277,14.6358,-2.3493,3.6024,-3.4108
1236181.0,-9.5146,5.3343,17.2502,-0.6066,3.6705,-2.8793
1236191.0,-8.8609,5.7269,16.3668,1.1015,3.4007,-2.4658
1236201.0,-9.4786,7.039,13.9702,1.9938,2.9639,-2.2343
1236211.0,-9.6223,8.0972,12.0787,1.9725,2.6074,-2.0689
1236221.0,-10.3166,7.7859,12.3565,1.4175,2.494,-1.922
1236231.0,-10.7308,6.3159,14.2096,0.7838,2.4403,-1.847
1236241.0,-11.1378,5.0398,15.3085,0.24,2.2359,-1.9268
1236251.0,-11.327,4.063,15.6964,-0.5146,1.7778,-2.1567
1236261.0,-11.3653,3.4931,16.0531,-1.3846,1.2861,-2.4403
1236271.0,-11.4826,3.1963,17.8703,-2.0055,1.0014,-2.6531
1236281.0,-12.2272,3.371,20.9924,-1.955,0.8647,-2.692
1236291.0,-12.9742,3.7254,22.97,-1.168,0.5678,-2.5275
1236301.0,-12.7683,3.8834,22.8598,-0.0277,0.017,-2.2514
1236311.0,-12.1338,4.2952,20.4632,1.1169,-0.5369,-1.9662
1236321.0,-11.2288,4.81,17.3316,1.8161,-0.9828,-1.7283
1236331.0,-10.6063,5.2289,14.4634,1.9113,-1.3053,-1.5618
1236341.0,-10.0892,5.4061,12.4714,1.524,-1.5469,-1.4521
1236351.0,-9.5265,5.3199,11.3749,0.9003,-1.7102,-1.3787
1236361.0,-9.0932,4.719,10.9654,0.2916,-1.7906,-1.309
1236371.0,-8.6263,4.0342,11.2647,-0.1272,-1.8166,-1.2361
1236381.0,-8.1762,3.2681,11.6143,-0.2395,-1.7953,-1.1419
1236391.0,-7.6782,2.375,12.1051,-0.108,-1.7948,-1.0488
1236401.0,-7.1251,1.7119,11.971,0.2128,-1.8321,-0.9903
1236411.0,-6.6319,1.2426,11.248,0.5672,-1.8837,-0.9754
1236421.0,-6.3853,1.1037,9.8785,0.7939,-1.9321,-1.0115
1236431.0,-5.861,1.0965,8.6814,0.8035,-1.9289,-1.1089
1236441.0,-5.4013,1.4245,7.9296,0.6492,-1.8427,-1.2638
1236451.0,-5.3534,2.0973,7.7213,0.3884,-1.7214,-1.4261
1236461.0,-5.2026,2.4277,8.2408,0.1245,-1.5846,-1.5335
1236471.0,-5.0542,2.5043,9.1506,-0.0282,-1.4638,-1.5836
1236481.0,-5.1188,2.2434,10.2113,-0.0835,-1.3995,-1.6011
1236491.0,-5.1451,1.9106,11.2192,-0.0271,-1.4218,-1.6134
1236501.0,-5.0159,1.664,11.8944,0.1517,-1.5186,-1.6357
1236511.0,-4.877,1.834,11.959,0.415,-1.6735,-1.6676
1236521.0,-4.786,2.4636,11.1498,0.6476,-1.8784,-1.6996
1236531.0,-4.5155,3.3423,9.7109,0.7215,-2.0561,-1.7283
1236541.0,-4.2186,3.9313,8.8011,0.5853,-2.1072,-1.7198
1236551.0,-3.8618,3.8451,9.074,0.3246,-2.0396,-1.6778
1236561.0,-3.7397,3.2968,10.0389,0.0474,-2.014,-1.6458
1236571.0,-3.7062,2.6791,11.0708,-0.199,-2.1822,-1.6565
1236581.0,-3.4213,2.2936,11.4347,-0.2975,-2.4525,-1.7028
1236591.0,-3.4309,2.3152,11.0564,-0.1932,-2.6882,-1.7501
1236601.0,-3.3615,2.4756,10.1011,0.0064,-2.8676,-1.7799
1236611.0,-2.8371,2.4828,9.1722,0.2384,-2.9005,-1.8097
1236621.0,-2.4924,3.0311,7.932,0.3182,-2.8846,-1.8911
1236631.0,-2.2003,3.8523,6.9791,-0.0186,-2.9766,-2.03
1236641.0,-1.6664,4.5514,6.4667,-0.6433,-3.1214,-2.1694
1236651.0,-1.3431,5.1236,6.1387,-1.2893,-3.2278,-2.2657
1236661.0,-1.4222,5.4109,6.1938,-1.7751,-3.2767,-2.2939
1236671.0,-1.4269,5.5115,6.4428,-1.9087,-3.2193,-2.228
1236681.0,-0.9936,5.5976,6.1148,-1.6895,-3.1001,-2.08
1236691.0,-0.3424,5.7916,5.2816,-1.3526,-3.0006,-1.897
1236701.0,0.4501,6.4117,3.5554,-1.0472,-2.8835,-1.6884
1236711.0,1.1037,7.1443,1.7286,-0.9041,-2.6813,-1.4473
1236721.0,2.0303,7.6255,0.3232,-0.9275,-2.344,-1.1653
1236731.0,2.6935,7.774,-0.182,-1.0344,-1.8906,-0.8466
1236741.0,3.0215,7.4508,-0.0263,-1.1419,-1.4426,-0.505
1236751.0,3.3854,6.8354,0.2586,-1.1419,-1.0451,-0.1591
1236761.0,3.486,6.2944,0.1221,-1.0222,-0.6768,0.1713
1236771.0,3.395,5.8395,-0.3639,-0.8626,-0.3044,0.4911
1236781.0,3.2872,5.4205,-0.9577,-0.7279,0.1293,0.7976
1236791.0,3.0574,4.9368,-1.1181,-0.6619,0.6428,1.0818
1236801.0,2.4038,4.4365,-0.486,-0.6114,1.2052,1.3526
1236811.0,1.6448,3.7589,0.7661,-0.5295,1.7139,1.6139
1236821.0,0.9122,2.9999,2.399,-0.307,2.1588,1.8682
1236831.0,0.4549,1.9585,4.0558,0.1596,2.5871,2.1146
1236841.0,0.2897,0.9122,5.2146,0.8093,2.9607,2.2971
1236851.0,0.3232,0.2322,5.4109,1.3957,3.256,2.345
1236861.0,0.3448,0.1389,5.1044,1.6676,3.4997,2.2386
1236871.0,-0.103,0.8452,4.5705,1.4431,3.6631,2.0119
1236881.0,-1.0965,2.2314,4.1946,0.7199,3.7062,1.748
1236891.0,-2.4636,3.9073,3.7565,-0.3113,3.6668,1.5559
1236901.0,-4.2713,5.0925,3.7804,-1.3622,3.6764,1.5256
1236911.0,-5.9017,5.1332,5.0278,-2.0726,3.9233,1.6948
1236921.0,-6.8307,3.881,8.1475,-2.2455,4.3942,1.9864
1236931.0,-7.8147,2.6408,11.9159,-1.9901,4.7353,2.2562
1236941.0,-8.6598,2.1045,14.9183,-1.5325,4.722,2.4328
1236951.0,-9.73,2.715,16.6349,-1.0126,4.4501,2.5174
1236961.0,-11.3294,4.1276,17.255,-0.4848,4.1217,2.6095
1236971.0,-12.979,5.1404,18.1528,0.0692,3.9759,2.7931
1236981.0,-14.3006,5.7964,19.3044,0.597,3.9515,3.0325
1236991.0,-15.3205,5.9711,20.6596,0.7849,3.7839,3.2517
1237001.0,-14.8824,5.2625,21.895,0.4305,3.2943,3.3896
1237011.0,-14.1186,4.1779,22.1966,-0.4518,2.5164,3.38
1237021.0,-13.8983,3.1316,22.4648,-1.7187,1.5798,3.2166
1237031.0,-13.7954,2.5379,22.6084,-2.925,0.5965,3.0032
1237041.0,-14.5735,2.9113,21.8112,-3.711,-0.3267,2.8606
1237051.0,-15.1577,3.4596,19.7977,-4.0308,-1.1478,2.8947
1237061.0,-16.0005,3.8978,17.1138,-3.977,-1.7102,3.1145
1237071.0,-16.6924,3.0574,15.852,-3.5753,-1.8597,3.5311
1237081.0,-16.6517,1.1492,14.7674,-2.7899,-1.7538,4.0616
1237091.0,-16.0507,-1.0439,13.4554,-2.1056,-1.7373,4.4697
1237101.0,-15.3708,-2.2889,11.7795,-1.7123,-1.798,4.6672
1237111.0,-15.3923,-3.1244,11.0564,-1.5155,-1.7224,4.7448
1237121.0,-15.4618,-4.5633,10.8649,-1.2941,-1.4984,4.8098
1237131.0,-14.4969,-7.4196,9.0405,-1.3031,-1.3521,4.7757
1237141.0,-12.1937,-10.75,8.7269,-2.1348,-1.392,4.3415
1237151.0,-10.8745,-12.2823,9.1004,-3.4114,-1.5724,3.479
1237161.0,-10.0365,-13.2519,12.0237,-4.6113,-1.7118,2.46
1237171.0,-9.9311,-12.9861,15.9334,-5.1673,-1.8571,1.5192
1237181.0,-10.0485,-12.56,19.5798,-5.0412,-2.2817,0.7822
1237191.0,-9.833,-11.6789,20.7649,-4.3527,-2.9729,0.216
1237201.0,-9.5241,-9.5888,19.393,-3.5444,-3.7956,-0.2645
1237211.0,-9.5433,-7.003,16.6469,-2.9761,-4.6225,-0.6327
1237221.0,-9.3254,-4.8076,13.2519,-2.692,-5.3185,-0.8471
1237231.0,-8.8035,-4.0558,10.9798,-2.5254,-5.7489,-0.8982
1237241.0,-8.418,-3.9456,8.928,-2.2546,-6.0294,-0.8679
1237251.0,-8.0517,-4.2018,7.4986,-1.9012,-6.2789,-0.8381
1237261.0,-7.8506,-4.2018,5.4923,-1.2702,-6.3997,-0.7859
1237271.0,-7.4196,-3.8595,3.0598,-0.6401,-6.4801,-0.7327
1237281.0,-6.4356,-3.8044,1.1325,-0.1671,-6.5551,-0.6678
1237291.0,-4.6639,-4.1204,-1.6376,0.4001,-6.5083,-0.5646
1237301.0,-2.66,-5.2409,-4.142,1.0387,-6.1049,-0.4629
1237311.0,-0.7015,-6.7924,-5.0302,1.5766,-5.3456,-0.4502
1237321.0,0.2873,-7.7213,-3.8355,1.7272,-4.6528,-0.6492
1237331.0,0.4764,-7.039,-2.2625,1.4809,-4.3628,-1.0499
1237341.0,0.7661,-4.6136,-2.3415,0.8918,-4.5256,-1.4974
1237351.0,0.8236,-2.7078,-2.2027,0.2144,-4.7826,-1.8023
1237361.0,1.5395,-0.9816,-3.7852,0.1586,-4.7752,-1.8688
1237371.0,2.1524,-0.5171,-4.4556,0.5066,-4.4586,-1.7496
1237381.0,2.9233,-0.6321,-5.0542,1.268,-3.9728,-1.525
1237391.0,3.5386,-0.6584,-5.6503,2.1758,-3.4199,-1.2904
1237401.0,4.2401,-0.407,-6.699,2.8096,-3.0634,-1.0946
1237411.0,4.9608,0.3112,-8.5281,3.0091,-2.8654,-0.9275
1237421.0,4.5945,0.929,-9.7683,2.9447,-2.5494,-0.7375
1237431.0,5.3486,0.5914,-10.41,2.9064,-2.1136,-0.4885
1237441.0,6.3518,-0.6033,-11.3772,3.0059,-1.6341,-0.2405
1237451.0,7.3095,-2.0662,-13.6877,3.1118,-1.1696,-0.0681
1237461.0,7.5441,-3.3878,-17.0539,2.9814,-0.6151,-0.05
1237471.0,7.4747,-4.3694,-20.3962,2.5478,0.1676,-0.232
1237481.0,7.8697,-4.7645,-22.1823,1.8847,1.2542,-0.6066
1237491.0,6.3662,-3.7373,-21.397,1.1903,2.6068,-1.0467
1237501.0,3.4405,-2.4421,-18.239,0.629,3.8967,-1.3313
1237511.0,0.8523,-1.6855,-16.2662,0.4145,4.8944,-1.3835
1237521.0,-1.6879,-2.3846,-15.0763,0.3076,5.774,-1.284
1237531.0,-4.0462,-5.0494,-12.2727,0.3177,6.8909,-1.1339
1237541.0,-6.6415,-8.5305,-7.0797,0.5028,8.0865,-1.0908
1237551.0,-10.1706,-11.2887,-0.7685,0.7476,8.9038,-1.2936
1237561.0,-13.0987,-12.4522,6.4715,1.2318,9.3338,-1.7022
1237571.0,-15.5503,-11.2671,13.2471,2.3168,9.5477,-2.1918
1237581.0,-17.8416,-7.3646,18.986,3.6684,9.4232,-2.6627
1237591.0,-19.1249,-2.6671,21.7154,4.6257,8.6798,-2.974
1237601.0,-19.1847,-0.4238,23.2573,4.7752,7.7348,-3.0847
1237611.0,-19.2877,-0.395,24.8566,4.109,6.8392,-3.1858
1237621.0,-19.0195,-1.8316,28.3473,2.883,5.9325,-3.4837
1237631.0,-19.9796,-1.4892,32.1637,1.8528,5.1822,-3.9648
1237641.0,-21.2701,0.1844,37.7446,1.093,4.449,-4.4772
1237651.0,-23.3506,3.5003,42.6886,0.7269,3.3294,-4.9045
1237661.0,-24.5214,7.7381,45.2528,0.8152,1.8486,-5.1423
1237671.0,-25.2133,11.8082,45.169,1.3638,0.3517,-5.1423
1237681.0,-24.7728,15.1816,42.1284,1.9167,-1.2047,-4.9912
1237691.0,-23.7936,17.3795,38.6137,2.1801,-2.4818,-4.7544
1237701.0,-24.3011,20.1664,35.1708,2.1173,-3.5444,-4.4809
1237711.0,-22.2685,23.377,29.7288,1.549,-4.8401,-4.118
1237721.0,-19.9748,25.685,25.9244,0.4922,-5.9517,-3.6849
1237731.0,-17.7434,26.7001,21.5694,-0.3108,-6.6211,-3.04
1237741.0,-15.8185,25.6611,18.2845,-1.0211,-7.0601,-2.3168
1237751.0,-14.267,23.7744,14.9135,-1.7432,-7.6321,-1.6559
1237761.0,-12.4139,20.7458,10.9247,-2.2583,-8.1967,-1.0536
1237771.0,-10.0054,17.1425,5.6431,-2.4568,-8.5032,-0.5454
1237781.0,-7.7069,13.8912,0.6991,-2.5914,-8.4148,-0.2128
1237791.0,-5.2265,11.8178,-3.5817,-2.8585,-8.0572,-0.0601
1237801.0,-3.1891,10.2951,-6.347,-3.4215,-7.6076,-0.0436
1237811.0,-0.5171,10.2711,-10.3214,-4.118,-7.1872,-0.0665
1237821.0,0.8978,9.821,-13.2208,-5.0928,-6.6748,-0.0495
1237831.0,4.1204,8.2815,-15.7251,-5.9027,-6.0379,0.0692
1237841.0,6.9623,6.2106,-16.5775,-6.1645,-5.0678,0.2246
1237851.0,8.849,4.6926,-17.6357,-5.6143,-3.8392,0.4411
1237861.0,9.7636,3.0095,-18.0212,-4.5905,-2.5563,0.6965
1237871.0,10.8146,2.4612,-20.6931,-3.4029,-1.3638,0.9477
1237881.0,10.9295,1.2689,-21.4233,-2.4663,0.0112,1.2004
1237891.0,9.5936,0.4166,-20.2166,-1.442,1.6533,1.4468
1237901.0,7.8937,-0.2394,-16.5487,-0.3831,3.2124,1.6469
1237911.0,5.5258,-0.1796,-12.6414,0.9424,4.6927,1.8448
1237921.0,2.0853,-0.0886,-9.1339,2.105,5.9618,2.0763
1237931.0,-0.9313,-1.9417,-3.3662,2.9266,7.2128,2.3248
1237941.0,-4.4245,-4.1492,3.6775,3.5827,8.376,2.4094
1237951.0,-6.5673,-5.6264,11.9255,3.8621,9.0353,2.137
1237961.0,-8.3294,-4.865,20.7625,3.6216,8.9406,1.541
1237971.0,-6.529,-2.6743,26.4703,2.6898,7.663,0.8461
1237981.0,-5.8466,0.5842,28.1869,1.3888,5.8325,0.2682
1237991.0,-6.4572,4.9416,24.2054,0.0341,3.9307,-0.0474
1238001.0,-6.28,7.1994,20.5662,-1.1547,2.7558,0.0415
1238011.0,-6.6272,6.2704,19.6372,-1.4729,2.8702,0.5688
1238021.0,-7.7452,3.0191,23.0825,-1.6831,3.0027,1.0823
1238031.0,-7.343,0.6033,25.4384,-1.7368,2.2429,1.3697
1238041.0,-6.6942,-0.4477,24.2988,-1.209,1.3202,1.5607
1238051.0,-5.9831,-0.6823,20.2119,-0.3528,0.6747,1.7187
1238061.0,-4.7525,-1.0367,14.2072,0.099,0.1639,1.7778
1238071.0,-2.818,-1.4724,7.2616,-0.1942,-0.1517,1.6362
1238081.0,-1.901,-0.5531,1.0726,-1.1685,0.0282,1.276
1238091.0,-2.6791,0.9457,-1.0558,-2.5978,0.7061,0.8865
1238101.0,-4.2784,2.4205,-0.17,-3.9094,1.4835,0.6886
1238111.0,-6.0071,3.1771,2.7821,-4.6847,2.1178,0.7774
1238121.0,-7.3287,3.122,6.4835,-4.5517,2.6818,1.1749
1238131.0,-7.999,1.5131,11.2671,-3.5497,3.1613,1.7757
1238141.0,-7.7955,-0.0934,13.5009,-1.9688,3.2533,2.3408
1238151.0,-7.4364,-1.3048,13.7882,-0.5364,3.0032,2.693
1238161.0,-6.5457,-1.822,11.7531,0.563,2.7744,2.8713
1238171.0,-6.0765,-2.3918,9.5936,0.9046,2.6675,2.8702
1238181.0,-5.9807,-2.7198,7.695,0.4198,2.5456,2.6909
1238191.0,-6.1986,-2.9856,7.6926,-0.6667,2.4158,2.3865
1238201.0,-6.948,-2.9616,9.0836,-1.6719,2.3301,2.104
1238211.0,-8.1666,-3.5793,10.975,-2.2226,2.1854,1.9773
1238221.0,-8.0661,-6.0406,13.1585,-2.1093,2.0949,2.0258
1238231.0,-7.9416,-8.6957,15.0116,-1.3335,2.1774,2.0353
1238241.0,-7.9847,-10.1969,16.5559,-0.4837,2.088,1.8161
1238251.0,-7.4364,-10.8362,16.3237,0.0601,1.6166,1.3601
1238261.0,-6.8474,-10.2185,15.6772,0.1644,1.0972,0.7226
1238271.0,-6.6702,-8.3007,14.3939,-0.0958,0.6444,0.0793
1238281.0,-7.1227,-6.9264,14.4658,-0.8008,0.1783,-0.4704
1238291.0,-7.6806,-5.7269,13.9845,-1.5431,-0.4023,-0.9019
1238301.0,-8.1882,-5.4492,13.9773,-2.054,-0.8748,-1.202
1238311.0,-8.5976,-5.7988,13.8888,-2.0481,-1.0621,-1.3659
1238321.0,-8.6694,-7.2425,15.3444,-1.7443,-1.0876,-1.4904
1238331.0,-9.1363,-7.6423,17.0419,-1.3106,-1.2744,-1.7155
1238341.0,-9.6414,-6.6846,18.737,-0.9073,-1.8007,-2.0332
1238351.0,-10.2759,-4.2832,18.2606,-0.4901,-2.5563,-2.2886
1238361.0,-10.805,-1.9704,16.6876,-0.3624,-3.4188,-2.3956
1238371.0,-11.2097,-0.1341,14.5328,-0.5199,-4.2612,-2.3557
1238381.0,-11.4898,0.7159,12.5672,-0.7859,-4.9678,-2.1758
1238391.0,-10.7093,0.0096,10.6279,-0.8663,-5.4057,-1.873
1238401.0,-10.0006,-1.3096,8.7077,-0.8242,-5.6117,-1.6022
1238411.0,-9.5026,-2.8659,8.4204,-0.9434,-5.774,-1.4809
1238421.0,-9.1985,-3.7254,9.0644,-0.9472,-5.932,-1.4995
1238431.0,-9.3182,-3.3279,9.1482,-0.7827,-6.2459,-1.5953
1238441.0,-10.2185,-2.2122,7.7931,-0.6125,-6.7903,-1.6591
1238451.0,-10.173,-2.0087,5.0087,-0.4395,-7.3272,-1.566
1238461.0,-9.7564,-3.1077,1.7933,-0.2522,-7.6151,-1.3984
1238471.0,-9.1195,-5.1475,-1.1349,0.0234,-7.5448,-1.2936
1238481.0,-7.3909,-7.2664,-3.5075,0.232,-7.2389,-1.376
1238491.0,-5.6982,-8.4491,-4.6495,0.2054,-6.8839,-1.7198
1238501.0,-4.1061,-8.2313,-4.8411,0.0702,-6.5673,-2.2311
1238511.0,-4.0725,-6.2872,-4.9177,0.1596,-6.1656,-2.7351
1238521.0,-3.3495,-3.8092,-5.1404,0.4315,-5.8309,-3.0847
1238531.0,-3.0813,-1.8172,-5.4037,0.9498,-5.4307,-3.2161
1238541.0,0.2418,-0.5124,-8.0565,1.5836,-5.0386,-3.1395
1238551.0,2.4157,0.9146,-11.1282,1.8422,-4.5267,-2.9846
1238561.0,4.7549,1.9465,-15.2846,1.3505,-4.1436,-2.7989
1238571.0,6.3734,1.4796,-17.2957,0.6226,-3.3725,-2.6052
1238581.0,6.9145,1.0175,-17.4394,0.5646,-1.9752,-2.4051
1238591.0,8.2097,0.6847,-15.2271,0.903,-0.4693,-2.2578
1238601.0,8.3127,1.798,-12.7515,1.4713,0.886,-2.1433
1238611.0,7.3837,2.9305,-9.9407,1.673,1.8315,-1.9912
1238621.0,5.9376,3.4716,-6.9312,1.5841,2.5414,-1.7842
1238631.0,4.6807,3.395,-3.4261,1.4277,3.1139,-1.5506
1238641.0,3.893,2.6767,0.2993,1.2441,3.4981,-1.3228
1238651.0,3.2034,1.7645,3.3686,1.0515,3.6184,-1.1291
1238661.0,3.2082,-0.1867,5.9376,0.8163,3.4641,-0.9716
1238671.0,3.6512,-2.0423,7.3574,0.779,3.297,-0.9253
1238681.0,3.7038,-2.9233,8.0637,0.8886,3.1427,-1.035
1238691.0,3.5099,-2.5881,8.4228,1.0562,2.9389,-1.2478
1238701.0,3.2298,-1.0534,7.2856,1.4016,2.7766,-1.4309
1238711.0,3.4165,0.5171,4.8363,1.674,2.6723,-1.5186
1238721.0,3.1556,1.8316,2.1428,1.6863,2.7297,-1.533
1238731.0,2.4756,2.7198,0.4717,1.657,3.1735,-1.4537
1238741.0,1.3934,2.3966,1.5107,1.7107,3.9563,-1.3063
1238751.0,-0.1077,1.9297,4.0438,1.9151,4.7353,-1.1813
1238761.0,-1.3886,1.6831,7.5178,2.1104,5.1854,-1.1488
1238771.0,-2.1524,2.387,10.173,2.3557,5.2844,-1.1808
1238781.0,-3.4572,3.7302,11.2384,2.5153,5.1046,-1.2255
1238791.0,-2.0758,4.6878,12.548,2.5121,4.8337,-1.2473
1238801.0,-4.2042,6.8307,12.2296,2.3817,4.4602,-1.2047
1238811.0,-3.0526,7.3646,10.9391,2.1285,4.0648,-1.0658
1238821.0,-4.1683,7.7835,9.8976,2.0321,4.1409,-0.886
1238831.0,-5.0159,6.9097,10.9223,2.0114,4.4964,-0.6933
1238841.0,-5.0542,6.4548,13.1274,2.1354,4.9135,-0.5992
1238851.0,-5.4995,6.857,15.6533,1.9151,4.9199,-0.6407
1238861.0,-5.4013,7.8003,16.9701,1.2579,4.3708,-0.7189
1238871.0,-4.8626,9.0549,15.2104,0.3443,3.5668,-0.7476
1238881.0,-4.2689,9.6438,11.4156,-0.8264,2.7819,-0.6965
1238891.0,-4.8483,10.9846,4.4125,-1.873,2.3993,-0.5459
1238901.0,-8.3486,10.4794,0.577,-2.817,2.8569,-0.2054
1238911.0,-8.9447,7.106,3.0382,-2.5249,4.6267,0.3384
1238921.0,-12.1985,5.2026,8.8011,-1.6464,6.4157,0.729
1238931.0,-13.4698,2.7845,17.5567,-1.1866,6.992,0.9275
1238941.0,-13.1585,1.8052,22.1655,-0.8226,6.4939,0.9903
1238951.0,-11.5903,0.5842,24.3658,-0.9371,5.302,0.9057
1238961.0,-10.2711,1.3048,21.4449,-1.0536,4.0627,0.7205
1238971.0,-9.2464,3.1532,16.4506,-1.5277,3.1043,0.5114
1238981.0,-8.9447,5.0278,11.2264,-2.4355,2.5813,0.3954
1238991.0,-10.0748,5.9424,7.5609,-3.6865,2.4216,0.439
1239001.0,-11.8896,5.1332,7.9583,-4.8891,2.4929,0.6758
1239011.0,-12.7491,0.8906,11.8489,-5.0199,2.9256,1.2377
1239021.0,-12.0787,-4.7381,16.9629,-3.8866,3.4311,1.839
1239031.0,-11.0133,-9.335,20.7194,-2.2258,3.4827,2.1136
1239041.0,-8.8992,-12.5672,21.5574,-0.7636,2.9644,1.9183
1239051.0,-7.1706,-13.8217,19.7115,0.1495,2.2338,1.251
1239061.0,-5.8514,-13.0484,16.5487,0.2618,1.574,0.2751
1239071.0,-5.7868,-11.2216,14.2886,-0.447,1.0999,-0.7593
1239081.0,-6.5721,-9.5146,12.5241,-1.6948,0.63,-1.6953
1239091.0,-7.1299,-8.6072,11.1091,-3.1075,0.1298,-2.4844
1239101.0,-7.9535,-7.3574,9.165,-4.1366,-0.1235,-3.1097
1239111.0,-8.8873,-6.1866,8.339,-4.7023,-0.0218,-3.5221
1239121.0,-9.3613,-5.782,8.7173,-4.657,0.331,-3.6849
1239131.0,-9.6223,-5.6,9.0022,-4.0723,0.7418,-3.7046
1239141.0,-9.7348,-5.5881,9.5816,-3.3571,1.0504,-3.7019
1239151.0,-9.6726,-4.9488,9.8426,-2.7111,1.2313,-3.7205
1239161.0,-9.754,-4.1731,11.0349,-2.2977,1.3159,-3.7301
1239171.0,-9.9048,-3.632,12.8904,-1.9688,1.3047,-3.6785
1239181.0,-10.0724,-3.371,15.0811,-1.6618,1.093,-3.5785
1239191.0,-9.7659,-3.6224,16.6565,-1.326,0.6199,-3.4518
1239201.0,-9.4451,-4.1037,17.03,-0.8551,0.0995,-3.3193
1239211.0,-9.3565,-4.3718,16.6205,-0.4677,-0.4432,-3.2528
1239221.0,-9.1339,-4.312,16.0675,-0.2703,-1.0041,-3.2491
1239231.0,-9.2033,-3.9409,15.4378,-0.1346,-1.4782,-3.2549
1239241.0,-9.8378,-3.3016,14.801,-0.0697,-1.9411,-3.247
1239251.0,-9.9455,-2.5307,13.4099,-0.0298,-2.4307,-3.2097
1239261.0,-9.742,-1.5778,12.3253,-0.0553,-2.8622,-3.1592
1239271.0,-9.6941,-0.5028,10.9223,0.049,-3.1379,-3.0192
1239281.0,-9.2775,-0.2442,9.6558,0.1799,-3.3395,-2.784
1239291.0,-8.5042,-0.7925,8.3893,0.3751,-3.4561,-2.5057
1239301.0,-7.7907,-1.6233,7.3263,0.6518,-3.4332,-2.2445
1239311.0,-6.936,-2.6288,6.9288,0.9802,-3.2996,-2.0258
1239321.0,-6.4763,-3.1149,6.1962,1.2792,-3.1767,-1.873
1239331.0,-5.6192,-3.2777,5.4588,1.3015,-3.1629,-1.8017
1239341.0,-4.6974,-3.2441,5.0661,1.1095,-3.1592,-1.7858
1239351.0,-3.7996,-3.0789,4.5059,0.8939,-3.0942,-1.7783
1239361.0,-3.1556,-2.9257,4.4436,0.5741,-3.0112,-1.8033
1239371.0,-2.4684,-2.6959,4.7764,0.3001,-2.8686,-1.8299
1239381.0,-2.3583,-2.478,5.4277,0.0793,-2.7116,-1.8289
1239391.0,-1.9656,-2.9688,6.4787,-0.1517,-2.6675,-1.7927
1239401.0,-1.5155,-3.5865,6.9121,-0.2682,-2.6765,-1.7538
1239411.0,-1.245,-3.9169,7.4867,-0.4039,-2.7537,-1.7741
1239421.0,-0.4405,-3.9528,7.5298,-0.5034,-2.9107,-1.8166
1239431.0,-0.0455,-3.62,6.8163,-0.5688,-3.1022,-1.8709
1239441.0,0.0479,-2.8347,5.5115,-0.6178,-3.2629,-1.9204
1239451.0,0.0479,-2.2721,4.7238,-0.5699,-3.2432,-1.8996
1239461.0,0.486,-2.6743,4.9967,-0.2128,-2.9713,-1.7602
1239471.0,0.6776,-3.1412,5.2529,0.3709,-2.6967,-1.5974
1239481.0,1.1516,-3.383,5.4636,0.9237,-2.6116,-1.4851
1239491.0,1.6712,-2.7414,4.695,1.5357,-2.5632,-1.3729
1239501.0,2.2697,-1.8986,3.6009,2.1013,-2.4179,-1.1935
1239511.0,3.2154,-1.3431,2.5786,2.5004,-2.1785,-0.9482
1239521.0,4.2234,-1.221,2.0327,2.6776,-1.8597,-0.6902
1239531.0,5.126,-1.3575,2.1644,2.5956,-1.5506,-0.4906
1239541.0,5.4923,-1.3575,2.1213,2.3477,-1.3335,-0.3773
1239551.0,5.9903,-1.2474,1.5682,2.0007,-1.2058,-0.3411
1239561.0,6.4979,-0.6057,0.5171,1.6559,-0.9945,-0.3602
1239571.0,6.9001,0.7853,-0.7374,1.3393,-0.6188,-0.3746
1239581.0,6.754,2.138,-1.1181,0.994,-0.0745,-0.3134
1239591.0,6.5218,3.3303,-0.5171,0.7301,0.6039,-0.1368
1239601.0,5.6599,4.0917,1.3312,0.563,1.2866,0.141
1239611.0,4.6567,4.2976,3.8116,0.6146,1.88,0.5124
1239621.0,3.6224,4.5466,5.7102,0.8157,2.2891,0.9126
1239631.0,2.569,4.7429,7.6016,0.986,2.5164,1.3149
1239641.0,1.494,5.0278,8.5473,1.2329,2.6803,1.7485
1239651.0,1.2115,5.0254,8.4013,1.3287,2.7037,2.1721
1239661.0,1.0774,5.2265,6.1004,1.0302,2.5462,2.5233
1239671.0,-0.5698,5.4444,2.9951,0.2043,2.3929,2.8112
1239681.0,-3.134,3.8307,3.0526,-0.6109,2.7047,3.1826
1239691.0,-5.3223,-0.0814,7.7883,-0.4518,3.7067,3.6945
1239701.0,-5.9376,-3.7852,13.5536,0.5002,4.5214,4.0707
1239711.0,-5.7341,-5.8945,18.1792,1.4319,4.5299,4.1207
1239721.0,-5.2744,-5.9472,19.8767,2.0577,3.9158,3.9302
1239731.0,-4.604,-4.6639,18.6556,2.2625,3.0267,3.6652
1239741.0,-4.1539,-2.6695,15.2606,2.112,2.2173,3.4273
1239751.0,-3.3734,-0.2298,8.8777,1.6341,1.6841,3.2273
1239761.0,-3.3064,2.2625,2.8371,0.4486,1.5915,3.0048
1239771.0,-5.0733,4.8052,-1.3791,-1.334,1.9055,2.8521
1239781.0,-9.7229,5.4205,0.1484,-3.3832,2.4765,2.9628
1239791.0,-11.5855,-0.4669,10.0604,-4.2021,3.4545,3.5609
1239801.0,-11.7483,-6.2177,17.2359,-3.2911,3.8908,4.1622
1239811.0,-10.9583,-9.73,22.6444,-2.1364,3.1943,4.2654
1239821.0,-9.0597,-8.9567,21.1049,-0.5688,2.1034,4.0962
1239831.0,-8.0589,-5.9113,15.4187,0.5731,1.3069,3.8786
1239841.0,-7.5609,-2.5522,9.3158,0.6902,0.9147,3.6929
1239851.0,-7.8027,0.2825,4.0989,-0.1596,0.8413,3.5721
1239861.0,-9.3326,1.8364,1.4844,-1.616,1.0163,3.5492
1239871.0,-12.1051,1.7789,2.1356,-2.9495,1.425,3.7211
1239881.0,-13.8959,-1.1085,5.8562,-3.4949,1.9757,4.1409
1239891.0,-14.2335,-5.8275,10.7236,-3.115,2.4238,4.6065
1239901.0,-13.7379,-9.991,15.3971,-2.1205,2.5472,4.8332
1239911.0,-12.0524,-12.1099,17.7793,-0.8594,2.2391,4.7225
1239921.0,-10.1514,-12.287,16.9629,0.1612,1.6474,4.3282
1239931.0,-8.7364,-10.4483,13.5871,0.4502,1.0275,3.7557
1239941.0,-8.3199,-8.0541,10.0102,-0.2916,0.472,3.1347
1239951.0,-8.0613,-6.3901,7.0701,-1.7565,-0.0277,2.5669
1239961.0,-8.5928,-5.2625,5.0949,-3.3433,-0.3704,2.0976
1239971.0,-10.1179,-4.7118,4.6783,-4.5554,-0.5225,1.8145
1239981.0,-10.4746,-6.7229,7.4627,-4.7422,-0.2937,1.8518
1239991.0,-10.0221,-9.9455,11.1809,-3.3789,0.3576,2.0667
1240001.0,-9.7252,-12.5313,14.0755,-1.3101,0.8572,2.0992
1240011.0,-8.6072,-13.441,15.1409,0.4012,0.7402,1.7842
1240021.0,-7.4986,-12.6797,14.0157,1.309,0.2538,1.2286
1240031.0,-7.2736,-10.8649,11.9207,1.2393,-0.2336,0.5864
1240041.0,-7.8171,-9.4044,11.2982,0.224,-0.6811,-0.0639
1240051.0,-8.7724,-8.6119,11.8178,-1.1637,-1.1813,-0.671
1240061.0,-9.0166,-8.6263,12.2894,-2.3514,-1.7224,-1.2148
1240071.0,-9.4451,-8.6048,12.7587,-3.0405,-2.0779,-1.7065
1240081.0,-9.833,-8.4803,14.9949,-3.1347,-2.1412,-2.1205
1240091.0,-10.6303,-7.8314,18.2989,-2.5749,-2.1343,-2.4163
1240101.0,-11.8034,-6.2944,21.0355,-1.7459,-2.5871,-2.6345
1240111.0,-12.6749,-4.6304,21.5239,-0.895,-3.5822,-2.7218
1240121.0,-13.3573,-3.4213,19.0339,-0.0122,-4.673,-2.6345
1240131.0,-13.8529,-2.4756,15.5168,0.6646,-5.5866,-2.4754
1240141.0,-13.9486,-1.8316,12.141,1.1393,-6.2076,-2.2774
1240151.0,-13.611,-1.6233,9.5074,1.5112,-6.5615,-2.0348
1240161.0,-12.8617,-1.6185,7.2927,1.7437,-6.8212,-1.8065
1240171.0,-11.6382,-1.8771,5.1475,1.8528,-7.0478,-1.6166
1240181.0,-10.1993,-2.2913,2.7342,1.9332,-7.1074,-1.4644
1240191.0,-9.0333,-2.5762,0.4932,1.7996,-7.0414,-1.3893
1240201.0,-7.6998,-3.3208,-0.7781,1.4069,-6.9238,-1.3963
1240211.0,-6.2441,-4.5179,-1.6472,0.9977,-6.744,-1.4835
1240221.0,-5.2577,-5.4971,-1.9082,0.795,-6.4242,-1.6708
1240231.0,-4.8866,-5.3271,-1.0319,0.9594,-5.973,-1.9348
1240241.0,-4.3838,-4.1851,-0.6057,1.5788,-5.5733,-2.1151
1240251.0,-2.7438,-3.6823,-1.9728,2.4259,-5.3291,-2.0944
1240261.0,-0.261,-4.4532,-4.9823,3.2187,-4.9572,-1.9523
1240271.0,1.6592,-4.944,-7.4077,3.6764,-4.2542,-1.9151
1240281.0,3.0957,-5.3032,-7.2305,3.6796,-3.4167,-2.0321
1240291.0,3.3806,-4.5059,-6.5074,3.4678,-2.7446,-2.2647
1240301.0,3.802,-3.5482,-6.3111,3.0847,-2.3413,-2.5041
1240311.0,3.79,-2.727,-6.7469,2.7095,-1.8959,-2.6882
1240321.0,4.7956,-1.9632,-7.5178,2.3003,-1.4005,-2.8564
1240331.0,6.2225,-1.1684,-7.8458,1.8235,-0.787,-3.0612
1240341.0,6.3758,0.9218,-7.7835,1.3744,0.05,-3.2746
1240351.0,5.715,2.8611,-4.7046,0.7971,0.9328,-3.4039
1240361.0,4.9081,5.5905,-1.0439,0.4645,1.6543,-3.355
1240371.0,3.8595,7.6447,3.1867,0.3746,2.1258,-3.0394
1240381.0,3.2872,8.2528,6.5769,0.6465,2.3887,-2.4626
1240391.0,2.806,7.1395,9.268,1.1249,2.4786,-1.782
1240401.0,2.6863,4.6519,10.635,1.6506,2.3743,-1.1728
1240411.0,3.1053,1.7286,10.137,2.014,2.1471,-0.7705
1240421.0,3.9816,-1.8579,9.5361,1.9805,1.963,-0.6353
1240431.0,4.628,-4.7884,8.691,1.649,1.8438,-0.821
1240441.0,4.3311,-6.5984,8.6718,1.1478,1.8049,-1.2914
1240451.0,3.9792,-6.8761,9.074,0.754,1.8459,-1.9039
1240461.0,2.7677,-5.5976,9.5624,0.5906,1.9678,-2.5041
1240471.0,1.4269,-3.9409,9.9814,0.5656,2.1189,-2.9857
1240481.0,-0.2322,-2.2817,10.6398,0.3693,2.2045,-3.3848
1240491.0,-1.3575,-1.7286,13.8959,-0.0362,2.2652,-3.7296
1240501.0,-1.6257,-0.5124,17.1377,-0.373,2.105,-4.0675
1240511.0,-2.4014,1.4054,21.1791,-0.8663,1.5107,-4.4197
1240521.0,-3.2657,4.5131,23.274,-0.97,0.6843,-4.6028
1240531.0,-3.8978,7.6351,23.3459,-0.6284,-0.1405,-4.5368
1240541.0,-3.9528,10.8386,20.5734,-0.1634,-0.9381,-4.291
1240551.0,-3.5482,13.7236,16.9342,-0.0341,-1.5123,-3.9717
1240561.0,-3.5578,16.3955,14.5232,-0.5007,-1.8108,-3.6466
1240571.0,-4.1755,17.9996,15.5288,-1.3665,-1.9342,-3.297
1240581.0,-5.2313,19.3523,17.2071,-2.2141,-2.2652,-2.8819
1240591.0,-5.2529,19.4409,18.4186,-2.8681,-2.9782,-2.3519
1240601.0,-4.4053,19.2973,16.4673,-2.9479,-3.7615,-1.7288
1240611.0,-3.0598,18.8879,12.3493,-2.5861,-4.2324,-1.0403
1240621.0,-1.7382,18.5455,7.252,-2.105,-4.2415,-0.3469
1240631.0,-0.3376,18.1433,3.6416,-1.8017,-3.8174,0.3012
1240641.0,0.4405,17.5854,1.9489,-1.6256,-3.1059,0.9248
1240651.0,0.5914,16.6565,1.3767,-1.6166,-2.3977,1.5298
1240661.0,0.4238,15.0332,1.2953,-1.9145,-1.9529,2.0981
1240671.0,0.5459,12.6079,0.8787,-2.3865,-1.7624,2.6244
1240681.0,0.9218,9.517,0.4142,-2.718,-1.5469,3.1081
1240691.0,1.1157,6.9983,-1.2833,-2.7984,-1.1941,3.5295
1240701.0,1.4653,4.4724,-2.6911,-2.9777,-0.7615,3.8674
1240711.0,1.5323,2.1284,-3.213,-3.189,-0.2054,4.1303
1240721.0,0.9002,0.4166,-2.7031,-3.3081,0.4464,4.3277
1240731.0,-0.2682,-0.9098,-0.498,-3.2507,1.0541,4.5006
1240741.0,-2.1428,-1.5754,0.9792,-2.8096,1.5506,4.7369
1240751.0,-3.6775,-3.0742,1.8411,-2.1817,2.0454,5.0918
1240761.0,-4.3814,-5.8203,2.2769,-1.7703,2.5265,5.4573
1240771.0,-4.1539,-9.517,3.6105,-1.8725,2.8755,5.6399
1240781.0,-3.5985,-13.3046,5.77,-2.2977,3.0123,5.5499
1240791.0,-2.6815,-16.7714,8.1547,-2.7526,2.892,5.1753
1240801.0,-1.1444,-18.1792,9.8904,-2.9256,2.6185,4.5331
1240811.0,-1.0918,-16.5535,11.0085,-2.7915,2.2753,3.7748
1240821.0,-2.9999,-12.5576,10.0126,-2.3083,1.8853,3.1655
1240831.0,-3.6248,-10.07,6.9791,-1.6905,1.6953,2.9309
1240841.0,-2.3774,-11.8106,5.6336,-1.2877,2.1716,3.0144
1240851.0,-1.9441,-15.4498,9.0166,-1.4702,2.767,2.9814
1240861.0,-1.7214,-17.9996,13.5991,-1.7975,2.6132,2.6717
1240871.0,-1.7573,-18.8472,14.5783,-1.5724,1.9757,2.2258
1240881.0,-0.1963,-19.235,12.141,-0.9881,1.4197,1.6969
1240891.0,0.395,-18.7586,10.9176,-0.4443,1.2898,1.0493
1240901.0,-0.2059,-16.0771,9.8881,0.215,1.4037,0.4065
1240911.0,-1.4341,-12.9814,9.1722,0.7556,1.4383,-0.1054
1240921.0,-2.0806,-10.4866,6.845,1.1478,1.3702,-0.4241
1240931.0,-1.5538,-9.9671,5.5474,1.2622,1.5921,-0.5843
1240941.0,-1.6712,-11.1474,7.6327,1.1589,2.1412,-0.7082
1240951.0,-2.2889,-12.8736,12.0357,1.0147,2.3743,-0.9461
1240961.0,-2.32,-13.8768,15.275,1.1355,2.0045,-1.3372
1240971.0,-2.3391,-13.125,15.5815,1.6267,1.4,-1.8193
1240981.0,-2.873,-11.2671,14.8584,2.1827,0.9035,-2.279
1240991.0,-3.4213,-9.2703,14.1856,2.6664,0.5119,-2.6329
1241001.0,-4.027,-7.3095,13.5608,3.0501,0.0995,-2.8968
1241011.0,-4.4005,-5.4803,12.6581,3.4295,-0.3081,-3.0554
1241021.0,-4.3886,-4.276,11.7053,3.8631,-0.6029,-3.0857
1241031.0,-4.5131,-3.5865,10.7236,4.2995,-0.7593,-3.0314
1241041.0,-4.6424,-3.3279,9.9096,4.5671,-0.9088,-2.9846
1241051.0,-4.2497,-2.6935,8.6886,4.5363,-1.1536,-3.0692
1241061.0,-3.6129,-1.1229,7.4364,4.1648,-1.4362,-3.2964
1241071.0,-3.6847,1.0798,6.2513,3.6067,-1.6059,-3.5125
1241081.0,-4.0773,3.0718,6.0597,3.0474,-1.5958,-3.5997
1241091.0,-3.814,4.3191,6.8618,2.7223,-1.4745,-3.5189
1241101.0,-3.7469,5.1595,8.0756,2.7952,-1.3436,-3.2943
1241111.0,-3.1939,5.6048,7.6064,3.2049,-1.351,-2.9261
1241121.0,-2.3822,5.1978,5.2457,3.5923,-1.4218,-2.5339
1241131.0,-0.9649,5.0685,1.8555,3.6269,-1.3909,-2.3152
1241141.0,-0.2155,5.636,-0.7398,3.1629,-1.1105,-2.2801
1241151.0,-0.0048,7.0054,-2.1955,2.3674,-0.6763,-2.3195
1241161.0,0.6536,8.4443,-2.9113,1.3941,-0.2107,-2.3163
1241171.0,0.7638,9.7636,-3.1244,0.481,0.3352,-2.1886
1241181.0,0.4573,10.6039,-3.1412,-0.2261,1.0014,-1.8954
1241191.0,-0.2322,10.3932,-2.4948,-0.729,1.7932,-1.4543
1241201.0,-0.9481,8.8298,-0.929,-1.0382,2.6563,-0.9583
1241211.0,-1.9345,7.2042,0.8978,-1.2904,3.3949,-0.5582
1241221.0,-2.885,6.1268,2.9042,-1.6198,3.8647,-0.2868
1241231.0,-4.1539,6.1651,3.5506,-1.9486,4.1063,-0.0681
1241241.0,-5.5737,6.1363,3.6129,-2.3307,4.284,0.2123
1241251.0,-6.8953,5.1451,3.8595,-2.5834,4.6352,0.6173
1241261.0,-8.3222,3.292,4.7908,-2.7558,5.0976,1.0637
1241271.0,-10.0221,0.7111,7.4723,-2.8191,5.6042,1.5048
1241281.0,-10.9535,-2.8659,11.9088,-2.5121,6.1624,1.9247
1241291.0,-11.5161,-6.6367,16.8408,-1.9624,6.4332,2.1444
1241301.0,-10.9223,-9.7636,21.6771,-1.4016,6.1906,2.0316
1241311.0,-8.7843,-11.8154,24.2389,-0.8445,5.5553,1.6384
1241321.0,-7.3239,-12.627,24.6483,-0.7428,4.6187,0.9663
1241331.0,-7.027,-11.6262,23.0945,-1.3063,3.4268,0.116
1241341.0,-7.7548,-9.7923,19.9844,-2.3322,2.2008,-0.688
1241351.0,-8.6838,-8.8514,17.0036,-3.2863,1.3787,-1.2414
1241361.0,-8.6407,-10.2376,16.8336,-3.5146,1.3963,-1.4798
1241371.0,-9.4475,-11.655,18.8663,-2.9186,1.7655,-1.6517
1241381.0,-9.821,-12.0835,21.6579,-1.8922,1.7496,-1.9183
1241391.0,-9.7133,-10.8481,21.1384,-0.6125,1.2446,-2.2402
1241401.0,-9.4978,-9.0022,17.8176,0.323,0.6039,-2.56
1241411.0,-9.0644,-7.2592,13.3477,0.5146,0.1149,-2.8612
1241421.0,-9.1602,-6.2034,10.7404,-0.1117,-0.1501,-3.181
1241431.0,-9.5385,-5.3798,9.7707,-1.0062,-0.2331,-3.4784
1241441.0,-10.1897,-4.8195,10.2041,-1.7054,-0.2139,-3.6902
1241451.0,-10.4866,-4.3455,10.7188,-1.8959,-0.1687,-3.7748
1241461.0,-10.3166,-4.039,11.2168,-1.5543,-0.0277,-3.745
1241471.0,-10.0149,-3.7326,11.564,-0.8881,0.1799,-3.6487
1241481.0,-9.8689,-3.2801,11.6574,-0.2895,0.2762,-3.5513
1241491.0,-9.5648,-2.6121,11.5353,-0.0734,0.141,-3.4997
1241501.0,-9.5481,-2.0351,11.3916,-0.1937,-0.0835,-3.4545
1241511.0,-9.7659,-1.7334,10.8146,-0.5023,-0.3347,-3.3763
1241521.0,-9.8138,-2.4972,10.6901,-0.9408,-0.5667,-3.2837
1241531.0,-9.6845,-3.6966,11.0061,-1.1419,-0.6103,-3.2044
1241541.0,-9.3685,-5.1499,12.6438,-0.9945,-0.4571,-3.1554
1241551.0,-9.414,-6.0789,14.6238,-0.5523,-0.3746,-3.1698
1241561.0,-9.2153,-6.1986,15.9789,-0.0537,-0.6061,-3.2783
1241571.0,-8.6526,-5.0302,15.8927,0.3209,-1.1286,-3.4619
1241581.0,-8.2073,-3.213,14.4658,0.4794,-1.6788,-3.6003
1241591.0,-7.8626,-1.913,13.4961,0.4012,-2.0502,-3.6189
1241601.0,-7.6734,-1.3551,13.2926,0.199,-2.2886,-3.5428
1241611.0,-7.422,-1.3551,13.6302,-0.0527,-2.5568,-3.4422
1241621.0,-7.2161,-1.6352,14.2263,-0.2171,-2.8718,-3.3507
1241631.0,-7.1036,-1.798,14.7076,-0.1926,-3.1895,-3.2576
1241641.0,-7.2544,-1.9632,15.0954,-0.0021,-3.5444,-3.1528
1241651.0,-7.5369,-1.6496,14.1425,0.2826,-4.051,-3.065
1241661.0,-7.3981,-0.8284,12.4762,0.4933,-4.6203,-2.9958
1241671.0,-6.6966,0.1245,10.9008,0.8759,-4.8587,-2.8122
1241681.0,-6.1268,0.6823,10.1586,1.4324,-4.747,-2.4605
1241691.0,-5.873,0.6464,9.9934,1.789,-4.7555,-2.0417
1241701.0,-5.5186,0.0862,9.4643,1.8651,-5.0535,-1.6527
1241711.0,-4.6926,-0.9792,8.4252,1.8773,-5.3461,-1.3175
1241721.0,-3.7278,-1.7717,6.5529,1.7826,-5.5888,-1.0988
1241731.0,-2.5379,-2.2458,4.6663,1.3851,-5.9054,-1.0573
1241741.0,-1.2019,-1.7717,1.901,0.9456,-6.1395,-1.1318
1241751.0,-1.2019,-1.7717,1.901,0.9456,-6.1395,-1.1318
1241761.0,1.2043,-0.0335,-2.7557,0.1697,-5.7521,-1.2622
1241771.0,1.2043,-0.0335,-2.7557,0.1697,-5.7521,-1.2622
1241781.0,2.15,0.6416,-2.9856,0.0404,-5.1179,-1.2084
1241791.0,3.1125,1.6209,-3.1484,0.1697,-4.4235,-1.0722
1241801.0,3.8499,2.4804,-2.8874,0.1713,-3.9531,-0.9083
1241811.0,5.0996,3.8211,-3.8307,0.1575,-3.6099,-0.6976
1241821.0,6.0094,4.9297,-4.7477,0.0947,-3.1847,-0.3911
1241831.0,6.8307,5.3534,-5.5522,0.0479,-2.7122,0.0458
1241841.0,7.853,5.0757,-6.5841,0.1187,-2.1684,0.5481
1241851.0,8.8131,4.4939,-7.9942,0.2607,-1.5304,1.0328
1241861.0,9.3374,3.9073,-9.153,0.3576,-0.7801,1.4468
1241871.0,8.9232,3.7493,-9.3829,0.4491,0.1368,1.7996
1241881.0,7.6327,3.7421,-7.5657,0.5944,1.1653,2.1348
1241891.0,6.0525,3.9744,-5.3774,0.8902,2.0912,2.5132
1241901.0,4.2353,3.8571,-3.2872,1.0946,2.7526,2.9234
1241911.0,2.569,3.1508,-1.7358,1.2004,3.2938,3.3576
1241921.0,1.2258,1.5275,0.8212,1.1659,3.8605,3.7679
1241931.0,-0.0838,-0.2562,4.0103,0.9796,4.3277,4.0739
1241941.0,-1.3001,-2.0255,7.5585,0.5034,4.4543,4.2351
1241951.0,-1.9345,-3.5554,10.8457,-0.1463,4.2127,4.2888
1241961.0,-2.5857,-4.6256,13.5368,-0.754,3.6455,4.2808
1241971.0,-2.976,-4.7956,13.9989,-0.9844,2.9681,4.2936
1241981.0,-4.4939,-3.8882,12.2152,-1.052,2.2817,4.3447
1241991.0,-5.138,-3.9433,10.7619,-1.0105,1.8885,4.5517
1242001.0,-6.596,-5.0757,10.9654,-0.5928,2.0598,4.9226
1242011.0,-8.2815,-7.276,13.7595,-0.0521,2.2742,5.302
1242021.0,-8.406,-10.3813,17.2933,0.8019,2.3748,5.6298
1242031.0,-8.2001,-13.0364,20.413,1.7512,2.2471,5.733
1242041.0,-7.2209,-14.1689,21.7944,2.3977,1.6485,5.5318
1242051.0,-6.4093,-13.4458,20.2334,2.5994,0.7737,5.1141
1242061.0,-6.11,-11.0875,16.6636,2.112,-0.1554,4.6065
1242071.0,-6.4284,-8.8681,13.0245,1.0275,-0.9668,4.1648
1242081.0,-7.7572,-7.2042,9.8785,-0.1128,-1.4979,3.8791
1242091.0,-8.2959,-7.4651,9.019,-0.7732,-1.5586,3.8158
1242101.0,-8.26,-9.5409,10.6805,-0.5481,-1.1068,3.9297
1242111.0,-8.1523,-12.2607,13.9103,0.3698,-0.6332,4.027
1242121.0,-7.446,-14.2335,16.3476,1.5479,-0.605,3.9733
1242131.0,-6.3422,-15.2798,16.5224,2.7164,-0.8838,3.7849
1242141.0,-5.5522,-15.2654,15.4618,3.5827,-1.144,3.4774
1242151.0,-5.0925,-13.963,13.951,3.8855,-1.3611,3.0698
1242161.0,-5.1116,-12.0907,13.4003,3.5609,-1.6426,2.6191
1242171.0,-5.4947,-10.3645,13.7116,3.0277,-1.938,2.2333
1242181.0,-6.5218,-9.007,16.1058,2.892,-2.0614,1.9901
1242191.0,-7.4364,-7.6016,17.8464,3.6232,-2.0662,1.9965
1242201.0,-7.7835,-7.0916,19.0195,4.6139,-2.2987,2.1955
1242211.0,-7.8841,-7.75,18.1696,5.6744,-2.6627,2.519
1242221.0,-7.3047,-8.7843,14.3221,6.3673,-3.156,2.7547
1242231.0,-4.8866,-8.3845,8.5042,6.2119,-3.4864,2.6733
1242241.0,-3.4453,-7.3478,6.7157,4.9226,-3.5242,2.2987
1242251.0,-2.7797,-6.4763,6.6966,3.5864,-3.3353,1.9055
1242261.0,-2.5091,-6.7876,7.1371,2.56,-3.1927,1.5559
1242271.0,-1.4581,-7.7788,6.699,1.847,-3.198,1.1861
1242281.0,-0.4932,-8.8155,5.9735,1.4351,-3.0522,0.7471
1242291.0,0.0766,-8.928,4.9321,1.0531,-2.8755,0.207
1242301.0,0.6823,-9.6822,4.5753,0.5401,-2.7595,-0.3757
1242311.0,1.3431,-9.6438,2.7916,0.1298,-2.6004,-1.0275
1242321.0,1.6305,-8.4156,1.9273,-0.481,-2.3503,-1.79
1242331.0,1.2737,-6.6631,1.0463,-1.1334,-2.0199,-2.4807
1242341.0,1.2737,-5.8682,0.4381,-1.8964,-1.6362,-3.0517
1242351.0,1.3072,-5.8275,1.1396,-2.7915,-1.1494,-3.5875
1242361.0,0.814,-5.9951,3.632,-3.645,-0.5593,-4.1228
1242371.0,0.0263,-6.0262,7.5944,-4.4101,-0.0984,-4.6709
1242381.0,-1.3216,-5.0613,11.8657,-5.0364,0.0367,-5.1961
1242391.0,-2.3655,-3.893,16.2207,-5.4728,-0.1394,-5.601
1242401.0,-3.3447,-1.992,19.0411,-5.6723,-0.622,-5.8708
1242411.0,-3.9863,0.3376,20.5806,-5.7766,-1.3989,-6.0022
1242421.0,-4.3742,2.9113,20.4872,-5.5957,-2.2099,-5.9107
1242431.0,-4.1492,4.7597,19.6564,-4.9971,-2.7356,-5.5361
1242441.0,-3.8714,6.1004,17.4801,-4.3357,-3.2544,-5.0136
1242451.0,-3.2106,6.5434,15.0715,-3.9121,-3.8275,-4.4469
1242461.0,-2.2338,6.3207,12.1602,-3.5306,-4.2154,-3.878
1242471.0,-2.0542,5.9496,9.7013,-3.3252,-4.5389,-3.3965
1242481.0,-1.324,5.3846,7.6495,-3.0235,-4.7534,-2.9538
1242491.0,-0.1987,5.442,4.5418,-2.4429,-4.756,-2.5185
1242501.0,1.0104,5.7293,1.1468,-1.9651,-4.6358,-2.104
1242511.0,2.5355,5.8754,-2.2817,-1.6602,-4.3064,-1.6825
1242521.0,3.8475,5.6767,-4.6831,-1.5495,-3.6407,-1.2648
1242531.0,4.47,4.9464,-5.1451,-1.7368,-2.8606,-0.9073
1242541.0,4.9584,4.1444,-4.2329,-2.1689,-2.2269,-0.6534
1242551.0,5.3463,3.5506,-2.727,-2.709,-1.8454,-0.4842
1242561.0,5.77,3.3639,-1.6735,-3.2118,-1.7533,-0.3358
1242571.0,6.1794,3.1268,-0.8739,-3.3667,-1.699,-0.107
1242581.0,6.5338,2.9257,-0.9194,-2.8862,-1.5069,0.2559
1242591.0,7.0725,2.6121,-2.9161,-1.9544,-1.2271,0.7231
1242601.0,7.9392,1.8914,-5.6096,-0.9743,-0.8375,1.2026
1242611.0,8.8801,1.2186,-8.8921,-0.0016,-0.1889,1.632
1242621.0,8.4851,0.6895,-12.0955,0.7471,0.6907,1.9784
1242631.0,7.8075,-0.6273,-14.2287,1.1116,1.6575,2.2429
1242641.0,6.4284,-2.4565,-14.3868,1.5421,2.9389,2.4227
1242651.0,4.719,-4.3215,-12.8617,2.2386,4.5038,2.4876
1242661.0,3.1699,-5.9352,-9.7995,2.7877,5.9336,2.3674
1242671.0,0.9098,-6.9719,-4.8147,3.1006,7.0947,2.054
1242681.0,-1.1995,-6.6774,0.7374,3.3342,7.8088,1.6315
1242691.0,-3.4644,-5.2505,6.5003,3.6317,8.0801,1.1967
1242701.0,-5.1092,-2.0231,9.1147,4.076,7.8673,0.8375
1242711.0,-7.2377,1.5682,8.655,4.1989,7.2617,0.6364
1242721.0,-7.3406,2.0925,8.2648,4.2489,7.1186,0.7258
1242731.0,-7.3765,1.0606,10.6255,4.217,7.6241,0.8806
1242741.0,-8.4396,-0.9337,16.1992,3.5332,7.6326,0.8583
1242751.0,-8.2073,-2.5642,20.8655,2.7116,6.8494,0.6806
1242761.0,-7.9033,-3.2226,24.1168,2.402,5.9448,0.489
1242771.0,-7.7907,-3.1484,25.1822,2.7074,4.9673,0.3608
1242781.0,-7.0054,-1.6089,22.7665,3.4763,3.9759,0.2586
1242791.0,-7.2425,1.2665,18.6029,4.3149,3.3358,0.2017
1242801.0,-7.5753,3.5913,15.8592,4.9428,3.1847,0.2794
1242811.0,-9.1075,4.8387,15.5599,5.5068,3.4885,0.4656
1242821.0,-7.7261,4.889,13.1394,5.6893,3.6663,0.6593
1242831.0,-7.4579,3.4644,15.2463,4.5086,3.5513,0.5273
1242841.0,-6.8354,3.5362,14.9183,2.9852,3.0756,0.1948
1242851.0,-7.3861,2.8898,16.5152,1.2531,2.6276,-0.2139
1242861.0,-7.5561,2.9592,16.9294,-0.0798,2.1939,-0.5598
1242871.0,-7.8745,2.873,17.8464,-1.0589,1.8108,-0.812
1242881.0,-8.8849,3.0047,18.4282,-1.4649,1.5181,-0.9349
1242891.0,-8.8657,2.3248,21.1001,-1.2404,1.4287,-0.8886
1242901.0,-8.3893,1.2929,23.7385,-0.0926,1.5325,-0.6981
1242911.0,-8.1858,1.4198,24.2413,1.1153,1.1909,-0.5837
1242921.0,-7.3909,2.0949,22.7593,1.7347,0.414,-0.5593
1242931.0,-6.8402,2.3846,20.2933,1.9236,-0.1974,-0.5273
1242941.0,-6.0549,1.4198,18.0571,1.7038,-0.5805,-0.5236
1242951.0,-5.442,0.2131,16.2614,1.0025,-0.9195,-0.7008
1242961.0,-5.1356,-0.7614,15.6988,-0.0745,-1.2717,-1.0685
1242971.0,-5.1619,-1.4413,15.682,-1.0366,-1.5836,-1.4995
1242981.0,-5.4851,-1.585,15.4187,-1.6272,-1.8267,-1.9124
1242991.0,-5.6958,-1.3695,15.2511,-1.9066,-1.989,-2.2668
1243001.0,-5.8562,-1.0558,15.196,-1.8736,-2.0375,-2.5211
1243011.0,-6.0597,-0.5962,14.8919,-1.6682,-2.0901,-2.6925
1243021.0,-5.9783,-0.2729,14.5089,-1.4457,-2.2003,-2.8138
1243031.0,-5.8634,0.0479,13.0867,-1.2707,-2.336,-2.9053
1243041.0,-5.5354,0.1221,11.7029,-1.3611,-2.4472,-3.0288
1243051.0,-5.2098,0.8332,10.9176,-1.6581,-2.4903,-3.2124
1243061.0,-5.4348,1.664,11.6741,-1.9837,-2.4429,-3.355
1243071.0,-5.6671,2.2817,13.0532,-1.9832,-2.3413,-3.3598
1243081.0,-5.7317,2.6408,14.8393,-1.666,-2.3067,-3.2443
1243091.0,-5.466,3.0095,16.1345,-1.1068,-2.4174,-3.0447
1243101.0,-5.5402,3.2681,16.3093,-0.5071,-2.7111,-2.7766
1243111.0,-4.9775,2.6959,14.6956,-0.1112,-3.189,-2.4871
1243121.0,-4.0438,1.901,12.4283,-0.0734,-3.587,-2.311
1243131.0,-3.3615,1.7597,11.0875,-0.3246,-3.7727,-2.2801
1243141.0,-2.964,2.1404,10.1658,-0.7274,-3.9179,-2.3131
1243151.0,-2.7653,2.7916,9.3254,-1.1637,-4.084,-2.3413
1243161.0,-2.4301,3.0861,9.0094,-1.4798,-4.1473,-2.295
1243171.0,-2.1524,2.9401,8.7747,-1.5139,-4.093,-2.1487
1243181.0,-1.5012,2.1189,8.2361,-1.3723,-4.0478,-1.9608
1243191.0,-0.3232,1.1061,7.5106,-1.1563,-3.9674,-1.8188
1243201.0,0.7207,0.6776,6.3398,-1.0302,-3.877,-1.7783
1243211.0,1.4317,0.8452,5.2696,-1.1675,-3.8583,-1.8342
1243221.0,1.9465,1.4772,4.2282,-1.4223,-3.8184,-1.9151
1243231.0,2.1763,2.2386,3.699,-1.6299,-3.6535,-1.9518
1243241.0,2.2122,2.8299,4.1611,-1.6746,-3.397,-1.9124
1243251.0,2.6863,3.2202,4.7118,-1.4511,-3.1464,-1.7868
1243261.0,2.9425,3.4453,4.4963,-1.1212,-3.024,-1.6123
1243271.0,3.6248,3.6272,3.2561,-0.8939,-3.024,-1.4415
1243281.0,3.9792,3.8331,1.7358,-0.8407,-2.974,-1.3021
1243291.0,4.3646,4.1061,0.9146,-0.787,-2.7335,-1.1627
1243301.0,4.8578,4.6376,0.5842,-0.6135,-2.3498,-0.9988
1243311.0,5.2026,5.2313,0.7254,-0.4379,-2.0119,-0.8067
1243321.0,5.703,5.7509,1.2091,-0.1783,-1.7198,-0.5587
1243331.0,6.3015,6.2489,1.0989,0.3033,-1.3952,-0.224
1243341.0,6.7947,6.4715,0.0814,0.6997,-1.1579,0.1405
1243351.0,7.3263,6.5745,-1.7741,0.8221,-0.9408,0.4752
1243361.0,7.4484,6.3973,-3.1723,0.6066,-0.6066,0.7604
1243371.0,7.0916,5.8826,-3.3184,0.2038,-0.1666,1.0036
1243381.0,6.5864,5.2481,-2.8323,-0.1501,0.3102,1.2244
1243391.0,6.6008,4.4748,-2.1189,-0.3911,0.7444,1.4319
1243401.0,6.3566,3.8427,-1.64,-0.5747,1.1063,1.615
1243411.0,5.8347,3.5698,-1.6472,-0.7684,1.3915,1.7794
1243421.0,5.3151,3.3351,-1.6735,-0.9397,1.6985,1.9566
1243431.0,4.1492,2.9688,-0.9481,-0.9269,2.204,2.1827
1243441.0,3.0167,2.2314,0.7685,-0.7088,2.8441,2.453
1243451.0,2.2505,1.3384,2.8635,-0.4778,3.3353,2.6957
1243461.0,1.4293,0.6488,5.1308,-0.2905,3.645,2.8745
1243471.0,0.5483,0.1604,7.6614,-0.0415,3.8695,3.0224
1243481.0,-0.2466,-0.2873,9.7013,0.274,3.9765,3.1602
1243491.0,-0.3855,-0.5794,10.1299,0.4411,3.886,3.2459
1243501.0,0.079,-0.3974,8.5138,0.0027,3.546,3.2076
1243511.0,-0.1628,0.0096,7.0174,-1.2531,3.074,3.0804
1243521.0,-2.739,1.1253,6.2201,-2.6829,2.6893,3.0304
1243531.0,-5.533,0.7829,8.3558,-3.3592,2.8074,3.2842
1243541.0,-7.2784,-1.1157,11.746,-2.7989,3.463,3.8238
1243551.0,-7.8985,-4.2401,16.6086,-1.8677,3.9531,4.3298
1243561.0,-7.4675,-7.6447,20.4034,-1.1616,3.7514,4.5767
1243571.0,-6.0908,-10.5632,21.9836,-0.8785,2.9867,4.4671
1243581.0,-4.3886,-12.2104,20.8703,-1.0749,1.9614,4.0153
1243591.0,-3.2681,-12.0237,18.0475,-1.7634,0.9743,3.3278
1243601.0,-2.8276,-10.1993,15.0691,-2.867,0.0729,2.5978
1243611.0,-3.2777,-6.5098,11.6478,-3.9201,-0.6231,2.0316
1243621.0,-4.774,-2.0806,8.8801,-4.5038,-0.8503,1.8406
1243631.0,-7.1611,1.4269,8.1116,-4.4485,-0.6497,2.1418
1243641.0,-8.5641,2.2458,8.4204,-3.5859,-0.1485,2.9303
1243651.0,-9.0333,-0.2035,9.0285,-2.3205,0.3996,3.9046
1243661.0,-8.8681,-3.5362,9.0166,-1.3446,0.622,4.631
1243671.0,-8.1403,-6.122,8.9399,-0.8205,0.6619,4.9753
1243681.0,-8.1259,-7.3119,8.3103,-0.6944,0.63,5.0343
1243691.0,-7.8985,-8.4779,8.8897,-0.9376,0.5864,4.9508
1243701.0,-8.1092,-8.7412,9.9455,-1.1893,0.513,4.789
1243711.0,-8.8274,-7.944,11.2001,-1.3744,0.2182,4.5884
1243721.0,-9.414,-6.4739,10.3813,-1.2483,-0.232,4.4735
1243731.0,-9.5984,-5.9472,8.2361,-0.9461,-0.4252,4.4974
1243741.0,-8.9735,-7.1036,7.2449,-0.8056,-0.191,4.5756
1243751.0,-8.6957,-9.1004,9.0405,-1.0504,0.0974,4.5352
1243761.0,-8.7269,-10.398,11.6382,-1.4383,-0.0223,4.2968
1243771.0,-8.5856,-10.4722,12.5839,-1.6495,-0.506,3.9584
1243781.0,-8.43,-10.1155,12.2679,-1.6123,-0.9775,3.6418
1243791.0,-8.8562,-9.4906,11.7053,-1.4213,-1.268,3.3912
1243801.0,-9.1291,-8.7364,11.5137,-1.2366,-1.525,3.1943
1243811.0,-9.4499,-7.8769,11.2743,-1.0057,-1.8166,3.0607
1243821.0,-9.4044,-7.1658,9.9958,-0.7508,-2.1673,2.9979
1243831.0,-9.4284,-6.7516,8.1714,-0.5369,-2.4291,2.982
1243841.0,-9.3901,-6.5817,5.8849,-0.3634,-2.4658,3.0022
1243851.0,-9.0644,-6.9216,4.4341,-0.4092,-2.3152,3.0038
1243861.0,-8.7724,-7.2927,3.96,-0.6742,-2.0912,2.9426
1243871.0,-8.5904,-7.8266,4.3072,-1.0738,-1.93,2.8133
1243881.0,-8.1954,-8.2313,5.1308,-1.3883,-1.8454,2.6345
1243891.0,-7.9559,-8.2863,5.3893,-1.4133,-1.7416,2.4568
1243901.0,-7.7189,-8.1451,5.1882,-1.3521,-1.6676,2.2881
1243911.0,-7.616,-7.9607,4.4005,-1.3133,-1.5857,2.1348
1243921.0,-7.5465,-7.8266,3.1675,-1.3931,-1.4282,1.9933
1243931.0,-7.355,-8.1666,2.6576,-1.7368,-1.2127,1.8384
1243941.0,-7.2975,-8.7125,2.8706,-2.2375,-0.9812,1.666
1243951.0,-7.0629,-9.833,3.4907,-2.8367,-0.8966,1.4798
1243961.0,-6.505,-10.9726,3.371,-3.3268,-0.9786,1.2393
1243971.0,-6.2441,-11.3006,2.4732,-3.5146,-0.9408,0.9355
1243981.0,-6.1172,-10.6039,1.0319,-3.5125,-0.7258,0.6018
1243991.0,-6.2704,-9.3948,-0.1317,-3.4965,-0.3672,0.3113
1244001.0,-6.6631,-7.8602,-2.1117,-3.6136,-0.0085,0.1165
1244011.0,-7.2496,-6.9145,-3.7661,-4.135,0.3501,0.0208
1244021.0,-7.4029,-7.0773,-5.3319,-5.0162,0.6524,0.0266
1244031.0,-7.4172,-8.8035,-5.2912,-6.0113,0.9865,0.0803
1244041.0,-7.5657,-10.3501,-4.9009,-6.512,1.4819,0.1357
1244051.0,-7.8266,-11.6358,-3.7804,-6.5897,1.9779,0.1479
1244061.0,-7.6998,-12.4091,-3.3399,-6.2278,2.4014,0.1399
1244071.0,-7.6279,-12.9263,-4.0247,-5.7601,2.7532,0.0905
1244081.0,-7.6974,-13.544,-4.7501,-5.5111,3.1033,-0.0261
1244091.0,-8.3055,-13.8121,-4.5969,-5.5813,3.4311,-0.2187
1244101.0,-9.0261,-13.6637,-3.1244,-5.8335,3.6141,-0.4331
1244111.0,-9.6941,-13.2208,-1.664,-5.8814,3.6428,-0.5699
1244121.0,-9.7947,-13.1944,-1.2881,-5.6287,3.5604,-0.6034
1244131.0,-9.4451,-13.532,-1.2785,-5.1833,3.5306,-0.6135
1244141.0,-9.1698,-13.8864,-0.3519,-4.623,3.6386,-0.6598
1244151.0,-8.9567,-14.1785,0.9218,-4.0345,3.6673,-0.7529
1244161.0,-8.3222,-14.4682,1.1325,-3.6146,3.3779,-0.9206
1244171.0,-7.7452,-14.2718,0.3855,-3.4268,2.9543,-1.1717
1244181.0,-7.6279,-13.5488,-0.17,-3.3129,2.6866,-1.434
1244191.0,-7.8793,-12.7443,0.4094,-3.1554,2.5158,-1.648
1244201.0,-7.9248,-11.8034,0.838,-2.7617,2.303,-1.798
1244211.0,-7.5585,-10.8529,0.4453,-2.1859,2.0545,-1.8954
1244221.0,-7.0246,-9.7875,-0.7973,-1.6208,1.8331,-1.9747
1244231.0,-6.5697,-8.8633,-1.6975,-1.2425,1.724,-2.0364
1244241.0,-6.3901,-8.2672,-1.5969,-1.027,1.6964,-2.0534
1244251.0,-6.0549,-8.4132,-1.063,-0.8902,1.6086,-2.0258
1244261.0,-5.6647,-9.177,-1.6544,-0.8689,1.3627,-2.0093
1244271.0,-5.0925,-9.991,-2.7366,-1.0914,1.0291,-2.1136
1244281.0,-4.5203,-9.6438,-2.5474,-1.2132,0.9323,-2.3312
1244291.0,-4.7932,-8.3869,-1.9704,-0.9626,1.0429,-2.4733
1244301.0,-4.8842,-7.8362,-1.0343,-0.6306,0.9929,-2.4898
1244311.0,-4.3934,-7.7668,-1.0271,-0.1825,0.8359,-2.4381
1244321.0,-3.6536,-8.181,-1.1779,0.2373,0.7311,-2.3913
1244331.0,-3.2034,-8.849,-0.7302,0.5039,0.6768,-2.3929
1244341.0,-2.9305,-9.4906,-0.2705,0.5103,0.4693,-2.4663
1244351.0,-2.7126,-10.3022,-0.9744,0.2006,0.0415,-2.6403
1244361.0,-2.1428,-10.6781,-1.9872,-0.4432,-0.4736,-2.9756
1244371.0,-2.1069,-9.5529,-2.32,-1.0025,-0.737,-3.3848
1244381.0,-2.8299,-7.7452,-2.5139,-1.267,-0.9104,-3.6828
1244391.0,-3.3184,-6.3422,-3.462,-1.2957,-1.1472,-3.7998
1244401.0,-3.0981,-5.1763,-5.2505,-1.003,-1.1978,-3.7642
1244411.0,-2.4732,-4.6759,-6.4332,-0.6449,-1.0552,-3.6381
1244421.0,-2.0039,-4.3527,-7.3813,-0.3171,-0.8812,-3.4827
1244431.0,-1.8603,-4.2234,-8.1116,-0.0569,-0.7072,-3.3332
1244441.0,-1.6017,-3.7948,-9.5768,0.0947,-0.5827,-3.2198
1244451.0,-0.7254,-2.9832,-10.3477,0.0899,-0.448,-3.1597
1244461.0,-0.5195,-1.3791,-11.1833,0.2283,-0.1272,-3.0389
1244471.0,-0.656,0.0407,-10.8601,0.4629,0.2442,-2.7819
1244481.0,-0.3089,0.8021,-10.228,1.0238,0.6167,-2.3509
1244491.0,0.3041,0.747,-10.1035,2.0625,1.1568,-1.7613
1244501.0,0.6823,-0.3496,-9.5912,3.1379,1.7459,-1.1589
1244511.0,1.3384,-1.8675,-8.7556,3.9195,2.1636,-0.6891
1244521.0,1.8842,-3.2585,-7.6543,4.3772,2.453,-0.4049
1244531.0,2.0853,-4.2258,-6.268,4.5788,2.6473,-0.2863
1244541.0,2.162,-4.4317,-4.6711,4.5533,2.6787,-0.2788
1244551.0,1.5443,-4.1994,-2.1931,4.5613,2.6872,-0.2756
1244561.0,0.8428,-3.8762,0.2753,4.9284,2.6989,-0.1788
1244571.0,0.7135,-3.8762,1.7573,5.5521,2.6265,0.0016
1244581.0,1.1013,-4.1683,2.241,6.0927,2.4887,0.1836
1244591.0,1.6305,-4.3862,2.6025,6.2624,2.344,0.307
1244601.0,1.9704,-4.5298,3.6105,5.8804,2.0928,0.3453
1244611.0,2.1931,-4.4819,4.7118,5.0944,1.6293,0.2985
1244621.0,2.411,-3.9002,5.2553,4.2526,1.102,0.2182
1244631.0,2.0111,-2.8323,5.3247,3.562,0.6572,0.2011
1244641.0,1.7095,-1.731,4.7357,3.0309,0.2591,0.3033
1244651.0,1.4844,-1.0104,4.142,2.6829,-0.0181,0.5156
1244661.0,1.4485,-0.5291,2.9832,2.6175,-0.124,0.8221
1244671.0,1.4389,-0.3807,1.9082,2.66,-0.0729,1.1701
1244681.0,1.3551,-0.3136,0.8978,2.6834,0.1107,1.5373
1244691.0,0.9337,-0.8691,0.9146,2.543,0.3459,1.9124
1244701.0,0.5483,-1.7047,0.9673,2.3285,0.5135,2.2594
1244711.0,0.1197,-2.4804,1.5371,2.1481,0.7035,2.5605
1244721.0,-0.6823,-3.2681,2.4086,2.1609,0.9466,2.8558
1244731.0,-1.6759,-4.2521,3.5314,2.3551,1.1589,3.1501
1244741.0,-2.083,-5.5737,4.0534,2.8223,1.4245,3.4359
1244751.0,-2.071,-6.9839,4.3694,3.2938,1.7746,3.6263
1244761.0,-2.1261,-7.6183,4.4604,3.3475,1.9848,3.6173
1244771.0,-2.3798,-7.6375,4.1851,2.8574,1.9683,3.4523
1244781.0,-2.7007,-7.6303,4.2928,2.0172,1.956,3.2517
1244791.0,-3.2034,-8.2193,5.6934,1.127,2.0151,3.0969
1244801.0,-3.6488,-9.2105,7.5585,0.4358,1.9225,2.9655
1244811.0,-3.7302,-10.173,9.1578,0.2341,1.7368,2.8441
1244821.0,-3.5889,-10.9918,10.4938,0.7173,1.6889,2.7478
1244831.0,-3.371,-11.5688,11.3509,1.6751,1.7416,2.6499
1244841.0,-3.316,-11.4347,10.6662,2.5935,1.6331,2.4727
1244851.0,-2.6624,-10.7524,8.2025,2.9703,1.2957,2.1902
1244861.0,-2.4612,-9.4212,5.43,2.7851,1.1126,1.8603
1244871.0,-2.8299,-8.5305,4.1276,2.1567,1.0972,1.5708
1244881.0,-3.0263,-8.43,4.4077,1.558,1.1935,1.3611
1244891.0,-3.0598,-8.758,5.1499,1.3824,1.3787,1.2244
1244901.0,-3.0789,-9.4092,7.7835,1.6921,1.6687,1.1095
1244911.0,-3.4524,-9.3494,10.082,2.618,1.9278,1.027
1244921.0,-4.1851,-9.2871,9.8928,3.4859,1.7145,0.945
1244931.0,-3.8116,-9.5193,7.0126,3.8413,1.2547,0.796
1244941.0,-3.814,-9.584,4.5753,3.6982,1.2148,0.5566
1244951.0,-4.4867,-9.5577,5.3103,3.1325,1.4431,0.2442
1244961.0,-5.2313,-9.4044,7.7069,2.643,1.5059,-0.0665
1244971.0,-5.5306,-9.0309,8.5832,2.6026,1.376,-0.3017
1244981.0,-5.7317,-8.4611,8.3199,2.8564,1.2941,-0.472
1244991.0,-6.2656,-7.7476,8.4803,3.1405,1.3244,-0.5949
1245001.0,-6.7828,-7.4053,8.9184,3.3555,1.2984,-0.6486
1245011.0,-6.5817,-8.3749,9.4403,3.5534,1.2345,-0.6481
1245021.0,-6.5074,-9.5146,9.7133,3.8403,1.2797,-0.7125
1245031.0,-6.3614,-9.8186,10.2831,3.9493,1.2632,-0.9472
1245041.0,-6.426,-8.9807,10.7356,3.7854,1.085,-1.3063
1245051.0,-6.7612,-7.4651,10.422,3.388,0.8115,-1.6618
1245061.0,-7.027,-6.5769,10.6015,2.7356,0.5167,-1.9523
1245071.0,-7.3478,-6.1603,10.8912,2.137,0.3251,-2.1668
1245082.0,-7.4603,-6.45,11.8298,1.6469,0.1697,-2.3535
1245091.0,-7.4891,-6.79,12.5097,1.342,-0.049,-2.5632
1245101.0,-7.592,-7.1347,12.967,1.2526,-0.2251,-2.7915
1245111.0,-7.8841,-6.7732,13.1442,1.3053,-0.3688,-3.0591
1245121.0,-8.1044,-5.9233,13.216,1.3207,-0.5869,-3.347
1245131.0,-8.4348,-4.6376,13.2471,1.3085,-0.821,-3.6136
1245141.0,-8.8705,-2.9281,12.8808,1.3074,-1.0068,-3.7982
1245151.0,-9.098,-1.5251,12.718,1.1573,-1.2159,-3.8929
1245161.0,-8.995,-0.5004,12.3445,0.8306,-1.5421,-3.911
1245171.0,-8.4803,-0.4142,11.0277,0.4294,-1.8698,-3.8573
1245181.0,-7.3167,-1.6855,9.2129,-0.0851,-2.0284,-3.8158
1245191.0,-6.6631,-2.8683,8.3917,-0.8354,-1.9529,-3.9547
1245201.0,-6.6535,-3.4788,10.4483,-1.7161,-1.7645,-4.2596
1245211.0,-7.5058,-2.988,12.9167,-2.2828,-1.6879,-4.5581
1245221.0,-8.3294,-2.0207,15.1553,-2.4818,-1.815,-4.7475
1245231.0,-8.6862,-0.996,16.9557,-2.2721,-1.9933,-4.7427
1245241.0,-8.6598,-0.3519,18.5048,-1.7469,-2.2178,-4.5448
1245251.0,-8.0732,-0.1867,18.6987,-1.2324,-2.8154,-4.2713
1245261.0,-7.5848,-0.3112,16.6541,-0.7556,-3.6178,-3.9924
1245271.0,-6.2608,-1.1372,13.4339,-0.2081,-4.1175,-3.7104
1245281.0,-5.1068,-1.7119,10.0054,0.1745,-4.2968,-3.5338
1245291.0,-3.972,-1.7597,7.173,0.0314,-4.5139,-3.5465
1245301.0,-2.794,-0.8906,3.9648,-0.4033,-4.7039,-3.6886
1245311.0,-2.1979,0.5243,0.8308,-0.8924,-4.5831,-3.8376
1245321.0,-1.4796,1.9561,-1.731,-1.3824,-4.1217,-3.8839
1245331.0,-0.2394,2.7294,-2.9281,-2.0114,-3.4758,-3.8429
1245341.0,1.1756,3.0167,-2.9042,-2.7159,-2.7526,-3.7392
1245351.0,2.569,2.5019,-0.6919,-3.3284,-1.9544,-3.588
1245361.0,3.4716,2.0279,2.1404,-3.646,-1.3133,-3.4215
1245371.0,4.0031,1.913,4.9344,-3.6423,-0.9844,-3.2512
1245381.0,4.5873,2.466,6.3829,-3.1783,-0.8413,-3.0229
1245391.0,4.4939,3.4812,6.3638,-2.3605,-0.7466,-2.7042
1245401.0,4.6495,4.6735,4.6543,-1.3952,-0.6598,-2.2838
1245411.0,5.6312,5.5665,2.1117,-0.5704,-0.4949,-1.7991
1245421.0,7.1204,6.3398,-0.6321,0.0372,-0.0708,-1.293
1245431.0,7.8338,7.3741,-2.8515,0.2426,0.5683,-0.795
1245441.0,7.2496,8.2145,-3.4931,-0.1176,1.2366,-0.2905
1245451.0,5.9113,8.3007,-1.8268,-0.7114,1.9066,0.2857
1245461.0,4.2497,7.5226,1.2234,-1.0387,2.5494,0.9621
1245471.0,3.1627,6.2082,4.6304,-0.9743,2.982,1.6692
1245481.0,2.8491,4.9536,6.9743,-0.5348,3.1836,2.3482
1245491.0,3.0718,3.802,7.4771,0.0176,3.2225,2.949
1245501.0,2.8323,3.2082,6.0142,0.2554,3.1432,3.4066
1245511.0,1.0223,3.2561,4.2353,-0.1016,3.0378,3.7365
1245521.0,-1.9345,2.9137,4.2904,-0.7098,3.1411,4.1074
1245531.0,-4.3503,1.4317,6.4811,-0.9264,3.5689,4.6171
1245541.0,-6.7828,-0.486,10.0652,-0.7881,3.8988,5.1631
1245551.0,-8.3941,-2.9497,13.7044,-0.2442,4.0382,5.7133
1245561.0,-8.6167,-5.8754,16.587,0.5044,3.9339,6.1486
1245571.0,-7.4651,-8.3031,17.3987,1.1403,3.4678,6.3258
1245581.0,-5.8562,-9.2775,14.8393,1.3915,2.7462,6.1624
1245591.0,-5.5043,-7.8817,10.2185,1.0121,2.0784,5.7372
1245601.0,-8.7747,-4.6112,5.8921,0.2027,1.8363,5.344
1245611.0,-13.5344,-3.4907,6.5745,-0.3608,2.4403,5.36
1245621.0,-14.7124,-6.8498,12.706,0.0186,3.7264,5.8117
1245631.0,-15.0883,-10.8098,20.9995,0.6806,4.3293,6.1182
1245641.0,-14.8129,-13.3165,27.495,1.3138,3.703,6.0459
1245651.0,-14.3149,-14.0013,29.4295,2.1742,2.5036,5.7628
1245661.0,-13.714,-14.0276,27.2676,2.9234,1.2781,5.4313
1245671.0,-12.7156,-13.3836,22.2996,3.0628,0.3177,5.0194
1245681.0,-13.0436,-12.0045,18.2582,2.1497,-0.3171,4.4288
1245691.0,-13.5536,-11.722,18.1169,0.6247,-0.68,3.82
1245701.0,-14.3915,-12.6988,21.6795,-0.3884,-0.8035,3.3422
1245711.0,-15.2271,-13.2256,25.1918,-0.4273,-1.1738,2.9841
1245721.0,-15.3804,-13.6565,27.1215,0.406,-1.7943,2.7516
1245731.0,-14.6884,-13.939,23.717,1.5985,-2.5717,2.593
1245741.0,-12.888,-14.0707,19.2446,2.0396,-3.2608,2.2599
1245751.0,-11.6406,-12.8904,15.433,1.6448,-3.6593,1.7161
1245761.0,-11.4323,-11.6622,14.6238,0.7311,-3.8312,1.086
1245771.0,-11.406,-10.5919,14.7986,-0.009,-3.9344,0.5124
1245781.0,-11.4203,-9.8833,16.2686,-0.3618,-4.0121,0.0383
1245791.0,-11.5879,-8.8107,17.8847,-0.1729,-4.1042,-0.3246
1245801.0,-12.0237,-7.276,18.3037,0.3017,-4.4006,-0.5694
1245811.0,-11.6334,-5.9424,16.745,0.6481,-4.9923,-0.7136
1245821.0,-10.7356,-4.7812,13.8313,0.6689,-5.593,-0.829
1245831.0,-9.7755,-3.735,10.8314,0.3225,-6.0256,-0.9519
1245841.0,-9.0908,-2.9233,8.3294,-0.265,-6.3018,-1.0813
1245851.0,-8.3318,-2.4038,6.3231,-0.8583,-6.404,-1.1834
1245861.0,-7.3334,-2.3846,4.889,-1.3239,-6.3087,-1.2446
1245871.0,-6.438,-2.3032,4.197,-1.7235,-6.1853,-1.3287
1245881.0,-5.7748,-1.8842,3.9816,-1.9502,-6.1108,-1.4213
1245891.0,-5.1044,-1.3288,3.2537,-1.8087,-5.9778,-1.4197
1245901.0,-4.3311,-1.1468,2.217,-1.4729,-5.7548,-1.3111
1245911.0,-3.5721,-1.2977,0.6847,-1.2239,-5.5776,-1.1632
1245921.0,-2.2242,-2.0782,-0.8499,-1.1909,-5.4627,-1.0355
1245931.0,-0.5962,-3.2777,-2.5091,-1.2478,-5.277,-0.978
1245941.0,0.9218,-4.2737,-3.9337,-1.2638,-4.9071,-1.0259
1245951.0,2.0949,-4.7932,-4.4724,-1.2297,-4.3979,-1.1754
1245961.0,2.7461,-4.6783,-4.3574,-1.1302,-3.8669,-1.3909
1245971.0,3.0646,-3.9145,-4.1851,-0.9264,-3.3842,-1.5995
1245981.0,3.2657,-2.8252,-3.9313,-0.6279,-2.9293,-1.7379
1245991.0,3.0694,-1.743,-3.7972,-0.315,-2.5126,-1.7693
1246001.0,3.4069,-1.3144,-3.5937,-0.083,-2.154,-1.7086
1246011.0,4.0725,-1.2139,-3.723,0.0468,-1.8353,-1.6331
1246021.0,4.7022,-1.0056,-4.3838,-0.0963,-1.6559,-1.6155
1246031.0,5.3223,-0.9146,-5.2218,-0.5225,-1.6144,-1.6527
1246041.0,5.6575,-0.6847,-6.5074,-0.8312,-1.4468,-1.6996
1246051.0,5.7988,0.1963,-8.655,-0.8663,-1.0493,-1.7251
1246061.0,6.2225,0.8619,-10.3334,-0.886,-0.5087,-1.715
1246071.0,6.3782,1.7047,-11.8417,-0.7482,0.2799,-1.6607
1246081.0,6.019,2.6456,-12.0692,-0.5108,1.3015,-1.5671
1246091.0,5.2457,3.6871,-11.2623,-0.2921,2.3418,-1.4112
1246101.0,4.0486,4.4604,-9.1722,-0.1325,3.3204,-1.1701
1246111.0,2.9616,4.695,-5.9975,0.0048,4.1468,-0.8461
1246121.0,2.1165,4.707,-3.2896,0.0686,4.6177,-0.4981
1246131.0,1.2785,4.2258,-0.9505,0.0202,4.7794,-0.1628
1246141.0,0.5243,3.6607,0.5507,0.1575,4.9375,0.1495
1246151.0,-0.0359,3.1795,1.8028,0.4443,5.1673,0.4076
1246161.0,-0.8643,2.9257,2.9616,0.6619,5.328,0.5938
1246171.0,-2.0542,2.7461,4.3838,0.8125,5.5212,0.7551
1246181.0,-3.6919,2.2697,7.0294,0.8971,5.7649,0.9344
1246191.0,-4.3862,0.6369,10.9798,0.9786,5.8761,1.1371
1246201.0,-3.8188,-1.2929,12.9407,1.0403,5.6489,1.2372
1246211.0,-2.873,-3.4644,14.3844,0.6683,5.0593,1.0892
1246221.0,-2.0901,-4.2282,14.5113,0.2453,4.4713,0.738
1246231.0,-1.6951,-3.486,14.4706,-0.1463,4.0281,0.3049
1246241.0,-1.8028,-1.2258,13.1849,-0.6024,3.5609,-0.067
1246251.0,-2.138,1.5203,11.0157,-1.2212,3.1389,-0.2677
1246261.0,-3.4668,4.209,9.0118,-1.905,2.9202,-0.2182
1246271.0,-4.7333,5.6096,8.3989,-2.2907,3.0884,0.1442
1246281.0,-6.5122,6.0932,8.2001,-2.3477,3.4146,0.7375
1246291.0,-7.2185,3.9193,10.1275,-2.2136,3.7769,1.45
1246301.0,-6.9623,1.3384,10.9247,-1.8523,3.9318,2.055
1246311.0,-6.8785,-0.7685,11.2911,-1.6064,3.8339,2.3998
1246321.0,-6.9576,-1.3695,9.663,-1.2728,3.7796,2.5712
1246331.0,-8.0182,-0.9744,7.8554,-1.1526,3.8929,2.6393
1246341.0,-10.4962,-0.2322,7.1371,-1.3127,4.135,2.6999
1246351.0,-13.5296,-0.6225,8.9376,-1.4133,4.6363,2.8872
1246361.0,-15.263,-3.6224,14.3963,-1.0946,5.3903,3.2326
1246371.0,-14.4729,-7.9368,20.8727,-0.4933,5.7452,3.4598
1246381.0,-11.9686,-11.6669,27.0305,-0.0016,5.277,3.2289
1246391.0,-10.161,-11.825,28.5293,0.4299,4.1936,2.5754
1246401.0,-8.9495,-9.5936,27.4759,0.3693,2.9192,1.7927
1246411.0,-8.7484,-6.9959,25.3043,-0.1809,1.7496,1.1478
1246421.0,-8.6072,-4.707,22.4361,-1.0115,0.7082,0.6662
1246431.0,-8.7005,-2.7366,19.2135,-1.9161,-0.1846,0.3246
1246441.0,-8.9112,-0.9792,15.84,-2.5776,-0.7513,0.1708
1246451.0,-9.3996,0.237,13.4913,-2.8697,-0.8961,0.2357
1246461.0,-10.0341,0.6943,12.6988,-2.7473,-0.7114,0.4997
1246471.0,-9.7947,-0.2658,13.8624,-2.1689,-0.3368,0.9083
1246481.0,-9.3565,-1.4245,14.7076,-1.2866,-0.0814,1.2893
1246491.0,-9.0477,-1.7358,14.4275,-0.6401,-0.1751,1.5096
1246501.0,-8.5545,-1.4892,13.4626,-0.3932,-0.4459,1.6437
1246511.0,-8.4635,-1.6352,12.7946,-0.3789,-0.5864,1.8017
1246521.0,-9.1459,-2.4972,13.0388,-0.4379,-0.5821,1.9912
1246531.0,-9.3733,-4.2545,14.188,-0.4981,-0.6151,2.1806
1246541.0,-9.5098,-6.4548,15.5671,-0.4629,-0.7615,2.2982
1246551.0,-9.2081,-8.8849,16.6924,-0.3001,-1.0147,2.2993
1246561.0,-8.679,-11.0995,17.6381,-0.0266,-1.2856,2.1561
1246571.0,-8.2049,-12.2128,17.9709,0.2293,-1.6474,1.8384
1246581.0,-7.9128,-12.469,17.5782,0.3741,-2.1439,1.4048
1246591.0,-7.6495,-11.9854,16.5224,0.4496,-2.6196,0.9472
1246601.0,-7.7237,-11.1737,14.801,0.4677,-2.9963,0.5364
1246611.0,-7.5417,-10.8745,13.4482,0.4321,-3.2246,0.1809
1246621.0,-7.4268,-10.4794,12.1171,0.3863,-3.3321,-0.166
1246631.0,-7.0294,-10.4244,11.5209,0.3044,-3.347,-0.522
1246641.0,-6.5601,-10.0772,11.145,0.2538,-3.3172,-0.903
1246651.0,-6.189,-9.3637,11.564,0.2613,-3.2278,-1.2978
1246661.0,-6.1435,-7.8195,11.9279,0.3624,-3.1778,-1.6708
1246671.0,-6.1459,-6.0932,12.2152,0.3895,-3.2911,-1.9821
1246681.0,-6.2082,-4.2545,11.9279,0.3884,-3.4992,-2.1912
1246691.0,-6.2249,-2.7054,11.7579,0.423,-3.671,-2.2758
1246701.0,-6.0573,-1.6113,11.5568,0.572,-3.7902,-2.2253
1246711.0,-5.7652,-1.0367,11.2934,0.7652,-3.9169,-2.0891
1246721.0,-5.2241,-0.8499,10.8888,0.9658,-4.0882,-1.9231
1246731.0,-4.7525,-0.7135,9.7851,1.0839,-4.3458,-1.7847
1246741.0,-3.9744,-0.4621,7.9248,1.0227,-4.6794,-1.7081
1246751.0,-3.3184,-0.012,5.9233,0.8466,-4.9018,-1.6756
1246761.0,-2.7342,0.5938,3.8499,0.6439,-4.9385,-1.6469
1246771.0,-2.0782,1.2474,2.0399,0.3789,-4.8715,-1.6139
1246781.0,-0.9744,1.9273,0.2251,0.0681,-4.7459,-1.5676
1246791.0,-0.0335,2.4804,-1.415,-0.2634,-4.4857,-1.4878
1246801.0,0.5028,2.8946,-2.5953,-0.613,-4.0893,-1.3627
1246811.0,1.312,2.624,-2.9377,-0.9557,-3.6168,-1.1829
1246821.0,2.3774,1.81,-2.976,-1.284,-3.1836,-1.0084
1246831.0,3.2394,0.9122,-3.2058,-1.6666,-2.8543,-0.9136
1246841.0,4.0773,0.2179,-3.5003,-2.0795,-2.5882,-0.9168
1246851.0,4.5849,0.1604,-3.5338,-2.3823,-2.2562,-0.9759
1246861.0,4.7214,0.5219,-3.5482,-2.4738,-1.8603,-1.0084
1246871.0,4.774,1.2234,-4.2162,-2.4121,-1.4505,-0.9743
1246881.0,4.8291,1.8747,-4.4987,-2.3301,-0.9535,-0.8721
1246891.0,4.6136,2.399,-4.5346,-2.2594,-0.414,-0.6875
1246901.0,4.6328,2.3439,-4.8985,-2.3216,0.0309,-0.4427
1246911.0,4.8411,1.5203,-5.2218,-2.6015,0.4448,-0.2134
1246921.0,4.9225,0.5171,-5.3678,-3.0772,0.8727,-0.0543
1246931.0,4.6615,-0.3256,-4.3311,-3.7115,1.2776,0.0335
1246941.0,3.6966,-0.6033,-1.8507,-4.1393,1.7123,0.1346
1246951.0,2.5067,-0.5555,0.6201,-4.1143,2.0119,0.3315
1246961.0,2.0638,-0.7853,2.3391,-3.6083,2.2035,0.6439
1246971.0,1.6328,-1.1061,2.8778,-2.7377,2.4536,1.0291
1246981.0,1.4437,-1.7861,3.2633,-1.9358,2.6749,1.3856
1246991.0,0.9337,-2.5474,3.0718,-1.3665,2.8133,1.6682
1247001.0,1.3001,-3.8307,1.6712,-1.2052,2.8601,1.8571
1247011.0,1.2306,-5.4444,0.9601,-1.6352,2.9857,1.8922
1247021.0,0.4094,-6.7971,2.4876,-2.4637,3.131,1.7884
1247031.0,-0.3615,-7.6638,5.1427,-3.1905,3.0857,1.64
1247041.0,-0.5267,-7.5872,5.6719,-3.4055,2.8926,1.5506
1247051.0,-0.5602,-6.9743,4.9225,-3.5135,2.6606,1.5123
1247061.0,-1.3575,-5.4564,4.2353,-3.6556,2.4871,1.5277
1247071.0,-3.4955,-3.3423,3.6224,-3.6061,2.42,1.7049
1247081.0,-4.7214,-2.9808,3.8451,-3.1134,2.6542,2.1737
1247091.0,-5.6168,-4.6256,4.7597,-2.2982,3.1544,2.7904
1247101.0,-6.0765,-7.0318,6.2656,-1.7405,3.3837,3.2666
1247111.0,-5.7341,-8.9807,6.6295,-1.5261,3.1948,3.5008
1247121.0,-5.6479,-9.9575,6.1339,-1.5107,2.8734,3.5343
1247131.0,-6.1507,-9.6774,4.9704,-1.4074,2.6728,3.4758
1247141.0,-7.7309,-8.2672,2.8922,-1.077,2.6669,3.4348
1247151.0,-9.3398,-7.5106,1.1516,-0.5459,3.0612,3.5338
1247161.0,-10.2232,-8.8825,1.9656,0.0266,3.9557,3.786
1247171.0,-11.1881,-11.5664,5.2888,0.2533,4.6868,3.9706
1247181.0,-11.0468,-14.8512,10.2855,0.19,4.8507,3.944
1247191.0,-10.9583,-17.0922,13.9103,0.3805,4.6097,3.7493
1247201.0,-9.8976,-19.0938,15.2822,0.6492,3.9722,3.381
1247211.0,-8.4874,-19.5319,16.0627,0.9386,3.2645,2.817
1247221.0,-8.1475,-18.2079,16.0579,1.5245,2.7856,2.2402
1247231.0,-8.6981,-15.3923,15.627,2.1157,2.3025,1.7363
1247241.0,-10.3142,-12.1889,14.3963,2.5674,1.7214,1.4085
1247251.0,-11.236,-10.3358,13.6781,3.0208,1.3074,1.3271
1247261.0,-11.2384,-10.1778,14.9518,3.8599,1.3707,1.4638
1247271.0,-11.0133,-10.8912,17.5208,4.9258,1.4553,1.6506
1247281.0,-10.4507,-11.2192,19.0578,5.8139,1.0424,1.7102
1247291.0,-9.9695,-10.6829,18.895,6.3774,0.2677,1.6389
1247301.0,-9.5792,-9.9144,17.5663,6.72,-0.4949,1.5447
1247311.0,-9.493,-9.1243,16.1321,7.0159,-0.9945,1.4628
1247321.0,-9.4786,-7.932,15.694,7.2293,-1.3361,1.3548
1247331.0,-9.8952,-6.4907,16.0507,7.5491,-1.6155,1.2819
1247341.0,-9.6702,-5.1164,15.2152,7.9769,-1.9874,1.3047
1247351.0,-9.3877,-4.1276,13.8624,8.2461,-2.3801,1.3851
1247361.0,-8.928,-3.4261,12.2583,8.3286,-2.7191,1.4761
1247371.0,-8.4731,-2.5522,10.386,8.1818,-3.0171,1.5101
1247381.0,-7.7021,-1.4796,8.4036,7.8029,-3.2384,1.4841
1247391.0,-7.288,-0.577,7.2472,7.2341,-3.3385,1.4266
1247401.0,-6.6224,-0.2346,6.2369,6.7067,-3.3278,1.3771
1247411.0,-5.533,-0.3711,4.9225,6.1475,-3.3145,1.2574
1247421.0,-4.2162,-0.395,3.7326,5.493,-3.2624,0.9982
1247431.0,-3.3806,0.2298,2.9018,4.7613,-3.1267,0.6173
1247441.0,-3.0813,1.0798,3.5291,4.0802,-2.9154,0.1995
1247451.0,-3.0765,2.1165,4.5418,3.7487,-2.6627,-0.1495
1247461.0,-3.2872,3.2896,5.2194,3.7322,-2.4594,-0.4017
1247471.0,-3.0406,4.549,4.7908,3.8419,-2.3307,-0.5635
1247481.0,-2.6432,5.9304,3.9409,3.7764,-2.2423,-0.6848
1247491.0,-2.466,7.3023,2.9951,3.4151,-2.1481,-0.7875
1247501.0,-2.4948,8.3246,2.7629,2.7606,-2.071,-0.8929
1247511.0,-2.4325,9.3446,2.7773,2.0518,-1.989,-0.9908
1247521.0,-2.4253,9.9623,3.3399,1.4324,-1.8555,-1.0461
1247531.0,-2.2745,10.24,3.8427,1.0153,-1.6916,-1.0408
1247541.0,-2.3822,10.2663,4.5394,0.7657,-1.4708,-0.9993
1247551.0,-2.7007,10.2687,5.2792,0.5869,-1.2824,-0.9498
1247561.0,-2.7749,10.1849,5.5186,0.3634,-1.2111,-0.9174
1247571.0,-2.6647,10.0987,5.2409,-0.0229,-1.2031,-0.9307
1247581.0,-2.885,9.7588,6.0549,-0.6188,-1.1377,-0.9977
1247591.0,-3.1364,9.5409,7.4986,-1.2308,-1.1323,-1.0988
1247601.0,-3.4237,9.5672,9.0525,-1.7251,-1.2526,-1.2068
1247611.0,-3.8235,9.8976,9.7827,-2.0343,-1.4734,-1.2744
1247621.0,-3.7493,9.7707,10.2759,-2.1705,-1.6394,-1.2749
1247631.0,-4.1635,9.9383,9.6582,-2.2152,-1.707,-1.2574
1247641.0,-4.5298,9.7013,8.8322,-2.6755,-1.9092,-1.284
1247651.0,-4.3479,9.1626,8.1259,-3.5141,-2.1859,-1.3862
1247661.0,-4.3287,8.7508,7.9033,-4.3984,-2.3429,-1.5277
1247671.0,-4.4843,8.5449,8.6143,-5.0657,-2.3477,-1.6485
1247681.0,-4.7381,8.77,9.8928,-5.3376,-2.2955,-1.6868
1247691.0,-4.9847,9.1435,10.8146,-5.2174,-2.3413,-1.591
1247701.0,-4.8171,9.1913,10.6901,-4.8087,-2.4802,-1.3569
1247711.0,-4.7525,8.8753,9.4284,-4.2292,-2.5754,-1.0323
1247721.0,-4.2617,7.6136,7.2927,-3.7205,-2.5738,-0.6896
1247731.0,-3.2346,5.861,5.8826,-3.4726,-2.3865,-0.4555
1247741.0,-2.727,4.7333,6.019,-3.5077,-2.0891,-0.3874
1247751.0,-2.7892,3.96,7.8051,-3.7216,-1.9082,-0.4007
1247761.0,-2.7509,3.3998,9.8976,-3.7801,-1.8773,-0.3948
1247771.0,-2.8084,3.3255,11.7172,-3.6567,-2.0215,-0.3741
1247781.0,-2.9999,3.6512,12.3804,-3.4076,-2.3732,-0.3038
1247791.0,-3.0837,3.9696,11.0277,-3.1347,-2.8553,-0.1586
1247801.0,-2.4157,3.7924,7.7189,-3.0634,-3.2943,0.0133
1247811.0,-2.0039,3.0526,5.4133,-3.3704,-3.4103,0.1346
1247821.0,-1.3695,1.9201,4.47,-3.8802,-3.289,0.2022
1247831.0,-1.1037,0.6967,5.1547,-4.4932,-3.1682,0.1841
1247841.0,-0.9002,-0.0718,6.371,-4.922,-3.1437,0.1224
1247851.0,-1.0463,-0.1748,7.592,-5.021,-3.1703,0.0708
1247861.0,-1.4844,0.328,8.2073,-4.8454,-3.2943,0.0873
1247871.0,-1.98,0.9744,7.9751,-4.5474,-3.5316,0.2001
1247881.0,-1.8196,1.2354,6.1268,-4.2659,-3.827,0.4145
1247891.0,-1.1109,0.5866,3.6727,-4.2085,-4.0047,0.6604
1247901.0,-0.5219,-0.3232,1.3479,-4.5017,-4.0606,0.8242
1247911.0,0.2322,-1.5706,-0.7925,-5.1924,-4.1303,0.8679
1247921.0,0.9122,-2.7605,-1.5275,-6.0379,-4.0483,0.787
1247931.0,1.4485,-3.4381,-1.0774,-6.7429,-3.894,0.6433
1247941.0,2.1069,-3.881,-0.1604,-7.1303,-3.8807,0.5108
1247951.0,2.6408,-3.4261,-1.2953,-7.0521,-3.9935,0.448
1247961.0,3.7709,-3.0765,-4.0558,-6.8605,-4.1712,0.4853
1247971.0,4.9991,-3.0119,-7.501,-6.463,-4.0845,0.629
1247981.0,5.5282,-2.9712,-10.2903,-5.7372,-3.4981,0.8365
1247991.0,5.8131,-2.7581,-11.8968,-4.8406,-2.6526,1.0674
1248001.0,5.9424,-3.0287,-12.05,-3.8009,-1.706,1.3207
1248011.0,6.371,-3.0215,-12.4618,-2.5584,-0.7508,1.5915
1248021.0,6.2991,-3.4477,-11.7148,-1.2813,0.3028,1.8911
1248031.0,5.861,-4.0223,-10.6997,-0.0442,1.2984,2.1902
1248041.0,5.1763,-4.5705,-9.3589,0.9519,2.129,2.419
1248051.0,4.4221,-4.7022,-8.1451,1.6176,2.7707,2.5669
1248061.0,3.1388,-4.8291,-6.4117,1.931,3.2959,2.6792
1248071.0,2.3918,-5.284,-4.379,2.0492,3.7131,2.7984
1248081.0,1.7669,-5.9352,-1.3934,2.0258,3.9892,2.8851
1248091.0,0.4764,-6.11,1.482,2.0119,4.0393,2.9405
1248101.0,-0.5076,-6.5769,4.3144,2.1859,3.9983,3.0378
1248111.0,-0.9744,-7.1204,5.9735,2.5456,3.8615,3.1671
1248121.0,-0.8332,-7.944,6.5625,2.7377,3.5439,3.2549
1248131.0,-0.5411,-8.3821,5.964,2.6723,3.1336,3.2571
1248141.0,-0.7542,-8.2193,4.4939,2.3344,2.7255,3.182
1248151.0,-2.1835,-7.2592,2.6169,1.9167,2.4334,3.1033
1248161.0,-3.5506,-6.7876,1.6257,1.789,2.5355,3.156
1248171.0,-4.9464,-7.4101,2.162,2.1492,3.1272,3.3614
1248181.0,-6.122,-9.2871,4.5346,2.635,3.7562,3.5694
1248191.0,-6.11,-11.734,7.0198,3.1336,4.1648,3.6503
1248201.0,-5.8227,-13.7978,8.8609,3.447,4.3447,3.4896
1248211.0,-5.43,-15.0428,10.2855,3.3193,4.1792,3.0676
1248221.0,-5.0661,-14.9087,10.5848,2.9463,3.7988,2.4786
1248231.0,-5.952,-12.888,9.9982,2.5536,3.4555,1.8619
1248241.0,-7.8195,-10.0078,9.1746,2.2445,3.231,1.3867
1248251.0,-8.9663,-8.1163,9.2727,2.2397,3.3183,1.1887
1248261.0,-10.1754,-8.0421,12.323,2.7005,3.8876,1.2425
1248271.0,-11.0397,-9.2512,16.3261,3.2954,4.1632,1.3409
1248281.0,-10.6255,-10.8697,18.998,3.6173,3.7189,1.2654
1248291.0,-10.1131,-11.248,19.4984,3.7466,2.9979,0.9716
1248301.0,-10.1658,-10.2232,19.6157,3.6647,2.2556,0.5577
1248311.0,-10.2304,-8.2049,18.5287,3.6077,1.5463,0.1857
1248321.0,-10.173,-5.77,16.6277,3.6354,1.0153,-0.0633
1248331.0,-10.1275,-3.2609,14.3844,3.6189,0.7019,-0.1729
1248341.0,-9.8186,-1.7837,13.3405,3.446,0.6396,-0.1266
1248351.0,-9.3182,-1.81,13.465,3.0894,0.7003,0.016
1248361.0,-8.8705,-2.8443,14.5184,2.4328,0.5337,0.0803
1248371.0,-8.2145,-3.7781,15.4594,1.6788,0.0974,-0.0005
1248381.0,-8.0637,-4.0247,16.2064,1.2489,-0.2586,-0.1266
1248391.0,-8.2408,-3.8188,17.0587,1.2388,-0.5209,-0.2097
1248401.0,-8.3749,-3.2657,17.4106,1.5596,-0.8131,-0.2235
1248411.0,-8.4827,-2.4325,16.8193,2.047,-1.1366,-0.1634
1248421.0,-8.3917,-1.6448,15.7323,2.502,-1.4319,-0.0442
1248431.0,-8.3965,-0.8068,14.7363,2.8378,-1.6559,0.1096
1248441.0,-8.5329,-0.158,14.0707,3.0793,-1.8156,0.2953
1248451.0,-8.4779,0.3256,13.5919,3.3145,-1.9209,0.5087
1248461.0,-7.9727,0.7638,13.1585,3.5221,-2.0119,0.7199
1248471.0,-7.5346,1.2186,12.7659,3.6636,-2.0923,0.9142
1248481.0,-7.1874,1.7741,12.4163,3.7248,-2.1567,1.1025
1248491.0,-6.9576,2.0997,12.3158,3.6641,-2.2221,1.2925
1248501.0,-6.7828,1.9728,12.4714,3.5385,-2.2838,1.4846
1248511.0,-6.505,1.8483,12.0907,3.2916,-2.4456,1.6171
1248521.0,-6.1507,1.7454,11.7867,2.8351,-2.7021,1.6527
1248531.0,-5.9209,1.7837,11.2767,2.3924,-2.9059,1.6453
1248541.0,-5.6623,1.8771,10.9319,1.9986,-3.0357,1.6139
1248551.0,-5.3319,1.9992,10.75,1.6629,-3.1453,1.5719
1248561.0,-4.8674,2.0877,10.4507,1.3872,-3.2842,1.5367
1248571.0,-4.5825,2.2338,10.5034,1.1866,-3.421,1.5202
1248581.0,-4.4101,2.2482,10.2137,1.2047,-3.5609,1.5665
1248591.0,-4.1084,1.9201,9.2177,1.3718,-3.7301,1.666
1248601.0,-3.4381,1.585,7.671,1.7102,-3.6843,1.8055
1248611.0,-2.8395,0.5507,7.9895,2.021,-3.3869,1.9513
1248621.0,-2.4397,-0.2322,9.1171,2.3312,-3.1325,2.0433
1248631.0,-2.1883,-0.5339,10.2137,2.5589,-3.1496,2.0641
1248641.0,-1.913,-0.3376,9.8785,2.676,-3.4284,2.0476
1248651.0,-1.4389,-0.0718,8.3151,2.6292,-3.7674,2.0252
1248661.0,-0.7542,-0.2634,6.7924,2.428,-3.9632,2.0007
1248671.0,-0.1197,-0.668,5.4947,2.188,-3.9983,1.9507
1248681.0,0.3783,-1.0487,4.8794,1.9113,-3.9962,1.8438
1248691.0,0.7973,-1.1037,4.3072,1.7368,-3.9658,1.7102
1248701.0,1.1372,-1.0343,4.1731,1.7182,-3.8525,1.5884
1248711.0,1.3001,-0.7973,3.9648,1.864,-3.6913,1.5085
1248721.0,1.64,-0.8332,3.8044,2.0609,-3.5838,1.4654
1248731.0,2.2697,-0.8954,3.0694,2.3445,-3.5114,1.4282
1248741.0,3.1029,-0.8667,1.9441,2.6701,-3.3651,1.384
1248751.0,3.6847,-0.8452,0.7111,2.9378,-3.1278,1.3313
1248761.0,4.3814,-0.7374,0.0024,3.0836,-2.8266,1.2542
1248771.0,4.8866,-0.6776,-0.4597,3.1139,-2.5313,1.16
1248781.0,5.5378,-0.838,-0.9337,3.0447,-2.2796,1.0403
1248791.0,6.0813,-0.9361,-1.3647,2.9011,-2.0364,0.8769
1248801.0,6.4452,-1.063,-1.6496,2.6994,-1.8039,0.6747
1248811.0,6.8426,-1.3743,-1.8914,2.4951,-1.5985,0.4417
1248821.0,7.3837,-1.5682,-2.7198,2.3663,-1.3798,0.1634
1248831.0,7.6734,-1.3958,-3.9002,2.2008,-1.0908,-0.1804
1248841.0,7.8099,-0.6704,-5.2265,1.8214,-0.7886,-0.58
1248851.0,7.9368,0.0838,-5.9759,1.1228,-0.5406,-0.9892
1248861.0,7.7524,0.4812,-6.3686,0.3826,-0.2905,-1.351
1248871.0,7.3263,0.8547,-6.6798,0.0043,0.1532,-1.6613
1248881.0,6.5673,1.5275,-6.2106,0.0617,0.8285,-1.9188
1248891.0,5.6814,2.3415,-5.1308,0.4071,1.5463,-2.1082
1248901.0,4.8171,3.2992,-3.9552,0.8993,2.1593,-2.237
1248911.0,3.8978,4.2282,-2.964,1.325,2.6302,-2.3248
1248921.0,3.2801,4.9871,-2.0303,1.5091,2.9341,-2.3908
1248931.0,2.6264,5.6599,-1.2761,1.4463,3.0799,-2.4562
1248941.0,2.1452,5.9496,-0.7302,1.1818,3.0974,-2.5126
1248951.0,1.5131,5.849,-0.4286,0.936,3.1432,-2.5504
1248961.0,1.0367,5.4875,-0.2203,0.8264,3.2709,-2.6052
1248971.0,0.4932,5.5522,-0.1796,0.8147,3.4896,-2.7303
1248981.0,-0.3759,6.1866,0.3112,0.7205,3.7392,-2.9117
1248991.0,-1.2306,6.8953,1.5203,0.4518,3.878,-3.0905
1249001.0,-2.0159,7.3909,2.8635,0.0968,3.8711,-3.2235
1249011.0,-2.8467,7.7189,3.5793,-0.2272,3.7418,-3.297
1249021.0,-3.4093,8.0158,3.5602,-0.4502,3.5801,-3.3225
1249031.0,-3.7397,8.4683,3.2394,-0.4613,3.6072,-3.3124
1249041.0,-4.5179,9.2943,2.9233,-0.3155,3.8195,-3.2688
1249051.0,-5.0901,10.0149,3.2058,-0.24,4.077,-3.1916
1249061.0,-5.6862,11.2049,3.553,-0.3262,4.3245,-3.1139
1249071.0,-6.6535,12.0165,6.1866,-0.6886,4.5171,-3.0112
1249081.0,-7.3813,12.56,8.9519,-0.9998,4.4777,-2.8234
1249091.0,-7.6686,12.7443,11.3389,-1.1398,4.1867,-2.5797
1249101.0,-7.6064,13.0628,11.9423,-0.9642,3.8392,-2.2998
1249111.0,-7.8027,13.6924,11.2767,-0.6923,3.6045,-2.0188
1249121.0,-8.3917,14.2335,10.7236,-0.6896,3.4662,-1.7666
1249131.0,-8.7245,13.9271,10.8002,-1.1701,3.2805,-1.5538
1249141.0,-9.1195,12.402,13.0412,-1.988,3.0884,-1.3963
1249151.0,-9.56,10.6183,16.6972,-2.7021,2.7947,-1.2984
1249161.0,-9.8952,9.4978,20.2549,-3.1224,2.154,-1.2792
1249171.0,-10.0102,9.7372,21.0929,-3.0559,1.2372,-1.2675
1249181.0,-9.7875,10.8912,19.1369,-2.6536,0.4236,-1.1877
1249191.0,-9.7899,11.8465,16.2447,-2.3615,-0.0772,-1.0371
1249201.0,-9.4044,11.8178,14.0731,-2.4514,-0.3453,-0.8727
1249211.0,-8.9783,10.9319,13.1561,-2.8622,-0.4512,-0.7748
1249221.0,-8.6526,9.9742,13.2519,-3.5024,-0.5199,-0.7849
1249231.0,-8.5904,9.0597,14.5328,-4.3016,-0.6859,-0.8716
1249241.0,-8.7508,8.3941,16.5008,-4.9651,-0.9871,-0.9525
1249251.0,-8.7867,7.829,18.0355,-5.1636,-1.3478,-0.9402
1249261.0,-8.6694,7.2736,17.9948,-4.9029,-1.7246,-0.8258
1249271.0,-8.1618,6.4835,16.3189,-4.6086,-2.1348,-0.6949
1249281.0,-7.1898,5.5378,13.623,-4.5746,-2.4477,-0.6428
1249291.0,-6.2944,4.525,11.7268,-5.0157,-2.5962,-0.7311
1249301.0,-5.8131,3.5961,11.394,-5.7713,-2.6382,-0.928
1249311.0,-5.9209,2.6863,12.8521,-6.4694,-2.6435,-1.1467
1249321.0,-6.292,2.0494,14.8417,-6.7541,-2.7085,-1.2978
1249331.0,-6.5362,1.5275,16.4338,-6.5796,-2.9181,-1.3574
1249341.0,-6.5242,1.7142,16.5727,-5.9676,-3.2368,-1.3308
1249351.0,-6.3135,2.1213,15.7108,-5.0455,-3.4561,-1.1845
1249361.0,-6.1746,2.3176,13.8672,-4.052,-3.5566,-0.928
1249371.0,-5.2744,1.4844,11.1163,-3.3794,-3.6482,-0.6455
1249381.0,-4.5059,0.1125,9.3278,-3.1714,-3.6013,-0.4816
1249391.0,-4.1276,-0.9649,8.4084,-3.2289,-3.4369,-0.4592
1249401.0,-3.6248,-2.5786,9.0788,-3.4332,-3.2315,-0.5257
1249411.0,-3.0694,-3.6536,9.6103,-3.6343,-3.1214,-0.7029
1249421.0,-2.5402,-4.3766,10.6374,-3.9791,-3.2209,-0.9972
1249431.0,-2.4588,-4.197,11.1019,-4.1968,-3.4045,-1.3186
1249441.0,-2.6432,-3.7996,11.4778,-4.1792,-3.5455,-1.5628
1249451.0,-2.8036,-3.4812,11.4539,-3.9062,-3.6428,-1.6937
1249461.0,-2.7605,-3.2561,11.0804,-3.5433,-3.7541,-1.7469
1249471.0,-2.648,-3.2058,10.5465,-3.1709,-3.8818,-1.7496
1249481.0,-2.4612,-3.3662,9.9072,-2.7728,-3.9813,-1.7209
1249491.0,-2.0877,-3.6009,9.0429,-2.3924,-4.0691,-1.6857
1249501.0,-1.8507,-3.541,7.8937,-2.0928,-4.1579,-1.6756
1249511.0,-1.5874,-3.2848,6.4524,-1.9459,-4.292,-1.6756
1249521.0,-0.6201,-3.237,4.8914,-1.856,-4.3521,-1.6559
1249531.0,0.1269,-3.0694,3.122,-1.8257,-4.2941,-1.6389
1249541.0,0.8284,-2.8994,1.4868,-1.9321,-4.1755,-1.6368
