time_ms,ax,ay,az,gx,gy,gz
434211.0,0.5411,1.9465,10.3789,0.216,0.4752,-0.2911
434221.0,0.5315,2.1284,10.7021,0.2357,0.5013,-0.2799
434231.0,0.4621,2.4325,10.817,0.2581,0.5023,-0.2661
434241.0,0.3519,2.7054,11.0014,0.2437,0.4778,-0.2421
434251.0,0.2394,2.9137,11.2623,0.2097,0.4363,-0.2097
434261.0,0.2849,3.2585,11.4084,0.1745,0.3528,-0.1676
434271.0,0.3112,3.5482,11.564,0.0889,0.2134,-0.1123
434281.0,0.3017,3.7972,11.4563,0.0043,0.0447,-0.0325
434291.0,0.2394,3.8427,11.2073,-0.0516,-0.1165,0.0745
434301.0,0.2346,3.6631,10.7524,-0.0596,-0.2597,0.2107
434311.0,0.3543,3.1963,10.0485,-0.0378,-0.3666,0.3501
434321.0,0.3472,2.5714,9.3134,-0.0128,-0.4119,0.4608
434331.0,0.3543,1.8962,8.6838,0.0309,-0.3916,0.5353
434341.0,0.4094,1.3431,8.1331,0.0947,-0.3139,0.5683
434351.0,0.4334,1.0199,7.6303,0.1644,-0.1857,0.5608
434361.0,0.3615,0.7661,7.3406,0.2027,-0.0154,0.5231
434371.0,0.2418,0.6919,7.2305,0.2368,0.1889,0.4667
434381.0,0.1484,0.7494,7.2999,0.2836,0.4246,0.4087
434391.0,-0.0144,0.8452,7.7524,0.3187,0.6838,0.3512
434401.0,-0.3232,0.9768,8.588,0.3741,0.9285,0.3044
434411.0,-0.5938,1.1827,9.5864,0.4363,1.1047,0.2682
434421.0,-0.747,1.3192,10.7619,0.4661,1.1696,0.2384
434431.0,-0.8595,1.5275,11.7579,0.5289,1.1531,0.2171
434441.0,-0.9601,1.7813,12.3062,0.6082,1.06,0.2038
434451.0,-1.0942,1.9968,12.8712,0.6683,0.9237,0.1932
434461.0,-1.3024,2.5498,12.9431,0.7529,0.7758,0.1995
434471.0,-1.4293,2.7725,13.1466,0.7077,0.5789,0.2288
434481.0,-1.6855,2.8132,13.4794,0.6731,0.3773,0.2682
434491.0,-1.822,2.9808,13.0197,0.7045,0.1852,0.3145
434501.0,-1.8316,2.7653,12.8928,0.6024,-0.0096,0.3555
434511.0,-1.7861,2.66,12.2009,0.4693,-0.2182,0.3698
434521.0,-1.8148,2.5259,11.7053,0.249,-0.3884,0.356
434531.0,-1.6352,2.2841,11.2551,0.041,-0.5124,0.3347
434541.0,-1.3527,2.047,10.8505,-0.1421,-0.5896,0.3086
434551.0,-1.1468,1.6352,10.75,-0.2975,-0.6348,0.2751
434561.0,-1.0463,1.1516,10.4435,-0.398,-0.6673,0.2288
434571.0,-1.0439,0.6704,10.2376,-0.4757,-0.6992,0.1596
434581.0,-0.9649,0.3591,9.8785,-0.4927,-0.7008,0.0702
434591.0,-0.9649,0.1293,9.6343,-0.4746,-0.6433,-0.0277
434601.0,-0.8619,-0.0287,9.663,-0.4284,-0.5321,-0.1399
434611.0,-0.7709,0.0814,9.8857,-0.4081,-0.4241,-0.2788
434621.0,-0.5962,0.3926,10.489,-0.5146,-0.4172,-0.4374
434631.0,-0.3472,0.7973,10.9966,-0.6481,-0.5002,-0.5864
434641.0,-0.2346,1.3719,11.2527,-0.7348,-0.6125,-0.7024
434651.0,-0.2514,1.8723,11.3605,-0.7998,-0.7466,-0.7721
434661.0,-0.261,2.2075,10.999,-0.8125,-0.8838,-0.7971
434671.0,-0.0838,2.4349,10.3573,-0.7662,-0.9557,-0.7891
434681.0,0.1053,2.6145,9.8282,-0.6561,-0.8998,-0.763
434691.0,0.2107,2.9473,9.4116,-0.4959,-0.754,-0.7258
434701.0,0.4717,3.383,9.2296,-0.3815,-0.6055,-0.6758
434711.0,0.5986,3.7421,9.3829,-0.3267,-0.481,-0.6039
434721.0,0.7709,3.8618,9.4691,-0.2442,-0.3783,-0.4959
434731.0,0.8092,3.802,9.5146,-0.1139,-0.2804,-0.3725
434741.0,0.814,3.6895,9.481,0.0894,-0.1426,-0.2453
434751.0,0.8284,3.6176,9.2751,0.2884,0.0202,-0.1277
434761.0,0.7997,3.4069,9.3757,0.3624,0.1447,-0.0335
434771.0,0.7566,3.158,9.505,0.2964,0.1836,0.0229
434781.0,0.759,2.9281,9.8809,0.132,0.1437,0.05
434791.0,0.8284,2.7414,10.1754,-0.0112,0.0702,0.0633
434801.0,0.7661,2.6025,10.149,-0.058,-0.0005,0.0809
434811.0,0.6632,2.4469,9.8737,-0.0426,-0.0575,0.1064
434821.0,0.6129,2.2482,9.1913,-0.0027,-0.0878,0.1383
434831.0,0.5962,2.0063,8.7101,0.041,-0.0378,0.1666
434841.0,0.5148,1.9106,8.2839,0.1298,0.0947,0.1799
434851.0,0.3687,1.9178,8.0732,0.1815,0.2485,0.1836
434861.0,0.3974,1.901,8.1331,0.1995,0.3799,0.1894
434871.0,0.4429,1.8842,8.1499,0.2272,0.5007,0.1958
434881.0,0.3041,1.7597,8.2337,0.2533,0.6002,0.207
434891.0,0.2418,1.5323,7.9942,0.3177,0.6827,0.2192
434901.0,0.1963,1.4509,7.525,0.4246,0.8179,0.215
434911.0,0.0742,1.6041,7.2688,0.5295,1.0419,0.1948
434921.0,-0.1915,2.0063,7.3526,0.5875,1.3063,0.1623
434931.0,-0.407,2.5139,7.7045,0.5316,1.4995,0.1368
434941.0,-0.5459,2.9257,8.3246,0.3757,1.6144,0.133
434951.0,-0.6416,3.0215,9.2296,0.2022,1.6884,0.1559
434961.0,-0.723,2.7461,10.3693,0.107,1.7246,0.1942
434971.0,-0.7997,2.5522,11.2049,0.132,1.7081,0.2214
434981.0,-0.8547,2.4181,11.7627,0.1724,1.6171,0.2256
434991.0,-0.9194,2.3679,11.9135,0.2054,1.4724,0.2054
435001.0,-0.9792,2.4828,11.7603,0.1932,1.3202,0.165
435011.0,-1.0582,2.6743,11.5496,0.1139,1.1605,0.1171
435021.0,-1.1636,2.9425,11.2887,-0.0021,1.0057,0.0697
435031.0,-1.2186,3.1747,11.1139,-0.1447,0.87,0.0319
435041.0,-1.5419,3.4931,11.1043,-0.2517,0.7652,0.0128
435051.0,-1.6712,4.0031,10.7619,-0.2921,0.6614,0.0287
435061.0,-1.7166,4.209,10.5345,-0.3448,0.5843,0.0899
435071.0,-1.7119,4.1539,10.2687,-0.3342,0.5757,0.1751
435081.0,-1.8052,3.9073,10.1107,-0.3038,0.6066,0.2687
435091.0,-1.7789,3.3639,10.2496,-0.2799,0.629,0.3507
435101.0,-1.7334,3.0574,10.1634,-0.2112,0.629,0.406
435111.0,-1.8387,2.8347,9.8043,-0.1713,0.5986,0.4385
435121.0,-1.8818,2.7414,9.2919,-0.1719,0.5688,0.4555
435131.0,-1.9656,2.8515,8.6311,-0.1942,0.6087,0.4693
435141.0,-2.1691,2.9808,8.2408,-0.2703,0.7141,0.4874
435151.0,-2.411,3.0215,8.3677,-0.3837,0.8551,0.5257
435161.0,-2.5809,2.8659,9.0668,-0.4597,1.003,0.5885
435171.0,-2.6504,2.4038,9.9335,-0.4369,1.1089,0.6747
435181.0,-2.6576,1.7669,10.331,-0.3491,1.1281,0.7556
435191.0,-2.6528,1.0008,10.4842,-0.2501,1.0946,0.8046
435201.0,-2.6336,0.4238,10.0149,-0.1282,1.0781,0.8014
435211.0,-2.7629,0.0168,9.6798,-0.0697,1.1217,0.7434
435221.0,-2.8539,-0.1867,9.809,-0.0894,1.1813,0.6428
435231.0,-2.9592,-0.1772,10.4603,-0.1586,1.2286,0.5076
435241.0,-3.1101,0.2849,11.3461,-0.2384,1.2159,0.3709
435251.0,-3.2848,0.7997,12.3182,-0.3586,1.0727,0.2692
435261.0,-3.4046,1.2737,12.7515,-0.3794,0.8833,0.2416
435271.0,-3.4907,1.2546,12.9478,-0.3198,0.7258,0.2719
435281.0,-3.4884,0.9577,12.8593,-0.2559,0.5598,0.3076
435291.0,-3.4812,0.5842,12.6677,-0.2246,0.4028,0.3118
435301.0,-3.62,0.2274,12.3541,-0.207,0.273,0.2863
435311.0,-3.6823,0.0479,11.9016,-0.1878,0.174,0.2347
435321.0,-3.6152,0.0599,11.6358,-0.199,0.1389,0.1607
435331.0,-3.6512,0.1891,11.8154,-0.2426,0.1256,0.0734
435341.0,-3.7182,0.4956,12.2823,-0.307,0.0686,-0.0122
435351.0,-3.7757,0.8595,12.6342,-0.3618,-0.0601,-0.0708
435361.0,-3.7302,1.0942,12.627,-0.3661,-0.224,-0.0905
435371.0,-3.7254,1.0127,12.3206,-0.3267,-0.3374,-0.0798
435381.0,-3.8451,0.7781,11.971,-0.2804,-0.4001,-0.075
435391.0,-3.8475,0.5842,11.7148,-0.2559,-0.4182,-0.1006
435401.0,-3.8547,0.5938,11.7076,-0.2219,-0.3666,-0.149
435411.0,-3.9145,0.9074,11.9878,-0.1692,-0.2852,-0.207
435421.0,-3.8379,1.47,12.5696,-0.1309,-0.2246,-0.2575
435431.0,-3.8618,2.0375,13.2375,-0.124,-0.2432,-0.2852
435441.0,-3.8882,2.4948,13.7403,-0.1469,-0.364,-0.2698
435451.0,-3.9097,2.5498,13.9319,-0.1724,-0.5279,-0.2182
435461.0,-4.0869,2.308,13.9869,-0.1841,-0.6939,-0.166
435471.0,-4.0582,2.0853,13.7786,-0.191,-0.8551,-0.1394
435481.0,-4.0103,2.0877,13.5799,-0.207,-0.9562,-0.1485
435491.0,-4.027,2.4253,13.6613,-0.2432,-1.0259,-0.1719
435501.0,-4.027,2.8874,13.9678,-0.3177,-1.1568,-0.1783
435511.0,-3.8451,3.2274,14.0803,-0.3938,-1.3803,-0.1469
435521.0,-3.5745,3.3016,13.6086,-0.4374,-1.6554,-0.0713
435531.0,-3.3208,2.9688,12.7443,-0.4938,-1.9167,0.0138
435541.0,-3.1484,2.4565,11.6023,-0.5587,-2.1497,0.0867
435551.0,-2.7509,1.6975,10.4794,-0.6231,-2.2977,0.1325
435561.0,-2.2793,1.166,9.3206,-0.6449,-2.3296,0.1304
435571.0,-1.8914,0.8595,8.6167,-0.7077,-2.2615,0.0814
435581.0,-1.5467,0.7135,8.5018,-0.7764,-2.1529,0.0117
435591.0,-1.2713,0.8571,8.4348,-0.762,-2.0534,-0.049
435601.0,-0.9625,0.9625,8.4491,-0.7066,-1.9555,-0.0798
435611.0,-0.6752,0.8882,8.3749,-0.6071,-1.8656,-0.0814
435621.0,-0.419,0.7374,8.0565,-0.5172,-1.8055,-0.0862
435631.0,0.0455,0.5339,7.6926,-0.4656,-1.7379,-0.1101
435641.0,0.4908,0.316,7.3694,-0.4097,-1.6096,-0.1554
435651.0,0.735,0.4812,7.1323,-0.3794,-1.4309,-0.2304
435661.0,0.8715,0.8643,7.4388,-0.415,-1.2489,-0.3124
435671.0,0.9529,1.4389,7.9248,-0.4422,-1.1174,-0.357
435681.0,1.0774,1.9968,8.2001,-0.4523,-1.0456,-0.3507
435691.0,1.3024,2.4038,8.2313,-0.4592,-1.0009,-0.2959
435701.0,1.5874,2.3535,8.7317,-0.4278,-0.8987,-0.2081
435711.0,1.8076,2.4948,8.6526,-0.2975,-0.77,-0.1107
435721.0,1.8076,2.2936,9.1961,-0.2863,-0.6763,-0.016
435731.0,1.8794,1.8842,9.6798,-0.2501,-0.6236,0.0772
435741.0,1.9992,1.4724,9.9359,-0.1474,-0.5837,0.1554
435751.0,2.0614,1.1061,10.0485,-0.0724,-0.5864,0.2017
435761.0,2.1332,0.9577,9.7755,-0.0564,-0.621,0.216
435771.0,2.138,0.8021,9.6654,-0.1224,-0.6502,0.2107
435781.0,2.2122,0.7542,9.3757,-0.2017,-0.6731,0.2001
435791.0,2.2673,0.6129,9.3015,-0.2868,-0.6508,0.1857
435801.0,2.2793,0.5387,9.4858,-0.3304,-0.5954,0.1703
435811.0,2.3152,0.3328,9.8114,-0.3278,-0.5353,0.1644
435821.0,2.2338,0.1676,10.1203,-0.2751,-0.5018,0.157
435831.0,2.1859,0.0622,10.2783,-0.2075,-0.5167,0.1506
435841.0,2.3176,-0.079,10.1993,-0.1224,-0.5614,0.1501
435851.0,2.4588,-0.1053,9.9359,-0.0372,-0.5848,0.141
435861.0,2.5474,-0.146,9.6343,-0.0101,-0.5922,0.1197
435871.0,2.6121,-0.2035,9.6271,-0.0654,-0.6242,0.0835
435881.0,2.6312,-0.2203,9.7755,-0.1304,-0.7008,0.0404
435891.0,2.6169,-0.3376,9.8426,-0.1564,-0.829,0.0096
435901.0,2.6552,-0.5578,9.4643,-0.1272,-1.0121,-0.0128
435911.0,2.8994,-0.8284,8.3438,-0.1038,-1.2191,-0.0452
435921.0,3.2585,-0.893,6.9456,-0.1799,-1.3909,-0.1176
435931.0,3.4692,-0.7135,5.7604,-0.3677,-1.4771,-0.2267
435941.0,3.541,-0.1891,4.6256,-0.6008,-1.4894,-0.3326
435951.0,3.4884,0.1437,4.0151,-0.8434,-1.4367,-0.3991
435961.0,3.4931,0.3041,3.6033,-0.9424,-1.2989,-0.4124
435971.0,3.5961,0.2969,2.8204,-0.7934,-1.0562,-0.3735
435981.0,3.5937,0.2658,1.7621,-0.5183,-0.6886,-0.3092
435991.0,3.4333,0.0311,0.893,-0.3006,-0.224,-0.2512
436001.0,3.3686,-0.2251,0.5267,-0.1724,0.3049,-0.2208
436011.0,3.2034,-0.2418,0.6081,-0.1054,0.887,-0.2192
436021.0,2.9832,-0.079,1.3503,-0.1,1.4968,-0.2325
436031.0,2.9832,-0.079,1.3503,-0.1,1.4968,-0.2325
436041.0,2.5474,0.1437,3.0191,-0.1389,2.0518,-0.2453
436051.0,1.9872,0.5339,4.786,-0.182,2.4408,-0.2496
436061.0,1.5347,0.9385,6.5912,-0.2629,2.6494,-0.2352
436071.0,1.0846,1.142,8.5353,-0.2677,2.7611,-0.1846
436081.0,0.7685,1.4293,10.1514,-0.0772,2.8292,-0.0963
436091.0,0.5746,1.6759,11.3294,0.1607,2.8207,0.0096
436101.0,0.4669,2.0614,12.1362,0.3347,2.7228,0.1107
436111.0,0.4525,2.3008,12.6222,0.3773,2.5674,0.2075
436121.0,0.5291,2.3104,13.1106,0.2666,2.3583,0.2863
436131.0,0.3567,2.1596,13.635,0.0851,2.1013,0.3395
436141.0,0.0527,2.0279,13.6948,-0.0947,1.8076,0.3735
436151.0,-0.1915,1.8579,13.4817,-0.2512,1.5165,0.4023
436161.0,-0.4525,1.901,12.7755,-0.3464,1.2813,0.4305
436171.0,-0.6033,1.4964,12.5432,-0.4124,1.1808,0.4826
436181.0,-0.4142,0.644,12.6414,-0.3368,1.202,0.5417
436191.0,-0.3591,-0.0263,12.7635,-0.2304,1.2132,0.5412
436201.0,-0.34,-0.4669,12.8617,-0.2347,1.1084,0.4683
436211.0,-0.395,-0.4022,12.4307,-0.2996,0.9525,0.3507
436221.0,-0.4884,-0.2322,11.9878,-0.406,0.8322,0.2304
436231.0,-0.7207,0.1724,11.3749,-0.5172,0.7599,0.1288
436241.0,-1.1277,0.7015,10.7787,-0.6556,0.7434,0.0548
436251.0,-1.4557,0.8595,11.1282,-0.7982,0.8077,0.0372
436261.0,-1.4245,0.5962,11.9542,-0.7412,0.9456,0.0766
436271.0,-1.4557,0.3807,12.7324,-0.5374,1.0589,0.1181
436281.0,-1.4653,0.1724,13.307,-0.3821,1.0211,0.1415
436291.0,-1.3934,0.1508,13.2304,-0.3124,0.8695,0.1405
436301.0,-1.4485,0.2586,12.7802,-0.3469,0.7109,0.1203
436311.0,-1.5203,0.2945,12.5049,-0.4762,0.588,0.0979
436321.0,-1.4581,0.3711,12.2583,-0.6188,0.5114,0.0825
436331.0,-1.5107,0.4262,12.3038,-0.7625,0.4752,0.074
436341.0,-1.6592,0.6225,12.3852,-0.9041,0.4156,0.0772
436351.0,-1.8076,0.735,12.639,-1.027,0.3368,0.1086
436361.0,-1.901,0.3663,13.2136,-1.028,0.2863,0.1884
436381.0,-1.6281,-1.0894,13.2328,-0.6242,0.1112,0.3576
436391.0,-1.3479,-1.719,12.3373,-0.5619,-0.0575,0.3565
436401.0,-1.1181,-2.0231,11.4371,-0.6311,-0.1543,0.2969
436411.0,-1.0726,-2.1787,11.0684,-0.7753,-0.1421,0.2171
436421.0,-1.0726,-2.296,11.2001,-0.9312,-0.0926,0.141
436431.0,-1.1277,-2.5187,11.7603,-1.1121,-0.0798,0.074
436441.0,-1.3862,-2.8347,12.6965,-1.2446,-0.1266,0.0106
436451.0,-1.5562,-3.158,13.702,-1.1973,-0.2182,-0.0362
436461.0,-1.5443,-3.3495,14.0276,-0.945,-0.3453,-0.0644
436471.0,-1.4413,-3.2322,13.3525,-0.6619,-0.5082,-0.0984
436481.0,-1.4461,-2.9856,12.651,-0.5156,-0.6412,-0.1485
436491.0,-1.3503,-2.5259,11.643,-0.4438,-0.7152,-0.1884
436501.0,-1.2426,-2.3104,11.2911,-0.4981,-0.7098,-0.2176
436511.0,-1.1851,-2.0997,11.2695,-0.5944,-0.679,-0.2384
436521.0,-1.312,-1.9417,11.7483,-0.6944,-0.663,-0.2533
436531.0,-1.4892,-1.8675,12.5384,-0.7082,-0.6955,-0.2421
436541.0,-1.4485,-1.9034,12.9478,-0.6093,-0.7833,-0.2022
436551.0,-1.4245,-1.9824,13.3118,-0.4895,-0.9184,-0.1591
436561.0,-1.2713,-1.7789,12.9024,-0.3379,-1.1132,-0.1203
436571.0,-0.905,-1.6424,12.153,-0.2267,-1.2728,-0.0724
436581.0,-0.6225,-1.7023,11.5065,-0.2075,-1.3548,-0.0223
436591.0,-0.4477,-1.8411,11.0852,-0.2879,-1.434,0.008
436601.0,-0.2562,-2.1093,11.0061,-0.4161,-1.5304,0.0213
436611.0,-0.1508,-2.2673,10.7069,-0.4683,-1.616,0.0239
436621.0,-0.1101,-2.4541,10.5656,-0.4736,-1.6868,0.0218
436631.0,0.0239,-2.6145,10.2927,-0.398,-1.7714,0.0213
436641.0,0.1604,-2.5881,9.3134,-0.2208,-1.8411,0.0245
436651.0,0.395,-2.4229,7.9104,-0.0894,-1.84,0.0218
436661.0,0.6991,-2.2841,6.9552,-0.1064,-1.7512,0.0069
436671.0,1.0271,-2.1237,6.6655,-0.2208,-1.6118,-0.0202
436681.0,1.2378,-1.8459,7.082,-0.3416,-1.4569,-0.0426
436691.0,1.3384,-1.482,7.3765,-0.3815,-1.3617,-0.0261
436701.0,1.4317,-1.3503,7.4771,-0.3672,-1.3138,0.0404
436711.0,1.3934,-1.4533,7.4675,-0.2841,-1.267,0.1346
436721.0,1.3958,-1.6807,6.8905,-0.1368,-1.2271,0.2416
436731.0,1.5419,-2.1883,6.2058,-0.0138,-1.152,0.3448
436741.0,1.98,-2.8108,5.5354,0.0873,-0.9966,0.415
436751.0,2.4565,-3.4429,5.0566,0.1139,-0.7966,0.4209
436761.0,2.7773,-3.8259,4.9895,0.0154,-0.5997,0.3533
436771.0,2.9329,-3.948,5.4348,-0.1602,-0.4257,0.24
436781.0,3.0287,-3.8044,6.0334,-0.2831,-0.3022,0.1298
436791.0,3.0502,-3.565,6.2728,-0.281,-0.1852,0.0612
436801.0,2.9066,-3.4764,6.4596,-0.191,-0.0341,0.0404
436811.0,2.8539,-3.6009,6.6487,-0.0788,0.1261,0.0415
436821.0,2.9257,-3.814,6.7708,0.0325,0.2671,0.0372
436831.0,3.0933,-3.9887,6.7708,0.1054,0.4044,0.0032
436841.0,3.146,-3.9983,7.0437,0.0724,0.5396,-0.0697
436851.0,2.9856,-3.9241,7.6447,-0.0074,0.6449,-0.1602
436861.0,2.8395,-3.6536,8.3175,-0.0426,0.7269,-0.2373
436871.0,2.6001,-3.3016,8.9112,-0.0479,0.7907,-0.2905
436881.0,2.387,-2.9473,9.414,-0.0495,0.8104,-0.3108
436891.0,2.2601,-2.7892,10.1801,-0.0362,0.8296,-0.3028
436901.0,2.2051,-2.6767,10.8098,0.0633,0.8242,-0.2719
436911.0,2.1668,-2.7653,11.1211,0.1985,0.7684,-0.232
436922.0,2.3774,-3.3902,10.9511,0.4055,0.6178,-0.241
436931.0,2.3774,-3.3902,10.9511,0.4055,0.6178,-0.241
436941.0,2.3296,-3.2968,10.8984,0.3826,0.5332,-0.3294
436951.0,2.2505,-2.8443,10.635,0.3288,0.4571,-0.4353
436961.0,2.2242,-2.3104,10.5656,0.2198,0.3906,-0.5263
436971.0,2.1955,-1.8483,10.6901,0.1155,0.3432,-0.5875
436981.0,2.1739,-1.4389,10.7883,0.0521,0.2879,-0.621
436991.0,2.1452,-1.1756,10.7739,0.0074,0.2017,-0.6401
437001.0,2.1739,-0.9026,10.5034,0.009,0.1298,-0.654
437011.0,2.0375,-0.6009,10.4028,0.0149,0.0974,-0.6694
437021.0,1.8794,-0.1891,10.058,0.0447,0.0426,-0.6758
437031.0,1.7669,0.2921,9.4762,0.0713,-0.0048,-0.6625
437041.0,1.7669,0.8236,8.8418,0.0937,0.008,-0.6295
437051.0,1.6424,1.3408,8.4372,0.0814,0.0798,-0.5752
437061.0,1.5514,1.7669,8.4659,0.0543,0.1979,-0.4938
437071.0,1.482,2.2434,8.6622,0.033,0.3251,-0.3852
437081.0,1.4102,2.4445,9.3087,-0.0357,0.4001,-0.2512
437091.0,1.4054,2.411,9.7013,-0.0899,0.3874,-0.1032
437101.0,1.2881,2.3727,10.0078,-0.0905,0.3592,0.049
437111.0,1.1851,2.2889,9.9288,-0.0048,0.3427,0.2155
437121.0,1.2282,2.083,9.572,0.0952,0.3656,0.39
437131.0,1.1612,1.6879,9.5122,0.1399,0.4299,0.5475
437141.0,1.0989,1.2282,9.6319,0.1783,0.4986,0.6806
437151.0,1.075,0.8308,9.7037,0.2198,0.5555,0.7849
437161.0,0.8859,0.4573,9.8713,0.1932,0.5864,0.861
437171.0,0.7877,-0.0215,10.0245,0.1235,0.5811,0.9142
437181.0,0.7135,-0.3855,10.1442,0.074,0.5795,0.9434
437191.0,0.6345,-0.5459,10.3501,0.0426,0.5938,0.9578
437201.0,0.7159,-0.6297,10.5201,0.0122,0.6188,0.9796
437211.0,0.8164,-0.7733,10.9487,-0.05,0.646,1.0046
437221.0,0.7829,-0.9984,11.7412,-0.1378,0.6231,1.0318
437231.0,0.6632,-1.2498,12.299,-0.1852,0.513,1.0664
437241.0,0.6081,-1.6783,12.4259,-0.1708,0.364,1.1089
437251.0,0.4812,-2.1452,12.2248,-0.1016,0.2224,1.1419
437261.0,0.3136,-2.5929,11.4706,-0.0223,0.0963,1.1584
437271.0,0.3208,-3.0382,10.5943,-0.0133,0.0144,1.1435
437281.0,0.3903,-3.3279,9.8282,-0.0963,0.0059,1.0972
437291.0,0.4956,-3.6129,9.6007,-0.2756,0.0388,1.0222
437301.0,0.5866,-3.9696,9.9575,-0.4864,0.0782,0.9317
437311.0,0.4764,-4.0917,10.4914,-0.6135,0.0915,0.8354
437321.0,0.328,-4.0893,10.8122,-0.6609,0.0447,0.7588
437331.0,0.3567,-4.1683,10.8314,-0.6247,-0.0186,0.7088
437341.0,0.4286,-4.1779,10.4914,-0.4927,-0.0309,0.6779
437351.0,0.5339,-4.1444,10.1706,-0.3358,0.0154,0.6641
437361.0,0.7015,-4.2808,9.924,-0.2288,0.0905,0.6572
437371.0,0.8308,-4.5945,10.0173,-0.1862,0.1772,0.6396
437381.0,0.8739,-4.9416,10.2687,-0.1634,0.2315,0.5986
437391.0,0.8787,-5.1858,10.3621,-0.1426,0.2272,0.531
437401.0,0.8045,-5.3056,10.3621,-0.1314,0.1953,0.4432
437411.0,0.7973,-5.284,10.1107,-0.1224,0.1591,0.3448
437421.0,0.7542,-5.0446,9.7372,-0.1362,0.1293,0.2458
437431.0,0.8356,-4.7884,9.4164,-0.1783,0.124,0.1634
437441.0,0.9601,-4.7621,9.2632,-0.2283,0.1681,0.0995
437451.0,1.0367,-4.9009,9.6175,-0.2708,0.2432,0.0378
437461.0,0.9361,-4.9153,10.0844,-0.2543,0.2756,-0.0261
437471.0,0.893,-4.9057,10.1706,-0.1836,0.2565,-0.0814
437481.0,0.8356,-4.9584,10.0317,-0.0958,0.2357,-0.1341
437491.0,0.7638,-4.8842,9.6127,-0.0266,0.2325,-0.1985
437501.0,0.7254,-4.8219,9.2512,-0.033,0.2512,-0.2772
437511.0,0.6919,-4.6639,9.2536,-0.0841,0.3017,-0.3666
437521.0,0.6369,-4.4676,9.3637,-0.1117,0.3602,-0.4507
437531.0,0.5698,-4.3239,9.7899,-0.1032,0.4087,-0.5252
437541.0,0.498,-4.2018,9.9814,-0.0229,0.4347,-0.5933
437551.0,0.2897,-3.9361,10.0126,0.0537,0.4278,-0.6683
437561.0,0.2801,-3.5362,9.675,0.0835,0.3847,-0.7492
437571.0,0.3208,-2.9999,9.1674,0.0351,0.3682,-0.829
437581.0,0.2921,-2.5259,9.1147,-0.0633,0.4135,-0.8881
437591.0,0.4238,-1.9585,9.2201,-0.1383,0.4895,-0.9142
437601.0,0.4693,-1.5706,9.6678,-0.2043,0.58,-0.8977
437611.0,0.4621,-1.4174,10.2089,-0.2309,0.6465,-0.8418
437621.0,0.3807,-1.4533,10.9487,-0.2309,0.6646,-0.7753
437631.0,0.3448,-1.5371,11.4874,-0.1474,0.6274,-0.7019
437641.0,0.2514,-1.5969,11.5281,0.0128,0.5619,-0.6295
437651.0,0.1604,-1.5778,11.1282,0.1463,0.4832,-0.5747
437661.0,0.2322,-1.5299,10.5249,0.1713,0.4124,-0.5396
437671.0,0.2897,-1.5467,10.2807,0.1016,0.3831,-0.5225
437681.0,0.3639,-1.5514,10.2017,0.0208,0.3927,-0.522
437691.0,0.3711,-1.4533,10.3382,-0.0665,0.3943,-0.5321
437701.0,0.3448,-1.3503,10.501,-0.1192,0.3751,-0.538
437711.0,0.1915,-1.1875,10.5058,-0.1128,0.3586,-0.5257
437721.0,0.0622,-1.1923,10.5967,-0.058,0.3539,-0.4906
437731.0,0.1006,-1.2689,10.4052,0.0362,0.3597,-0.4459
437741.0,0.1484,-1.4365,10.2544,0.0921,0.3709,-0.4214
437751.0,0.2346,-1.4557,10.0892,0.1277,0.3863,-0.422
437761.0,0.3112,-1.3096,9.8785,0.1463,0.4097,-0.4369
437771.0,0.2562,-1.1396,9.9264,0.1171,0.4544,-0.4581
437781.0,0.1939,-0.8595,10.1442,0.0851,0.5023,-0.4768
437791.0,0.1365,-0.5459,10.5465,0.0399,0.5204,-0.481
437801.0,0.0814,-0.3759,10.9511,0.0245,0.4927,-0.4608
437811.0,-0.0766,-0.1724,10.9702,0.0484,0.4225,-0.4172
437821.0,-0.2586,-0.1915,11.0397,0.0596,0.3384,-0.3597
437831.0,-0.3256,-0.2059,10.7835,0.1203,0.2586,-0.3006
437841.0,-0.3519,-0.2418,10.4315,0.1708,0.2182,-0.2501
437851.0,-0.3328,-0.3328,10.1418,0.1841,0.2081,-0.2118
437861.0,-0.3974,-0.3567,10.1299,0.1687,0.2027,-0.1926
437871.0,-0.5435,-0.1508,9.9623,0.1692,0.1793,-0.1836
437881.0,-0.6871,0.146,9.6367,0.1511,0.1437,-0.1564
437891.0,-0.8045,0.2729,9.2943,0.107,0.1266,-0.107
437901.0,-0.9673,0.4812,9.0597,0.0734,0.157,-0.0468
437911.0,-1.1349,0.7039,8.9208,0.0686,0.2352,0.0362
437921.0,-1.1636,0.7901,9.019,0.0761,0.3448,0.1437
437931.0,-1.063,0.7638,9.5337,0.0894,0.4576,0.2618
437941.0,-1.0199,0.7901,9.8928,0.1224,0.5279,0.3794
437951.0,-0.996,0.7494,10.2472,0.0894,0.5263,0.4917
437961.0,-1.0175,0.6033,10.6207,0.0303,0.4816,0.6024
437971.0,-1.0989,0.5411,10.4459,0.0069,0.4166,0.7168
437981.0,-1.2234,0.3017,10.2951,-0.0729,0.3581,0.8269
437991.0,-1.3815,-0.091,10.3142,-0.1793,0.3054,0.9339
438001.0,-1.3384,-0.735,10.4722,-0.2373,0.2703,1.0328
438011.0,-1.1349,-1.4605,10.4651,-0.2054,0.2506,1.1121
438021.0,-1.0558,-2.1356,10.228,-0.1671,0.2363,1.1467
438031.0,-1.008,-2.7605,10.1442,-0.2043,0.215,1.1291
438041.0,-1.1013,-3.2322,10.2544,-0.2554,0.2123,1.0711
438051.0,-1.1947,-3.3615,10.1418,-0.2804,0.2192,0.9951
438061.0,-1.1851,-3.5075,10.41,-0.3294,0.2437,0.928
438071.0,-1.166,-3.5482,10.7955,-0.3209,0.2868,0.879
438081.0,-1.1756,-3.6105,11.1402,-0.2687,0.3113,0.8524
438091.0,-1.0774,-3.8978,11.485,-0.2214,0.2884,0.837
438101.0,-0.9625,-4.288,11.6622,-0.149,0.2293,0.8131
438111.0,-0.9313,-4.6902,11.5448,-0.0809,0.1517,0.7583
438121.0,-0.9529,-4.9991,11.2743,-0.0266,0.0612,0.6683
438131.0,-0.9505,-5.0853,10.6207,0.0043,-0.0053,0.5518
438141.0,-0.8715,-5.138,10.319,-0.0261,0.0096,0.4182
438151.0,-0.9888,-5.0063,10.3142,-0.0788,0.0591,0.2826
438161.0,-0.9553,-4.8028,10.7763,-0.1522,0.0899,0.1596
438171.0,-0.759,-4.5921,11.3006,-0.1809,0.0857,0.0628
438181.0,-0.7111,-4.4053,11.8657,-0.1282,0.0415,-0.0138
438191.0,-0.6871,-4.0845,11.9758,0.0239,-0.0681,-0.0665
438201.0,-0.4717,-3.8331,11.3437,0.2261,-0.207,-0.0915
438211.0,-0.3256,-3.6871,10.2376,0.3847,-0.2969,-0.1155
438221.0,-0.3065,-3.6129,9.1961,0.4294,-0.315,-0.1607
438231.0,-0.2538,-3.5291,8.4946,0.373,-0.2724,-0.2395
438241.0,-0.1772,-3.1939,8.2624,0.2634,-0.1905,-0.34
438251.0,-0.237,-2.9305,8.6886,0.1383,-0.1059,-0.4353
438261.0,-0.3687,-2.6624,9.3134,0.1,-0.0841,-0.5124
438271.0,-0.3926,-2.2673,9.1411,0.1862,-0.1479,-0.5662
438281.0,-0.4429,-1.8483,8.5329,0.2772,-0.2256,-0.6061
438291.0,-0.5028,-1.3647,7.4101,0.3235,-0.2538,-0.6455
438301.0,-0.7326,-0.7925,6.5338,0.2639,-0.1953,-0.687
438311.0,-1.0127,-0.1173,5.9759,0.133,-0.0702,-0.7136
438321.0,-1.2546,0.5243,6.0358,-0.0074,0.1277,-0.6976
438331.0,-1.3072,1.1181,6.3015,-0.067,0.3544,-0.6194
438341.0,-1.3455,1.5347,6.8953,-0.083,0.5827,-0.4832
438351.0,-1.2737,1.5897,7.671,-0.0686,0.7822,-0.3017
438361.0,-1.3288,1.4198,8.6024,-0.0271,0.9126,-0.1054
438371.0,-1.4461,1.1325,9.3134,0.0532,0.9653,0.0862
438381.0,-1.482,0.747,9.5122,0.1756,0.9887,0.2698
438391.0,-1.4557,0.1484,9.6798,0.2724,1.0147,0.4321
438401.0,-1.5682,-0.4549,9.6845,0.2975,1.0222,0.5454
438411.0,-1.6424,-1.0104,9.7276,0.2325,0.9988,0.6077
438421.0,-1.5802,-1.6113,10.1011,0.1586,1.0126,0.6359
438431.0,-1.6903,-2.1237,10.5991,0.1639,1.0722,0.6401
438441.0,-1.9082,-2.6671,11.3964,0.1799,1.0882,0.6162
438451.0,-1.8004,-3.1747,11.7699,0.2261,1.0147,0.5635
438461.0,-1.8555,-3.5243,12.0955,0.2889,0.9296,0.4757
438471.0,-2.0207,-3.7134,12.0787,0.3805,0.8402,0.3709
438481.0,-2.2601,-3.7948,11.8657,0.4699,0.7599,0.2581
438491.0,-2.241,-3.7613,11.6598,0.5199,0.7114,0.1352
438501.0,-2.162,-3.6943,11.7483,0.5358,0.713,0.0037
438511.0,-2.2505,-3.4524,11.9303,0.5332,0.7093,-0.1304
438521.0,-2.4014,-3.1532,12.2439,0.4715,0.6407,-0.2618
438531.0,-2.5043,-2.7054,12.3996,0.4161,0.5199,-0.3789
438541.0,-2.5929,-2.2482,12.4618,0.4172,0.4145,-0.4566
438551.0,-2.6959,-1.8172,12.2894,0.4768,0.3384,-0.4906
438561.0,-2.8371,-1.5371,12.1051,0.5183,0.2735,-0.5002
438571.0,-2.885,-1.3695,12.0692,0.5582,0.2283,-0.4922
438581.0,-2.8491,-1.1851,11.8968,0.6486,0.215,-0.4704
438591.0,-2.739,-1.0463,11.8609,0.7306,0.2118,-0.4417
438601.0,-2.6408,-1.0606,11.813,0.7652,0.1713,-0.4225
438611.0,-2.5307,-1.0822,11.5401,0.7274,0.075,-0.4347
438621.0,-2.6217,-1.0391,11.2743,0.6178,-0.0383,-0.481
438631.0,-2.6887,-0.9864,11.0636,0.5263,-0.1181,-0.5374
438641.0,-2.7007,-0.7039,10.8146,0.5374,-0.1229,-0.5843
438651.0,-2.794,-0.3352,10.6303,0.5816,-0.0734,-0.6109
438661.0,-2.8204,0.0144,10.6422,0.5917,-0.0208,-0.6151
438671.0,-2.8228,0.2969,10.9654,0.588,0.0165,-0.6013
438681.0,-2.7485,0.4836,11.212,0.6119,0.0208,-0.5715
438691.0,-2.7438,0.5938,11.3006,0.6486,-0.009,-0.5358
438701.0,-2.715,0.7039,11.2743,0.6699,-0.0819,-0.5066
438711.0,-2.5618,0.8356,10.9439,0.6486,-0.1846,-0.4943
438721.0,-2.5043,1.0056,10.5967,0.5885,-0.2645,-0.4938
438731.0,-2.466,1.2067,10.2759,0.5007,-0.3102,-0.5007
438741.0,-2.4253,1.4222,10.0604,0.3789,-0.348,-0.5066
438751.0,-2.3942,1.64,10.0772,0.265,-0.3794,-0.5023
438761.0,-2.3104,1.7765,10.1275,0.2091,-0.406,-0.4773
438771.0,-2.3511,1.8914,10.1347,0.2107,-0.4315,-0.4358
438781.0,-2.3008,1.9201,10.0796,0.2911,-0.448,-0.381
438791.0,-2.1979,2.1332,9.4762,0.4204,-0.4486,-0.3219
438801.0,-2.1715,2.2075,8.904,0.4385,-0.4432,-0.2677
438811.0,-2.0638,2.296,8.5066,0.3416,-0.4454,-0.2277
438821.0,-2.0016,2.3774,8.1259,0.1926,-0.4284,-0.199
438831.0,-1.9776,2.4876,7.9511,0.0048,-0.3847,-0.1708
438841.0,-1.9201,2.4349,8.1906,-0.1463,-0.3124,-0.1288
438851.0,-1.913,2.3272,8.4946,-0.1873,-0.2027,-0.0676
438861.0,-1.9585,2.1883,8.9759,-0.1325,-0.0873,0.0048
438871.0,-1.9513,2.0614,9.2464,-0.0053,-0.0186,0.0798
438881.0,-1.8771,1.9154,9.3422,0.1155,0.0186,0.149
438891.0,-1.7023,1.8244,9.3733,0.2176,0.0575,0.2011
438901.0,-1.5993,1.901,9.177,0.281,0.0782,0.2384
438911.0,-1.6257,1.9513,8.8753,0.2496,0.0692,0.2639
438921.0,-1.5514,1.9082,8.6646,0.1591,0.0766,0.2857
438931.0,-1.5299,1.8699,8.6479,0.067,0.1181,0.306
438941.0,-1.5634,1.6352,8.7556,-0.0122,0.1836,0.3294
438951.0,-1.64,1.4437,9.0046,-0.0601,0.2522,0.3464
438961.0,-1.6352,1.2115,9.4403,-0.0883,0.2948,0.3586
438971.0,-1.6376,1.0822,9.7205,-0.0729,0.3182,0.3634
438981.0,-1.6616,1.0343,9.9958,-0.0357,0.3368,0.3656
438991.0,-1.6233,0.972,10.2496,0.0447,0.3384,0.3767
439001.0,-1.5538,1.0582,10.0772,0.1527,0.3209,0.3911
439011.0,-1.6688,1.1372,9.7995,0.1937,0.299,0.4028
439021.0,-1.7789,1.1684,9.4643,0.1554,0.2639,0.4097
439031.0,-1.8028,1.1684,9.098,0.0734,0.249,0.4103
439041.0,-1.901,1.2761,9.0166,-0.0388,0.2826,0.4055
439051.0,-1.992,1.245,9.402,-0.1458,0.3507,0.4113
439061.0,-2.1404,1.1995,9.9359,-0.1607,0.4198,0.4347
439071.0,-2.1691,1.1133,10.5058,-0.1006,0.4624,0.473
439081.0,-2.0135,1.0487,10.8864,0.0255,0.4704,0.5209
439091.0,-1.9609,1.0175,10.7691,0.1729,0.4635,0.572
439101.0,-2.0327,0.8356,10.6063,0.2623,0.4566,0.6087
439111.0,-2.0853,0.747,10.1658,0.274,0.431,0.6231
439121.0,-2.1189,0.644,10.0461,0.1729,0.4161,0.6151
439131.0,-2.2242,0.5315,10.1155,0.033,0.4214,0.5976
439141.0,-2.3367,0.2729,10.6015,-0.1032,0.4209,0.5811
439151.0,-2.3296,-0.1484,11.133,-0.1809,0.39,0.5619
439161.0,-2.308,-0.4142,11.5496,-0.1368,0.3475,0.5353
439171.0,-2.1021,-0.5722,11.4994,0.0,0.3022,0.5087
439181.0,-2.1332,-0.7638,11.3102,0.1208,0.273,0.4709
439191.0,-2.1979,-0.838,11.0636,0.1948,0.2373,0.4103
439201.0,-2.0638,-0.759,10.8026,0.1724,0.1857,0.3257
439211.0,-2.1093,-0.644,10.6901,0.0537,0.1139,0.2341
439221.0,-2.2434,-0.577,10.556,-0.0713,0.0325,0.1517
439231.0,-2.2673,-0.4693,10.2687,-0.133,-0.0165,0.0841
439241.0,-2.2769,-0.419,10.0317,-0.1362,0.0048,0.0367
439251.0,-2.332,-0.5148,10.0365,-0.1,0.0825,0.008
439261.0,-2.3104,-0.8212,10.2951,-0.0261,0.1772,-0.0165
439271.0,-2.3679,-1.1061,10.5297,0.0798,0.2549,-0.0628
439281.0,-2.4038,-1.1444,10.8649,0.1878,0.3113,-0.1378
439291.0,-2.4708,-0.9002,11.2695,0.2841,0.3416,-0.2283
439301.0,-2.5618,-0.5052,11.5496,0.348,0.298,-0.3113
439311.0,-2.5977,-0.0646,11.6191,0.3629,0.183,-0.3805
439321.0,-2.4325,0.3424,11.4108,0.3342,0.0468,-0.4353
439331.0,-2.3774,0.735,11.0181,0.2661,-0.0862,-0.4789
439341.0,-2.296,1.0439,10.6207,0.1713,-0.1953,-0.514
439351.0,-2.2936,1.3623,10.3525,0.083,-0.2517,-0.5401
439361.0,-2.3942,1.5179,10.2783,0.0149,-0.274,-0.5518
439371.0,-2.3559,1.6257,10.422,-0.0011,-0.299,-0.5534
439381.0,-2.296,1.8818,10.4411,0.0628,-0.3512,-0.5491
439391.0,-2.2482,2.162,9.9192,0.1458,-0.4379,-0.5348
439401.0,-2.2362,2.399,9.098,0.1995,-0.5257,-0.5124
439411.0,-2.0901,2.6432,7.9631,0.2134,-0.5598,-0.4933
439421.0,-2.0423,2.9042,7.0126,0.1538,-0.4954,-0.4864
439431.0,-2.138,3.2441,6.4787,0.0585,-0.3512,-0.4816
439441.0,-2.1979,3.6703,6.2608,-0.049,-0.1628,-0.4555
439451.0,-2.2553,4.0917,6.5003,-0.1368,0.0692,-0.3906
439461.0,-2.3727,4.5035,7.1946,-0.1916,0.3288,-0.2921
439471.0,-2.5379,4.8818,8.2648,-0.2128,0.5268,-0.157
439481.0,-2.624,5.0542,9.1219,-0.2235,0.5747,0.0223
439491.0,-2.5809,4.7908,9.6007,-0.1974,0.5422,0.2363
439501.0,-2.4588,4.2737,9.572,-0.0968,0.5268,0.4512
439511.0,-2.4636,3.5674,9.4762,-0.0271,0.5401,0.6236
439521.0,-2.4373,2.897,9.3278,-0.0005,0.5539,0.7455
439531.0,-2.4014,2.1979,9.4906,0.0096,0.5917,0.8242
439541.0,-2.2793,1.4557,9.517,0.0537,0.6274,0.8737
439551.0,-2.1979,0.7422,9.6223,0.0729,0.6279,0.8769
439561.0,-2.0925,0.0622,9.505,0.0543,0.5906,0.8285
439571.0,-2.0758,-0.4453,9.2608,0.0192,0.5736,0.7279
439581.0,-2.1404,-0.8045,9.153,-0.0208,0.5986,0.5933
439591.0,-2.1452,-0.893,9.0333,-0.0702,0.6497,0.4385
439601.0,-2.1141,-0.7949,9.3374,-0.165,0.713,0.2708
439611.0,-2.2505,-0.431,10.0413,-0.2288,0.7678,0.1256
439621.0,-2.4469,0.0024,10.5225,-0.2033,0.7785,0.0346
439631.0,-2.6671,0.261,10.6494,-0.1697,0.7391,-0.0048
439641.0,-2.8587,0.3184,10.6326,-0.1458,0.6886,-0.0144
439651.0,-3.0311,0.1053,10.5632,-0.1117,0.6816,-0.0192
439661.0,-3.3112,-0.1221,10.6566,-0.0569,0.712,-0.041
439671.0,-3.4237,-0.1245,10.6566,0.0059,0.7311,-0.0825
439681.0,-3.4453,0.1077,10.8769,0.041,0.7434,-0.1373
439691.0,-3.4644,0.4884,11.1211,0.0601,0.7301,-0.182
439701.0,-3.5506,0.8116,11.4467,0.0415,0.6667,-0.2065
439711.0,-3.3806,1.0582,11.6717,-0.0106,0.5231,-0.2102
439721.0,-3.225,1.1947,11.6669,-0.0681,0.3272,-0.2001
439731.0,-3.1771,1.2091,11.1306,-0.1266,0.0883,-0.1841
439741.0,-3.371,1.1277,10.2256,-0.1958,-0.1325,-0.1676
439751.0,-3.3423,0.8619,9.0357,-0.2081,-0.232,-0.1389
439761.0,-3.0837,0.2801,8.2361,-0.1548,-0.1314,-0.116
439771.0,-3.2154,-0.0263,7.8626,-0.0702,0.0974,-0.1352
439781.0,-3.4596,0.0168,8.0493,-0.0341,0.3257,-0.1783
439791.0,-3.5314,0.1053,8.7149,-0.0346,0.4991,-0.2075
439801.0,-3.6799,-0.0144,9.4667,-0.0192,0.6135,-0.2059
439811.0,-3.8211,-0.3998,10.1634,0.0149,0.6524,-0.1985
439821.0,-3.9097,-0.8356,10.8457,0.0931,0.654,-0.2171
439831.0,-3.8571,-1.0582,11.2144,0.2469,0.638,-0.2703
439841.0,-3.8379,-1.0175,11.315,0.3943,0.5922,-0.3581
439851.0,-3.8283,-0.589,11.1929,0.4454,0.531,-0.4784
439861.0,-3.8427,0.0239,11.303,0.3645,0.4523,-0.6024
439871.0,-3.8834,0.5842,11.6047,0.2075,0.3331,-0.7045
439881.0,-3.9289,1.0511,11.7723,0.0639,0.1777,-0.7748
439891.0,-3.9816,1.5323,11.5879,-0.0239,0.0101,-0.8184
439901.0,-4.0055,1.9417,11.0636,-0.108,-0.1517,-0.8391
439911.0,-4.0175,2.1548,10.556,-0.1894,-0.2559,-0.8423
439921.0,-3.9935,2.2793,9.9551,-0.216,-0.2762,-0.8349
439931.0,-3.9624,2.3607,9.6893,-0.2144,-0.2219,-0.8264
439941.0,-4.0223,2.4948,9.6702,-0.1612,-0.1096,-0.812
439951.0,-4.0654,2.6815,9.9144,-0.041,0.0255,-0.7875
439961.0,-4.1994,2.9305,10.228,0.0846,0.1203,-0.7561
439971.0,-4.2521,3.0813,10.4267,0.1639,0.1405,-0.712
439981.0,-4.2329,3.237,10.41,0.1857,0.1075,-0.6715
439991.0,-4.2976,3.4644,10.2161,0.132,0.066,-0.6417
440001.0,-4.3958,3.7302,10.3214,0.0138,0.0431,-0.6167
440011.0,-4.5083,4.0079,10.7308,-0.1298,0.0293,-0.5853
440021.0,-4.5969,4.2473,11.4563,-0.2543,-0.0234,-0.5337
440031.0,-4.6232,4.549,11.7986,-0.2953,-0.1532,-0.4459
440041.0,-4.5945,4.6759,11.8082,-0.2671,-0.3108,-0.3182
440051.0,-4.5274,4.5346,11.3246,-0.1836,-0.4454,-0.1586
440061.0,-4.5466,4.1899,10.5129,-0.1352,-0.5534,-0.0096
440071.0,-4.47,3.7876,9.7516,-0.1612,-0.6242,0.1027
440081.0,-4.3335,3.4979,9.0764,-0.2182,-0.6247,0.1793
440091.0,-4.209,3.3423,8.7556,-0.2953,-0.5683,0.2368
440101.0,-4.1013,3.237,8.6526,-0.3831,-0.4986,0.2905
440111.0,-3.9576,3.1125,8.6694,-0.4592,-0.4422,0.3528
440121.0,-3.8044,2.8443,8.8969,-0.5066,-0.3746,0.4294
440131.0,-3.6583,2.3966,9.177,-0.4789,-0.2905,0.513
440141.0,-3.5745,1.8507,9.505,-0.4007,-0.2176,0.588
440151.0,-3.4955,1.2234,9.6917,-0.299,-0.174,0.6412
440161.0,-3.3806,0.6895,9.8234,-0.1905,-0.1336,0.6572
440171.0,-3.2944,0.3017,10.0006,-0.1,-0.0968,0.6385
440181.0,-3.134,0.1748,10.0197,-0.0511,-0.0841,0.589
440191.0,-3.0789,0.3208,10.1825,-0.0942,-0.0995,0.5241
440201.0,-3.0526,0.5698,10.41,-0.1767,-0.132,0.48
440211.0,-3.0957,0.6464,10.7212,-0.2618,-0.1724,0.472
440221.0,-3.1316,0.4477,11.0181,-0.3517,-0.2469,0.4906
440231.0,-3.1508,-0.0527,11.4419,-0.4076,-0.3459,0.5146
440241.0,-3.055,-0.6416,11.6717,-0.3555,-0.4486,0.5284
440251.0,-2.9688,-1.1349,11.5377,-0.2214,-0.5534,0.5172
440261.0,-2.9113,-1.4772,11.066,-0.0926,-0.6582,0.4725
440271.0,-2.8084,-1.7047,10.3525,-0.0223,-0.7407,0.3975
440281.0,-2.7438,-1.7813,9.7731,-0.0149,-0.7779,0.2959
440291.0,-2.7509,-1.7717,9.2464,-0.0633,-0.7737,0.1783
440301.0,-2.7701,-1.6712,9.0788,-0.1517,-0.7439,0.0553
440311.0,-2.8323,-1.403,9.098,-0.24,-0.7093,-0.0623
440321.0,-2.873,-1.1253,9.3709,-0.3054,-0.6753,-0.1554
440331.0,-2.897,-0.7925,9.7252,-0.257,-0.63,-0.2017
440341.0,-2.8323,-0.4908,9.7827,-0.1059,-0.6039,-0.1974
440351.0,-2.7581,-0.3974,9.7085,0.0319,-0.5853,-0.1639
440361.0,-2.5833,-0.3903,9.4284,0.1474,-0.5789,-0.1203
440371.0,-2.3846,-0.4908,9.1746,0.1948,-0.5614,-0.0894
440381.0,-2.2865,-0.7183,9.0166,0.1809,-0.5412,-0.0766
440391.0,-2.2673,-1.0104,8.9088,0.1208,-0.5433,-0.0857
440401.0,-2.083,-1.391,8.7221,0.0341,-0.5678,-0.1256
440411.0,-1.7741,-1.6352,8.6,-0.05,-0.5529,-0.2038
440421.0,-1.6927,-1.6352,8.8609,-0.116,-0.48,-0.3166
440431.0,-1.798,-1.3096,9.2751,-0.1426,-0.4486,-0.4337
440441.0,-1.7262,-0.9673,9.4164,-0.1421,-0.4858,-0.5183
440451.0,-1.5874,-0.7781,9.3757,-0.0846,-0.5071,-0.5694
440461.0,-1.6568,-0.6009,9.232,0.074,-0.4741,-0.596
440471.0,-1.6161,-0.3998,8.6095,0.2767,-0.4262,-0.6146
440481.0,-1.5682,-0.2897,8.1307,0.406,-0.348,-0.6486
440491.0,-1.4198,0.0072,7.6064,0.4443,-0.2586,-0.7136
440501.0,-1.3336,0.3663,7.5178,0.3485,-0.1777,-0.8115
440511.0,-1.4341,0.8835,7.6591,0.1793,-0.1224,-0.9259
440521.0,-1.6448,1.5682,8.0254,-0.0341,-0.1075,-1.0323
440531.0,-1.8052,2.1955,8.6766,-0.2325,-0.1437,-1.1079
440541.0,-1.8651,2.9832,9.0118,-0.2985,-0.2038,-1.1275
440551.0,-1.9561,3.6655,9.0261,-0.2687,-0.2501,-1.0802
440561.0,-1.992,4.1132,8.7628,-0.1761,-0.2857,-0.9679
440571.0,-1.9225,4.2401,8.1906,-0.0777,-0.3001,-0.8237
440581.0,-1.8459,4.221,7.5441,-0.0303,-0.2762,-0.6891
440591.0,-1.8076,4.2066,7.0557,-0.017,-0.1921,-0.5752
440601.0,-1.743,4.367,6.5817,-0.0059,-0.0495,-0.4715
440611.0,-1.6999,4.6017,6.4069,-0.0585,0.1235,-0.3693
440621.0,-1.7095,4.7884,6.675,-0.141,0.2932,-0.2485
440631.0,-1.5778,4.8076,6.9623,-0.182,0.4491,-0.0947
440641.0,-1.4988,4.549,7.2568,-0.1857,0.5726,0.0782
440651.0,-1.5778,4.1108,7.4627,-0.1522,0.6875,0.2405
440661.0,-1.6664,3.5961,7.6854,-0.0979,0.8189,0.3799
440671.0,-1.6017,2.9137,8.1594,-0.0176,0.9684,0.4927
440681.0,-1.5275,2.4205,8.576,0.1054,1.1073,0.5646
440691.0,-1.7717,2.2122,8.9064,0.1564,1.1925,0.5901
440701.0,-1.9058,2.0853,9.2656,0.1038,1.1988,0.5981
440711.0,-2.1213,1.9896,9.4834,0.0282,1.1738,0.6119
440721.0,-2.4253,1.7861,9.584,-0.0553,1.1515,0.6337
440731.0,-2.7581,1.585,9.7037,-0.1442,1.1371,0.6545
440741.0,-3.0095,1.2354,10.1035,-0.2075,1.1547,0.6822
440751.0,-3.0646,0.735,10.6901,-0.1793,1.1973,0.7136
440761.0,-3.0095,0.1915,11.3653,-0.0835,1.2292,0.7348
440771.0,-2.9042,-0.3448,11.8537,0.0144,1.1978,0.729
440781.0,-2.9473,-0.7614,11.9471,0.0617,1.093,0.6832
440791.0,-3.043,-1.0678,11.9638,0.0122,0.9344,0.6008
440801.0,-3.067,-1.2139,11.7076,-0.0495,0.7955,0.5023
440811.0,-3.2441,-1.324,11.406,-0.1288,0.7152,0.4007
440821.0,-3.3543,-1.391,11.303,-0.2682,0.6337,0.2927
440831.0,-3.304,-1.4341,11.3413,-0.4353,0.5481,0.1857
440841.0,-3.2034,-1.494,11.5951,-0.5422,0.4901,0.0899
440851.0,-3.1268,-1.4988,11.8968,-0.5603,0.4342,0.0138
440861.0,-3.1651,-1.6065,12.0548,-0.5241,0.3443,-0.042
440871.0,-3.1268,-1.7861,11.904,-0.4124,0.2432,-0.0851
440881.0,-2.9497,-1.9417,11.2791,-0.2331,0.1948,-0.1352
440891.0,-2.9305,-1.9513,10.7141,-0.0724,0.2176,-0.2134
440901.0,-3.043,-1.6975,10.2663,0.0128,0.2629,-0.3134
440911.0,-3.067,-1.336,10.1083,0.0154,0.2996,-0.4166
440921.0,-3.1244,-0.9673,10.2256,-0.016,0.3453,-0.5076
440931.0,-3.2705,-0.6273,10.4746,-0.0516,0.3586,-0.5795
440941.0,-3.4165,-0.4334,10.6518,-0.0963,0.3209,-0.6348
440951.0,-3.4453,-0.2227,10.7978,-0.0921,0.2932,-0.68
440961.0,-3.5314,0.0144,10.9463,-0.025,0.2868,-0.7178
440971.0,-3.6272,0.3136,11.0109,0.0569,0.2618,-0.7503
440981.0,-3.7038,0.6249,10.7811,0.1378,0.2203,-0.7795
440991.0,-3.7182,1.0654,10.3717,0.1788,0.1932,-0.8046
441001.0,-3.6703,1.5203,10.1993,0.1469,0.1979,-0.8285
441011.0,-3.8451,2.083,10.2975,0.0649,0.2155,-0.8397
441021.0,-3.9241,2.5331,10.6207,-0.0676,0.1926,-0.8242
441031.0,-4.0223,2.806,11.0468,-0.1979,0.1272,-0.7785
441041.0,-4.0869,2.9664,11.3413,-0.2613,0.0372,-0.7045
441051.0,-4.1707,2.9018,11.497,-0.2448,-0.0543,-0.6082
441061.0,-4.0701,2.8252,11.0995,-0.1357,-0.1272,-0.5076
441071.0,-4.063,2.7605,10.5369,-0.0335,-0.1596,-0.4182
441081.0,-4.0917,2.6959,10.0748,0.0197,-0.1527,-0.3432
441091.0,-4.1252,2.6767,9.663,0.0053,-0.1293,-0.2799
441101.0,-4.0414,2.5881,9.517,-0.0756,-0.1022,-0.2277
441111.0,-4.0247,2.5307,9.5122,-0.1559,-0.0676,-0.1846
441121.0,-3.984,2.4876,9.5696,-0.2405,-0.0436,-0.1458
441131.0,-3.9983,2.3703,9.7564,-0.3507,-0.0431,-0.1091
441141.0,-3.948,2.241,10.1131,-0.4353,-0.0607,-0.0734
441151.0,-3.881,2.229,10.2041,-0.4502,-0.0947,-0.0282
441161.0,-3.814,2.138,10.1347,-0.448,-0.1511,0.0282
441171.0,-3.7469,1.9561,9.9216,-0.4635,-0.216,0.0894
441181.0,-3.6057,1.743,9.505,-0.4874,-0.2538,0.1485
441191.0,-3.4453,1.4389,9.2009,-0.5114,-0.2437,0.2006
441201.0,-3.3854,1.087,8.9711,-0.5209,-0.1862,0.2389
441211.0,-3.4213,0.735,8.995,-0.5103,-0.1038,0.2666
441221.0,-3.4093,0.4094,8.9998,-0.4768,-0.0213,0.2788
441231.0,-3.4285,0.2203,9.1123,-0.448,0.0607,0.2783
441241.0,-3.4836,-0.0096,9.3398,-0.4246,0.1394,0.2735
441251.0,-3.5219,-0.2107,9.73,-0.3964,0.2144,0.2645
441261.0,-3.4955,-0.3711,10.1059,-0.3469,0.2794,0.248
441271.0,-3.4931,-0.4405,10.7045,-0.2937,0.3209,0.223
441281.0,-3.5841,-0.4046,11.2049,-0.2315,0.323,0.1963
441291.0,-3.8235,-0.2849,11.552,-0.1846,0.2708,0.1767
441301.0,-3.9959,-0.3208,11.7436,-0.1713,0.1767,0.1708
441311.0,-4.1061,-0.3855,11.8776,-0.1543,0.107,0.1708
441321.0,-4.3144,-0.407,12.1314,-0.1075,0.0788,0.1729
441331.0,-4.3622,-0.5219,12.5384,-0.0452,0.0426,0.1873
441341.0,-4.3574,-0.7015,12.955,0.0319,-0.025,0.2033
441351.0,-4.2952,-0.7063,13.0173,0.1016,-0.1325,0.2065
441361.0,-4.1994,-0.6728,13.2208,0.1016,-0.2692,0.1948
441371.0,-4.0893,-0.5531,13.4267,0.0814,-0.4363,0.1841
441381.0,-4.0582,-0.4597,13.2711,0.0282,-0.6667,0.1815
441391.0,-4.0175,-0.5722,13.0077,-0.0899,-0.9402,0.1767
441401.0,-3.8858,-0.6656,12.5504,-0.1724,-1.1962,0.1729
441411.0,-3.711,-0.68,11.7531,-0.1793,-1.3952,0.1777
441421.0,-3.5195,-0.7805,10.9367,-0.1751,-1.5261,0.1862
441431.0,-3.304,-0.8571,10.0652,-0.182,-1.6075,0.1878
441441.0,-3.0071,-0.9146,9.3613,-0.224,-1.6485,0.1793
441451.0,-2.6264,-1.0223,8.7963,-0.2751,-1.6543,0.1612
441461.0,-2.4325,-1.1971,8.4443,-0.3251,-1.6299,0.1288
441471.0,-2.2865,-1.2522,8.2313,-0.3496,-1.6139,0.0788
441481.0,-2.0255,-1.0511,7.8314,-0.3219,-1.6134,0.0218
441491.0,-1.81,-0.7063,7.0366,-0.2543,-1.5937,-0.0229
441501.0,-1.6783,-0.4525,6.2441,-0.1846,-1.4968,-0.0351
441511.0,-1.3455,-0.5028,5.6982,-0.1117,-1.3186,-0.016
441521.0,-1.0343,-0.7039,5.3056,-0.0681,-1.1084,-0.0043
441531.0,-0.8212,-1.0487,5.3534,-0.0612,-0.9025,-0.0122
441541.0,-0.5818,-1.3264,5.3151,-0.0128,-0.7141,-0.042
441551.0,-0.4214,-1.3527,5.0446,0.025,-0.5332,-0.0984
441561.0,-0.3304,-1.3862,5.0374,0.008,-0.3533,-0.1703
441571.0,-0.3831,-1.3072,5.0925,-0.0032,-0.1612,-0.2474
441581.0,-0.486,-1.0439,5.1763,0.0367,0.066,-0.3171
441591.0,-0.6201,-0.7494,5.4061,0.0984,0.3198,-0.3645
441601.0,-0.8045,-0.5195,5.7724,0.1469,0.5688,-0.389
441611.0,-1.008,-0.3304,6.3087,0.1708,0.7966,-0.4001
441621.0,-1.1444,-0.182,7.0533,0.1751,0.994,-0.4055
441631.0,-1.3168,-0.0359,7.8937,0.1799,1.1446,-0.4049
441641.0,-1.5874,0.0838,8.5952,0.1948,1.2297,-0.3959
441651.0,-1.8842,0.1915,9.0716,0.224,1.2888,-0.3837
441661.0,-2.1835,0.3448,9.73,0.2661,1.3622,-0.3677
441671.0,-2.3631,0.5387,10.3693,0.3097,1.4069,-0.3437
441681.0,-2.4924,0.6393,11.0636,0.3145,1.3984,-0.3118
441691.0,-2.5833,0.6752,11.7029,0.3113,1.342,-0.2799
441701.0,-2.7797,0.644,12.1769,0.2735,1.2345,-0.2469
441711.0,-2.7964,0.4166,12.7108,0.207,1.0887,-0.2214
441721.0,-2.8802,0.1628,12.9909,0.1745,0.9339,-0.2097
441731.0,-2.9401,-0.012,13.0604,0.1421,0.7705,-0.2171
441741.0,-3.0406,-0.091,13.1585,0.0857,0.605,-0.2421
441751.0,-3.1364,-0.0383,12.9909,0.0729,0.4464,-0.2634
441761.0,-3.1651,-0.0072,12.651,0.0506,0.2985,-0.2767
441771.0,-3.122,-0.1269,12.4163,-0.0074,0.1681,-0.2841
441781.0,-3.0622,-0.3615,12.1697,-0.0601,0.0612,-0.2943
441791.0,-3.0287,-0.7015,12.062,-0.0889,-0.0085,-0.3177
441801.0,-3.0095,-0.9601,11.9614,-0.0718,-0.0431,-0.3592
441811.0,-2.976,-1.1037,11.9542,-0.0527,-0.0788,-0.4193
441821.0,-2.9425,-1.0726,11.9016,-0.05,-0.1378,-0.4922
441831.0,-2.8635,-0.8715,11.8345,-0.0548,-0.216,-0.5614
441841.0,-2.7653,-0.6249,11.6981,-0.0506,-0.3001,-0.6119
441851.0,-2.6552,-0.4094,11.2097,-0.0303,-0.3863,-0.6401
441861.0,-2.5522,-0.3017,10.5967,-0.049,-0.4544,-0.655
441871.0,-2.5355,-0.3256,10.1801,-0.1011,-0.4709,-0.6737
441881.0,-2.5355,-0.4142,10.0054,-0.1282,-0.4172,-0.6944
441891.0,-2.4948,-0.3926,10.0245,-0.1022,-0.2996,-0.7178
441901.0,-2.5067,-0.316,10.4914,-0.0686,-0.1719,-0.7428
441911.0,-2.6193,-0.1245,11.2623,-0.0245,-0.1091,-0.7646
441921.0,-2.5187,0.2777,11.5975,0.0644,-0.1458,-0.762
441932.0,-2.4038,0.4262,11.6286,0.141,-0.2198,-0.7295
441941.0,-2.3415,0.3974,11.3964,0.1873,-0.2959,-0.6902
441951.0,-2.332,0.2801,11.0947,0.1815,-0.3565,-0.6753
441961.0,-2.2984,0.2011,10.9798,0.1474,-0.3852,-0.6838
441971.0,-2.1979,0.2011,11.0708,0.1336,-0.3757,-0.705
441981.0,-2.0662,0.3567,11.327,0.1506,-0.3517,-0.7322
441991.0,-1.9201,0.7015,11.6789,0.182,-0.3677,-0.7599
442001.0,-1.7454,1.1372,11.6693,0.2001,-0.4576,-0.7726
442011.0,-1.5562,1.482,11.3653,0.1623,-0.588,-0.7662
442021.0,-1.4198,1.6281,10.9822,0.0639,-0.7199,-0.7482
442031.0,-1.3647,1.6999,10.5058,-0.0532,-0.8242,-0.729
442041.0,-1.3216,1.7765,10.0916,-0.1676,-0.8849,-0.7114
442051.0,-1.2378,1.8555,9.821,-0.2336,-0.8897,-0.6827
442061.0,-1.1564,1.889,9.5529,-0.2171,-0.8567,-0.6311
442071.0,-1.0056,1.8459,9.3134,-0.1612,-0.7849,-0.5704
442081.0,-0.814,1.8914,9.0621,-0.0979,-0.7072,-0.5114
442091.0,-0.6704,1.9441,8.7317,-0.0857,-0.6455,-0.4571
442101.0,-0.5315,1.9345,8.5066,-0.1346,-0.6024,-0.4076
442111.0,-0.4214,1.8316,8.2624,-0.2038,-0.5545,-0.3613
442121.0,-0.4334,1.7071,8.0804,-0.2655,-0.4784,-0.3187
442131.0,-0.4405,1.4988,8.0661,-0.3097,-0.3746,-0.2772
442141.0,-0.3879,1.1732,8.2049,-0.3203,-0.2533,-0.2368
442151.0,-0.328,0.7518,8.5976,-0.2815,-0.1123,-0.2112
442161.0,-0.419,0.6656,9.074,-0.1681,0.0144,-0.2091
442171.0,-0.51,0.9649,9.1051,-0.0303,0.0772,-0.2091
442181.0,-0.5291,1.3001,8.9735,0.0208,0.0952,-0.1937
442191.0,-0.4884,1.5419,8.7388,-0.0176,0.108,-0.1671
442201.0,-0.5866,1.6376,8.7293,-0.1352,0.1383,-0.1304
442211.0,-0.6632,1.3168,9.074,-0.2607,0.1793,-0.0788
442221.0,-0.7278,0.9337,9.3829,-0.3017,0.2336,-0.0303
442231.0,-0.8523,0.5986,9.9934,-0.2474,0.3193,0.0011
442241.0,-1.063,0.4573,10.5824,-0.1128,0.3938,0.0271
442251.0,-1.1612,0.2945,10.9535,0.0521,0.4108,0.0569
442261.0,-1.233,0.2298,11.1067,0.1868,0.3852,0.0793
442271.0,-1.3719,0.2466,11.1306,0.2655,0.3411,0.0841
442281.0,-1.5778,0.4669,11.0085,0.3028,0.2804,0.0809
442291.0,-1.7717,0.6943,11.0157,0.298,0.2474,0.0942
442301.0,-2.0087,0.8523,10.9654,0.2841,0.2363,0.1352
442311.0,-2.1931,0.6704,11.4347,0.2187,0.2144,0.1948
442321.0,-2.1093,0.3112,11.8298,0.2006,0.1634,0.2682
442331.0,-2.0997,-0.0646,12.2751,0.2288,0.1059,0.3304
442341.0,-2.1069,-0.3304,12.7683,0.3086,0.016,0.3799
442351.0,-1.9632,-0.5411,12.6342,0.4321,-0.132,0.4305
442361.0,-1.8435,-0.8116,12.1745,0.5055,-0.2911,0.4661
442371.0,-1.6712,-1.1923,11.5664,0.4901,-0.4438,0.4816
442381.0,-1.5586,-1.6999,11.0157,0.4049,-0.5726,0.4693
442391.0,-1.2617,-2.3679,10.6159,0.3017,-0.647,0.4252
442401.0,-1.0534,-3.0742,10.4387,0.1942,-0.6737,0.3336
442411.0,-0.9864,-3.45,10.307,0.0974,-0.7019,0.1852
442421.0,-0.8284,-3.6105,10.2903,-0.0032,-0.7407,0.0064
442431.0,-0.577,-3.5267,10.3932,-0.0623,-0.7721,-0.1799
442441.0,-0.4717,-3.1364,10.2663,-0.0282,-0.7934,-0.3533
442451.0,-0.3687,-2.5235,9.7276,0.0506,-0.828,-0.4906
442461.0,-0.2538,-2.0159,8.983,0.0809,-0.8498,-0.5922
442471.0,-0.1796,-1.6113,8.09,0.0782,-0.8248,-0.6683
442481.0,-0.1844,-1.2067,7.2065,0.0548,-0.7061,-0.7263
442491.0,-0.1772,-0.8763,6.9097,0.0357,-0.4677,-0.7641
442501.0,-0.2298,-0.565,7.118,0.0516,-0.1697,-0.779
442511.0,-0.2897,-0.2107,7.5944,0.0681,0.0899,-0.7764
442521.0,-0.3208,0.0814,8.2025,0.067,0.2692,-0.7551
442531.0,-0.3304,0.2418,8.9711,0.0857,0.4023,-0.7194
442541.0,-0.395,0.4022,9.5672,0.1527,0.4789,-0.6694
442551.0,-0.5818,0.3615,10.0173,0.2379,0.5039,-0.6109
442561.0,-0.6656,0.0886,10.1634,0.3576,0.5273,-0.547
442571.0,-0.6776,-0.3615,10.2663,0.4949,0.5869,-0.5092
442581.0,-0.814,-0.6752,10.3813,0.5896,0.6593,-0.5268
442591.0,-0.8619,-0.8691,10.9032,0.6098,0.7141,-0.589
442601.0,-0.917,-0.8212,11.5448,0.6024,0.737,-0.6854
442611.0,-1.0798,-0.5531,12.3996,0.5608,0.688,-0.7897
442621.0,-1.2402,-0.261,13.1992,0.4933,0.5497,-0.8833
442631.0,-1.4198,0.0168,13.7331,0.4502,0.3624,-0.9546
442641.0,-1.4629,0.182,14.0683,0.4555,0.1628,-1.003
442651.0,-1.4437,0.2729,14.1138,0.4965,-0.0287,-1.044
442661.0,-1.391,0.3831,13.9462,0.5204,-0.2192,-1.0977
442671.0,-1.3886,0.5938,13.6781,0.4986,-0.4177,-1.1659
442681.0,-1.4389,0.9912,13.2016,0.4475,-0.6082,-1.2393
442691.0,-1.5275,1.4126,12.8257,0.3549,-0.7779,-1.3021
442701.0,-1.6472,1.822,12.3637,0.216,-0.944,-1.3537
442711.0,-1.6376,2.2936,11.9638,0.0559,-1.0946,-1.3931
442721.0,-1.6233,2.6911,11.6765,-0.0846,-1.2095,-1.4106
442731.0,-1.5921,3.1556,11.4515,-0.1485,-1.2914,-1.3952
442741.0,-1.4054,3.5913,10.9702,-0.0851,-1.3324,-1.334
442751.0,-1.2881,4.0055,10.2424,0.0612,-1.3149,-1.226
442761.0,-1.1349,4.2377,9.5672,0.1815,-1.2547,-1.0908
442771.0,-0.8835,4.3335,8.9328,0.2512,-1.1733,-0.9525
442781.0,-0.6249,4.3934,8.3773,0.2458,-1.0855,-0.8333
442791.0,-0.5722,4.4412,7.9966,0.1426,-1.0052,-0.7386
442801.0,-0.4118,4.5993,7.7596,-0.0458,-0.9472,-0.6678
442811.0,-0.2227,4.8602,7.7213,-0.2921,-0.911,-0.6157
442821.0,-0.2274,5.1691,8.1068,-0.5076,-0.8519,-0.5534
442831.0,-0.2538,5.5282,8.3175,-0.5667,-0.7636,-0.4422
442841.0,-0.237,5.6695,8.4707,-0.514,-0.671,-0.274
442851.0,-0.0048,5.387,8.5305,-0.4012,-0.5965,-0.0686
442861.0,0.261,4.8554,8.3127,-0.2506,-0.5044,0.125
442871.0,0.5148,4.2258,8.0852,-0.1453,-0.4081,0.2692
442881.0,0.7015,3.6152,7.9057,-0.1235,-0.3304,0.3485
442891.0,0.8045,3.2872,7.7596,-0.1602,-0.2671,0.3725
442901.0,0.8332,3.1388,7.7309,-0.2118,-0.2027,0.3688
442911.0,0.8475,3.1891,7.5441,-0.249,-0.1203,0.3698
442921.0,0.893,3.2896,7.616,-0.2916,-0.0016,0.39
442931.0,0.9026,3.2585,7.8506,-0.3177,0.1479,0.4321
442941.0,0.9577,3.055,8.4156,-0.299,0.2964,0.497
442951.0,1.1588,2.6767,8.9783,-0.2277,0.423,0.564
442961.0,1.2163,2.3008,9.6654,-0.1336,0.5167,0.6077
442971.0,1.1779,2.1332,10.003,-0.0096,0.5374,0.6274
442981.0,1.1684,2.2146,9.8569,0.0809,0.5018,0.6311
442991.0,1.0822,2.4181,9.4954,0.0644,0.4587,0.6268
443001.0,0.9481,2.5307,9.2296,-0.0596,0.4305,0.6215
443011.0,0.8739,2.6671,8.9926,-0.2325,0.4294,0.6215
443021.0,0.7542,2.7581,9.2177,-0.4294,0.4608,0.6364
443031.0,0.6823,2.4876,9.9718,-0.5667,0.5114,0.6784
443041.0,0.6776,2.1045,10.5824,-0.5555,0.5428,0.738
443051.0,0.7135,1.6616,10.9295,-0.4693,0.5342,0.7843
443061.0,0.656,1.4222,11.0014,-0.3842,0.4906,0.803
443071.0,0.5459,1.2713,10.9942,-0.3501,0.4119,0.8019
443081.0,0.4357,1.2426,10.7476,-0.3427,0.3118,0.795
443091.0,0.3041,1.2881,10.228,-0.3501,0.2469,0.7923
443101.0,0.0886,1.2258,9.8761,-0.3858,0.2299,0.7992
443111.0,-0.0407,1.0247,9.7636,-0.4305,0.249,0.812
443121.0,-0.091,0.7925,9.8809,-0.448,0.3044,0.8264
443131.0,-0.1867,0.431,10.4387,-0.4246,0.3767,0.8413
443141.0,-0.4621,0.1724,11.0588,-0.3368,0.4204,0.8556
443151.0,-0.5171,-0.091,11.7316,-0.1937,0.4289,0.8759
443161.0,-0.4908,-0.146,12.0165,0.0,0.397,0.8913
443171.0,-0.4956,-0.0958,11.9399,0.157,0.3368,0.9035
443181.0,-0.3519,-0.0431,11.8298,0.2496,0.2943,0.9195
443191.0,-0.2562,-0.0479,11.6238,0.3044,0.2687,0.9323
443201.0,-0.2969,-0.1149,11.4108,0.2692,0.2389,0.9355
443211.0,-0.2993,-0.4286,11.5879,0.1495,0.2107,0.9227
443221.0,-0.1796,-0.7638,11.8417,0.0511,0.1692,0.8934
443231.0,-0.2035,-1.0989,12.1554,-0.0149,0.1149,0.845
443241.0,-0.146,-1.336,12.2894,-0.016,0.0511,0.7865
443251.0,-0.0479,-1.4389,12.1458,0.0319,-0.0048,0.7269
443261.0,0.1341,-1.4533,12.0069,0.1059,-0.0218,0.6699
443271.0,0.2705,-1.391,12.0021,0.1958,0.0032,0.6188
443281.0,0.4094,-1.4245,12.1458,0.2831,0.0255,0.5752
443291.0,0.5052,-1.573,12.2775,0.3379,0.0266,0.5252
443301.0,0.498,-1.6712,12.5097,0.3581,-0.0096,0.456
443311.0,0.5555,-1.664,12.4498,0.3246,-0.1176,0.365
443321.0,0.4669,-1.6233,12.3876,0.2426,-0.2597,0.2613
443331.0,0.2131,-1.4605,12.0955,0.2017,-0.3783,0.1618
443341.0,-0.0192,-1.1708,11.7867,0.2144,-0.4619,0.0798
443351.0,0.1867,-0.8356,11.406,0.274,-0.505,0.0218
443361.0,0.5938,-0.4525,11.0205,0.3315,-0.5002,-0.0245
443371.0,0.814,-0.2083,10.8912,0.3139,-0.4816,-0.0702
443381.0,0.972,0.0263,10.92,0.2506,-0.4949,-0.1171
443391.0,1.0894,0.2251,10.9702,0.158,-0.5305,-0.1655
443401.0,1.0822,0.4334,10.9032,0.0772,-0.5981,-0.2059
443411.0,1.075,0.6009,10.7164,-0.0112,-0.68,-0.2421
443421.0,1.0942,0.8547,10.5105,-0.0665,-0.7306,-0.2724
443431.0,1.0223,1.221,10.1323,-0.0548,-0.7221,-0.2857
443441.0,0.9433,1.5203,9.9838,-0.0192,-0.6556,-0.2708
443451.0,1.0582,1.6113,10.0293,0.0718,-0.5502,-0.2299
443461.0,1.2115,1.7621,10.0126,0.166,-0.4587,-0.19
443471.0,1.3096,1.8627,10.2975,0.1602,-0.415,-0.1692
443481.0,1.324,2.0925,10.5297,0.1293,-0.4252,-0.1527
443491.0,1.3623,2.229,10.4172,0.0798,-0.4949,-0.1293
443501.0,1.3934,2.2673,10.2185,-0.0096,-0.5976,-0.1032
443511.0,1.2641,2.2769,9.8665,-0.0979,-0.6763,-0.0841
443521.0,1.1301,2.3391,9.5098,-0.1719,-0.7093,-0.0681
443531.0,1.1349,2.3822,9.244,-0.2384,-0.7029,-0.0495
443541.0,1.1875,2.4541,9.165,-0.2602,-0.6561,-0.0266
443551.0,1.1971,2.6169,9.2033,-0.2559,-0.5901,-0.009
443561.0,1.245,2.8874,9.2775,-0.2826,-0.5757,0.0138
443571.0,1.4461,3.158,9.1722,-0.3299,-0.6077,0.0506
443581.0,1.5586,3.4524,8.7963,-0.3895,-0.6274,0.1022
443591.0,1.4006,3.5769,8.5114,-0.4906,-0.6183,0.1783
443601.0,1.3982,3.4477,8.4156,-0.5768,-0.5827,0.2746
443611.0,1.494,3.1771,8.5641,-0.6109,-0.497,0.3725
443621.0,1.4461,2.8419,8.8801,-0.5986,-0.4044,0.4656
443631.0,1.5993,2.5331,9.0549,-0.539,-0.3576,0.5481
443641.0,1.7478,2.2051,9.2512,-0.4406,-0.3203,0.6173
443651.0,1.7957,2.0375,8.7652,-0.2937,-0.2873,0.6784
443661.0,1.8459,1.7789,8.2648,-0.2331,-0.2389,0.7242
443671.0,2.0542,1.4653,7.8386,-0.2528,-0.1623,0.7439
443681.0,2.1069,1.2641,7.6495,-0.3336,-0.0506,0.7338
443691.0,2.1045,1.0606,7.841,-0.4768,0.058,0.7035
443701.0,2.162,0.8906,8.4204,-0.6204,0.1559,0.6705
443711.0,2.1835,0.6584,9.3087,-0.6694,0.2283,0.6518
443721.0,2.1548,0.5124,9.9,-0.5917,0.2368,0.6481
443731.0,2.1811,0.4645,9.809,-0.4608,0.1884,0.6513
443741.0,2.2936,0.4549,9.3278,-0.3815,0.1293,0.6524
443751.0,2.3248,0.4741,8.6143,-0.3842,0.0952,0.6412
443761.0,2.1955,0.4693,8.1762,-0.4677,0.1155,0.6204
443771.0,2.071,0.419,8.0661,-0.5582,0.1894,0.6066
443781.0,1.9656,0.395,8.1762,-0.6077,0.2996,0.6045
443791.0,1.9225,0.316,8.5569,-0.6215,0.4156,0.6146
443801.0,1.9585,0.249,9.177,-0.5667,0.5055,0.6359
443811.0,2.0039,0.261,9.5385,-0.431,0.5518,0.6683
443821.0,1.9225,0.3136,9.5529,-0.2597,0.5571,0.7114
443831.0,1.7071,0.3352,9.3685,-0.0761,0.5561,0.7668
443841.0,1.5467,0.2634,8.7364,0.1362,0.6087,0.8344
443851.0,1.4653,0.1532,7.9176,0.3065,0.7503,0.8934
443861.0,1.3719,-0.0287,7.6471,0.3411,0.9716,0.9232
443871.0,1.2713,-0.2394,8.1451,0.2586,1.2031,0.9184
443881.0,1.0654,-0.3759,9.2249,0.1171,1.3617,0.8886
443891.0,0.9505,-0.4381,10.2352,0.0011,1.3973,0.8514
443901.0,0.8092,-0.4573,11.1402,-0.0835,1.3532,0.8147
443911.0,0.4046,-0.4118,12.0452,-0.0995,1.2664,0.7865
443921.0,0.146,-0.2993,12.4211,0.0218,1.1435,0.7913
443931.0,0.0335,-0.1987,12.2846,0.2661,1.0637,0.8258
443941.0,-0.0024,0.012,11.7723,0.5316,1.0648,0.8711
443951.0,0.1173,0.2203,11.3533,0.6912,1.1105,0.9163
443961.0,0.1987,0.2729,11.1402,0.7114,1.1706,0.9557
443971.0,0.2083,0.0359,11.4179,0.5949,1.2329,0.9817
443981.0,0.0048,-0.3974,12.2918,0.4119,1.2446,0.986
443991.0,-0.3328,-0.9337,13.3381,0.2921,1.1706,0.9706
444001.0,-0.6847,-1.2498,13.8241,0.3374,1.0472,0.9482
444011.0,-0.9864,-1.5443,14.1689,0.5108,0.9498,0.9291
444021.0,-0.8571,-1.6592,13.7906,0.7913,0.8913,0.9099
444031.0,-0.4956,-1.5634,13.4339,0.9642,0.8711,0.8514
444041.0,-0.3543,-1.2881,13.7331,0.9706,0.8583,0.762
444051.0,-0.2921,-0.814,14.133,0.9051,0.7907,0.6683
444061.0,-0.3591,-0.5578,14.7531,0.7705,0.6486,0.5938
444071.0,-0.4405,-0.4262,15.1409,0.6678,0.4454,0.5417
444081.0,-0.6273,-0.3687,15.1433,0.5773,0.1873,0.5023
444091.0,-0.6416,-0.4573,14.7842,0.5055,-0.0958,0.4667
444101.0,-0.4549,-0.4956,13.8696,0.473,-0.3331,0.4214
444111.0,-0.395,-0.5818,13.1466,0.4087,-0.4736,0.356
444121.0,-0.2873,-0.5459,12.651,0.3379,-0.5843,0.2714
444131.0,-0.0479,-0.2729,11.892,0.2666,-0.6939,0.1751
444141.0,0.0694,0.1125,11.4012,0.1857,-0.7391,0.0857
444151.0,0.0934,0.6249,10.8146,0.1485,-0.7391,0.0234
444161.0,0.0168,1.0391,10.5129,0.0809,-0.7215,-0.0064
444171.0,0.146,1.3767,10.2041,0.0319,-0.6955,0.0032
444181.0,0.3112,1.3527,10.1945,0.0074,-0.6353,0.0516
444191.0,0.4956,0.8452,10.3022,0.0378,-0.5741,0.1176
444201.0,0.5602,0.2394,10.4076,0.1139,-0.5295,0.1538
444211.0,0.759,-0.2035,10.2999,0.2395,-0.5034,0.1458
444221.0,0.9409,-0.395,9.8521,0.3581,-0.4688,0.1
444231.0,1.0271,-0.4094,9.4906,0.3661,-0.4225,0.0197
444241.0,1.0247,-0.2945,9.7755,0.2799,-0.3602,-0.0835
444251.0,1.1253,0.0551,10.0102,0.2309,-0.3145,-0.1761
444261.0,1.063,0.3136,10.4627,0.1958,-0.2921,-0.2389
444271.0,1.0295,0.3256,10.9391,0.2203,-0.3022,-0.2703
444281.0,1.1205,0.1867,10.987,0.2969,-0.3379,-0.2927
444291.0,1.221,0.0048,10.9415,0.3411,-0.3916,-0.3416
444301.0,1.2881,0.0527,10.8242,0.3416,-0.4555,-0.4315
444311.0,1.1947,0.5124,10.5728,0.3028,-0.531,-0.5374
444321.0,1.0894,0.9912,10.3549,0.2347,-0.5843,-0.6199
444331.0,1.1827,1.324,10.1825,0.1735,-0.605,-0.6673
444341.0,1.2258,1.549,10.2161,0.0974,-0.6029,-0.6944
444351.0,1.3623,1.7693,10.3693,0.0415,-0.6013,-0.7082
444361.0,1.4461,1.8842,10.5441,-0.0074,-0.605,-0.7125
444371.0,1.3431,1.8627,11.2767,-0.0346,-0.6316,-0.7162
444381.0,1.3144,2.0446,11.3198,0.0766,-0.7274,-0.704
444391.0,1.2594,2.0734,10.7117,0.2389,-0.837,-0.6726
444401.0,1.1971,1.9632,9.7037,0.3762,-0.8838,-0.6412
444411.0,1.2498,1.9345,8.7771,0.4103,-0.8503,-0.6433
444421.0,1.3838,1.9441,8.4348,0.3352,-0.7434,-0.6768
444431.0,1.5874,2.2218,8.5258,0.2192,-0.605,-0.7343
444441.0,1.5802,2.5642,9.3134,0.0564,-0.489,-0.7897
444451.0,1.5203,2.8826,10.2903,-0.0431,-0.4417,-0.8104
444461.0,1.221,3.0646,11.5448,-0.0027,-0.4507,-0.7939
444471.0,1.0511,3.4213,11.6406,0.2235,-0.5614,-0.7359
444481.0,0.8595,3.5362,11.3222,0.431,-0.6832,-0.6534
444491.0,0.893,3.6009,10.8122,0.6199,-0.7396,-0.5731
444501.0,1.0008,3.9552,10.1059,0.6779,-0.7737,-0.5236
444511.0,1.2043,4.1611,9.9024,0.4879,-0.837,-0.5013
444521.0,1.4222,4.5226,9.7444,0.1756,-0.9222,-0.497
444531.0,1.561,4.6687,10.3022,-0.2224,-1.0121,-0.4927
444541.0,1.4796,4.5825,11.4778,-0.5662,-1.1398,-0.48
444551.0,1.2665,4.6376,12.2966,-0.63,-1.3404,-0.4369
444561.0,0.9601,4.8602,12.0811,-0.4331,-1.599,-0.3406
444571.0,0.7614,5.1212,10.6757,-0.108,-1.8166,-0.191
444581.0,0.8691,5.1906,8.7412,0.1905,-1.8959,-0.0106
444591.0,1.2546,5.0805,6.8714,0.3049,-1.8443,0.1548
444601.0,1.6161,4.8914,5.7317,0.1602,-1.7065,0.2602
444611.0,2.0806,4.8171,5.3439,-0.1469,-1.5389,0.315
444621.0,2.3439,4.7956,5.952,-0.5188,-1.3564,0.3384
444631.0,2.2242,4.8291,7.0509,-0.8349,-1.2409,0.3656
444641.0,1.8627,4.7884,8.4084,-1.0546,-1.268,0.4236
444651.0,1.8172,4.5681,8.9064,-1.0057,-1.4026,0.5513
444661.0,1.8555,4.2018,8.3199,-0.6827,-1.4942,0.7338
444671.0,1.98,3.7661,6.7588,-0.265,-1.4878,0.9291
444681.0,2.3703,3.2441,5.1547,0.0442,-1.3457,1.086
444691.0,2.7509,2.9808,3.735,0.2283,-1.0536,1.1845
444701.0,3.1747,2.873,2.9688,0.2043,-0.6886,1.2334
444711.0,3.4788,2.5714,3.4141,-0.0239,-0.3326,1.251
444721.0,3.5626,2.2194,4.4724,-0.2091,-0.0282,1.2664
444731.0,3.3878,1.9321,5.6455,-0.2948,0.1905,1.2866
444741.0,3.3303,1.5706,6.9695,-0.2645,0.3241,1.3239
444751.0,3.4093,1.3623,7.9464,-0.0458,0.4284,1.375
444761.0,3.4477,1.3862,8.406,0.2538,0.4816,1.4309
444771.0,3.6368,1.3767,8.1211,0.4331,0.423,1.4846
444781.0,4.0654,1.1277,7.525,0.4246,0.3374,1.516
444791.0,4.3598,0.905,6.8809,0.2602,0.2889,1.5006
444801.0,4.4197,0.735,6.5673,-0.0947,0.2347,1.4372
444811.0,4.4077,0.4597,6.6655,-0.5209,0.1804,1.3611
444821.0,4.2904,0.1987,6.8905,-0.8375,0.1639,1.3053
444831.0,4.1779,-0.2227,7.3909,-0.9951,0.2038,1.2728
444841.0,4.2282,-0.4717,7.7476,-0.9684,0.2708,1.2579
444851.0,4.3862,-0.5842,7.9368,-0.8019,0.3549,1.26
444861.0,4.5155,-0.6967,7.7596,-0.5736,0.4491,1.2755
444871.0,4.3263,-0.8452,7.4651,-0.4315,0.5305,1.2824
444881.0,4.2545,-1.0127,7.264,-0.4049,0.6024,1.2733
444891.0,4.2808,-1.0774,6.9815,-0.4198,0.713,1.2553
444901.0,4.1444,-1.2929,7.2784,-0.4949,0.8918,1.2441
444911.0,3.9025,-1.5538,7.9392,-0.5438,1.0844,1.2409
444921.0,3.8403,-1.7573,8.7747,-0.5449,1.2457,1.2446
444931.0,3.9744,-2.1404,9.6223,-0.5199,1.3313,1.251
444941.0,3.9121,-2.6264,10.2544,-0.5044,1.3271,1.243
444951.0,3.6919,-2.9999,10.659,-0.5055,1.2691,1.1962
444961.0,3.5314,-3.2489,10.7643,-0.5188,1.1691,1.1126
444971.0,3.5171,-3.3686,10.4363,-0.5859,1.0392,1.0105
444981.0,3.486,-3.4548,10.1203,-0.7391,0.9413,0.8998
444991.0,3.3926,-3.4668,9.9934,-0.9094,0.9014,0.7928
445001.0,3.395,-3.5554,9.9479,-1.0648,0.887,0.7045
445011.0,3.4764,-3.7158,10.0556,-1.2169,0.8663,0.621
445021.0,3.3782,-3.8211,10.2304,-1.351,0.8301,0.5369
445031.0,3.1915,-3.9433,10.1562,-1.4729,0.7615,0.4539
445041.0,3.0406,-4.2282,10.1203,-1.5995,0.696,0.3741
445051.0,2.9592,-4.6831,10.5201,-1.616,0.6843,0.2964
445061.0,3.0526,-4.8052,10.884,-1.3888,0.7364,0.2123
445071.0,3.0406,-4.4748,10.9559,-0.9998,0.8195,0.1325
445081.0,3.0694,-3.869,10.6781,-0.6327,0.8764,0.0788
445091.0,3.134,-3.5123,10.4028,-0.4076,0.9009,0.0564
445101.0,3.0813,-3.3495,10.137,-0.3437,0.8971,0.0426
445111.0,2.9951,-3.5865,10.0197,-0.4347,0.8642,0.0165
445121.0,2.873,-3.9528,10.0628,-0.5768,0.8093,-0.0399
445131.0,2.6097,-4.2641,10.0485,-0.6763,0.7657,-0.124
445141.0,2.3511,-4.3718,9.912,-0.7066,0.7545,-0.2272
445151.0,2.1261,-4.2737,10.0078,-0.6795,0.7913,-0.3379
445161.0,2.1356,-3.9193,10.2041,-0.5459,0.8684,-0.4417
445171.0,2.2003,-3.158,9.9623,-0.4055,0.9104,-0.5332
445181.0,2.332,-2.5331,10.058,-0.4417,0.9073,-0.6008
445191.0,2.3511,-1.913,10.2017,-0.5082,0.879,-0.6364
445201.0,2.2003,-1.3838,10.252,-0.6061,0.8269,-0.6337
445211.0,2.0686,-1.2498,10.4387,-0.7317,0.7513,-0.597
445221.0,2.0016,-1.2785,10.4674,-0.7891,0.6822,-0.5428
445231.0,1.6927,-1.4102,10.5896,-0.7971,0.6353,-0.4933
445241.0,1.5371,-1.3575,10.3956,-0.7098,0.5944,-0.4454
445251.0,1.6113,-1.2546,10.2855,-0.5619,0.6039,-0.3938
445261.0,1.7693,-0.996,9.8809,-0.348,0.6556,-0.3347
445271.0,1.901,-0.6297,9.4092,-0.2081,0.7317,-0.2794
445281.0,1.8292,-0.5124,9.584,-0.2139,0.8179,-0.2192
445291.0,1.7023,-0.4238,9.7252,-0.2602,0.8556,-0.1559
445301.0,1.4054,-0.5986,10.0149,-0.3374,0.8455,-0.091
445311.0,1.1588,-0.8404,10.3142,-0.3331,0.8551,-0.0176
445321.0,1.0774,-1.1277,10.5584,-0.1793,0.9381,0.0564
445331.0,1.0558,-1.2594,10.9056,0.042,1.0557,0.1107
445341.0,0.9146,-1.1684,11.3389,0.2038,1.1121,0.1346
445351.0,0.8954,-0.9409,11.4539,0.2602,1.0408,0.1458
445361.0,0.905,-0.7039,11.2934,0.2043,0.9211,0.1591
445371.0,0.7302,-0.6009,11.0828,0.0995,0.8365,0.1788
445381.0,0.407,-0.5698,11.1785,-0.0176,0.7881,0.2065
445391.0,0.237,-0.589,11.2288,-0.0974,0.7482,0.241
445401.0,0.1389,-0.68,11.5089,-0.1288,0.7434,0.29
445411.0,0.1006,-0.9122,11.7603,-0.0835,0.7524,0.3501
445421.0,0.1724,-1.2402,12.0285,-0.0223,0.7306,0.3991
445431.0,0.237,-1.5012,12.2032,-0.0011,0.6619,0.4193
445441.0,0.1556,-1.5945,12.129,0.0154,0.5491,0.4214
445451.0,0.0144,-1.5969,11.6382,-0.0027,0.4209,0.4198
445461.0,0.0407,-1.5347,11.1306,-0.0793,0.3453,0.4188
445471.0,0.0838,-1.5323,10.8816,-0.1995,0.3443,0.4225
445481.0,0.0527,-1.6903,11.2815,-0.3602,0.365,0.4268
445491.0,0.0718,-1.9249,12.0476,-0.473,0.3395,0.4363
445501.0,0.0144,-2.0853,12.6677,-0.4358,0.2554,0.4587
445511.0,-0.1867,-2.1763,12.6581,-0.2522,0.1517,0.506
445521.0,-0.3328,-2.3152,11.9566,0.0005,0.0713,0.5726
445531.0,-0.4717,-2.5594,11.2863,0.2198,0.0692,0.6284
445541.0,-0.5124,-2.624,10.6279,0.3986,0.1511,0.6614
445551.0,-0.5148,-2.6647,10.3142,0.4895,0.2873,0.6689
445561.0,-0.5004,-2.5977,10.4291,0.464,0.4007,0.654
445571.0,-0.5291,-2.5618,10.8098,0.2953,0.4161,0.621
445581.0,-0.5818,-2.5833,11.5017,0.0772,0.3512,0.5811
445591.0,-0.7901,-2.6528,12.1937,-0.0287,0.2645,0.5561
445601.0,-0.9744,-2.7725,12.5983,0.0442,0.1788,0.5635
445611.0,-1.142,-2.818,12.8233,0.2762,0.1117,0.5933
445621.0,-1.2546,-2.6336,12.4762,0.6327,0.0772,0.6396
445631.0,-1.1803,-2.4277,11.9566,0.994,0.1032,0.7019
445641.0,-0.9697,-2.1572,11.2719,1.2803,0.1745,0.7599
445651.0,-0.8571,-1.9704,10.7404,1.3223,0.2224,0.7966
445661.0,-0.5938,-2.1524,10.6231,1.1009,0.1932,0.7976
445671.0,-0.5363,-2.2745,10.7069,0.7843,0.1293,0.7615
445681.0,-0.7278,-2.6839,11.157,0.506,0.0846,0.7104
445691.0,-1.0104,-2.7414,11.4275,0.3555,0.0511,0.647
445701.0,-1.3958,-2.9951,12.4187,0.3092,0.0404,0.6008
445711.0,-1.3431,-3.0239,13.1537,0.5672,0.0474,0.588
445721.0,-1.0223,-2.7916,13.2136,1.019,0.0537,0.6002
445731.0,-0.6608,-2.332,12.4068,1.358,-0.0223,0.6119
445741.0,-0.4884,-1.9848,11.5401,1.3702,-0.1687,0.5944
445751.0,-0.3112,-1.7789,10.489,1.1659,-0.3134,0.5555
445761.0,-0.3591,-1.7262,9.8067,0.8232,-0.3751,0.4906
445771.0,-0.6201,-1.7957,9.9096,0.4539,-0.3725,0.4172
445781.0,-0.7183,-1.8028,10.161,0.2086,-0.3443,0.356
445791.0,-0.6919,-1.8699,11.0636,0.1144,-0.265,0.3219
445801.0,-0.7566,-1.7406,12.1817,0.2565,-0.1825,0.3251
445811.0,-0.6608,-1.5036,12.5767,0.5358,-0.2315,0.3666
445821.0,-0.3496,-1.4245,11.9734,0.7572,-0.381,0.4273
445831.0,-0.0742,-1.482,10.8625,0.8508,-0.5044,0.4656
445841.0,0.0287,-1.6281,9.845,0.762,-0.5635,0.4592
445851.0,0.0215,-1.9513,9.2153,0.5279,-0.5843,0.4103
445861.0,-0.0886,-2.2984,9.019,0.2714,-0.5571,0.3331
445871.0,0.0383,-2.5426,9.1435,0.0692,-0.4794,0.2384
445881.0,0.1221,-2.6983,9.7636,-0.0697,-0.3672,0.1352
445891.0,-0.0192,-2.7031,11.0373,-0.1187,-0.2868,0.0346
445901.0,0.0958,-2.4373,11.6837,0.0213,-0.323,-0.0282
445911.0,0.4118,-2.2146,11.4946,0.2336,-0.4177,-0.0553
445921.0,0.5459,-2.1739,10.9032,0.3704,-0.4986,-0.0798
445931.0,0.5052,-2.217,10.2592,0.3735,-0.5619,-0.1282
445941.0,0.6177,-2.3367,9.9359,0.2714,-0.5922,-0.2081
445951.0,0.577,-2.1691,9.9671,0.165,-0.5805,-0.315
445961.0,0.419,-1.6903,9.8689,0.0803,-0.588,-0.4113
445971.0,0.4022,-1.2905,10.1059,-0.0176,-0.6018,-0.4725
445981.0,0.589,-1.1636,10.6374,-0.0388,-0.5912,-0.4879
445991.0,0.7207,-1.1468,10.9271,0.0575,-0.6098,-0.4768
446001.0,0.9146,-1.3551,10.999,0.1405,-0.6923,-0.4699
446011.0,1.1253,-1.5658,10.8338,0.165,-0.8232,-0.4938
446021.0,1.1564,-1.6352,10.4579,0.1655,-0.9706,-0.5502
446031.0,1.1349,-1.5778,9.9575,0.2043,-1.0765,-0.6135
446041.0,1.1372,-1.2163,9.0261,0.2815,-1.1307,-0.6742
446051.0,1.2354,-0.8116,8.157,0.2751,-1.1542,-0.7279
446061.0,1.5179,-0.419,7.4196,0.1974,-1.1345,-0.779
446071.0,1.7478,-0.103,6.8618,0.0548,-1.0648,-0.8312
446081.0,1.7358,0.1221,6.8402,-0.1666,-0.9833,-0.8876
446091.0,1.719,0.3687,7.1108,-0.3448,-0.9243,-0.9397
446101.0,1.6257,0.7494,7.2425,-0.4193,-0.8913,-0.9695
446111.0,1.6903,1.0511,7.1036,-0.3805,-0.8461,-0.9594
446121.0,1.6759,1.5179,6.4308,-0.2884,-0.7609,-0.9275
446131.0,1.8675,1.9513,5.8275,-0.2799,-0.6534,-0.8918
446141.0,2.3727,2.6001,5.0589,-0.4257,-0.5305,-0.8615
446151.0,2.3367,3.1077,5.6575,-0.705,-0.3363,-0.8205
446161.0,2.1955,3.9265,5.8682,-0.887,-0.216,-0.7295
446171.0,1.9561,4.3167,6.3973,-1.0525,-0.1373,-0.5741
446181.0,1.6496,4.7142,6.2082,-1.0578,-0.0537,-0.3469
446191.0,1.652,4.5394,6.1962,-0.9951,0.1314,-0.0718
446201.0,1.6448,4.1683,6.3327,-0.8418,0.4012,0.2011
446211.0,1.6041,3.7541,6.5242,-0.7066,0.6683,0.4486
446221.0,1.4245,3.1173,7.8458,-0.6231,0.9152,0.6582
446231.0,1.1708,2.8587,8.5856,-0.3789,1.0621,0.8466
446241.0,0.7997,2.6552,8.7843,-0.166,1.0844,1.0254
446251.0,0.6895,2.0542,8.5593,-0.042,1.0105,1.1951
446261.0,0.8308,1.4078,6.9887,0.017,0.895,1.3345
446271.0,0.8188,0.3663,5.4779,-0.0952,0.9253,1.4207
446281.0,0.6728,-0.8691,4.3886,-0.2602,1.1701,1.45
446291.0,0.5291,-1.9992,4.3024,-0.4353,1.5618,1.4122
446301.0,0.3184,-2.8635,5.2984,-0.5475,2.0167,1.3223
446311.0,-0.103,-3.2058,6.9767,-0.5316,2.4099,1.2148
446321.0,-0.4788,-2.9664,7.9823,-0.4406,2.6175,1.1196
446331.0,-0.893,-2.5953,8.3989,-0.4581,2.6531,1.0392
446341.0,-1.3982,-2.7797,8.3893,-0.6529,2.5946,0.9998
446351.0,-1.7597,-4.2521,8.5712,-0.8705,2.5616,0.9908
446361.0,-1.7597,-6.1603,8.327,-0.9445,2.6031,0.928
446371.0,-1.98,-7.6878,9.007,-0.8455,2.8729,0.7466
446381.0,-2.6552,-7.8865,10.1155,-0.5289,3.2688,0.4794
446391.0,-3.3303,-7.2233,11.9878,-0.2528,3.5838,0.1995
446401.0,-3.7972,-6.2273,14.1569,-0.0788,3.6966,-0.0229
446411.0,-4.4269,-5.3893,16.1728,-0.0085,3.5987,-0.1623
446421.0,-4.798,-5.5545,18.8567,0.0585,3.3869,-0.2224
446431.0,-4.968,-6.2991,21.3228,0.3922,3.148,-0.2517
446441.0,-5.2194,-6.9192,23.5757,0.8578,2.8085,-0.3416
446451.0,-5.4133,-6.9599,25.0194,1.3212,2.278,-0.5231
446461.0,-5.5402,-5.9328,24.8925,1.5772,1.5218,-0.7918
446471.0,-5.6695,-4.5298,24.4975,1.3867,0.6231,-1.1057
446481.0,-5.8562,-2.7533,23.6882,1.0302,-0.2724,-1.3771
446491.0,-6.1866,-1.2067,22.5486,0.671,-1.0669,-1.5415
446501.0,-6.3039,-0.2969,21.4449,0.3895,-1.7661,-1.5905
446511.0,-6.2417,0.34,20.0514,0.3347,-2.3461,-1.5479
446521.0,-6.1866,0.8356,18.3779,0.4715,-2.7808,-1.4378
446531.0,-6.0717,1.0774,16.3117,0.6518,-3.157,-1.2866
446541.0,-5.6982,1.2713,13.7403,0.803,-3.5109,-1.1238
446551.0,-4.8818,1.3695,10.7524,0.9259,-3.7285,-0.9647
446561.0,-3.9337,1.3886,7.9583,0.9908,-3.7328,-0.8157
446571.0,-2.9377,1.2354,5.5306,0.912,-3.6114,-0.7013
446581.0,-2.1213,1.0534,3.6344,0.6619,-3.4545,-0.647
446591.0,-1.0726,0.8619,1.8914,0.3092,-3.2895,-0.6407
446611.0,0.5794,0.8882,-0.3352,-0.0942,-2.5403,-0.7072
446621.0,1.0223,1.0247,-0.4741,-0.0394,-1.9337,-0.6981
446631.0,1.2953,1.1803,-0.2969,0.1607,-1.3164,-0.6428
446641.0,1.6783,1.3647,-0.2179,0.4113,-0.745,-0.563
446651.0,1.8866,1.4222,0.2083,0.6082,-0.2246,-0.4757
446661.0,1.9273,1.4964,0.0886,0.6896,0.1756,-0.406
446671.0,2.1476,1.4245,-0.1844,0.5225,0.4848,-0.3719
446681.0,1.9992,1.2306,0.0072,0.1442,0.7918,-0.3794
446691.0,1.6161,0.9026,0.7829,-0.2528,1.1419,-0.4023
446701.0,1.0894,0.2993,2.4565,-0.4858,1.5564,-0.4103
446711.0,0.4549,-0.0599,4.3455,-0.4321,1.9651,-0.4001
446721.0,0.0886,-0.103,6.3231,-0.182,2.3434,-0.3751
446731.0,-0.3759,-0.0192,8.3199,0.1235,2.6345,-0.3331
446741.0,-0.917,0.1628,9.7276,0.3102,2.6893,-0.29
446751.0,-1.1779,0.1891,10.3118,0.2543,2.5451,-0.2677
446761.0,-1.7214,-0.012,10.6829,0.0234,2.3956,-0.2719
446771.0,-2.3918,-0.565,11.3006,-0.2309,2.3237,-0.2895
446781.0,-3.0167,-1.2594,12.4283,-0.3709,2.336,-0.3241
446791.0,-3.5458,-1.8747,13.9773,-0.2969,2.4073,-0.3773
446801.0,-3.8571,-1.652,15.6581,-0.0367,2.4392,-0.4613
446811.0,-4.0749,-0.6488,17.1114,0.2629,2.3658,-0.5369
446821.0,-4.2832,0.3831,18.3875,0.4566,2.1428,-0.555
446831.0,-4.4197,0.8547,19.3859,0.4922,1.7496,-0.5199
446841.0,-4.4436,0.7254,19.5487,0.4342,1.2334,-0.4656
446851.0,-4.312,-0.1101,19.405,0.3672,0.7583,-0.4321
446861.0,-4.2258,-0.9697,19.0028,0.3555,0.3879,-0.4592
446871.0,-4.4005,-1.2713,18.6029,0.3342,0.0601,-0.5651
446881.0,-4.3335,-0.9553,17.9469,0.2474,-0.2703,-0.7045
446891.0,-4.3886,-0.5435,18.0044,0.0862,-0.5593,-0.8333
446901.0,-4.5011,-0.0814,18.2223,0.0213,-0.8349,-0.912
446911.0,-4.5514,0.4118,18.3468,0.0952,-1.118,-0.9323
446921.0,-4.4293,0.8092,18.148,0.2538,-1.4128,-0.9009
446931.0,-4.4365,1.1732,17.6501,0.397,-1.7533,-0.8407
446941.0,-4.1156,1.1372,16.8528,0.5002,-2.1295,-0.7625
446951.0,-3.735,1.0032,15.3492,0.655,-2.4376,-0.6795
446961.0,-3.371,1.0415,13.5368,0.6753,-2.7037,-0.6348
446971.0,-2.9951,0.9816,12.2368,0.4848,-2.95,-0.6311
446981.0,-2.4301,1.0104,10.7045,0.2895,-3.1304,-0.6444
446991.0,-1.9058,0.9481,9.5768,0.0452,-3.2523,-0.6731
447001.0,-1.3001,0.8763,8.5162,-0.19,-3.3571,-0.7114
447011.0,-0.7087,0.9218,7.4388,-0.3193,-3.4092,-0.7444
447021.0,-0.1293,0.9577,6.1531,-0.3193,-3.3949,-0.7519
447031.0,0.5602,0.996,4.5418,-0.2107,-3.2783,-0.7317
447041.0,0.9577,1.1732,3.0957,-0.0713,-3.0426,-0.6859
447051.0,1.5107,1.1516,1.9465,0.033,-2.7702,-0.6178
447061.0,2.5642,1.0391,0.1317,0.1128,-2.4919,-0.5422
447071.0,3.3184,0.565,-1.5586,-0.0165,-2.1785,-0.4991
447081.0,3.9217,-0.4381,-2.3343,-0.3017,-1.8347,-0.5263
447091.0,4.6591,-1.0702,-2.9257,-0.4252,-1.392,-0.6242
447101.0,4.5681,-1.2043,-2.7964,-0.3725,-0.7849,-0.7668
447111.0,4.2665,-0.7135,-2.1332,-0.165,-0.1532,-0.9046
447121.0,3.9313,0.2107,-1.1181,0.0968,0.4097,-0.9945
447131.0,3.5314,1.2522,-0.3496,0.3475,0.8636,-1.0121
447141.0,3.0718,2.1883,0.0407,0.4794,1.2377,-0.9706
447151.0,2.7031,2.727,0.7302,0.4922,1.607,-0.8812
447161.0,2.1955,3.0765,1.245,0.4927,1.9981,-0.7636
447171.0,1.4605,3.1244,2.3822,0.4427,2.4248,-0.6321
447181.0,0.6608,2.873,4.276,0.3943,2.8766,-0.4943
447191.0,-0.1293,2.4134,7.015,0.4103,3.2736,-0.3672
447201.0,-0.8428,2.0231,9.8234,0.4762,3.471,-0.2666
447211.0,-1.2234,1.8244,12.1194,0.5263,3.4162,-0.1979
447221.0,-1.4341,1.5706,13.9917,0.5199,3.1895,-0.1548
447231.0,-1.5802,1.2881,14.9901,0.4752,2.8223,-0.1405
447241.0,-1.4748,0.7901,15.1074,0.3517,2.3615,-0.1564
447251.0,-1.2258,-0.0503,14.4706,0.1958,1.9241,-0.215
447261.0,-1.2378,-0.6752,13.3549,0.0266,1.6011,-0.3411
447271.0,-1.1468,-0.9912,12.5097,-0.1495,1.4245,-0.522
447281.0,-1.3096,-0.7446,12.1841,-0.29,1.3595,-0.7247
447291.0,-1.6759,-0.1006,12.1218,-0.3954,1.309,-0.8934
447301.0,-1.9249,0.3687,12.0021,-0.4683,1.226,-0.9897
447311.0,-2.138,0.3831,11.9375,-0.4592,1.1978,-1.0275
447321.0,-2.4804,0.3807,12.0309,-0.331,1.2787,-1.0451
447331.0,-2.7581,0.7566,12.5552,-0.1309,1.3963,-1.0605
447341.0,-3.122,1.3479,13.0867,0.0926,1.4734,-1.0499
447351.0,-3.4022,1.9321,13.3692,0.2634,1.4468,-1.0084
447361.0,-3.4357,2.3918,13.5464,0.2927,1.3255,-0.9509
447371.0,-3.3998,2.5857,13.5991,0.2203,1.1595,-0.8838
447381.0,-3.5362,2.5809,13.5655,0.0718,0.9658,-0.82
447391.0,-3.6919,2.3535,13.5009,-0.0889,0.7668,-0.7572
447401.0,-3.7565,2.1308,13.3501,-0.1266,0.6444,-0.6949
447411.0,-3.8283,1.8459,13.0843,-0.0484,0.6125,-0.6306
447421.0,-3.8978,1.5969,12.9766,0.0692,0.6242,-0.5843
447431.0,-3.8762,1.549,13.0221,0.1676,0.6284,-0.563
447441.0,-3.9385,1.664,13.1011,0.2192,0.5896,-0.5513
447451.0,-3.7278,1.81,12.9742,0.2144,0.497,-0.5449
447461.0,-3.7876,1.8411,12.9167,0.1064,0.3714,-0.5449
447471.0,-5.703,11.5017,12.7252,-0.207,0.1772,-0.448
447481.0,-5.5498,8.691,16.1297,-0.5326,-0.0245,0.1038
447491.0,-3.4668,3.6871,10.4459,0.3757,-0.0851,0.4853
447501.0,-3.4692,1.6328,7.4723,0.5704,0.3315,0.4832
447511.0,-4.5586,0.9433,11.2767,0.1107,0.5481,0.373
447521.0,-3.0574,1.7837,11.0109,0.0117,0.2868,0.2884
447531.0,-2.9688,2.6815,9.6247,-0.0617,0.2799,0.2347
447541.0,-3.3686,1.7119,12.0189,-0.3272,0.3225,0.2006
447551.0,-3.225,1.9537,12.651,-0.282,0.1868,0.1266
447561.0,-3.5027,2.3798,12.8377,-0.348,-0.0564,0.0367
447571.0,-3.2729,3.2202,12.2368,-0.4954,-0.3618,-0.0223
447581.0,-3.3734,4.039,9.4547,-0.4624,-0.5486,0.0192
447591.0,-3.1173,1.1588,12.7276,-1.0802,-0.7279,0.0516
447601.0,-2.6959,0.7757,12.1051,-0.8865,-0.8673,0.0298
447611.0,-2.9257,1.1157,11.4874,-0.5885,-0.6768,0.0
447621.0,-2.9951,-0.0575,14.0181,-0.4837,-0.6109,-0.0101
447631.0,-2.7198,1.5778,12.074,0.0649,-0.7231,-0.0064
447641.0,-2.4229,1.5227,11.7843,0.1123,-0.8264,0.0399
447651.0,-2.2577,0.8356,11.212,0.0601,-0.9935,0.0591
447661.0,-1.9824,1.4557,9.086,0.008,-1.0642,0.0346
447671.0,-2.1093,1.3096,9.098,-0.3081,-0.9695,0.0043
447681.0,-2.162,1.6544,9.2249,-0.4001,-0.8248,-0.0122
447691.0,-2.1811,2.1883,9.7516,-0.3161,-0.6321,0.0271
447701.0,-2.2817,2.3056,10.7069,-0.1181,-0.4459,0.1405
447711.0,-2.1021,2.3798,10.9463,0.19,-0.3427,0.2943
447721.0,-2.0662,1.9321,11.3988,0.3352,-0.3299,0.431
447731.0,-1.9465,1.494,11.3701,0.406,-0.415,0.5183
447741.0,-1.7549,1.2378,10.8266,0.3688,-0.5332,0.547
447751.0,-1.5299,0.905,10.4435,0.2363,-0.6141,0.5332
447761.0,-1.4245,0.814,9.8881,0.0931,-0.6284,0.4858
447771.0,-1.4485,0.5291,10.2304,-0.1086,-0.5811,0.4294
447781.0,-1.3862,0.2514,10.8194,-0.2027,-0.5188,0.373
447791.0,-1.5634,0.3065,11.4563,-0.1852,-0.4768,0.3145
447801.0,-1.4174,0.3783,12.3014,-0.1155,-0.481,0.2767
447811.0,-1.4365,0.577,12.5313,0.0101,-0.5481,0.2591
447821.0,-1.4772,0.6225,12.718,0.0431,-0.6917,0.2458
447831.0,-1.2641,0.5794,12.3421,0.0255,-0.9003,0.2299
447841.0,-1.1349,0.6416,11.5664,-0.0181,-1.0722,0.1979
447851.0,-0.9673,0.7781,10.6853,-0.1059,-1.176,0.1548
447861.0,-0.8452,0.9792,9.9288,-0.2538,-1.2265,0.1096
447871.0,-0.7566,1.1013,9.6582,-0.4278,-1.2111,0.0724
447881.0,-0.6009,1.1492,9.8617,-0.5417,-1.1414,0.0569
447891.0,-0.486,1.1205,10.5129,-0.5358,-1.0546,0.0686
447901.0,-0.4812,1.1396,10.9822,-0.3704,-1.0057,0.1107
447911.0,-0.2729,0.9792,10.9271,-0.1453,-1.0195,0.1793
447921.0,-0.1724,0.5746,10.5584,0.0362,-1.0584,0.2352
447931.0,-0.0072,0.407,9.8114,0.1442,-1.0962,0.2496
447941.0,0.1915,0.3376,9.1051,0.1171,-1.1063,0.2272
447951.0,0.3567,0.34,8.5712,-0.0005,-1.0701,0.1836
447961.0,0.4597,0.4453,8.5497,-0.1522,-0.9897,0.1352
447971.0,0.5938,0.5555,8.8729,-0.2703,-0.8971,0.0974
447981.0,0.7398,0.6201,9.3901,-0.3102,-0.8147,0.0798
447991.0,0.7853,0.6752,9.9335,-0.3097,-0.7902,0.0772
448001.0,0.8811,0.6416,10.1897,-0.2661,-0.837,0.0915
448011.0,0.9792,0.4501,10.1442,-0.1517,-0.9051,0.1187
448021.0,1.0415,0.2562,9.6343,0.0192,-0.9307,0.1453
448031.0,1.1013,0.1844,8.995,0.1554,-0.9163,0.1538
448041.0,1.2809,0.0551,8.4587,0.1852,-0.8705,0.1373
448051.0,1.5203,0.0407,8.1834,0.132,-0.812,0.0952
448061.0,1.6233,0.0359,8.1738,0.0255,-0.7593,0.0372
448071.0,1.5945,0.0335,8.4731,-0.0937,-0.7226,-0.0261
448081.0,1.6999,0.0048,8.8657,-0.1644,-0.7162,-0.0846
448091.0,1.6903,0.0215,9.1818,-0.1596,-0.7466,-0.133
448101.0,1.7933,0.0503,9.2105,-0.0814,-0.8136,-0.1666
448111.0,2.0087,0.0144,8.8083,0.0474,-0.8828,-0.19
448121.0,2.3918,-0.0048,7.9511,0.1697,-0.9253,-0.2123
448131.0,2.3679,-0.0144,7.0629,0.199,-0.9067,-0.2554
448141.0,2.4493,0.1844,6.2991,0.1469,-0.8317,-0.3076
448151.0,2.7007,0.407,6.2489,0.0101,-0.6971,-0.364
448161.0,2.8323,0.6393,6.5434,-0.1101,-0.5529,-0.4071
448171.0,2.7198,0.9481,6.9025,-0.257,-0.4885,-0.439
448181.0,2.8874,0.9625,7.7093,-0.4092,-0.4911,-0.4464
448191.0,3.0574,1.1253,7.9057,-0.3879,-0.4911,-0.4225
448201.0,2.9951,1.2977,7.9128,-0.2953,-0.5007,-0.3757
448211.0,3.2034,1.3934,7.1922,-0.1958,-0.5374,-0.3038
448221.0,3.383,1.1875,6.3614,-0.1469,-0.4906,-0.2261
448231.0,3.5626,0.8092,5.715,-0.125,-0.3416,-0.1687
448241.0,3.5314,0.4453,5.4396,-0.1634,-0.1282,-0.1532
448251.0,3.4692,0.3472,5.5881,-0.2655,0.0734,-0.1783
448261.0,3.3327,0.4573,6.1268,-0.406,0.2261,-0.2166
448271.0,3.2872,0.7733,6.6224,-0.5146,0.3081,-0.2405
448281.0,3.1292,0.9816,7.0366,-0.6008,0.3187,-0.2288
448291.0,3.0765,0.9888,6.9025,-0.596,0.3006,-0.183
448301.0,3.0885,0.929,6.1363,-0.4656,0.3682,-0.1171
448311.0,3.0095,0.6991,5.4923,-0.3108,0.5816,-0.0564
448321.0,2.8683,0.5722,5.3415,-0.1878,0.8769,-0.0234
448331.0,2.739,0.5267,5.5761,-0.124,1.1483,-0.0138
448341.0,2.5139,0.5914,5.9448,-0.1075,1.3345,-0.0149
448351.0,2.2434,0.7781,5.5713,-0.1421,1.4133,-0.0186
448361.0,1.9154,0.9218,5.0398,-0.2597,1.5208,-0.0255
448371.0,1.403,1.2258,4.4484,-0.3799,1.7773,-0.0271
448381.0,0.5818,1.2737,4.7908,-0.5295,2.1593,-0.0037
448391.0,-0.0048,1.0487,6.2848,-0.5949,2.5791,0.0463
448401.0,-0.6608,1.0606,8.1163,-0.4826,2.9319,0.1011
448411.0,-1.1109,1.1349,9.9527,-0.3108,3.1059,0.1681
448421.0,-1.3216,0.8571,11.4132,-0.1155,3.1017,0.2469
448431.0,-1.6113,0.7518,11.2647,0.0261,2.916,0.2964
448441.0,-1.9297,0.4717,10.92,-0.0569,2.7244,0.2937
448451.0,-2.3655,0.4597,10.6111,-0.1453,2.71,0.2623
448461.0,-3.0358,0.723,10.9271,-0.2432,2.834,0.2203
448471.0,-3.9265,1.1349,12.0883,-0.3597,2.9538,0.199
448481.0,-4.5466,1.6735,13.3213,-0.4188,2.9953,0.2315
448491.0,-4.9775,1.5969,15.4618,-0.3778,3.0213,0.3331
448501.0,-5.205,1.3791,16.8983,-0.0894,2.9809,0.4704
448511.0,-5.4827,1.0606,17.9685,0.1527,2.817,0.5736
448521.0,-5.5498,0.5962,18.9645,0.2964,2.5392,0.6258
448531.0,-5.6383,0.3424,19.1752,0.4119,2.2296,0.6279
448541.0,-5.9496,0.158,19.4792,0.3773,1.9135,0.5736
448551.0,-6.2944,0.4405,20.1616,0.2246,1.5713,0.4677
448561.0,-6.4596,1.1803,21.2438,0.0043,1.1563,0.3496
448571.0,-6.596,1.9968,22.4169,-0.2059,0.638,0.2794
448581.0,-6.4596,2.5139,23.0466,-0.3475,-0.0096,0.2932
448591.0,-6.0478,2.6217,22.7617,-0.4454,-0.7822,0.3666
448601.0,-5.4061,2.2553,21.2892,-0.4959,-1.5703,0.4651
448611.0,-4.8961,1.6664,19.3499,-0.4986,-2.2264,0.5406
448621.0,-4.4604,1.3551,16.6517,-0.4459,-2.7505,0.588
448631.0,-4.0941,1.0319,14.3077,-0.4491,-3.115,0.6141
448641.0,-3.5602,0.9026,11.9997,-0.3831,-3.3076,0.6396
448651.0,-3.0718,0.7757,10.1849,-0.3006,-3.3491,0.6699
448661.0,-2.4852,0.6081,8.7963,-0.183,-3.3129,0.7066
448671.0,-1.6855,0.4501,7.4244,-0.0101,-3.2262,0.7487
448681.0,-0.9313,0.0814,6.2034,0.1596,-3.0969,0.7902
448691.0,-0.1987,-0.2753,4.7381,0.3198,-2.9378,0.812
448701.0,0.4477,-0.6225,3.2465,0.3608,-2.7425,0.7918
448711.0,0.8619,-0.7853,2.3248,0.2703,-2.4972,0.7157
448721.0,1.4509,-0.5267,1.4365,0.2043,-2.2013,0.613
448731.0,2.0542,0.0335,0.7661,0.1458,-1.8432,0.5161
448741.0,2.4828,0.5028,0.6608,0.075,-1.4537,0.4496
448751.0,2.9018,0.8643,0.7973,0.0495,-1.0908,0.422
448761.0,3.1388,0.9457,0.9673,0.0947,-0.7615,0.4236
448771.0,3.3543,0.9026,0.6225,0.2288,-0.4592,0.4374
448781.0,3.395,0.759,0.1844,0.3485,-0.1282,0.4358
448791.0,3.1053,0.6991,-0.4549,0.4528,0.2687,0.4081
448801.0,2.8156,0.6823,-0.6345,0.506,0.7577,0.3602
448811.0,2.5881,0.8428,-0.5004,0.5188,1.2904,0.2937
448821.0,2.0351,1.3312,0.0862,0.4225,1.8012,0.2102
448831.0,1.4892,1.8842,1.2546,0.2379,2.2721,0.1485
448841.0,0.9194,2.4852,2.5977,0.0234,2.6622,0.1336
448851.0,0.1053,2.9568,4.4388,-0.249,2.9548,0.1554
448861.0,-1.0439,3.5219,5.9687,-0.5007,3.1336,0.224
448871.0,-2.375,3.6655,7.8841,-0.7285,3.2438,0.3586
448881.0,-3.5434,3.2753,9.7731,-0.7141,3.3768,0.571
448891.0,-4.7022,2.5067,11.3916,-0.4321,3.5715,0.821
448901.0,-5.8012,1.4461,13.1992,-0.0899,3.7876,1.0477
448911.0,-6.4667,0.4669,15.5312,0.2607,3.9754,1.2052
448921.0,-6.79,-0.0359,17.8847,0.5273,4.0222,1.2707
448931.0,-7.106,-0.2442,20.5351,0.5869,3.8466,1.2616
448941.0,-7.7476,-0.3089,22.7713,0.5013,3.4252,1.2148
448951.0,-7.8889,-0.6536,25.1319,0.3586,2.8601,1.1701
448961.0,-7.6758,-1.4748,27.0281,0.3512,2.2152,1.1212
448971.0,-7.6016,-1.9752,27.9236,0.3555,1.3803,0.9998
448981.0,-7.3095,-2.3511,27.768,0.2618,0.3794,0.8104
448991.0,-7.1299,-2.1284,26.7648,0.1825,-0.6188,0.5805
449001.0,-6.9121,-1.4006,24.5525,0.149,-1.558,0.3677
449011.0,-6.6918,-0.4956,21.4856,0.075,-2.3956,0.2065
449021.0,-6.3375,0.1317,18.3228,-0.0293,-3.0224,0.1
449031.0,-6.0023,0.6201,15.2511,-0.1043,-3.3943,0.0378
449041.0,-5.4995,0.8691,12.785,-0.2187,-3.5806,-0.009
449051.0,-4.7573,1.0822,10.9559,-0.3118,-3.6285,-0.0447
449061.0,-4.1061,1.403,9.2703,-0.3895,-3.6029,-0.067
449071.0,-3.6176,1.4509,8.5401,-0.506,-3.5609,-0.0713
449081.0,-2.9497,1.5227,7.5872,-0.4544,-3.5082,-0.0378
449091.0,-2.3439,1.47,6.213,-0.2703,-3.3954,0.041
449101.0,-1.549,1.2546,4.956,-0.041,-3.1831,0.1437
449111.0,-0.6512,1.0271,3.7038,0.2097,-2.8729,0.241
449121.0,0.0646,0.8859,2.5546,0.3469,-2.5584,0.3001
449131.0,0.6153,0.5962,1.7047,0.2698,-2.3126,0.3017
449141.0,1.0702,0.4357,0.8212,0.0761,-2.0955,0.2522
449151.0,1.5993,0.4453,0.3041,-0.1272,-1.8225,0.1708
449161.0,1.9944,0.68,-0.1221,-0.2559,-1.4697,0.0761
449171.0,2.2913,1.1612,-0.1269,-0.3257,-1.0584,-0.0048
449181.0,2.3128,1.7549,0.2514,-0.3219,-0.6252,-0.042
449191.0,2.2841,2.3415,0.747,-0.2049,-0.1926,-0.009
449201.0,2.4469,2.5091,1.2929,-0.0282,0.2155,0.091
