time_ms,ax,ay,az,gx,gy,gz
576501.0,-2.3918,5.0135,11.0277,0.1852,0.2277,0.3719
576511.0,-2.5067,4.47,11.3725,0.3065,0.2043,0.4922
576521.0,-2.4397,3.6919,12.2272,0.5183,0.2059,0.589
576531.0,-2.0614,2.9497,12.888,0.9573,0.241,0.6614
576541.0,-2.2242,2.7246,13.0173,1.416,0.1926,0.6843
576551.0,-1.98,2.6145,11.9471,1.7028,0.0144,0.6598
576561.0,-1.561,2.7078,10.3382,1.6341,-0.1809,0.555
576571.0,-1.415,2.5331,9.8617,1.2792,-0.2458,0.4049
576581.0,-1.4844,2.5307,9.5553,0.9509,-0.2017,0.2586
576591.0,-0.2658,1.8651,9.9623,0.5326,-0.2416,0.0952
576601.0,-0.1844,1.3455,9.6822,0.1783,-0.3704,-0.0883
576611.0,-1.1971,1.7286,9.2847,0.0431,-0.3634,-0.3086
576621.0,-1.743,2.6193,9.1602,0.1383,-0.2022,-0.4422
576631.0,-1.6975,3.0933,9.3039,0.3209,-0.0628,-0.4635
576641.0,-1.7741,3.2106,9.2009,0.4709,-0.0106,-0.4411
576651.0,-1.6544,3.2058,9.0381,0.5811,0.0181,-0.4204
576661.0,-1.6448,3.4429,8.837,0.6481,0.0617,-0.4108
576671.0,-1.6161,3.6129,8.8514,0.6066,0.0846,-0.4012
576681.0,-1.968,3.814,9.2273,0.48,0.1128,-0.4007
576691.0,-2.1548,4.1324,10.0509,0.3315,0.1208,-0.3831
576701.0,-1.7885,3.7876,11.0756,0.0952,-0.0293,-0.3608
576711.0,-1.0822,3.7158,10.6877,-0.091,-0.3235,-0.3602
576721.0,-0.4741,3.45,10.3453,-0.4411,-0.7173,-0.4278
576731.0,-0.3256,4.1899,8.181,-0.4667,-0.8131,-0.4869
576741.0,-1.1803,4.3694,7.8626,-0.5704,-0.6263,-0.5055
576751.0,-1.5514,4.616,7.1658,-0.6572,-0.4965,-0.4624
576761.0,-1.6544,4.118,7.4986,-0.7024,-0.2948,-0.3975
576771.0,-1.0582,4.0247,7.2257,-0.6476,-0.0782,-0.3523
576781.0,-1.1205,3.8738,8.2001,-0.6992,0.1405,-0.3539
576791.0,-1.233,4.1899,8.8226,-0.6811,0.249,-0.3576
576801.0,-1.4222,4.4173,9.4284,-0.6146,0.2953,-0.3368
576811.0,-1.1923,4.9704,8.8585,-0.5167,0.2756,-0.29
576821.0,-1.0822,5.3486,8.4659,-0.6231,0.2442,-0.2522
576831.0,-1.4245,5.7413,8.327,-0.7982,0.2485,-0.2011
576841.0,-2.0734,5.5737,9.0644,-0.8386,0.4012,-0.0803
576851.0,-2.2529,4.9249,10.2113,-0.7019,0.5731,0.0921
576861.0,-1.8938,3.6344,11.2767,-0.5726,0.5561,0.2267
576871.0,-1.5826,2.8946,11.1761,-0.5582,0.3092,0.2426
576881.0,-1.4126,2.6121,11.2192,-0.6039,0.0921,0.1708
576891.0,-1.3982,2.9209,10.7835,-0.5071,-0.0213,0.1059
576901.0,-1.3168,3.2633,10.0126,-0.4007,-0.1362,0.0633
576911.0,-1.1756,3.3615,8.5832,-0.3533,-0.2458,0.0452
576921.0,-0.7901,3.1412,6.5266,-0.4135,-0.2911,0.0325
576931.0,-0.3615,2.3128,4.9297,-0.5491,-0.166,0.0085
576941.0,-0.0215,1.6089,4.6567,-0.5779,0.224,-0.0516
576951.0,-0.4645,1.3455,6.0214,-0.4342,0.6949,-0.1187
576961.0,-0.3352,0.8954,7.0964,-0.1809,0.9003,-0.1596
576971.0,-0.2586,0.0407,7.7333,0.1133,0.8886,-0.2203
576981.0,0.2825,-0.2562,6.8235,0.5694,0.9291,-0.3225
576991.0,0.1077,-0.1915,6.9791,0.7694,0.9988,-0.5002
577001.0,-1.5634,1.3958,6.2082,0.9716,1.0238,-0.6784
577011.0,-2.1404,2.1165,5.4396,1.0099,1.0371,-0.7476
577021.0,-1.2498,2.7461,4.6304,0.9594,1.226,-0.7982
577031.0,-1.4868,3.1292,5.703,0.7657,1.5894,-0.8705
577041.0,-2.4253,4.4436,6.7349,0.5555,1.8315,-0.9365
577051.0,-3.1675,5.3056,8.5018,0.2645,1.9348,-0.9136
577061.0,-3.4955,5.3056,10.7164,0.0357,1.9039,-0.7838
577071.0,-4.446,5.1906,12.7395,0.0862,1.8321,-0.6029
577081.0,-4.051,4.2713,14.1018,0.2788,1.5798,-0.4076
577091.0,-4.2066,3.4141,14.2838,0.5449,1.2239,-0.2895
577101.0,-3.9169,3.3543,13.2256,0.8482,0.9732,-0.2661
577111.0,-4.1994,4.3503,12.3397,0.8908,0.845,-0.3246
577121.0,-4.2425,5.3726,11.6789,0.5082,0.6508,-0.397
577131.0,-3.0215,5.387,14.1282,-0.2293,0.3203,-0.4507
577141.0,-5.2385,5.8012,12.9359,-0.6758,0.0745,-0.4954
577151.0,-5.6144,6.8977,13.137,-0.8514,-0.0479,-0.4374
577161.0,-5.1547,6.5936,14.0611,-1.0169,-0.3166,-0.2692
577171.0,-4.8602,6.256,12.8856,-0.8189,-0.5454,-0.0378
577181.0,-4.4173,4.8123,12.9885,-0.704,-0.6572,0.141
577191.0,-4.2234,4.1946,11.9758,-0.4353,-0.6524,0.2373
577201.0,-4.2713,3.8714,11.6167,-0.2921,-0.6252,0.2634
577211.0,-4.1276,3.8978,11.3078,-0.3459,-0.6875,0.232
577221.0,-3.9337,4.3167,11.3557,-0.5364,-0.7466,0.1788
577231.0,-3.9648,4.719,12.0787,-0.7604,-0.8024,0.1458
577241.0,-3.9768,5.2265,12.4642,-0.911,-0.9445,0.1575
577251.0,-3.8714,5.454,12.888,-0.9982,-1.1339,0.223
577261.0,-3.9696,5.3032,13.2711,-0.9041,-1.2537,0.3491
577271.0,-4.0941,4.8483,13.1992,-0.6694,-1.3702,0.506
577281.0,-3.6488,3.9361,12.9981,-0.4848,-1.5644,0.6332
577291.0,-3.2561,3.2872,11.7316,-0.3358,-1.7767,0.6997
577301.0,-2.8395,2.5307,10.5824,-0.3613,-1.9177,0.696
577311.0,-2.3439,1.8076,9.6798,-0.4528,-1.9486,0.6385
577321.0,-1.8986,1.2713,9.505,-0.5417,-1.8714,0.5257
577331.0,-1.7047,1.0415,9.9288,-0.5401,-1.74,0.397
577341.0,-1.7885,0.9026,11.5544,-0.3714,-1.5623,0.2895
577351.0,-2.0782,0.9194,12.9646,0.0532,-1.4596,0.2464
577361.0,-2.071,1.1301,12.7491,0.4241,-1.6607,0.2187
577371.0,-1.7933,1.3862,11.3844,0.5332,-2.0438,0.1729
577381.0,-0.735,1.5802,9.4188,0.5587,-2.2588,0.1208
577391.0,-1.0846,2.3415,7.3789,0.5199,-2.2104,0.0596
577401.0,-0.6249,2.7222,6.699,0.3012,-2.054,0.0128
577411.0,0.0814,3.0813,6.3949,0.1144,-1.848,0.0032
577421.0,0.3519,2.988,6.4021,-0.067,-1.641,0.0293
577431.0,-0.0383,2.8491,6.098,-0.224,-1.4537,0.0745
577441.0,0.1293,2.4924,6.2608,-0.4278,-1.292,0.1
577451.0,1.3216,1.901,6.4667,-0.5545,-1.1201,0.0995
577461.0,1.8627,1.3503,6.62,-0.6726,-0.978,0.0447
577471.0,1.9776,1.2258,6.0956,-0.7897,-0.9099,-0.0947
577481.0,1.8172,1.5514,5.8442,-0.9003,-0.7822,-0.2836
577491.0,1.3024,2.5211,4.9512,-0.878,-0.5326,-0.414
577501.0,0.838,3.5554,4.3024,-0.9684,-0.2559,-0.4784
577511.0,0.8571,4.2497,4.5322,-1.1621,0.041,-0.4661
577521.0,0.7853,4.628,5.8514,-1.1595,0.4794,-0.3597
577531.0,0.0048,4.9009,7.5896,-0.9541,0.8849,-0.1905
577541.0,-0.3136,4.6519,9.4786,-0.7221,1.0382,-0.0027
577551.0,-0.1269,4.1132,10.568,-0.4443,0.9913,0.1697
577561.0,-0.249,3.644,10.9918,-0.149,0.9062,0.299
577571.0,-0.2394,3.0981,11.4586,0.1298,0.804,0.3879
577581.0,-0.1269,2.8611,10.9223,0.4789,0.6854,0.4443
577591.0,-0.0862,2.6695,9.8785,0.7513,0.6162,0.4613
577601.0,-0.0263,2.8874,9.1291,0.845,0.6651,0.4432
577611.0,-0.0407,2.8036,9.56,0.7423,0.738,0.4214
577621.0,-0.0527,2.6767,10.0365,0.63,0.7184,0.3922
577631.0,-0.0527,2.7174,10.1179,0.5981,0.6715,0.3592
577641.0,0.1556,2.8994,10.0963,0.5667,0.6066,0.3283
577651.0,0.328,3.2585,9.6869,0.5577,0.5507,0.3134
577661.0,0.565,3.4069,9.2153,0.5417,0.5444,0.3134
577671.0,0.237,3.3639,8.3725,0.5268,0.5726,0.3241
577681.0,0.5124,3.1508,7.5681,0.456,0.6577,0.3374
577691.0,0.5363,2.5905,8.1786,0.3358,0.853,0.3246
577701.0,0.3089,1.9393,8.983,0.3437,0.9998,0.2831
577711.0,-0.6871,2.2697,9.0525,0.4635,0.9897,0.2256
577721.0,0.316,2.2098,9.1123,0.6673,0.9919,0.2118
577731.0,-0.3448,2.9473,8.6143,0.9445,1.077,0.199
577741.0,-0.4214,3.6703,7.841,0.9243,0.9993,0.1905
577751.0,-0.1844,3.9073,7.2856,0.7913,0.9807,0.2155
577761.0,-0.4884,3.7876,7.1084,0.6795,1.1637,0.2437
577771.0,-0.2849,3.0765,7.8075,0.3964,1.2829,0.2277
577781.0,-0.5842,2.4852,8.8969,0.0596,1.2643,0.1548
577791.0,-0.3041,1.2163,9.9766,-0.1612,1.1648,0.0803
577801.0,-1.2977,0.8667,10.1418,-0.1325,1.0397,-0.0378
577811.0,-0.7901,1.1037,9.7396,0.0649,0.9509,-0.158
577821.0,-1.0151,2.2745,9.7612,0.3368,0.9919,-0.2661
577831.0,1.1803,3.146,8.0014,0.6486,0.9807,-0.3044
577841.0,-1.3575,3.1603,6.3279,0.6018,1.0632,-0.3145
577851.0,-2.6001,3.7014,5.8873,0.629,1.4537,-0.3613
577861.0,-2.2003,4.1324,6.948,0.53,1.9082,-0.3826
577871.0,-2.5019,3.4931,10.0006,0.124,2.0236,-0.4129
577881.0,-3.225,3.7948,11.0468,-0.058,1.8337,-0.4518
577891.0,-4.0582,3.7038,12.1482,-0.1921,1.6171,-0.4555
577901.0,-2.9521,2.9856,13.3692,-0.1437,1.4761,-0.4241
577911.0,-3.972,3.0382,14.9757,0.0048,1.2936,-0.4518
577921.0,-3.7278,3.881,14.856,0.2884,0.9253,-0.4741
577931.0,-3.5602,4.865,13.5967,0.4326,0.5539,-0.4693
577941.0,-3.3998,5.6216,12.2631,0.2554,0.224,-0.4539
577951.0,-3.2657,5.9999,11.4084,-0.0947,-0.0176,-0.4299
577961.0,-3.6775,5.9304,10.8242,-0.3932,-0.1346,-0.3831
577971.0,-3.4788,5.5426,10.9056,-0.5486,-0.1389,-0.3139
577981.0,-3.5721,5.2744,10.884,-0.5789,-0.1405,-0.2395
577991.0,-3.4309,4.7764,11.1282,-0.5662,-0.174,-0.1697
578001.0,-3.371,4.4029,11.1713,-0.4209,-0.174,-0.1032
578011.0,-3.3998,4.0917,11.2743,-0.207,-0.132,-0.05
578021.0,-3.4764,3.9337,11.2551,-0.0436,-0.1458,-0.0223
578031.0,-3.6416,4.1037,11.078,0.0165,-0.2251,-0.0229
578041.0,-3.5458,4.5514,10.7715,0.0101,-0.315,-0.0303
578051.0,-3.6009,5.1475,10.7763,-0.0521,-0.3656,-0.0245
578061.0,-3.6057,5.7413,10.659,-0.141,-0.4395,0.0165
578071.0,-3.5075,6.1411,10.7117,-0.307,-0.5598,0.0782
578081.0,-3.4453,6.5098,10.6303,-0.4507,-0.6731,0.1639
578091.0,-3.553,6.6607,10.556,-0.5912,-0.7774,0.2815
578101.0,-3.4764,6.371,10.4411,-0.7104,-0.8987,0.4214
578111.0,-3.225,5.6886,9.912,-0.7556,-0.9977,0.5593
578121.0,-2.8467,4.8722,9.2919,-0.7955,-1.0445,0.6556
578131.0,-2.5115,4.1611,8.8777,-0.8519,-1.028,0.6939
578141.0,-2.3128,3.5961,8.5258,-0.9131,-0.9817,0.6848
578151.0,-2.0375,3.122,8.0637,-0.9945,-0.9269,0.6359
578161.0,-1.7358,2.9066,7.4124,-1.1861,-0.887,0.5374
578171.0,-1.4868,2.8276,7.2808,-1.5202,-0.8136,0.4001
578181.0,-1.585,2.9928,7.5992,-1.8837,-0.7136,0.2634
578191.0,-1.3479,3.2322,8.1882,-2.1923,-0.6258,0.1596
578201.0,-1.494,3.2585,9.1004,-2.461,-0.5848,0.1075
578211.0,-1.4413,3.1532,10.2041,-2.5994,-0.6082,0.1064
578221.0,-1.5107,3.0311,10.8888,-2.4631,-0.6439,0.1634
578231.0,-1.1516,2.5714,11.2144,-2.1433,-0.704,0.2575
578241.0,-1.0271,2.2841,10.7978,-1.6953,-0.7444,0.3496
578251.0,-1.0247,2.1261,10.3142,-1.2877,-0.7583,0.431
578261.0,-0.7111,1.9537,9.6965,-0.9195,-0.7418,0.5151
578271.0,-0.723,1.7549,9.1626,-0.6183,-0.6912,0.589
578281.0,-0.5459,1.5395,8.3486,-0.3533,-0.613,0.6604
578291.0,-0.6177,1.2234,7.9775,-0.1192,-0.4363,0.7237
578301.0,-0.7039,1.1133,7.5322,0.1389,-0.2086,0.7849
578311.0,-0.1604,0.7039,7.5154,0.3688,0.0516,0.8354
578321.0,0.917,0.2682,7.5441,0.5726,0.3102,0.8439
578331.0,1.0175,0.3089,7.3454,0.5502,0.4624,0.7572
578341.0,0.3328,0.5315,7.7859,0.2666,0.5167,0.629
578351.0,-0.0048,0.6632,8.4539,0.0665,0.6039,0.5444
578361.0,0.0503,0.3615,9.3039,-0.0223,0.6891,0.4975
578371.0,-0.0862,0.0,10.4172,0.0032,0.7258,0.4502
578381.0,-0.1365,-0.3663,11.0804,0.1767,0.721,0.3986
578391.0,-0.1173,-0.5243,11.4036,0.3326,0.6311,0.2927
578401.0,-0.2586,-0.0503,11.1666,0.4161,0.4677,0.1538
578411.0,-0.3089,0.4645,10.9511,0.4257,0.3347,0.0282
578421.0,-0.3136,1.0678,10.7452,0.4252,0.2719,-0.0623
578431.0,-0.3807,1.5395,10.4698,0.4486,0.2474,-0.1064
578441.0,-0.4812,1.8771,10.2232,0.4587,0.2304,-0.1272
578451.0,-0.5195,2.2482,9.7755,0.4661,0.2506,-0.1282
578461.0,-0.5842,2.5019,9.4739,0.3906,0.2927,-0.1197
578471.0,-0.6416,2.7653,9.4044,0.2283,0.3209,-0.1133
578481.0,-0.8236,2.8611,9.9503,0.067,0.3767,-0.0963
578491.0,-0.747,2.7916,10.5776,0.033,0.4342,-0.0543
578501.0,-0.9625,2.9281,11.0157,0.0761,0.4539,-0.017
578511.0,-1.0942,3.2322,11.303,0.1309,0.4273,0.0261
578521.0,-1.142,3.3758,11.5185,0.2283,0.4028,0.0979
578531.0,-1.0127,3.5841,11.0947,0.3555,0.3533,0.1777
578541.0,-1.2019,3.4213,10.4746,0.4427,0.3427,0.2533
578551.0,-1.1205,3.2274,9.4667,0.4566,0.3799,0.3017
578561.0,-1.0702,2.909,8.9926,0.3597,0.4938,0.3017
578571.0,-1.1803,2.8826,8.9088,0.1937,0.6476,0.257
578581.0,-1.3958,3.2777,9.7133,-0.0181,0.8147,0.1916
578591.0,-1.8986,3.7373,10.7739,-0.2256,0.9083,0.1612
578601.0,-2.0901,3.7637,12.0237,-0.4406,0.8434,0.165
578611.0,-2.2482,3.7685,12.9167,-0.4821,0.7593,0.1963
578621.0,-2.4565,3.699,13.6685,-0.4033,0.6933,0.249
578631.0,-2.5235,3.553,14.3676,-0.3145,0.5507,0.307
578641.0,-2.5067,3.565,14.5639,-0.2256,0.3118,0.3539
578651.0,-2.5929,3.6344,14.0013,-0.1517,0.0362,0.4001
578661.0,-2.4229,3.7924,13.0101,-0.1213,-0.2011,0.4417
578671.0,-2.2098,4.0223,11.7962,-0.1469,-0.339,0.4837
578681.0,-2.1524,4.1875,10.7212,-0.2432,-0.3746,0.5247
578691.0,-2.1284,4.0773,10.3406,-0.4119,-0.3358,0.5688
578701.0,-2.0877,3.8571,10.0772,-0.5726,-0.2746,0.6178
578711.0,-2.1739,3.4429,10.3789,-0.7503,-0.2091,0.6545
578721.0,-2.3272,2.976,11.0828,-0.8514,-0.1501,0.6923
578731.0,-2.3487,2.0901,12.2823,-0.8147,-0.1054,0.7364
578741.0,-2.2434,1.3575,13.1514,-0.6284,-0.1352,0.754
578751.0,-2.1787,0.9505,13.5608,-0.4592,-0.2873,0.7221
578761.0,-2.0614,0.9744,13.3549,-0.3624,-0.531,0.6508
578771.0,-1.9609,1.3838,12.706,-0.34,-0.7785,0.5656
578781.0,-1.81,1.822,11.7531,-0.3821,-0.9589,0.5013
578791.0,-1.7119,1.9632,11.0349,-0.4981,-1.0217,0.4613
578801.0,-1.6975,1.8747,11.0181,-0.6641,-1.0009,0.4289
578811.0,-1.5395,1.5754,11.6933,-0.845,-0.9951,0.3922
578821.0,-1.6161,1.2833,12.6486,-0.9445,-1.0515,0.3549
578831.0,-1.7549,1.1516,13.3836,-0.9211,-1.1898,0.3331
578841.0,-1.8914,1.1396,13.6517,-0.845,-1.4367,0.3294
578851.0,-1.7765,1.0965,13.1657,-0.7019,-1.7299,0.3475
578861.0,-1.6017,1.2594,12.0165,-0.5076,-1.9571,0.3799
578871.0,-1.1827,1.2522,10.9439,-0.3624,-2.0779,0.4166
578881.0,-0.8643,1.3312,9.7636,-0.3001,-2.13,0.4406
578891.0,-0.5698,1.233,9.0381,-0.3799,-2.1455,0.4427
578901.0,-0.2298,0.7518,8.7795,-0.4997,-2.1285,0.4374
578911.0,-0.0622,0.3352,8.9998,-0.5672,-2.0763,0.4113
578921.0,-0.1269,-0.0072,9.5337,-0.5236,-2.0476,0.3767
578931.0,-0.0192,0.0838,9.2177,-0.3757,-2.1258,0.3507
578941.0,0.4717,0.0024,8.6215,-0.2192,-2.2338,0.339
578951.0,0.9529,0.1484,7.2161,0.008,-2.2423,0.3421
578961.0,1.3791,0.1053,6.3518,0.1788,-2.1109,0.3384
578971.0,1.9273,0.0694,5.7724,0.3501,-1.8736,0.3331
578981.0,2.3894,0.1652,5.7006,0.448,-1.608,0.3044
578991.0,2.6408,0.6632,5.8275,0.4273,-1.416,0.2554
579001.0,2.6288,1.1157,5.9927,0.2863,-1.325,0.2171
579011.0,2.6504,1.1564,6.0717,0.0713,-1.3117,0.2075
579021.0,2.8563,0.8571,6.0813,-0.083,-1.292,0.2102
579031.0,3.1484,0.3855,6.1818,-0.1027,-1.2074,0.2134
579041.0,3.474,0.1125,6.0142,0.0106,-1.06,0.1969
579051.0,3.7158,0.0359,6.0047,0.1485,-0.8716,0.166
579061.0,3.9073,0.0622,6.5601,0.2884,-0.6423,0.1288
579071.0,4.0247,0.5291,7.1491,0.4209,-0.4778,0.0921
579081.0,3.79,1.1372,7.5393,0.4305,-0.4624,0.067
579091.0,3.7278,1.7573,7.3358,0.3187,-0.5773,0.0676
579101.0,3.9145,1.9058,6.7397,0.1474,-0.6917,0.1006
579111.0,4.1204,1.7717,5.9999,-0.033,-0.7306,0.1405
579121.0,4.3622,1.5155,5.3846,-0.1995,-0.6822,0.1644
579131.0,4.4724,1.0654,5.1906,-0.2762,-0.5188,0.1857
579141.0,4.5562,0.6201,5.2864,-0.2198,-0.2948,0.2033
579151.0,4.6902,0.1269,5.6647,-0.0809,-0.0798,0.207
579161.0,4.8028,0.1556,5.6671,0.1485,0.1117,0.1958
579171.0,4.7357,0.3519,5.4348,0.3411,0.2873,0.1804
579181.0,4.6926,0.5243,4.8363,0.4108,0.4124,0.1596
579191.0,4.6591,0.7135,3.8762,0.339,0.5225,0.1282
579201.0,4.5298,0.4573,3.1747,0.1793,0.7434,0.0942
579211.0,4.2521,-0.0886,3.3279,0.0601,1.1302,0.0495
579221.0,3.8475,-0.7566,5.0374,0.0772,1.6086,-0.0101
579231.0,3.3255,-0.8571,7.0222,0.2905,1.9709,-0.0819
579241.0,2.7485,-0.2873,8.6215,0.4922,2.0465,-0.1623
579251.0,2.4421,-0.2418,9.2751,0.5007,1.789,-0.2027
579261.0,2.8036,-0.6225,8.8059,0.4454,1.3819,-0.24
579271.0,3.0454,-0.5507,6.9767,0.5843,1.1988,-0.2996
579281.0,2.9521,-0.0455,4.9129,0.779,1.3282,-0.3863
579291.0,2.5881,0.7709,3.2346,0.861,1.648,-0.481
579301.0,2.083,1.2282,2.8204,0.8216,2.1183,-0.547
579311.0,1.312,1.6568,3.7613,0.7753,2.6494,-0.5859
579321.0,0.237,2.0375,5.5785,0.6976,3.0346,-0.5949
579331.0,-0.5339,1.992,7.0222,0.5295,3.099,-0.5704
579341.0,-0.6728,1.1396,7.2353,0.2405,2.8468,-0.5529
579351.0,-0.9744,0.249,6.3135,0.0591,2.6542,-0.5853
579361.0,-1.4054,-0.4477,5.6934,0.2506,2.9266,-0.6529
579371.0,-2.1644,-0.4214,6.1531,0.7508,3.5444,-0.7567
579381.0,-3.5602,1.1133,6.8881,1.1941,4.0632,-0.8993
579391.0,-4.6112,2.9688,7.2975,1.2568,4.2542,-1.003
579401.0,-5.8945,4.2258,6.948,0.9104,4.2393,-1.0169
579411.0,-6.6487,3.0215,8.2624,0.3544,4.3032,-0.9493
579421.0,-7.7596,1.3934,10.1299,0.1905,4.5687,-0.8939
579431.0,-9.0214,0.1365,12.888,0.406,4.9332,-0.9184
579441.0,-10.0006,-0.8667,16.7115,0.8141,5.22,-1.0147
579451.0,-10.6518,-0.7374,20.4537,1.1339,5.0955,-1.218
579461.0,-10.9104,0.1844,23.6619,1.1706,4.4447,-1.4867
579471.0,-10.0724,1.9273,24.6555,1.0962,3.5252,-1.7304
579481.0,-11.145,3.3255,24.7608,0.771,2.5621,-1.9348
579491.0,-11.9375,5.9424,23.7984,0.4432,1.6368,-2.0609
579501.0,-10.999,7.8841,22.5246,0.0112,0.8381,-2.03
579511.0,-11.0109,7.6375,23.468,-0.4321,0.2448,-1.8768
579521.0,-10.4698,7.9607,22.7425,-0.4342,-0.2884,-1.6825
579531.0,-10.4148,7.8219,23.061,-0.497,-0.8487,-1.492
579541.0,-10.0389,7.7428,21.8902,-0.4475,-1.5027,-1.2755
579551.0,-9.3901,7.264,20.3004,-0.4432,-2.1481,-1.0711
579561.0,-8.7484,6.8809,18.1792,-0.4331,-2.6803,-0.895
579571.0,-8.1762,6.5194,16.0483,-0.4507,-3.0586,-0.7444
579581.0,-7.6567,6.2417,14.1856,-0.4954,-3.3172,-0.6162
579591.0,-7.0533,5.9137,12.6629,-0.5502,-3.4805,-0.5013
579601.0,-6.5721,5.442,11.2911,-0.629,-3.5774,-0.397
579611.0,-6.1076,4.7285,10.2975,-0.7833,-3.6764,-0.3235
579621.0,-5.5593,3.9504,9.505,-0.9296,-3.7743,-0.2852
579631.0,-5.1523,3.3686,8.9495,-0.9695,-3.819,-0.2671
579641.0,-4.7788,3.0119,8.4348,-0.8328,-3.8121,-0.2384
579651.0,-4.0223,2.557,7.8458,-0.4975,-3.7269,-0.1809
579661.0,-3.1819,2.4876,7.0174,-0.0708,-3.571,-0.1155
579671.0,-2.6169,2.6288,6.505,0.2176,-3.4172,-0.0639
579681.0,-2.0375,2.7174,5.8347,0.3501,-3.3071,-0.0117
579691.0,-1.5419,2.6983,4.956,0.2176,-3.3034,0.0154
579701.0,-0.7685,2.1691,4.1922,-0.1054,-3.3369,0.0112
579711.0,0.0982,1.3192,3.3639,-0.3374,-3.2177,-0.0186
579721.0,0.8045,0.6057,2.9736,-0.4768,-2.9591,-0.099
579731.0,1.1133,0.34,3.3567,-0.5023,-2.6372,-0.2054
579741.0,1.6688,0.1437,4.3263,-0.2884,-2.2514,-0.2756
579751.0,2.0375,0.1149,5.1787,0.1495,-1.8645,-0.307
579761.0,2.1476,0.3519,5.9616,0.5736,-1.5985,-0.3374
579771.0,2.2649,0.9768,6.3375,0.8689,-1.492,-0.3624
579781.0,2.6911,1.5802,6.1124,1.0238,-1.4612,-0.3698
579791.0,3.0167,2.0877,5.3726,0.986,-1.4388,-0.3778
579801.0,3.3734,2.2769,4.9033,0.7258,-1.3808,-0.4049
579811.0,3.5769,2.5546,4.5873,0.4055,-1.2521,-0.4438
579821.0,3.5219,2.8491,5.1787,0.107,-1.0467,-0.4709
579831.0,3.2992,2.9664,6.6607,-0.0117,-0.7923,-0.4385
579841.0,3.0789,2.8706,8.3629,0.1314,-0.5843,-0.3448
579851.0,2.9185,2.6935,9.3422,0.3512,-0.5779,-0.2352
579861.0,3.0358,2.4373,9.6869,0.48,-0.7641,-0.1469
579871.0,3.3998,2.3248,8.7819,0.5459,-1.0169,-0.0915
579881.0,3.6703,2.2386,7.2975,0.4603,-1.2329,-0.0814
579891.0,3.9792,2.3631,5.5162,0.2975,-1.309,-0.1059
579901.0,4.1899,2.5211,4.13,0.1032,-1.1988,-0.1362
579911.0,4.276,2.5905,3.0981,-0.1208,-1.0078,-0.1543
579921.0,4.4891,2.2027,2.6552,-0.3682,-0.7944,-0.1687
579931.0,4.7525,1.7071,2.2553,-0.4954,-0.5475,-0.1953
579941.0,4.9177,1.2498,1.9441,-0.4608,-0.216,-0.2309
579951.0,5.0326,0.8236,1.2282,-0.3374,0.1596,-0.2852
579961.0,5.0206,0.2753,0.5555,-0.3193,0.5518,-0.3837
579971.0,4.7333,0.0,0.1556,-0.3916,0.9935,-0.531
579981.0,4.1755,0.2251,0.5052,-0.5449,1.4479,-0.705
579991.0,3.5099,0.826,1.1684,-0.6753,1.8592,-0.8493
580001.0,3.0335,1.3551,1.6424,-0.7599,2.204,-0.9344
580011.0,2.5331,1.6879,2.2625,-0.8461,2.4956,-0.9807
580021.0,1.8675,2.2865,2.8036,-0.7928,2.8149,-0.9951
580031.0,0.5124,2.9401,3.4955,-0.5518,3.2352,-0.9477
580041.0,-0.1484,2.7533,5.1475,-0.1203,3.7674,-0.8354
580051.0,-0.9122,2.818,7.1611,0.3906,4.2697,-0.7455
580061.0,-1.7166,3.2657,9.3733,0.7152,4.5336,-0.6992
580071.0,-2.241,3.8164,11.0349,0.7072,4.4612,-0.6779
580081.0,-2.3224,4.1611,11.6334,0.3246,4.0733,-0.6726
580091.0,-2.9329,4.707,10.7093,-0.2804,3.5832,-0.6784
580101.0,-3.8523,5.2601,9.742,-0.8966,3.306,-0.646
580111.0,-4.9081,4.5083,10.7117,-1.0972,3.563,-0.4922
580121.0,-6.2297,3.4812,12.9047,-0.8003,4.0536,-0.3054
580131.0,-6.9576,2.138,16.6182,-0.3922,4.3117,-0.1799
580141.0,-7.343,1.9082,18.7107,0.0724,4.1766,-0.1431
580151.0,-7.8219,2.2505,19.7713,0.2288,3.7264,-0.1873
580161.0,-7.8027,3.0382,19.9557,0.1708,3.1613,-0.2549
580171.0,-8.0278,4.2497,19.0411,0.0059,2.6787,-0.3092
580181.0,-8.2289,5.6431,17.6764,-0.3757,2.2641,-0.3448
580191.0,-9.493,7.1156,16.7834,-0.9562,1.9704,-0.3209
580201.0,-9.8689,5.9065,19.0171,-1.4149,1.9566,-0.1431
580211.0,-9.9934,3.6152,22.1727,-1.3053,2.0614,0.0857
580221.0,-10.1993,1.8866,25.6515,-1.093,1.7347,0.1783
580231.0,-9.8497,1.1732,27.0042,-0.9237,0.8407,0.1591
580241.0,-9.1746,0.8428,25.8478,-0.8157,-0.2437,0.0979
580251.0,-8.3366,0.8356,23.0801,-0.8269,-1.2175,-0.0106
580261.0,-7.7979,1.3527,19.915,-1.0036,-1.9294,-0.1644
580271.0,-7.4795,2.0997,17.2981,-1.376,-2.4413,-0.3225
580281.0,-7.3382,2.8228,14.9709,-1.8182,-2.8399,-0.4374
580291.0,-7.2161,3.134,13.3213,-2.1891,-3.1017,-0.4778
580301.0,-6.7062,2.1787,12.9143,-2.2253,-3.1091,-0.4135
580311.0,-6.1938,1.1349,12.6103,-1.9332,-3.0251,-0.3331
580321.0,-5.7892,0.407,12.7395,-1.599,-3.0554,-0.307
580331.0,-5.3678,0.2298,12.2487,-1.1941,-3.1943,-0.2937
580341.0,-5.0015,0.1963,11.3006,-0.7838,-3.3385,-0.2735
580351.0,-4.4772,0.5435,9.8904,-0.4693,-3.4539,-0.2586
580361.0,-4.0486,1.0558,8.5665,-0.3368,-3.5125,-0.2485
580371.0,-3.6847,1.5419,7.8506,-0.3783,-3.5348,-0.2261
580381.0,-3.3327,1.8124,7.6447,-0.4683,-3.5263,-0.1729
580391.0,-3.0143,1.6113,7.7357,-0.513,-3.5135,-0.0841
580401.0,-2.4541,1.1708,7.5346,-0.497,-3.571,0.0144
580411.0,-1.822,0.4525,7.0174,-0.4683,-3.6726,0.0958
580421.0,-0.9744,-0.3615,6.3111,-0.3576,-3.7179,0.149
580431.0,-0.4501,-1.0008,5.4803,-0.1671,-3.654,0.1586
580441.0,0.2729,-1.2785,4.6543,0.042,-3.5236,0.132
580451.0,0.7207,-1.2594,4.221,0.2246,-3.331,0.0788
580461.0,1.1157,-1.0056,3.7685,0.332,-3.1549,0.0197
580471.0,1.6328,-0.7207,3.2226,0.2836,-3.0437,-0.0463
580481.0,2.3511,-0.5411,2.6049,0.1692,-2.9506,-0.1027
580491.0,3.2441,-0.6488,2.0614,0.1187,-2.7553,-0.1442
580501.0,3.9169,-0.7757,1.6281,0.1453,-2.4536,-0.19
580511.0,4.3934,-0.8811,1.4413,0.1336,-2.1737,-0.2661
580521.0,4.9536,-0.7877,1.0223,0.0952,-1.9534,-0.3645
580531.0,5.3271,-0.2705,0.4956,0.0718,-1.6911,-0.4635
580541.0,5.4684,0.4477,0.1891,0.1107,-1.3329,-0.5188
580551.0,5.5426,1.1229,0.261,0.2522,-0.8785,-0.5023
580561.0,5.4779,1.6305,0.6967,0.5002,-0.3991,-0.4177
580571.0,5.4324,1.9441,1.0894,0.7822,0.0426,-0.29
580581.0,5.4109,2.1021,1.5921,0.9727,0.4193,-0.1655
580591.0,5.4684,2.1428,2.4612,1.0376,0.7152,-0.0564
580601.0,5.5234,2.32,3.2202,0.9674,0.878,0.0234
580611.0,5.4564,2.5522,3.5051,0.7407,0.8806,0.0873
580621.0,5.3654,2.7078,3.1915,0.4699,0.8413,0.1554
580631.0,5.1427,2.9353,2.3463,0.2708,0.9099,0.2416
580641.0,4.7285,2.7509,1.9321,0.1846,1.1792,0.3597
580651.0,4.2832,1.9968,2.162,0.248,1.6219,0.497
580661.0,4.0941,0.8882,3.0358,0.3714,2.0981,0.5912
580671.0,3.6105,0.103,4.3503,0.4193,2.4557,0.5933
580681.0,2.9664,-0.3687,6.0358,0.4204,2.6771,0.5353
580691.0,2.5833,-0.4477,7.2449,0.4496,2.7441,0.4544
580701.0,2.4517,-0.4429,7.8506,0.4257,2.6616,0.3581
580711.0,2.2649,-0.0192,7.6303,0.3986,2.5446,0.2517
580721.0,1.6113,0.7159,7.003,0.3906,2.5339,0.1724
580731.0,1.1444,1.1157,6.6607,0.4246,2.6739,0.1474
580741.0,0.577,1.5634,6.5721,0.4704,2.9016,0.1458
580751.0,-0.0718,1.719,7.2616,0.4613,3.1235,0.1634
580761.0,-0.5363,1.6472,7.9104,0.464,3.2927,0.1937
580771.0,-1.0104,1.5778,8.2408,0.4076,3.3544,0.2033
580781.0,-1.4054,1.6951,7.944,0.2975,3.3826,0.2022
580791.0,-2.2673,2.3942,7.027,0.1304,3.4859,0.1937
580801.0,-3.6296,3.1963,6.8785,-0.1352,3.6838,0.2118
580811.0,-5.3103,3.4165,8.1594,-0.1868,4.0834,0.3251
580821.0,-6.3159,2.1548,11.3318,0.1681,4.6842,0.5209
580831.0,-6.8139,0.3663,15.0523,0.6838,5.0519,0.6529
580841.0,-6.6583,-1.415,18.3037,0.9456,4.8742,0.6082
580851.0,-6.1746,-2.5929,19.5391,0.9184,4.2665,0.3879
580861.0,-5.6719,-3.2058,19.4074,0.5587,3.4928,0.0165
580871.0,-5.5617,-2.7318,18.7203,0.182,2.908,-0.4087
580881.0,-6.189,-0.6632,17.2837,-0.0766,2.6622,-0.7774
580891.0,-7.3526,1.4868,17.5615,-0.5672,2.5211,-1.0286
580901.0,-8.734,3.2777,18.1002,-1.0807,2.2226,-1.093
580911.0,-9.6367,3.4285,19.144,-1.284,1.931,-0.9583
580921.0,-9.5577,1.9992,20.0778,-0.8163,1.9358,-0.7019
580931.0,-9.8928,1.2953,20.5399,-0.1176,1.9784,-0.5444
580941.0,-9.9311,1.154,21.0738,0.2081,1.7342,-0.5449
580951.0,-9.6702,1.9058,20.7649,0.282,1.3707,-0.6274
580961.0,-8.8777,2.6695,20.8272,0.0585,1.052,-0.7439
580971.0,-9.9144,3.5027,21.2078,-0.4624,0.6582,-0.8663
580981.0,-10.2376,4.4412,22.1775,-1.1398,0.0463,-0.9626
580991.0,-10.3094,4.7716,22.7497,-1.5538,-0.6157,-0.9237
581001.0,-10.0868,3.5195,24.0043,-1.4601,-1.0807,-0.7391
581011.0,-9.6103,2.1189,24.0186,-1.0233,-1.6362,-0.5518
581021.0,-8.9687,0.9409,22.8838,-0.6907,-2.4594,-0.4762
581031.0,-8.1666,0.8092,19.7833,-0.4911,-3.322,-0.5039
581041.0,-7.6255,1.221,16.0555,-0.5491,-3.9738,-0.5949
581051.0,-7.0342,1.7957,12.8593,-0.8812,-4.4112,-0.7109
581061.0,-6.596,2.2386,10.4722,-1.2941,-4.6576,-0.803
581071.0,-6.1866,2.5139,8.8945,-1.5516,-4.7076,-0.8375
581081.0,-5.8107,2.6217,8.0278,-1.5165,-4.5831,-0.7934
581091.0,-5.3989,2.5235,7.7093,-1.1919,-4.3506,-0.6731
581101.0,-5.0326,2.3248,7.5202,-0.7136,-4.135,-0.5114
581111.0,-4.4963,1.9154,7.2329,-0.2485,-4.0132,-0.3347
581121.0,-3.9265,1.4629,6.7732,0.1368,-3.927,-0.1745
581131.0,-3.3255,1.2761,5.8395,0.3677,-3.8818,-0.0591
581141.0,-2.7773,1.2833,4.8243,0.3012,-3.8988,-0.0069
581151.0,-2.1548,1.4269,4.0414,0.0942,-3.8504,0.0192
581161.0,-1.6688,1.1756,4.312,-0.0553,-3.6077,0.0548
581171.0,-1.0965,0.7063,5.5641,-0.0623,-3.2959,0.1006
581181.0,-0.8667,0.2442,7.1132,0.0112,-3.1336,0.1293
581191.0,-0.8308,-0.0934,7.7572,0.0718,-3.2576,0.1378
581201.0,-0.5698,-0.2969,7.082,0.1128,-3.5316,0.1288
581211.0,0.2179,-0.4429,5.6312,0.158,-3.7237,0.1117
581221.0,0.9888,-0.3855,4.3479,0.2256,-3.6881,0.0814
581231.0,1.6688,-0.0192,3.45,0.3395,-3.4619,0.058
581241.0,2.0399,0.5148,2.9329,0.4145,-3.1703,0.058
581251.0,2.4756,0.8882,2.6791,0.3672,-2.9309,0.0819
581261.0,2.6719,1.1037,2.9425,0.2613,-2.7287,0.1346
581271.0,2.9832,0.9744,3.0263,0.2123,-2.5552,0.224
581281.0,3.3926,0.4717,3.1675,0.1995,-2.4126,0.3187
581291.0,3.6559,0.103,2.8443,0.2325,-2.2993,0.3906
581301.0,4.3311,0.0311,2.047,0.2091,-2.2333,0.4193
581311.0,4.8674,0.0766,1.3503,0.1357,-2.1199,0.431
581321.0,5.1356,0.6273,0.3089,0.1352,-1.8943,0.4576
581331.0,5.4181,0.9912,-0.2155,0.1272,-1.5586,0.5273
581341.0,5.9999,0.826,-0.4501,0.1639,-1.1472,0.6412
581351.0,6.1675,0.2394,-0.0311,0.1932,-0.705,0.7513
581361.0,6.1507,-0.6393,1.0678,0.2118,-0.2985,0.8179
581371.0,6.2273,-1.3695,2.5905,0.223,-0.0021,0.82
581381.0,6.1052,-1.6855,3.7828,0.1974,0.1,0.7646
581391.0,5.9113,-1.5945,4.2545,0.1224,0.0176,0.6859
581401.0,6.0789,-1.4102,3.8642,0.0841,-0.1117,0.6226
581411.0,6.1483,-1.2019,2.8012,0.1362,-0.1123,0.5859
581421.0,6.201,-1.1923,1.7933,0.1825,0.0506,0.5587
581431.0,6.4045,-1.4126,1.743,0.2187,0.3661,0.5252
581441.0,6.1339,-1.2426,1.9321,0.2852,0.7173,0.4778
581451.0,5.8083,-1.3527,2.9233,0.2873,1.0169,0.4315
581461.0,5.6647,-1.494,4.1252,0.3533,1.2723,0.3916
581471.0,5.2792,-1.4868,5.1523,0.4124,1.4175,0.3374
581481.0,4.8842,-1.2641,6.0789,0.4379,1.4383,0.2687
581491.0,4.64,-0.7087,6.2872,0.5491,1.4186,0.2198
581501.0,4.4843,-0.0934,5.9137,0.6699,1.3973,0.2006
581511.0,4.3479,0.5076,5.272,0.7295,1.4138,0.2027
581521.0,4.1587,0.9792,4.7621,0.7434,1.5165,0.2293
581531.0,4.0773,1.142,4.525,0.7003,1.6676,0.2692
581541.0,3.96,0.9984,4.2617,0.563,1.8071,0.3001
581551.0,3.7613,0.5124,4.549,0.3746,1.9795,0.3113
581561.0,3.2585,0.3567,5.0015,0.2714,2.1886,0.3033
581571.0,2.5067,0.2155,5.9304,0.2309,2.3807,0.2964
581581.0,1.8651,0.2945,6.754,0.2937,2.477,0.3028
581591.0,1.4724,0.2035,7.1922,0.4443,2.4903,0.3272
581601.0,1.5203,-0.4932,6.699,0.6236,2.4131,0.348
581611.0,1.6544,-1.4868,5.3486,0.7833,2.3589,0.2879
581621.0,2.0207,-1.81,3.2394,1.0084,2.536,0.1256
581631.0,1.7621,-1.336,1.6568,1.1526,3.008,-0.1086
581641.0,0.6823,-0.3855,1.5131,1.1563,3.6434,-0.348
581651.0,-0.7278,0.6919,2.4349,1.1222,4.2798,-0.5321
581661.0,-2.5235,1.6616,3.9097,1.085,4.8268,-0.6327
581671.0,-4.3622,2.1835,5.1643,1.0344,5.2094,-0.6497
581681.0,-5.4875,1.2402,7.1323,0.9429,5.4909,-0.6327
581691.0,-6.4141,0.4405,8.5066,1.0419,5.7771,-0.6731
581701.0,-8.2456,0.5004,10.0604,1.093,6.007,-0.8093
581711.0,-9.4571,0.9002,12.402,1.0445,6.1353,-0.961
581721.0,-10.4387,1.9058,15.1984,1.0238,6.18,-1.0759
581731.0,-10.8745,3.2417,18.1097,0.903,5.9352,-1.1222
581741.0,-11.4323,4.0606,20.3842,0.6502,5.3584,-1.0637
581751.0,-11.3126,3.8355,21.2078,0.3533,4.5767,-0.9291
581761.0,-11.2671,3.067,21.3132,0.1314,3.8578,-0.7987
581771.0,-11.5209,2.5953,21.0091,0.2112,3.4433,-0.6864
581781.0,-11.1522,1.7957,21.9309,0.4161,3.2603,-0.5992
581791.0,-11.0828,1.5179,23.1495,0.5433,2.9841,-0.5832
581801.0,-10.8409,1.8699,24.1216,0.3613,2.3408,-0.638
581811.0,-10.422,2.0758,24.2317,0.0293,1.5064,-0.6779
581821.0,-10.0556,2.1261,23.0825,-0.2347,0.7258,-0.6763
581831.0,-9.6247,1.9728,21.4042,-0.5193,0.0298,-0.679
581841.0,-9.3805,1.9321,19.5702,-0.7615,-0.481,-0.6902
581851.0,-9.1147,1.415,18.9286,-0.8689,-0.7215,-0.6774
581861.0,-9.0621,1.0678,19.0028,-0.7157,-0.8402,-0.6439
581871.0,-8.8131,0.7638,18.8184,-0.406,-1.0488,-0.5992
581881.0,-8.3749,0.6249,18.1552,-0.033,-1.3111,-0.5582
581891.0,-7.9583,1.0032,16.6684,0.2708,-1.5596,-0.5438
581901.0,-7.3023,1.7933,15.1266,0.2975,-1.8108,-0.5667
581911.0,-6.754,2.6025,13.9654,0.066,-2.0279,-0.6013
581921.0,-6.4452,3.146,13.3142,-0.2852,-2.1891,-0.613
581931.0,-6.2417,3.3998,13.1753,-0.6795,-2.3791,-0.605
581941.0,-5.9951,3.3423,13.204,-0.9158,-2.5653,-0.5593
581951.0,-5.7485,3.1508,13.0795,-0.8945,-2.6856,-0.4699
581961.0,-5.4779,2.6959,12.8449,-0.6907,-2.7739,-0.3517
581971.0,-5.1284,2.1069,12.2751,-0.4087,-2.8856,-0.2373
581981.0,-4.3527,1.7741,10.8553,-0.1687,-3.0176,-0.174
581991.0,-3.9073,1.5921,9.3877,-0.132,-3.1038,-0.1788
582001.0,-3.3184,1.719,7.9942,-0.265,-3.1469,-0.2283
582011.0,-2.557,1.9489,6.9983,-0.4853,-3.0996,-0.3012
582021.0,-2.0949,2.2075,6.4428,-0.6928,-2.9341,-0.3544
582031.0,-1.798,2.2817,6.9456,-0.8407,-2.6749,-0.3704
582041.0,-1.3312,2.0758,8.4396,-0.7992,-2.3855,-0.3421
582051.0,-1.3958,2.0901,9.5744,-0.6337,-2.2471,-0.2826
582061.0,-1.245,1.7645,10.3334,-0.5422,-2.362,-0.207
582071.0,-0.8116,1.5395,9.8713,-0.4597,-2.601,-0.133
582081.0,-0.4142,1.2402,8.6598,-0.4507,-2.8127,-0.0702
582091.0,0.103,0.9313,7.1156,-0.5151,-2.9229,-0.0309
582101.0,0.7159,0.4932,5.9376,-0.6439,-2.8931,-0.0154
582111.0,1.1756,0.0168,5.0302,-0.7811,-2.7526,-0.0208
582121.0,1.585,-0.4908,4.8052,-0.9222,-2.5531,-0.0527
582131.0,2.0327,-0.929,5.205,-0.9477,-2.304,-0.0915
582141.0,2.3104,-1.0846,5.8275,-0.8269,-2.0545,-0.1229
582151.0,2.4421,-1.1564,6.4811,-0.6359,-1.9018,-0.1368
582161.0,2.5546,-1.1109,6.3327,-0.4252,-1.8863,-0.1309
582171.0,2.9544,-0.972,5.5426,-0.2607,-1.9252,-0.1213
582181.0,3.3686,-0.838,4.3,-0.1511,-1.8842,-0.1048
582191.0,3.7589,-0.9625,3.1723,-0.1096,-1.7113,-0.0889
582201.0,4.1755,-1.1133,2.6001,-0.1543,-1.4457,-0.0979
582211.0,4.3503,-1.391,2.739,-0.2554,-1.1435,-0.1298
582221.0,4.4652,-1.7214,3.6296,-0.29,-0.8562,-0.1681
582231.0,4.4819,-1.7813,4.2569,-0.2049,-0.6561,-0.2134
582241.0,4.4748,-1.6568,4.5657,-0.0692,-0.5502,-0.2565
582251.0,4.64,-1.2546,4.2713,0.1394,-0.4512,-0.2841
582261.0,4.8219,-0.826,3.7062,0.3448,-0.298,-0.2937
582271.0,4.8961,-0.2107,2.8898,0.481,-0.0905,-0.299
582281.0,4.561,0.3112,2.5714,0.4917,0.174,-0.29
582291.0,4.549,0.2107,2.7725,0.489,0.5098,-0.2559
582301.0,4.367,0.0551,3.4237,0.5034,0.8626,-0.2357
582311.0,4.0199,-0.0048,4.3694,0.4874,1.1307,-0.2389
582321.0,3.7781,0.067,5.0925,0.4837,1.2978,-0.2512
582331.0,3.5937,0.2682,5.4731,0.531,1.4324,-0.2613
582341.0,3.292,0.5698,5.7557,0.589,1.59,-0.2671
582351.0,2.9664,0.7973,6.268,0.6284,1.7618,-0.2613
582361.0,2.6552,1.1277,6.5266,0.6465,1.8996,-0.2538
582371.0,2.2314,1.4748,6.79,0.5779,1.9805,-0.2474
582381.0,1.7933,1.4413,7.1539,0.455,2.0524,-0.2214
582391.0,1.6113,1.1444,7.7237,0.3884,2.162,-0.19
582401.0,1.3288,0.9385,8.0373,0.331,2.228,-0.1836
582411.0,0.9744,0.7566,8.2744,0.2357,2.2466,-0.2022
582421.0,0.7326,0.7135,8.3438,0.1995,2.3253,-0.2272
582431.0,0.2921,1.0367,8.3725,0.1985,2.4631,-0.2533
582441.0,-0.2586,1.5802,8.5138,0.1373,2.5877,-0.2671
582451.0,-0.9122,2.2529,8.5473,0.0218,2.6696,-0.2501
582461.0,-1.7669,2.411,8.7269,-0.1517,2.7398,-0.1852
582471.0,-2.7222,1.4629,9.2727,-0.2512,2.875,-0.074
582481.0,-3.2082,-0.4286,10.6973,-0.1373,3.1443,0.0144
582491.0,-3.5099,-1.913,12.6414,0.1634,3.4353,-0.0202
582501.0,-3.8044,-2.5091,15.117,0.4997,3.5822,-0.1979
582511.0,-4.5657,-1.5897,16.9126,0.7875,3.479,-0.4629
582521.0,-5.1667,0.0742,17.9206,0.8524,3.1336,-0.7098
582531.0,-5.3558,1.7741,18.5503,0.6593,2.6627,-0.8796
582541.0,-5.6479,3.3974,18.7825,0.3288,2.1747,-0.9583
582551.0,-5.9903,4.5466,18.9381,-0.1075,1.6666,-0.9466
582561.0,-6.1339,5.023,19.1464,-0.48,1.1988,-0.8375
582571.0,-6.2513,4.9057,19.3547,-0.6433,0.8477,-0.646
582581.0,-6.2513,4.3431,19.7402,-0.6928,0.4938,-0.4395
582591.0,-6.2201,3.7781,19.8168,-0.6364,0.0835,-0.2458
582601.0,-5.952,3.0502,19.3882,-0.4789,-0.3331,-0.0639
582611.0,-5.6336,2.2386,18.4737,-0.3358,-0.7444,0.0724
582621.0,-5.3056,1.64,17.2095,-0.2943,-1.1424,0.1415
582631.0,-4.9009,1.1301,16.1202,-0.3177,-1.4548,0.1591
582641.0,-4.5322,0.9553,14.9039,-0.3618,-1.6724,0.1415
582651.0,-4.3766,0.8116,14.4227,-0.48,-1.8518,0.1059
582661.0,-4.0773,0.6201,14.2,-0.5438,-2.0188,0.0825
582671.0,-3.8618,0.2538,14.224,-0.4752,-2.1519,0.0798
582681.0,-3.5267,0.0096,13.9773,-0.3395,-2.3333,0.0809
582691.0,-3.0622,-0.2945,13.228,-0.2474,-2.6042,0.0686
582701.0,-2.3942,-0.4549,11.6167,-0.2123,-2.8904,0.033
582711.0,-1.7358,-0.4022,9.6941,-0.2724,-3.0804,-0.0282
582721.0,-1.154,-0.2562,7.774,-0.4257,-3.1373,-0.0984
582731.0,-0.6847,-0.3567,6.3877,-0.6508,-3.0666,-0.1655
582741.0,-0.0838,-0.723,5.5498,-0.8439,-2.8793,-0.2325
582751.0,0.6656,-1.3886,5.4013,-0.9285,-2.5903,-0.3028
582761.0,1.1732,-1.8387,5.8945,-0.8642,-2.2657,-0.3959
582771.0,1.4485,-1.585,6.2848,-0.6534,-1.9986,-0.497
582781.0,1.5874,-0.9074,6.3494,-0.3661,-1.7911,-0.5614
582791.0,1.6975,-0.0263,6.2034,-0.0851,-1.5953,-0.5624
582801.0,1.992,0.4573,6.2632,0.1517,-1.3659,-0.4949
582811.0,2.2051,0.6129,6.2201,0.2804,-1.1855,-0.4065
582821.0,2.7007,0.3903,6.3614,0.2442,-1.0781,-0.3453
582831.0,2.8228,0.3136,6.4165,0.132,-0.9855,-0.3225
582841.0,2.8036,0.1987,6.8857,-0.0112,-0.8977,-0.3171
582851.0,2.9113,0.2346,7.4172,-0.0798,-0.8317,-0.3124
582861.0,3.0263,0.4764,7.6567,-0.0809,-0.7854,-0.299
582871.0,2.9329,0.7087,7.7261,-0.1208,-0.7944,-0.2708
582881.0,2.9377,0.7111,7.6351,-0.1995,-0.8524,-0.2267
582891.0,3.0981,0.2346,7.2353,-0.2597,-0.8902,-0.1713
582901.0,3.4548,-0.5387,6.9456,-0.2389,-0.8338,-0.1383
582911.0,3.6224,-0.9912,6.6487,-0.1532,-0.7029,-0.1607
582921.0,3.7733,-1.2905,6.8714,-0.0681,-0.5236,-0.2219
582931.0,3.7972,-0.9242,6.9983,0.0484,-0.364,-0.3038
582941.0,3.7828,-0.1556,7.2401,0.074,-0.2799,-0.3831
582951.0,3.6368,0.7566,7.4651,0.0601,-0.2379,-0.4161
582961.0,3.4285,1.5514,7.3454,0.0351,-0.2091,-0.3789
582971.0,3.4213,1.7741,7.2664,-0.0724,-0.2256,-0.2948
582981.0,3.5386,1.5083,7.0437,-0.1804,-0.2528,-0.1932
582991.0,3.7302,1.1157,6.8929,-0.1974,-0.199,-0.108
583001.0,3.7014,0.8045,6.948,-0.0521,-0.0293,-0.0362
583011.0,3.6152,0.68,7.003,0.2166,0.1799,0.0282
583021.0,3.644,1.0104,6.6966,0.4816,0.348,0.0782
583031.0,3.6368,1.47,6.3303,0.588,0.4933,0.1208
583041.0,3.4046,1.8914,6.1459,0.5188,0.622,0.1697
583051.0,3.1316,1.8316,6.1052,0.3347,0.7184,0.2331
583061.0,3.0885,1.0319,6.177,0.1713,0.8344,0.2985
583071.0,3.1436,-0.0934,6.4596,0.1272,1.0477,0.3251
583081.0,2.8228,-0.8332,7.0773,0.1857,1.3138,0.281
583091.0,2.557,-0.9577,7.8578,0.2799,1.5112,0.1884
583101.0,2.1715,-0.6177,8.3582,0.4001,1.6405,0.0894
583111.0,1.8076,0.0694,8.6957,0.4943,1.732,0.0112
583121.0,1.5634,0.7925,8.9112,0.4954,1.7682,-0.0341
583131.0,1.324,1.4509,8.9926,0.3751,1.7299,-0.0537
583141.0,1.1468,2.0877,8.6838,0.2363,1.6964,-0.0415
583151.0,0.4741,2.5522,8.2528,0.1219,1.7576,0.0186
583161.0,0.3519,1.9992,8.5042,0.0495,1.9411,0.1261
583171.0,0.0144,1.3312,9.098,0.058,2.1652,0.2118
583181.0,-0.3567,0.5483,10.0556,0.0585,2.3115,0.2506
583191.0,-0.4334,-0.0862,10.6183,0.0899,2.3461,0.2426
583201.0,-0.5794,-0.4477,10.5034,0.0905,2.3088,0.1836
583211.0,-0.6776,-0.2203,9.8761,0.0197,2.27,0.0766
583221.0,-1.0175,0.9026,8.4731,-0.1309,2.2833,-0.0404
583231.0,-2.4636,2.4325,7.2089,-0.4204,2.4004,-0.107
583241.0,-4.039,2.5905,7.671,-0.646,2.7888,-0.0165
583251.0,-4.3838,0.3879,11.0109,-0.447,3.5077,0.1953
583261.0,-4.9775,-1.7071,15.3732,0.0889,4.0872,0.2969
583271.0,-5.3534,-2.6743,19.8767,0.4725,3.9892,0.1873
583281.0,-5.4324,-2.1979,22.0362,0.8104,3.3693,-0.0144
583291.0,-5.4492,-1.0582,22.0267,1.0312,2.6026,-0.2118
583301.0,-5.2768,0.3232,20.7314,0.9743,1.8459,-0.3879
583311.0,-5.1643,1.7358,19.0698,0.6183,1.1919,-0.5475
583321.0,-5.2433,3.2274,17.425,0.0835,0.6949,-0.6635
583331.0,-5.7557,4.1946,16.9246,-0.4768,0.4129,-0.6827
583341.0,-5.8873,3.9624,17.7506,-0.7987,0.2847,-0.5688
583351.0,-5.8634,3.1508,18.6915,-0.8179,0.1171,-0.4145
583361.0,-5.6024,2.3128,19.259,-0.6678,-0.1772,-0.2847
583371.0,-5.4061,2.0327,19.0315,-0.4278,-0.5385,-0.1905
583381.0,-5.2672,2.0997,18.0092,-0.2102,-0.9291,-0.1203
583391.0,-4.8483,2.3272,16.35,-0.1208,-1.3042,-0.0665
583401.0,-4.4029,2.4397,14.7172,-0.1846,-1.5713,-0.0261
583411.0,-4.0893,2.3822,13.3165,-0.3496,-1.731,0.0011
583421.0,-3.8044,2.15,12.469,-0.5577,-1.815,0.0133
583431.0,-3.4668,1.7454,12.1769,-0.7104,-1.8315,0.0223
583441.0,-3.2274,1.3479,12.2152,-0.7657,-1.8315,0.0245
583451.0,-3.0454,1.0319,12.615,-0.7716,-1.8762,0.0202
583461.0,-2.806,0.929,13.0029,-0.6758,-1.956,0.0223
583471.0,-2.7749,1.063,12.7731,-0.5444,-2.1263,0.0394
583481.0,-2.5929,1.1133,12.0452,-0.5119,-2.411,0.0601
583491.0,-2.2146,1.1181,10.5848,-0.4922,-2.6536,0.0873
583501.0,-1.8028,1.0151,9.1866,-0.4613,-2.7212,0.1203
583511.0,-1.4724,0.8954,8.1618,-0.4257,-2.635,0.1522
583521.0,-1.0798,0.5243,7.829,-0.4124,-2.4701,0.1809
583531.0,-0.7087,0.079,8.1834,-0.3709,-2.2796,0.1995
583541.0,-0.486,-0.3017,9.1363,-0.2831,-2.129,0.2043
583551.0,-0.2825,-0.4621,9.991,-0.1288,-2.0971,0.2027
583561.0,-0.2083,-0.3424,9.9671,-0.016,-2.2333,0.1932
583571.0,-0.103,-0.2586,9.2895,-0.0197,-2.4674,0.1852
583581.0,0.2586,-0.3065,8.023,-0.0803,-2.6579,0.1809
583591.0,0.5746,-0.5195,6.8307,-0.1495,-2.7047,0.1724
583601.0,1.0511,-0.8356,5.8778,-0.2107,-2.6425,0.1532
583611.0,1.7095,-1.1013,5.138,-0.2841,-2.5297,0.1086
583621.0,2.557,-1.4174,4.5633,-0.3682,-2.3754,0.0431
583631.0,2.9353,-1.5179,4.197,-0.4794,-2.2109,-0.0559
583641.0,3.1029,-1.2498,4.1037,-0.5811,-2.0417,-0.165
583651.0,3.541,-0.9385,4.4939,-0.5816,-1.8395,-0.2395
583661.0,3.5171,-0.4118,4.64,-0.4321,-1.6426,-0.2554
583671.0,3.4668,0.0072,4.549,-0.2347,-1.5144,-0.215
583681.0,3.9337,-0.079,4.0558,-0.0186,-1.3915,-0.1304
583691.0,4.4245,-0.3663,3.5314,0.1719,-1.201,-0.0468
583701.0,4.7621,-0.7446,3.3279,0.3129,-0.9466,0.0011
583711.0,4.9105,-0.9457,3.1819,0.3501,-0.7098,-0.0021
583721.0,5.0661,-1.0056,3.2609,0.2634,-0.5316,-0.0442
583731.0,5.0566,-0.7949,3.1843,0.0692,-0.4182,-0.1128
583741.0,5.0446,-0.5674,3.2585,-0.1586,-0.3262,-0.174
583751.0,5.0494,-0.3352,3.3208,-0.2692,-0.1974,-0.1995
583761.0,5.126,-0.0407,3.0957,-0.1809,0.0043,-0.1836
583771.0,4.9919,0.2945,2.624,0.0234,0.2756,-0.132
583781.0,4.9752,0.2227,2.4756,0.2852,0.654,-0.0532
583791.0,4.8052,-0.0503,2.7174,0.588,1.1297,0.0181
583801.0,4.616,-0.2322,3.3495,0.7769,1.557,0.0378
583811.0,4.2904,-0.1293,4.2689,0.7992,1.8539,0.0074
583821.0,3.7685,0.2873,4.944,0.6971,2.0279,-0.0362
583831.0,3.1651,0.668,5.5138,0.5055,2.1162,-0.0585
583841.0,2.8802,0.5195,6.1746,0.3326,2.195,-0.0474
583851.0,2.6719,0.2825,6.6391,0.3267,2.3386,-0.0255
583861.0,2.1069,0.3519,6.8738,0.4055,2.5366,-0.0234
583871.0,1.5179,0.5339,7.6207,0.4938,2.768,-0.0298
583881.0,0.8739,0.7566,8.7628,0.6401,3.0229,-0.0202
583891.0,0.2155,1.0343,9.9335,0.7482,3.1879,0.0005
583901.0,-0.1437,1.1875,10.8218,0.6332,3.1246,0.0074
583911.0,-0.261,1.1803,11.3078,0.2953,2.8468,-0.0106
583921.0,-0.3112,1.5275,10.3669,-0.0532,2.5334,-0.0346
583931.0,-1.0319,2.2745,8.7029,-0.3523,2.3817,-0.0431
583941.0,-2.2529,2.6959,7.4747,-0.5412,2.5536,0.0234
583951.0,-3.0957,1.6472,8.6024,-0.489,3.1134,0.1772
583961.0,-3.9073,0.2586,11.2456,-0.1942,3.7503,0.3102
583971.0,-4.7238,-1.2306,15.524,0.0686,4.0558,0.3459
583981.0,-4.6591,-2.0183,18.5503,0.3581,3.861,0.2905
583991.0,-4.7788,-2.2003,20.0562,0.5454,3.3411,0.158
584001.0,-4.6184,-1.8052,20.0514,0.5992,2.6925,-0.0181
584011.0,-4.3838,-0.8499,18.8759,0.5305,2.1199,-0.2033
584021.0,-4.2114,0.5004,17.0156,0.2783,1.6724,-0.3815
584031.0,-4.4556,2.0734,15.1409,-0.2102,1.367,-0.5273
584041.0,-5.4372,3.2896,14.5974,-0.796,1.284,-0.5715
584051.0,-5.612,2.1955,17.0395,-1.0844,1.4995,-0.4406
584061.0,-5.7006,0.565,20.1041,-0.8854,1.6511,-0.2868
584071.0,-5.5857,-0.3208,22.4624,-0.6103,1.3069,-0.2474
584081.0,-5.2816,-0.4022,22.9508,-0.2889,0.6375,-0.2645
584091.0,-5.0589,0.1221,21.3323,0.0016,-0.0553,-0.2916
584101.0,-4.4628,0.6297,19.0387,0.0128,-0.6683,-0.3443
584111.0,-4.0534,1.4102,16.3739,-0.19,-1.1031,-0.4156
584121.0,-3.9816,4.6615,12.5073,-0.3586,-1.2856,-0.3922
584131.0,-4.1659,1.6089,13.9917,-1.0137,-1.3611,-0.3634
584141.0,-3.0119,1.7885,12.1147,-1.2888,-1.5426,-0.3602
584151.0,-3.6871,0.4094,13.4027,-1.2978,-1.2819,-0.3257
584161.0,-2.7653,-0.3232,13.2136,-1.0328,-1.2313,-0.3054
584171.0,-2.624,-1.0726,14.2096,-0.8141,-1.2664,-0.357
584181.0,-2.2075,-0.7159,13.1466,-0.4975,-1.4426,-0.4284
584191.0,-2.0877,-0.3472,12.3182,-0.3416,-1.583,-0.5076
584201.0,-1.8483,0.4501,11.0038,-0.29,-1.6788,-0.572
584211.0,-1.5347,1.0822,10.3262,-0.3986,-1.7086,-0.6215
584221.0,-1.4653,1.7334,9.8545,-0.5438,-1.7118,-0.6407
584231.0,-1.3623,2.1404,9.6917,-0.7306,-1.756,-0.6194
584241.0,-1.1612,2.3343,9.5553,-0.8386,-1.8124,-0.5555
584251.0,-0.8882,2.3176,9.4044,-0.7817,-1.7804,-0.4454
584261.0,-0.7183,2.1572,9.6558,-0.6013,-1.6597,-0.3038
584271.0,-0.5722,1.6903,10.2927,-0.373,-1.5676,-0.149
584281.0,-0.407,1.3024,10.4124,-0.133,-1.5947,-0.0101
584291.0,-0.2011,0.9625,10.0389,0.0138,-1.7193,0.0968
584301.0,0.0862,0.5555,9.493,0.0894,-1.8209,0.1793
584311.0,0.3591,0.2035,9.1842,0.1713,-1.8049,0.2309
584321.0,0.5483,0.0646,9.1099,0.241,-1.7448,0.257
584331.0,0.6345,-0.0646,9.1339,0.1841,-1.7709,0.2517
584341.0,0.9481,-0.2514,9.0142,0.0303,-1.9002,0.2293
584351.0,1.2641,-0.6105,8.8394,-0.1128,-2.0242,0.1969
584361.0,1.4892,-0.9098,8.5688,-0.1713,-2.0885,0.1511
584371.0,1.6783,-1.0798,8.3582,-0.1378,-2.1114,0.0942
584381.0,1.9992,-1.0199,7.9727,-0.0197,-2.1178,0.0378
584391.0,2.1691,-0.6033,7.3047,0.1075,-2.1109,-0.0138
584401.0,2.2936,-0.0527,6.5266,0.1788,-2.0816,-0.0431
584411.0,2.5522,0.4381,5.6743,0.207,-2.0045,-0.0378
584421.0,2.9736,0.5387,5.0733,0.2112,-1.8507,-0.0021
584431.0,3.2896,0.3855,5.0996,0.2118,-1.6315,0.0388
584441.0,3.4716,0.0287,5.6838,0.3033,-1.3681,0.0809
584451.0,3.6823,-0.1867,6.1842,0.4938,-1.1494,0.1091
584461.0,3.893,-0.0431,6.1579,0.5539,-1.1089,0.0963
584471.0,4.118,0.2849,5.6623,0.3959,-1.2281,0.058
584481.0,4.4652,0.6201,4.5753,0.2054,-1.3026,0.0335
584491.0,4.549,1.0151,3.3136,0.0835,-1.2026,0.0367
584501.0,4.6855,1.2067,2.5163,-0.0165,-0.9493,0.0713
584511.0,4.8147,1.1684,2.3846,-0.0708,-0.6066,0.1277
584521.0,4.9033,0.8715,2.5905,-0.0383,-0.2304,0.1979
584531.0,4.877,0.5626,2.9664,0.0527,0.1133,0.2581
584541.0,4.8602,0.2969,3.4812,0.1809,0.4225,0.298
584551.0,4.8507,0.2849,3.8164,0.34,0.7077,0.3209
584561.0,4.6615,0.4836,4.0965,0.4454,0.9472,0.3331
584571.0,4.4796,0.8092,4.3096,0.4784,1.1334,0.3459
584581.0,4.0558,1.2378,4.1851,0.4464,1.3127,0.3719
584591.0,3.7757,1.0271,4.7453,0.3645,1.5474,0.4278
584601.0,3.5482,0.6153,5.7197,0.3437,1.814,0.4837
584611.0,3.1149,0.2179,6.9791,0.3863,2.0151,0.5108
584621.0,2.8132,0.0192,7.8314,0.4688,2.0885,0.5183
584631.0,2.6384,0.1077,8.3294,0.5348,2.0838,0.506
584641.0,2.4253,0.3615,8.4635,0.5869,2.0875,0.4954
584651.0,2.1261,0.668,8.5808,0.5608,2.1024,0.4917
584661.0,1.7717,0.814,8.6598,0.4284,2.0768,0.5002
584671.0,1.5586,0.4932,8.825,0.2783,2.0593,0.5225
584681.0,1.3431,-0.0192,8.8729,0.1777,2.0976,0.5321
584691.0,1.1492,-0.6488,9.2296,0.1075,2.1849,0.5076
584701.0,0.9313,-0.8715,9.6295,0.0511,2.2673,0.4374
584711.0,0.6704,-0.7446,10.161,-0.0266,2.3104,0.3464
584721.0,0.3496,-0.3376,10.6494,-0.1346,2.286,0.2724
584731.0,0.0599,0.091,10.7955,-0.2836,2.1668,0.2379
584741.0,-0.1437,0.4214,10.2161,-0.4741,1.9731,0.2453
584751.0,-0.5986,0.6081,9.1315,-0.6337,1.8528,0.29
584761.0,-0.8571,0.0287,8.6335,-0.6173,2.0396,0.389
584771.0,-1.2498,-0.7039,9.2464,-0.4097,2.4765,0.4837
584781.0,-1.9082,-1.4413,11.1306,-0.199,2.8516,0.5263
584791.0,-2.2889,-1.7789,12.6581,-0.0388,2.949,0.5199
584801.0,-2.4995,-1.9656,13.453,0.0011,2.8234,0.4773
584811.0,-2.6432,-1.901,13.4219,-0.066,2.618,0.4087
584821.0,-2.8898,-1.4461,12.9431,-0.2347,2.4387,0.3198
584831.0,-3.7541,-0.4669,12.2104,-0.4789,2.3179,0.2373
584841.0,-4.7669,-0.2107,12.3086,-0.6811,2.362,0.2379
584851.0,-5.0589,-1.6688,14.303,-0.5704,2.6803,0.3246
584861.0,-5.3726,-3.0933,17.1305,-0.1953,2.9729,0.339
584871.0,-5.5809,-3.5793,19.8312,0.0894,2.8175,0.2022
584881.0,-5.5545,-3.0885,20.9541,0.2559,2.2663,-0.0144
584891.0,-5.4971,-2.0327,20.4106,0.2911,1.6187,-0.2315
584901.0,-5.4851,-0.7997,19.3811,0.1272,1.0477,-0.4257
584911.0,-5.5019,0.4884,18.3635,-0.1602,0.5875,-0.5747
584921.0,-5.7868,1.5514,17.5184,-0.4922,0.2219,-0.6572
584931.0,-6.1028,2.2098,17.1401,-0.7891,-0.0702,-0.6561
584941.0,-5.9328,1.7885,17.8512,-0.8918,-0.24,-0.5683
584951.0,-5.8131,1.221,18.4641,-0.7088,-0.3879,-0.4608
584961.0,-5.6814,1.008,18.7227,-0.4778,-0.7247,-0.3932
584971.0,-5.3271,1.245,17.8871,-0.2448,-1.1781,-0.3406
584981.0,-5.0973,1.6999,16.2566,-0.0596,-1.5527,-0.281
584991.0,-4.7477,2.0303,14.9159,0.0112,-1.7932,-0.2139
585001.0,-4.537,2.411,13.9366,0.0106,-1.938,-0.1426
585011.0,-4.4077,2.66,13.034,-0.0708,-2.0736,-0.0628
585021.0,-4.2545,2.5714,12.3253,-0.257,-2.246,0.025
585031.0,-3.9217,2.138,11.8154,-0.4198,-2.3897,0.1165
585041.0,-3.6272,1.5754,11.4586,-0.4539,-2.4392,0.2059
585051.0,-3.3686,0.9002,11.315,-0.3783,-2.4408,0.2852
585061.0,-2.9688,0.3639,11.2934,-0.2464,-2.4626,0.339
585071.0,-2.4493,0.0168,11.0181,-0.0873,-2.5137,0.3735
585081.0,-2.1141,-0.2442,10.4004,0.0101,-2.5925,0.3837
585091.0,-1.8052,-0.4429,9.7276,-0.0181,-2.7053,0.3672
585101.0,-1.5107,-0.4717,9.2081,-0.0862,-2.7867,0.3304
585111.0,-1.1349,-0.5435,8.6503,-0.1405,-2.8213,0.2996
585121.0,-0.9361,-0.5555,8.2768,-0.1713,-2.826,0.2714
585131.0,-0.5962,-0.7111,7.6495,-0.2187,-2.8399,0.2485
585141.0,-0.103,-0.972,7.0485,-0.2788,-2.8298,0.2219
585151.0,0.316,-1.0295,6.5434,-0.3006,-2.7633,0.1862
585161.0,0.8308,-0.9002,6.2297,-0.265,-2.6611,0.1596
585171.0,1.3719,-0.8164,5.9328,-0.1612,-2.5094,0.157
585181.0,1.6376,-0.5818,5.43,-0.0734,-2.361,0.1719
585191.0,1.9154,-0.6057,5.1763,-0.0883,-2.2519,0.2001
585201.0,2.4493,-0.8547,4.8243,-0.1325,-2.1513,0.2304
585211.0,2.8132,-1.0319,4.4867,-0.1554,-2.0204,0.2416
585221.0,3.1867,-1.2139,4.2258,-0.1235,-1.8422,0.2501
585231.0,3.5195,-1.3001,4.1731,-0.0101,-1.6033,0.2602
585241.0,3.7445,-1.2713,4.1468,0.1474,-1.3585,0.274
585251.0,3.9792,-1.3192,4.2545,0.2953,-1.1345,0.2932
585261.0,4.1635,-1.221,4.2377,0.4204,-0.9429,0.3076
585271.0,4.3096,-1.2881,4.4365,0.4624,-0.7913,0.3139
585281.0,4.6184,-1.3408,4.4341,0.4757,-0.6859,0.3108
585291.0,4.7932,-1.3168,4.118,0.4454,-0.5992,0.2847
585301.0,4.8004,-1.1133,3.5937,0.3922,-0.4869,0.249
585311.0,4.786,-0.8619,3.4692,0.3512,-0.2932,0.224
585321.0,4.6711,-0.5363,3.7421,0.4033,-0.0197,0.2251
585331.0,4.4796,-0.3615,4.2329,0.5353,0.2533,0.2591
585341.0,4.4484,-0.3974,4.628,0.6561,0.4369,0.2975
585351.0,4.4676,-0.4334,4.707,0.6981,0.5087,0.307
585361.0,4.4388,-0.4142,4.3455,0.6715,0.5364,0.2836
585371.0,4.5274,-0.3663,3.7373,0.6444,0.6146,0.2432
585381.0,4.4796,-0.0694,3.0909,0.6641,0.8237,0.1932
585391.0,4.1611,0.4429,2.818,0.7253,1.1664,0.1554
585401.0,3.5099,0.9529,2.9904,0.8168,1.5692,0.158
585411.0,3.146,1.0918,3.7014,0.9083,1.9709,0.1948
585421.0,2.8395,1.1827,4.3383,0.9594,2.3099,0.2315
585431.0,2.3535,1.1372,5.2888,0.8636,2.5499,0.2501
585441.0,2.0279,0.9649,6.2177,0.6699,2.6904,0.2522
585451.0,1.6281,0.6033,7.1611,0.4395,2.7595,0.2357
585461.0,1.2115,0.2729,7.58,0.2277,2.7622,0.2001
585471.0,0.6177,-0.0335,8.0637,0.0479,2.7643,0.1522
585481.0,0.0215,-0.2849,8.6239,0.008,2.8292,0.1208
585491.0,-0.4238,-0.4741,9.6438,0.1676,2.9644,0.1016
585501.0,-0.8308,-0.4693,10.3286,0.4071,3.0495,0.0809
585511.0,-1.0487,-0.5459,10.6805,0.5672,3.0394,0.0415
585521.0,-1.2234,-0.3496,10.4411,0.6295,2.9921,-0.0309
585531.0,-1.5323,0.0335,10.1179,0.555,2.9761,-0.1219
585541.0,-1.9752,0.6129,9.7013,0.3656,3.0016,-0.215
585551.0,-2.9257,1.4389,9.4739,0.0958,3.0639,-0.281
585561.0,-4.039,1.6472,10.1658,-0.1501,3.2044,-0.2703
585571.0,-4.4772,0.929,12.4427,-0.124,3.4976,-0.1894
585581.0,-4.9967,0.3711,14.88,0.1368,3.6865,-0.1277
585591.0,-5.2696,0.1628,17.0012,0.3411,3.5077,-0.1368
585601.0,-5.2481,0.6393,17.5974,0.5199,3.1001,-0.1846
585611.0,-5.3223,1.4389,17.1784,0.5587,2.6558,-0.24
585621.0,-5.2553,2.4565,16.2351,0.4129,2.2386,-0.2937
585631.0,-5.3846,3.6847,15.2152,0.149,1.9305,-0.3187
585641.0,-6.213,4.7836,14.5615,-0.1623,1.757,-0.2751
585651.0,-6.6439,4.6687,15.2199,-0.3879,1.732,-0.1229
585661.0,-6.6367,3.5099,16.9701,-0.3868,1.7645,0.0697
585671.0,-6.5817,2.2769,18.6796,-0.2512,1.6421,0.199
585681.0,-6.5122,1.5921,19.6971,-0.1751,1.2324,0.2224
585691.0,-6.3782,1.4653,19.6396,-0.1607,0.6641,0.182
585701.0,-6.1794,1.7382,18.567,-0.1788,0.1298,0.1261
585711.0,-5.928,2.15,17.279,-0.2815,-0.2836,0.0713
585721.0,-5.6743,2.5977,16.0866,-0.4661,-0.5976,0.033
585731.0,-5.5282,2.9353,15.0978,-0.7024,-0.8599,0.0192
585741.0,-5.4157,3.0765,14.1593,-0.9248,-1.0834,0.0404
585751.0,-5.2433,2.885,13.4051,-1.0451,-1.2164,0.1048
585761.0,-5.0542,2.3703,12.9287,-1.0185,-1.2377,0.1963
585771.0,-4.9225,1.8268,12.7228,-0.9009,-1.2356,0.2852
585781.0,-4.5921,1.3767,12.3062,-0.7497,-1.2819,0.3533
585791.0,-4.2904,1.257,11.564,-0.6151,-1.3415,0.3932
585801.0,-3.9217,1.2115,10.8793,-0.5454,-1.3681,0.4177
585811.0,-3.6871,1.1181,10.3765,-0.5295,-1.3542,0.4443
585821.0,-3.4524,0.7829,10.2448,-0.5539,-1.3122,0.4656
585831.0,-3.2537,0.431,10.6518,-0.5699,-1.2467,0.4699
585841.0,-3.1508,0.1987,11.4539,-0.5438,-1.1973,0.4597
585851.0,-3.0478,-0.0958,12.5241,-0.4816,-1.2292,0.4502
585861.0,-2.8587,-0.1197,12.8401,-0.4507,-1.4415,0.423
585871.0,-2.6671,-0.182,12.5241,-0.5672,-1.806,0.3746
585881.0,-2.3391,-0.1197,11.4802,-0.6933,-2.1503,0.3288
585891.0,-2.1835,0.0599,10.3765,-0.7609,-2.3434,0.307
585901.0,-2.1476,0.0646,9.3111,-0.7455,-2.4089,0.3225
585911.0,-1.822,-0.261,8.6933,-0.6316,-2.3349,0.3656
585921.0,-1.47,-0.431,8.2887,-0.4534,-2.17,0.4049
585931.0,-1.2426,-0.5291,8.4779,-0.3868,-2.0571,0.4172
585941.0,-0.9625,-0.565,8.5545,-0.4023,-2.0683,0.422
585951.0,-0.6273,-0.7159,8.2935,-0.439,-2.1338,0.4294
585961.0,-0.3783,-0.8212,7.6327,-0.4784,-2.1939,0.4369
585971.0,-0.1724,-1.0511,7.0749,-0.4858,-2.1854,0.4464
585981.0,0.2825,-1.2857,6.596,-0.3693,-2.0758,0.464
585991.0,0.656,-1.4629,6.3901,-0.1846,-1.8794,0.4762
586001.0,1.0127,-1.5323,6.5074,0.025,-1.6522,0.4842
586011.0,1.257,-1.549,6.4476,0.141,-1.5011,0.4741
586021.0,1.3982,-1.64,6.3829,0.0463,-1.4931,0.4331
586031.0,1.6999,-1.8316,6.1459,-0.1761,-1.566,0.3704
586041.0,2.047,-2.1476,5.8466,-0.3235,-1.582,0.2964
586051.0,2.3415,-2.3655,5.4229,-0.3033,-1.4857,0.2208
586061.0,2.6336,-2.375,4.9847,-0.1362,-1.284,0.1405
586071.0,2.8419,-2.1261,4.6208,0.1048,-1.0062,0.0612
586081.0,2.9784,-1.7119,4.4317,0.3214,-0.6987,-0.0069
586091.0,3.043,-1.2953,4.6448,0.4911,-0.3932,-0.0633
586101.0,3.1819,-0.7326,4.7836,0.6135,-0.1304,-0.0974
586111.0,3.1627,-0.2514,4.9799,0.5981,0.0591,-0.1235
586121.0,2.9712,0.237,5.0518,0.4778,0.1815,-0.132
586131.0,2.9521,0.4717,5.1858,0.3209,0.2852,-0.1155
586141.0,3.055,0.6153,5.0925,0.2512,0.4241,-0.0745
586151.0,2.8826,0.7278,4.6687,0.257,0.6135,-0.0271
586161.0,2.478,0.6369,4.4053,0.2586,0.8508,0.025
586171.0,2.3655,0.1413,4.7309,0.3225,1.1855,0.0766
586181.0,2.1763,-0.158,5.3295,0.4406,1.5453,0.0942
586191.0,1.8052,-0.3065,6.0932,0.4353,1.7671,0.0686
586201.0,1.6568,-0.4788,6.675,0.3363,1.8358,0.0213
586211.0,1.5347,-0.7254,6.9647,0.2735,1.898,-0.0314
586221.0,1.3695,-0.814,7.0964,0.3022,2.0438,-0.0931
586231.0,0.9026,-0.5411,7.1371,0.3523,2.2242,-0.1703
586241.0,-0.1173,0.0287,6.9719,0.3187,2.3477,-0.2389
586251.0,-0.9098,0.1556,7.5537,0.2767,2.5153,-0.257
586261.0,-1.2402,0.0575,8.4851,0.4566,2.8303,-0.2283
586271.0,-1.7741,-0.0479,9.5409,0.5821,3.0533,-0.216
586281.0,-1.8938,-0.3304,10.501,0.4699,2.9889,-0.2533
586291.0,-1.9249,-0.3424,10.4842,0.3177,2.8409,-0.3246
586301.0,-2.2505,-0.1508,9.8114,0.1112,2.7505,-0.414
586311.0,-2.8467,0.2705,9.0166,-0.174,2.701,-0.5087
586321.0,-4.0175,0.9457,8.0373,-0.4587,2.7186,-0.5704
586331.0,-4.9799,0.9888,8.2839,-0.5805,2.9979,-0.5396
586341.0,-5.3415,0.1341,11.0756,-0.2772,3.6391,-0.4326
586351.0,-6.0549,-0.3687,14.5903,0.2618,4.1441,-0.3586
586361.0,-6.3303,-0.7542,18.1313,0.5257,4.0036,-0.3799
586371.0,-6.0789,-0.7542,19.8551,0.6391,3.3763,-0.4592
586381.0,-5.9855,-0.5267,19.9078,0.6593,2.6622,-0.5646
586391.0,-6.0094,0.0287,18.9836,0.5784,2.0242,-0.6864
586401.0,-6.0621,0.996,17.6333,0.3868,1.5069,-0.8099
586411.0,-6.0908,2.1763,16.3021,0.0883,1.1142,-0.9009
586421.0,-6.4332,3.3447,15.2128,-0.2655,0.8402,-0.9264
586431.0,-7.0222,3.893,15.0428,-0.5646,0.7221,-0.853
586441.0,-6.9001,3.2657,16.1202,-0.6061,0.7636,-0.6768
586451.0,-6.845,2.6145,17.3795,-0.4369,0.7471,-0.5161
586461.0,-7.0844,2.4038,18.5239,-0.2687,0.4858,-0.4076
586471.0,-7.118,2.6001,18.409,-0.0756,0.0644,-0.3022
586481.0,-6.857,2.8491,17.6884,0.0245,-0.3613,-0.2038
586491.0,-6.6966,3.0622,16.8959,-0.0362,-0.745,-0.1181
586501.0,-6.7133,3.1819,16.429,-0.2304,-1.1057,-0.0474
586511.0,-6.4428,3.0909,16.3596,-0.3975,-1.4165,0.0346
586521.0,-6.3949,2.8683,16.2231,-0.447,-1.6788,0.1288
586531.0,-6.4045,2.5043,15.8424,-0.5002,-2.0359,0.2171
586541.0,-5.952,1.9178,15.0021,-0.5582,-2.46,0.2889
586551.0,-5.3941,1.47,13.5177,-0.5188,-2.7829,0.3469
586561.0,-5.0805,1.1444,11.9758,-0.4587,-2.9639,0.3895
586571.0,-4.7118,0.8954,10.5393,-0.4401,-3.0799,0.4145
586581.0,-4.221,0.6919,9.2129,-0.4464,-3.1208,0.4214
586591.0,-3.7038,0.4477,8.1714,-0.4592,-3.0517,0.4198
586601.0,-3.1388,0.0838,7.8865,-0.472,-2.8931,0.4049
586611.0,-2.7773,-0.0646,7.9775,-0.4635,-2.7329,0.3693
586621.0,-2.2266,-0.2753,8.4683,-0.3783,-2.5807,0.3395
586631.0,-1.8411,-0.2107,8.4707,-0.2543,-2.4929,0.3139
586641.0,-1.3001,-0.3184,8.5042,-0.2049,-2.485,0.29
586651.0,-0.7063,-0.2634,8.0637,-0.1559,-2.4775,0.2666
586661.0,-0.5219,-0.2203,7.8386,-0.1559,-2.4467,0.2426
586671.0,-0.2083,-0.1987,7.5202,-0.1458,-2.411,0.224
586681.0,0.1963,-0.1245,7.252,-0.1054,-2.336,0.2059
586691.0,0.5507,0.1245,6.778,-0.0931,-2.2684,0.1868
586701.0,0.6608,0.3496,6.3925,-0.1671,-2.2189,0.1681
586711.0,0.8954,0.4573,6.3398,-0.1761,-2.0971,0.1708
586721.0,1.2282,0.4477,6.7014,-0.0133,-1.847,0.2091
586731.0,1.4126,0.6943,7.0677,0.1815,-1.6373,0.2549
586741.0,1.5395,0.9433,7.4747,0.2522,-1.5798,0.3001
586751.0,1.7765,1.1851,7.2664,0.2623,-1.6134,0.3613
586761.0,1.9776,1.2665,6.7086,0.1783,-1.6708,0.4284
586771.0,2.3511,0.9146,6.1866,-0.0101,-1.7075,0.48
586781.0,3.158,0.2969,6.0501,-0.166,-1.6517,0.5039
586791.0,3.2034,-0.1508,6.0406,-0.2666,-1.5522,0.4837
586801.0,2.8611,-0.4214,6.1172,-0.3022,-1.4638,0.4443
586811.0,2.7509,-0.5626,6.5505,-0.1777,-1.3,0.4204
586821.0,2.806,-0.4693,7.2377,0.1309,-1.0664,0.4321
586831.0,2.9257,-0.2394,7.4891,0.4422,-0.9402,0.4683
586841.0,2.9257,0.0239,7.1275,0.4933,-1.0307,0.4874
586851.0,3.158,0.17,6.0741,0.3113,-1.2191,0.4954
586861.0,3.4333,0.0886,4.8243,0.033,-1.3313,0.4986
586871.0,3.7972,-0.1604,3.699,-0.1953,-1.284,0.5007
586881.0,4.13,-0.4908,2.7749,-0.3017,-1.0499,0.4975
586891.0,4.2449,-0.7494,2.4828,-0.3187,-0.6822,0.4869
586901.0,4.2593,-1.1325,3.1723,-0.2182,-0.2336,0.4789
586911.0,4.3072,-1.403,4.1156,0.0942,0.2118,0.4816
586921.0,4.2737,-1.4341,4.6448,0.4417,0.5332,0.4715
586931.0,4.1922,-1.3024,4.6615,0.655,0.7242,0.4374
586941.0,4.0725,-1.0534,4.379,0.7162,0.8599,0.3879
586951.0,3.7637,-0.7374,3.8786,0.6215,0.9605,0.3251
586961.0,3.3232,-0.4453,3.2058,0.4268,1.0594,0.2671
586971.0,3.2082,-0.7614,2.806,0.2341,1.2457,0.2331
586981.0,3.1819,-1.3144,2.7773,0.1894,1.599,0.1963
586991.0,2.897,-1.6759,3.2777,0.257,2.0396,0.1235
587001.0,2.3128,-1.6975,4.0749,0.3304,2.4227,0.0186
587011.0,1.5802,-1.3791,4.9512,0.4001,2.7143,-0.0867
587021.0,0.8092,-0.929,5.4779,0.4613,2.9229,-0.1612
587031.0,0.1293,-0.5938,5.7844,0.4459,3.0362,-0.2049
587041.0,-0.316,-0.5746,5.6192,0.3501,3.0868,-0.2304
587051.0,-0.8045,-0.917,5.4109,0.232,3.1921,-0.2543
587061.0,-1.3599,-1.573,5.5426,0.2288,3.455,-0.2921
587071.0,-2.0039,-2.1787,6.4691,0.3757,3.8669,-0.3714
587081.0,-2.6791,-2.1931,7.8769,0.6141,4.2745,-0.5023
587091.0,-3.7182,-1.6281,9.6007,0.8152,4.5389,-0.6577
587101.0,-4.6663,-0.4573,10.963,0.9653,4.6155,-0.7923
587111.0,-5.5641,1.0534,11.552,0.9796,4.5166,-0.879
587121.0,-6.7876,2.6384,11.212,0.8046,4.3208,-0.8929
587131.0,-8.0158,3.0981,11.5568,0.5672,4.2872,-0.7987
587141.0,-8.6287,2.3942,13.5248,0.5374,4.5623,-0.6385
587151.0,-8.9735,1.0606,17.5734,0.6949,4.8678,-0.53
587161.0,-9.3134,0.8715,21.4449,0.854,4.7299,-0.5481
587171.0,-9.4954,1.6017,24.6076,0.8237,4.0643,-0.6385
587181.0,-9.4188,2.6264,25.8502,0.7311,3.0905,-0.687
587191.0,-9.2656,3.5362,25.3546,0.6045,2.0492,-0.6763
587201.0,-8.8609,4.3814,23.4416,0.4028,1.0967,-0.6343
587211.0,-8.5018,4.9536,21.1767,0.108,0.3602,-0.5694
587221.0,-8.4803,5.4205,18.8496,-0.2224,-0.1687,-0.4837
587231.0,-8.5042,5.4899,16.9964,-0.5316,-0.5071,-0.3608
587241.0,-8.2384,4.7333,16.1154,-0.6423,-0.597,-0.1809
587251.0,-7.6375,3.3854,16.0603,-0.5295,-0.5337,0.0032
587261.0,-7.4364,2.2697,16.1441,-0.3815,-0.5853,0.107
587271.0,-7.0533,1.5419,15.7299,-0.2959,-0.821,0.1256
587281.0,-6.426,1.1708,14.6932,-0.2293,-1.0642,0.1027
587291.0,-6.0094,1.0965,13.6182,-0.2107,-1.2031,0.0495
587301.0,-5.6479,1.1732,12.7348,-0.298,-1.2989,-0.0245
587311.0,-5.3534,1.3192,12.1841,-0.4715,-1.392,-0.1032
587321.0,-5.217,1.4437,11.8561,-0.6242,-1.4532,-0.1634
587331.0,-4.9201,1.3144,11.9016,-0.6971,-1.467,-0.1916
587341.0,-4.5562,1.0247,12.1721,-0.7008,-1.4835,-0.2086
587351.0,-4.3622,0.9026,12.2344,-0.7035,-1.5761,-0.2389
587361.0,-4.1492,0.929,12.2032,-0.7157,-1.724,-0.274
587371.0,-3.9648,1.1444,11.8489,-0.6912,-1.8736,-0.2964
587381.0,-3.8044,1.415,11.3868,-0.6412,-1.9874,-0.2948
587391.0,-3.699,1.7526,10.7907,-0.5608,-2.0715,-0.2602
587401.0,-3.462,1.7933,10.2161,-0.4762,-2.1136,-0.1937
587411.0,-3.462,1.7933,10.2161,-0.4762,-2.1136,-0.1937
587421.0,-3.1005,1.7334,9.8306,-0.3714,-2.0987,-0.1101
587431.0,-2.7629,1.506,9.7588,-0.2794,-2.0401,-0.0309
587441.0,-2.5139,1.1875,9.8737,-0.2469,-2.0236,0.0314
587451.0,-2.3296,0.893,10.1323,-0.2836,-2.0901,0.0628
587461.0,-2.0925,0.6057,10.1107,-0.3549,-2.2508,0.0702
587471.0,-1.4557,0.2179,9.7181,-0.4156,-2.452,0.0585
587481.0,-1.2234,0.2083,8.7915,-0.4486,-2.635,0.0154
587491.0,-1.1253,0.498,7.5729,-0.4794,-2.7526,-0.0293
587501.0,-0.8092,0.6536,6.4548,-0.4624,-2.7287,-0.0367
587511.0,-0.328,0.7614,5.6431,-0.3858,-2.577,-0.0144
587521.0,0.1293,0.7111,5.2026,-0.2996,-2.37,0.017
587531.0,0.498,0.759,4.944,-0.2075,-2.1529,0.0511
587541.0,0.8045,0.6632,4.9991,-0.1229,-1.9321,0.0883
587551.0,1.087,0.4884,5.1978,-0.0495,-1.7256,0.1256
587561.0,1.4126,0.2705,5.4612,-0.0564,-1.6054,0.1383
587571.0,1.7262,-0.0814,5.9472,-0.1288,-1.5687,0.1176
587581.0,2.3056,-0.3687,6.268,-0.0878,-1.5139,0.0846
587591.0,2.5857,-0.237,6.3542,0.033,-1.4367,0.0341
587601.0,2.4636,0.0575,6.8187,0.1431,-1.3473,-0.0074
587611.0,2.4517,0.6009,7.2999,0.3395,-1.2483,-0.0032
587621.0,2.1668,1.1181,7.6399,0.4965,-1.2334,0.0399
587631.0,1.9321,1.4485,7.7045,0.555,-1.3393,0.1101
587641.0,2.1811,1.7286,7.0797,0.6045,-1.4553,0.2006
587651.0,2.3966,1.8387,5.9209,0.5497,-1.5405,0.2927
587661.0,2.7557,1.7047,4.6471,0.364,-1.5697,0.365
587671.0,3.0909,1.3934,3.6775,0.1479,-1.4665,0.415
587681.0,3.4381,0.6464,3.5841,0.0793,-1.1435,0.472
587691.0,3.9696,-0.1125,4.2617,0.2767,-0.622,0.5135
587701.0,4.0247,-0.4573,5.284,0.4906,-0.1969,0.506
587711.0,3.9121,-0.5483,6.1627,0.5821,-0.0202,0.4597
587721.0,3.9768,-0.2658,6.0382,0.6204,0.0117,0.4023
587731.0,3.8403,-0.0192,5.6288,0.5837,0.067,0.3586
587741.0,3.6775,0.1891,4.9608,0.4794,0.1666,0.3288
587751.0,3.7254,-0.0551,4.6376,0.3028,0.2996,0.3054
587761.0,4.0031,-0.5794,3.9887,0.1868,0.5071,0.2826
587771.0,4.2617,-1.4461,3.5099,0.0548,0.7955,0.2208
587781.0,4.1683,-2.2482,3.1077,-0.174,1.0562,0.0889
587791.0,3.6344,-2.8659,2.8802,-0.505,1.2324,-0.1027
587801.0,3.0406,-2.9233,2.1572,-0.7396,1.3899,-0.3187
587811.0,2.2098,-2.3535,0.2897,-0.895,1.5873,-0.5146
587821.0,1.8076,-1.8483,-2.0255,-1.1861,1.8374,-0.6577
587831.0,0.9409,-1.7813,-3.7014,-1.4686,2.369,-0.7279
587841.0,-0.7661,-2.1045,-3.2226,-1.35,3.3534,-0.7173
587851.0,-2.3391,-2.3559,-1.3719,-0.7285,4.516,-0.6747
587861.0,-4.3622,-2.2625,1.2522,0.0777,5.5164,-0.6625
587871.0,-6.4117,-1.8052,4.2473,0.8977,6.2885,-0.6657
587881.0,-8.2959,-0.7757,7.6351,1.6283,6.8094,-0.6827
587891.0,-10.0868,0.8715,10.422,2.1747,6.9776,-0.6939
587901.0,-11.1761,2.7533,12.4475,2.4525,6.8956,-0.6662
587911.0,-11.7388,3.5243,15.6509,2.4472,6.8132,-0.5859
587921.0,-11.88,3.4979,20.4848,2.3168,6.703,-0.5092
587931.0,-12.2344,3.7493,26.2021,1.988,6.1613,-0.506
587941.0,-11.8896,4.0558,30.0999,1.5208,4.9518,-0.5082
587951.0,-10.7524,3.9289,31.0432,1.0962,3.4241,-0.4768
587961.0,-10.5512,3.9217,28.8358,0.7178,1.9486,-0.4581
587971.0,-9.6606,3.9169,25.6012,0.2416,0.7242,-0.472
587981.0,-9.1028,3.8618,22.1488,-0.3257,-0.2395,-0.506
587991.0,-8.77,3.9145,18.6365,-0.7801,-0.8727,-0.5241
588001.0,-8.3606,3.6224,16.2854,-0.9653,-1.0754,-0.489
588011.0,-7.7189,3.0143,14.8464,-0.803,-0.9408,-0.39
588021.0,-7.3502,2.3104,14.188,-0.5715,-0.7902,-0.3092
588031.0,-6.7445,1.8914,13.4387,-0.4699,-0.845,-0.2841
588041.0,-6.0406,1.6664,12.5265,-0.415,-0.9381,-0.2889
588051.0,-5.5402,1.7573,11.6334,-0.34,-0.9296,-0.3076
588061.0,-5.1763,2.1691,10.7811,-0.3203,-0.8844,-0.331
588071.0,-4.8363,2.6312,10.24,-0.423,-0.878,-0.3469
588081.0,-4.6759,3.2106,9.7468,-0.5928,-0.8929,-0.3427
588091.0,-4.7381,3.3998,9.7396,-0.7247,-0.8418,-0.2911
588101.0,-4.5226,2.6169,10.6255,-0.6816,-0.6933,-0.1799
588111.0,-4.2497,1.5993,11.6789,-0.4645,-0.5901,-0.0809
588121.0,-4.0917,1.1372,11.9902,-0.2543,-0.7093,-0.049
588131.0,-3.7876,0.9888,11.3557,-0.1368,-0.9392,-0.0564
588141.0,-3.4979,1.0032,10.2735,-0.1293,-1.0967,-0.0873
588151.0,-3.1316,1.1229,9.1051,-0.2591,-1.1845,-0.1373
588161.0,-2.9137,1.3168,8.339,-0.4879,-1.2058,-0.2049
588171.0,-2.7581,1.6735,7.7548,-0.6917,-1.1424,-0.257
588181.0,-2.9425,1.9082,7.9583,-0.8248,-1.0147,-0.2698
588191.0,-3.0742,1.9106,8.1379,-0.7865,-0.879,-0.2246
588201.0,-2.8659,1.1229,8.497,-0.5837,-0.7056,-0.1352
588211.0,-2.5905,0.316,8.7939,-0.3262,-0.5406,-0.0809
588221.0,-2.5426,-0.0431,8.9112,-0.1777,-0.4656,-0.099
588231.0,-2.3942,-0.0982,8.7795,-0.1793,-0.4975,-0.1607
588241.0,-2.2529,-0.091,8.6048,-0.2522,-0.5103,-0.2304
588251.0,-2.2865,0.1125,8.4946,-0.3155,-0.4544,-0.2948
588261.0,-2.3343,0.2993,8.6862,-0.3714,-0.373,-0.3464
588271.0,-2.3607,0.5219,8.8107,-0.3852,-0.3092,-0.3751
588281.0,-2.4277,0.565,9.0573,-0.3916,-0.2629,-0.3852
588291.0,-2.399,0.6201,9.1482,-0.3672,-0.2139,-0.3852
588301.0,-2.4828,0.6488,9.4691,-0.2916,-0.1288,-0.3714
588311.0,-2.5642,0.7207,9.809,-0.1809,-0.0388,-0.3384
588321.0,-2.5857,0.7039,10.2999,-0.1006,0.0144,-0.2985
588331.0,-2.6025,0.7805,10.556,-0.075,-0.0032,-0.2666
588341.0,-2.5953,0.7949,10.8864,-0.1192,-0.0628,-0.2426
588351.0,-2.6719,0.8906,11.0971,-0.1681,-0.1266,-0.2187
588361.0,-2.7509,0.7661,11.4898,-0.2261,-0.1905,-0.1921
588371.0,-2.7318,0.5746,11.7268,-0.2538,-0.2873,-0.1719
588381.0,-2.7102,0.2035,12.0572,-0.2442,-0.3943,-0.1623
588391.0,-2.7725,0.0192,12.0045,-0.1979,-0.5087,-0.1692
588401.0,-2.727,-0.2322,12.0117,-0.1799,-0.6295,-0.1953
588411.0,-2.6624,-0.1101,11.6574,-0.174,-0.7583,-0.2421
588421.0,-2.7414,0.1724,11.4251,-0.2017,-0.8546,-0.2895
588431.0,-2.7174,0.5602,11.1737,-0.216,-0.9067,-0.3108
588441.0,-2.6193,0.9074,11.0205,-0.2219,-0.9253,-0.307
588451.0,-2.4421,1.1564,10.8984,-0.2277,-0.9418,-0.281
588461.0,-2.3391,1.2306,10.9104,-0.2767,-0.9716,-0.2501
588471.0,-2.2936,1.3336,11.1354,-0.3368,-1.0254,-0.2187
588481.0,-2.2266,1.3192,11.406,-0.3214,-1.0749,-0.166
588491.0,-2.1428,1.245,11.169,-0.2288,-1.1387,-0.0974
588501.0,-2.0758,1.0654,10.7811,-0.1969,-1.2345,-0.0357
588511.0,-1.798,0.8188,10.1562,-0.2187,-1.3122,0.0112
588521.0,-1.5155,0.5052,9.9383,-0.2719,-1.3143,0.0383
588531.0,-1.3168,0.34,9.821,-0.3012,-1.2723,0.0532
588541.0,-1.1516,0.1891,9.9766,-0.3006,-1.2361,0.0617
588551.0,-0.9242,0.0479,9.9886,-0.2857,-1.2398,0.0718
588561.0,-0.8763,-0.2155,10.0628,-0.3017,-1.2797,0.0766
588571.0,-0.6967,-0.6608,9.9,-0.2916,-1.3335,0.0772
588581.0,-0.431,-1.1875,9.7133,-0.2474,-1.3755,0.0569
588591.0,-0.1077,-1.5658,9.2057,-0.1799,-1.3947,0.0021
588601.0,0.079,-1.7789,8.7987,-0.1155,-1.3569,-0.0825
588611.0,0.328,-1.5203,8.3582,-0.0607,-1.2851,-0.1873
588621.0,0.4549,-1.1061,8.1834,-0.0814,-1.209,-0.2852
588631.0,0.5866,-0.6225,8.0924,-0.1203,-1.1323,-0.3549
588641.0,0.5722,-0.1197,8.3629,-0.1336,-1.028,-0.3847
588651.0,0.5363,0.2801,8.7364,-0.0649,-0.9269,-0.3666
588661.0,0.486,0.5435,9.0453,0.0537,-0.854,-0.3076
588671.0,0.6249,0.5052,9.1842,0.1203,-0.8482,-0.2331
588681.0,0.9529,0.2969,9.0812,0.1048,-0.8977,-0.183
588691.0,1.0463,0.3472,8.667,0.0319,-0.9525,-0.165
588701.0,1.1708,0.4549,8.4204,-0.049,-0.9509,-0.1479
588711.0,1.3431,0.5315,8.4707,-0.0724,-0.8753,-0.1139
588721.0,1.3767,0.5674,8.6838,-0.009,-0.7572,-0.0543
588731.0,1.2977,0.5148,8.8226,0.0596,-0.6753,0.0133
588741.0,1.4437,0.1221,9.153,0.0601,-0.6455,0.0649
588751.0,1.5562,-0.237,9.3877,0.0676,-0.6295,0.0931
588761.0,1.6855,-0.7254,9.7037,0.042,-0.6396,0.091
588771.0,1.7765,-0.9864,9.7995,0.0096,-0.7003,0.0532
588781.0,1.8962,-0.9649,9.9479,0.0021,-0.762,-0.0027
588791.0,2.0853,-0.6943,9.6989,0.0521,-0.8056,-0.0442
588801.0,2.0255,-0.4166,9.2703,0.0772,-0.8306,-0.0676
588811.0,2.0016,-0.2011,9.2177,0.0681,-0.8173,-0.0724
588821.0,2.0566,-0.146,9.5864,0.125,-0.7434,-0.0548
588831.0,1.8531,-0.0742,10.003,0.1873,-0.7199,-0.0287
588841.0,1.9728,-0.2729,10.2472,0.1873,-0.8221,-0.0074
588851.0,2.2242,-0.4621,9.7731,0.1719,-0.9738,-0.0016
588861.0,2.411,-0.5387,8.8202,0.0857,-1.1004,-0.0261
588871.0,2.6001,-0.4908,8.0302,-0.0362,-1.1387,-0.0639
588881.0,2.8706,-0.407,7.604,-0.0633,-1.0243,-0.0873
588891.0,2.8922,-0.1963,7.4172,-0.0064,-0.8226,-0.0915
588901.0,2.7485,-0.2011,7.9679,0.0298,-0.6439,-0.0809
588911.0,2.8563,-0.4046,8.5042,0.1469,-0.5119,-0.0543
588921.0,2.9616,-0.6393,8.8801,0.3044,-0.4369,-0.0415
588931.0,3.0382,-0.6153,8.9783,0.3906,-0.4401,-0.0639
588941.0,3.1987,-0.4788,8.8562,0.4464,-0.4587,-0.099
588951.0,3.3662,-0.0718,8.3989,0.4794,-0.455,-0.1325
588961.0,3.5147,0.3041,8.0254,0.4417,-0.406,-0.1495
588971.0,3.5458,0.6009,8.0589,0.3751,-0.3017,-0.1517
588981.0,3.3471,0.7973,8.3558,0.3044,-0.1862,-0.1325
588991.0,3.1723,0.6823,8.9519,0.2192,-0.1341,-0.1043
589001.0,3.1556,0.4812,9.4236,0.1628,-0.1415,-0.0857
589011.0,3.0287,0.3496,9.6726,0.1399,-0.1846,-0.0788
589021.0,3.0239,0.17,9.7755,0.1282,-0.2549,-0.0819
589031.0,3.1723,0.1891,9.4834,0.1213,-0.3491,-0.1
589041.0,3.2729,0.2442,8.9471,0.1144,-0.4326,-0.1229
589051.0,3.3591,0.2705,8.4084,0.1474,-0.4161,-0.1368
589061.0,3.6416,0.146,8.327,0.2432,-0.2762,-0.1399
589071.0,3.6152,0.1915,8.2696,0.2964,-0.1405,-0.1644
589081.0,3.6009,0.0934,8.588,0.1719,-0.1032,-0.216
589091.0,3.7804,0.1963,8.6766,-0.0394,-0.1655,-0.2879
589101.0,3.5243,0.3687,8.8466,-0.307,-0.2666,-0.3586
589111.0,3.5075,0.5459,8.6598,-0.4502,-0.34,-0.3868
589121.0,3.5698,0.5986,8.4036,-0.4278,-0.3342,-0.3714
589131.0,3.6775,0.6823,7.8985,-0.2836,-0.2634,-0.3326
589141.0,3.7302,0.7925,7.616,-0.058,-0.1139,-0.2836
589151.0,3.9073,1.0487,7.2257,0.216,0.074,-0.2293
589161.0,3.9433,1.5155,6.5721,0.3634,0.2038,-0.183
589171.0,3.9504,1.8292,5.7269,0.2708,0.2682,-0.1405
589181.0,4.0079,1.7573,5.0996,0.0229,0.356,-0.0947
589191.0,4.1779,1.4078,4.7142,-0.1974,0.5332,-0.0474
589201.0,4.1922,0.8739,4.6328,-0.2655,0.8344,-0.0059
589211.0,3.9983,0.5004,4.6519,-0.1612,1.234,0.0202
589221.0,3.5075,0.0766,5.0901,-0.0021,1.6586,0.0282
589231.0,3.067,-0.316,6.0382,0.1724,2.0534,0.008
589241.0,2.6193,-0.3807,7.094,0.339,2.3413,-0.0442
589251.0,2.0638,-0.2705,7.932,0.3672,2.42,-0.1187
589261.0,1.9656,-0.0958,8.181,0.2549,2.2993,-0.2054
589271.0,2.15,0.2705,7.4412,0.1123,2.1455,-0.2937
589281.0,1.9225,0.9098,6.1124,-0.009,2.1285,-0.3714
589291.0,1.0846,1.8603,4.7549,-0.0825,2.3275,-0.4076
589301.0,0.1844,2.4157,4.5226,-0.1022,2.751,-0.3725
589311.0,-0.5483,2.7031,5.1882,-0.0463,3.265,-0.2799
589321.0,-1.4174,2.7461,6.438,-0.0527,3.6514,-0.1751
589331.0,-2.0949,2.4804,7.7141,-0.1697,3.8126,-0.0697
589341.0,-2.8299,1.8387,8.6957,-0.3469,3.8121,0.0261
589351.0,-3.3232,0.9649,9.177,-0.4342,3.7833,0.1059
589361.0,-3.7014,0.261,9.3206,-0.3203,3.9014,0.1501
589371.0,-4.4748,0.0982,9.5577,-0.1309,4.142,0.1426
589381.0,-5.2864,0.5219,10.2975,-0.0303,4.3521,0.0931
589391.0,-6.675,1.5945,11.4802,-0.0218,4.4676,0.0559
589401.0,-8.679,1.7717,13.3836,0.0011,4.532,0.1325
589411.0,-8.5928,-0.3759,17.2502,0.332,4.7299,0.306
589421.0,-8.2528,-2.217,21.0259,0.8626,4.7624,0.3331
589431.0,-8.0325,-3.1101,24.6938,1.0727,4.1941,0.116
589441.0,-7.6375,-2.2529,25.6204,1.1717,3.2049,-0.2208
589451.0,-7.5657,-0.7111,24.7537,1.086,2.1987,-0.547
589461.0,-7.5992,0.9026,23.2285,0.7269,1.3053,-0.8157
589471.0,-7.5513,2.3296,21.6699,0.165,0.5326,-1.0105
589481.0,-7.2736,3.4788,20.0562,-0.4502,-0.1176,-1.1158
589491.0,-7.0964,3.9768,18.3156,-1.0286,-0.6306,-1.1361
589501.0,-7.7405,4.8291,16.781,-1.5022,-0.9945,-1.0839
589511.0,-7.446,5.6192,15.7036,-1.7097,-1.2207,-0.9136
589521.0,-7.1754,5.6934,14.4801,-1.5761,-1.2787,-0.5875
589531.0,-6.9911,5.0039,13.6374,-1.2739,-1.2265,-0.2017
589541.0,-6.2608,3.7972,12.6773,-0.9142,-1.1882,0.1596
589551.0,-5.3989,2.1189,11.9734,-0.621,-1.1632,0.4262
589561.0,-4.604,0.8882,10.7811,-0.4401,-1.1579,0.5566
589571.0,-3.9002,-0.1532,10.0676,-0.4959,-1.1653,0.5486
589581.0,-3.3088,-0.7159,9.3518,-0.6758,-1.1813,0.4486
589591.0,-2.8515,-1.0439,9.1578,-0.9232,-1.1877,0.2948
589601.0,-2.7821,-0.8164,8.9256,-1.1111,-1.1903,0.1304
589611.0,-3.0742,-0.4405,8.8969,-1.1738,-1.1595,0.0138
589621.0,-2.8443,-0.6823,9.1554,-1.0185,-1.0302,-0.0122
589631.0,-2.545,-1.0942,9.5624,-0.6768,-0.837,-0.009
589641.0,-2.296,-1.324,9.9024,-0.3821,-0.7572,-0.0431
589651.0,-1.9106,-1.3312,9.8737,-0.2022,-0.7897,-0.1112
589661.0,-1.6688,-1.0175,9.5002,-0.1144,-0.8322,-0.1942
589671.0,-1.5347,-0.6201,9.1746,-0.166,-0.8631,-0.2794
589681.0,-1.5538,-0.2705,9.0956,-0.3161,-0.8833,-0.3533
589691.0,-1.7406,0.0168,9.3685,-0.4645,-0.8961,-0.3959
589701.0,-1.8148,0.1269,9.6893,-0.5177,-0.9104,-0.3954
589711.0,-1.7573,0.0646,9.8665,-0.4693,-0.9307,-0.3677
589721.0,-1.7047,0.0335,9.7252,-0.357,-0.9567,-0.3336
589731.0,-1.549,0.1149,9.3039,-0.2735,-0.9919,-0.3097
589741.0,-1.4485,0.3543,8.8226,-0.2304,-0.9982,-0.2868
589751.0,-1.403,0.5363,8.2265,-0.2054,-0.9541,-0.2517
589761.0,-1.3431,0.7446,7.8626,-0.2299,-0.8647,-0.2112
589771.0,-1.4126,0.9768,7.6734,-0.2591,-0.7439,-0.1586
589781.0,-1.4102,0.8428,7.7596,-0.281,-0.5896,-0.0814
589791.0,-1.312,0.4022,8.3199,-0.2485,-0.4033,0.0016
589801.0,-1.1779,-0.1437,8.9998,-0.1453,-0.2336,0.0628
589811.0,-1.2594,-0.4525,9.6055,-0.0612,-0.1602,0.0819
589821.0,-1.2091,-0.5794,10.0149,0.0059,-0.1575,0.0777
589831.0,-1.1277,-0.5291,10.1993,0.0463,-0.1783,0.0623
589841.0,-1.1732,-0.316,10.1442,0.0255,-0.2123,0.0383
589851.0,-1.2091,0.0072,10.0221,-0.0819,-0.2623,0.0186
589861.0,-1.257,0.2011,9.9288,-0.2559,-0.3209,0.0122
589871.0,-1.3623,0.0958,10.1754,-0.423,-0.3501,0.0282
589881.0,-1.3743,-0.2083,10.5752,-0.4794,-0.3326,0.0596
589891.0,-1.3695,-0.5004,11.0061,-0.423,-0.3241,0.0899
589901.0,-1.2641,-0.7949,11.315,-0.2932,-0.3517,0.1128
589911.0,-1.0798,-0.8978,11.0852,-0.1368,-0.4145,0.1203
589921.0,-0.9697,-0.7925,10.58,-0.0628,-0.489,0.1038
589931.0,-0.893,-0.6153,10.058,-0.0793,-0.5241,0.0798
589941.0,-0.9194,-0.5052,9.7109,-0.1815,-0.5279,0.0521
589951.0,-0.9529,-0.3639,9.5888,-0.3177,-0.513,0.0245
589961.0,-1.0271,-0.2897,9.7276,-0.3975,-0.4555,0.0144
589971.0,-1.1205,-0.2777,10.1754,-0.3847,-0.3725,0.0266
589981.0,-1.0319,-0.2753,10.7093,-0.2836,-0.3017,0.0553
589991.0,-0.9984,-0.2418,11.1306,-0.141,-0.2623,0.0905
590001.0,-0.9649,-0.1484,11.3222,-0.0229,-0.2826,0.1298
590011.0,-0.8188,-0.1269,11.3892,0.0245,-0.357,0.1644
590021.0,-0.7685,-0.1604,11.2336,0.0043,-0.4448,0.1873
590031.0,-0.7829,-0.261,11.2336,-0.0724,-0.5177,0.1979
590041.0,-0.7278,-0.2729,11.303,-0.1426,-0.5741,0.2017
590051.0,-0.7542,-0.3065,11.485,-0.1969,-0.629,0.2059
590061.0,-0.7039,-0.3041,11.7771,-0.2267,-0.6928,0.2118
590071.0,-0.7398,-0.2586,11.88,-0.2448,-0.8019,0.2235
590081.0,-0.7183,-0.3998,12.0931,-0.281,-0.9573,0.2416
590091.0,-0.5555,-0.498,11.9782,-0.2469,-1.1238,0.2655
590101.0,-0.3567,-0.6081,11.6454,-0.1793,-1.2654,0.2889
590111.0,-0.0168,-0.6512,11.0325,-0.1144,-1.3931,0.3028
590121.0,0.1413,-0.5746,10.2065,-0.1144,-1.5069,0.3033
590131.0,0.2993,-0.4525,9.4643,-0.1644,-1.5745,0.307
590141.0,0.5842,-0.3735,9.1051,-0.1958,-1.5554,0.3166
590151.0,0.8571,-0.3089,8.7987,-0.2038,-1.5043,0.3363
590161.0,0.8212,-0.4022,8.849,-0.2081,-1.4484,0.3672
590171.0,0.9098,-0.6177,8.849,-0.1644,-1.3995,0.4049
590181.0,1.0295,-0.8859,8.9016,-0.1181,-1.3798,0.4326
590191.0,1.391,-1.3479,8.837,-0.0734,-1.3824,0.4406
590201.0,1.6616,-1.4988,8.5712,-0.0239,-1.376,0.4156
590211.0,1.8459,-1.4629,8.5569,0.0394,-1.3133,0.3751
590221.0,1.9656,-1.1396,8.6766,0.1325,-1.2132,0.348
590231.0,1.8938,-0.7302,8.9136,0.1937,-1.1515,0.3427
590241.0,1.8244,-0.5459,8.8394,0.2112,-1.1589,0.3741
590251.0,1.8699,-0.644,8.6646,0.1979,-1.1781,0.4214
590261.0,2.0255,-1.0199,8.5186,0.1522,-1.1866,0.4603
590271.0,2.2769,-1.6113,8.5545,0.0729,-1.1999,0.4635
590281.0,2.5091,-1.9704,8.5018,0.0197,-1.2196,0.4225
590291.0,2.7725,-1.8962,8.1834,0.0218,-1.2265,0.356
590301.0,2.6935,-1.4413,7.7548,0.0394,-1.1946,0.2927
590311.0,2.7294,-1.1037,7.7572,0.0734,-1.0828,0.2703
590321.0,2.7892,-0.7853,7.6471,0.1378,-0.9493,0.2868
590331.0,2.8299,-0.8835,7.9224,0.1474,-0.8615,0.3219
590341.0,2.9688,-1.075,7.841,0.158,-0.8232,0.3533
590351.0,3.0143,-1.415,7.8626,0.1575,-0.7838,0.3629
590361.0,2.9592,-1.6328,7.6231,0.1527,-0.7535,0.3485
590371.0,3.0454,-1.8555,7.7357,0.1389,-0.7242,0.3049
590381.0,3.3208,-1.6616,7.6112,0.1889,-0.6965,0.2512
590391.0,3.3782,-1.2043,7.3215,0.2559,-0.6609,0.2033
590401.0,3.6033,-0.6536,6.6918,0.2948,-0.6183,0.1868
590411.0,3.8762,-0.2658,6.1627,0.2682,-0.5257,0.2006
590421.0,3.8762,0.0335,5.7389,0.2017,-0.3656,0.2389
590431.0,3.6009,0.1365,5.5761,0.0713,-0.1804,0.2879
590441.0,3.2992,-0.091,6.11,-0.0867,0.0117,0.3501
590451.0,3.0885,-0.498,7.1539,-0.1554,0.1681,0.4198
590461.0,3.0574,-0.9122,7.9703,-0.1133,0.2166,0.4821
590471.0,3.3016,-1.3599,8.1547,-0.0484,0.141,0.5119
590481.0,3.7062,-1.7933,7.7716,0.0309,0.0458,0.5114
590491.0,4.0462,-2.1548,7.1036,0.1969,0.0798,0.4869
590501.0,4.0893,-2.3391,6.7181,0.4422,0.2996,0.439
590511.0,4.0917,-2.32,6.5793,0.6784,0.5933,0.3767
590521.0,3.7517,-2.1021,6.8833,0.7604,0.8359,0.2911
590531.0,3.3136,-1.7885,7.525,0.7189,0.9897,0.2075
590541.0,3.0957,-1.585,8.339,0.6268,1.0578,0.1463
590551.0,2.9688,-1.3982,8.7293,0.48,0.9833,0.1011
590561.0,3.0454,-1.7669,9.1028,0.2932,0.8195,0.066
590571.0,3.2561,-2.1691,8.8083,0.3022,0.7343,0.0314
590581.0,3.1196,-2.4157,8.5114,0.4789,0.7976,-0.0298
590591.0,3.134,-2.3822,8.1044,0.7184,0.9206,-0.1165
590601.0,2.9688,-1.9632,7.9655,0.9248,1.0642,-0.2267
590611.0,2.6647,-1.1037,7.7165,1.0924,1.2116,-0.3171
590621.0,2.3822,-0.2322,7.6998,1.1568,1.3468,-0.365
590631.0,2.2841,0.3687,7.5848,1.1052,1.4282,-0.364
590641.0,2.3296,0.3424,7.5274,0.9722,1.5064,-0.3406
590651.0,2.2386,0.2921,7.2089,0.8524,1.624,-0.3283
590661.0,1.731,0.1724,7.2281,0.738,1.8055,-0.3384
590671.0,1.0223,-0.0263,7.4484,0.7146,2.0273,-0.3512
590681.0,0.4812,-0.3352,8.2097,0.7897,2.2753,-0.364
590691.0,0.1676,-0.4884,9.268,0.986,2.5073,-0.3927
590701.0,-0.1532,-0.2825,9.9575,1.1249,2.5621,-0.4534
590711.0,-0.1676,0.0072,9.8928,1.0477,2.3732,-0.5449
590721.0,0.0503,0.3089,8.8394,0.8572,2.1662,-0.6385
590731.0,0.0335,0.5028,7.4316,0.6284,2.1444,-0.7205
590741.0,-0.2083,0.7733,6.3135,0.3523,2.2801,-0.8014
590751.0,-0.7853,1.4269,5.2553,0.0458,2.4733,-0.8684
590761.0,-2.0949,2.3942,3.8954,-0.2756,2.6957,-0.8817
590771.0,-4.2353,2.6073,2.806,-0.5321,3.0921,-0.7838
590781.0,-5.2241,0.8499,3.8858,-0.48,3.8866,-0.597
590791.0,-5.5474,-1.1756,6.45,-0.108,4.8231,-0.4997
590801.0,-6.6535,-2.6025,10.3956,0.2043,5.4403,-0.6013
590811.0,-8.157,-2.6983,14.0204,0.4661,5.6298,-0.8423
590821.0,-9.2153,-1.5826,16.5583,0.6529,5.4116,-1.1233
590831.0,-10.24,0.4741,17.3125,0.6811,4.9231,-1.3489
590841.0,-11.1905,2.7916,17.8081,0.5146,4.4112,-1.467
590851.0,-12.1554,4.6064,18.9669,0.4379,4.1148,-1.4053
590861.0,-12.1817,5.1092,21.8974,0.6141,4.0451,-1.1754
590871.0,-11.9758,4.7788,25.9412,0.8498,3.7913,-0.9248
590881.0,-11.2719,4.5442,28.819,0.8615,2.9048,-0.7572
590891.0,-11.6813,4.5035,29.3984,0.6311,1.5421,-0.6604
590901.0,-11.1187,4.7573,27.3418,0.4017,0.1735,-0.572
590911.0,-10.1921,4.7716,24.6387,0.0676,-0.9243,-0.4949
590921.0,-9.7372,4.7118,21.5574,-0.3485,-1.7804,-0.4411
590931.0,-9.3972,4.561,18.4497,-0.803,-2.4307,-0.4049
590941.0,-8.9304,4.2258,15.6748,-1.2244,-2.8692,-0.3682
590951.0,-8.5114,3.7852,13.4482,-1.4819,-3.0373,-0.3129
590961.0,-7.8937,3.055,12.1769,-1.5261,-2.9926,-0.2267
590971.0,-7.2161,2.4086,11.3629,-1.3654,-2.8468,-0.1378
590981.0,-6.6415,1.9297,10.8074,-1.1488,-2.7345,-0.0649
590991.0,-5.952,1.5012,10.1179,-0.9323,-2.6701,0.0011
591001.0,-5.3103,1.1277,9.5026,-0.7359,-2.594,0.0543
591011.0,-4.8267,0.8739,8.9902,-0.5795,-2.5227,0.0899
591021.0,-4.4077,0.7326,8.4515,-0.4635,-2.4642,0.1075
591031.0,-3.948,0.6129,8.023,-0.398,-2.3871,0.1112
591041.0,-3.3662,0.4238,8.2025,-0.3331,-2.2439,0.107
591051.0,-3.0478,0.3639,8.4755,-0.3198,-2.1364,0.0915
591061.0,-2.7438,0.1652,8.9543,-0.4667,-2.187,0.0511
591071.0,-2.3679,0.0718,9.0453,-0.6492,-2.3466,-0.0032
591081.0,-1.98,0.012,8.6933,-0.7769,-2.5084,-0.0484
591091.0,-1.585,-0.0646,8.0589,-0.8195,-2.6074,-0.0819
591101.0,-1.312,-0.0622,7.3358,-0.7891,-2.618,-0.1011
591111.0,-1.0487,0.0096,6.7133,-0.688,-2.5478,-0.1038
591121.0,-0.7733,0.2274,5.9879,-0.5497,-2.4185,-0.083
591131.0,-0.3328,0.2825,5.5091,-0.4374,-2.2535,-0.0436
591141.0,0.1748,0.1341,5.2553,-0.3459,-2.0465,0.0027
591151.0,0.4932,-0.2849,5.2241,-0.3155,-1.8331,0.033
591161.0,0.9122,-0.6823,5.4923,-0.4198,-1.6698,0.0144
591171.0,1.2977,-0.9218,6.7924,-0.5614,-1.541,-0.0484
591181.0,1.3838,-0.7925,7.592,-0.5151,-1.4734,-0.0921
591191.0,1.1468,-0.4932,7.8889,-0.3821,-1.4974,-0.1086
591201.0,1.3048,-0.0168,7.4196,-0.2267,-1.541,-0.0889
591211.0,1.4868,0.249,7.185,-0.1032,-1.4995,-0.0282
591221.0,1.4437,0.3232,7.2664,0.0074,-1.416,0.0644
591231.0,1.7885,-0.0407,7.4819,0.1096,-1.3569,0.1607
591241.0,2.1644,-0.3543,7.003,0.1431,-1.3856,0.224
591251.0,2.5498,-0.8068,6.2537,-0.0452,-1.5022,0.2214
591261.0,2.976,-1.1564,5.624,-0.3219,-1.5788,0.1628
591271.0,3.3112,-1.1947,4.9704,-0.48,-1.524,0.0915
591281.0,3.3208,-1.0774,4.4556,-0.506,-1.3739,0.0383
591291.0,3.4812,-0.8116,3.814,-0.3837,-1.1675,0.0202
591301.0,3.6583,-0.51,3.0335,-0.1788,-0.8892,0.0335
591311.0,3.7948,-0.2969,2.2841,0.0032,-0.5651,0.0713
591321.0,4.027,-0.261,1.7047,0.1431,-0.2065,0.116
591331.0,4.027,-0.2945,1.2857,0.2884,0.2208,0.1538
591341.0,3.8092,-0.2035,0.9912,0.4156,0.6976,0.174
591351.0,3.3088,0.0144,0.9385,0.4566,1.1526,0.1783
591361.0,2.8874,0.1365,1.1157,0.4246,1.5852,0.1836
591371.0,2.3703,0.2753,1.7214,0.381,2.0273,0.191
591381.0,1.7909,0.2897,2.3607,0.2953,2.4025,0.2033
591391.0,1.2091,0.0144,3.1053,0.116,2.6717,0.2054
591401.0,0.8284,-0.1508,3.6057,-0.0458,2.9123,0.1916
591411.0,-0.0455,-0.0048,4.0558,-0.1884,3.1586,0.1639
591421.0,-1.1684,0.3304,4.2641,-0.3145,3.3699,0.1532
591431.0,-2.3439,0.5578,4.4101,-0.3395,3.6263,0.1916
591441.0,-3.7493,0.1796,5.1811,-0.2107,4.0238,0.2873
591451.0,-4.3479,-1.4724,7.5202,0.0867,4.5544,0.3959
591461.0,-5.0637,-2.6456,10.2496,0.506,4.9651,0.3922
591471.0,-5.8299,-3.1053,12.8952,0.8099,5.0455,0.2639
591481.0,-6.256,-2.6432,14.3939,0.9668,4.8252,0.0697
591491.0,-6.62,-1.4844,14.7626,0.9312,4.4724,-0.1357
591501.0,-7.0988,0.158,14.6525,0.6572,4.0765,-0.3092
591511.0,-7.8602,2.1668,14.382,0.3262,3.7961,-0.3879
591521.0,-8.8849,3.5578,15.0045,0.017,3.6987,-0.3251
591531.0,-9.3877,3.2202,17.5734,-0.1889,3.7062,-0.1245
591541.0,-9.7276,1.8866,20.875,-0.1884,3.5801,0.0931
591551.0,-9.7923,0.4717,23.7002,-0.1288,3.0581,0.2246
591561.0,-9.3805,-0.7135,24.6986,-0.0234,2.2237,0.2639
591571.0,-8.928,-1.4006,24.1551,0.1016,1.3537,0.2134
591581.0,-8.6263,-1.2282,22.4289,0.2214,0.6188,0.0974
591591.0,-8.4108,-0.6656,20.2573,0.1815,0.0298,-0.0436
591601.0,-8.169,-0.1724,18.3396,-0.0984,-0.4832,-0.1878
591611.0,-7.9751,0.2729,16.5942,-0.4619,-0.8796,-0.3139
591621.0,-7.7093,0.2753,15.7826,-0.7439,-1.0924,-0.3884
591631.0,-7.501,-0.1245,15.67,-0.7779,-1.1589,-0.4007
591641.0,-7.1682,-0.7063,15.9837,-0.597,-1.2297,-0.3884
591651.0,-6.8977,-0.9457,15.9406,-0.2778,-1.3984,-0.3773
591661.0,-6.6583,-0.6656,14.9638,0.0362,-1.6655,-0.3741
591671.0,-6.2225,-0.316,13.3429,0.1783,-1.9725,-0.3762
591681.0,-5.6982,0.0431,11.5808,0.1469,-2.1827,-0.3863
591691.0,-5.2672,0.3759,10.3358,-0.0085,-2.2524,-0.4017
591701.0,-4.8698,0.4788,9.7899,-0.2235,-2.2423,-0.4092
591711.0,-4.4819,0.2035,9.821,-0.4028,-2.2013,-0.3986
591721.0,-4.2329,-0.1532,10.3382,-0.4656,-2.1636,-0.3805
591731.0,-3.9816,-0.5219,10.7284,-0.3868,-2.179,-0.3555
591741.0,-3.6416,-0.9098,10.7332,-0.2299,-2.2407,-0.3374
591751.0,-3.2753,-1.0989,10.4483,-0.0575,-2.3152,-0.3352
591761.0,-2.897,-1.0032,9.9982,0.0591,-2.403,-0.3528
591771.0,-2.6049,-0.5698,9.2799,0.1229,-2.4818,-0.3746
591781.0,-2.2625,-0.2035,8.6862,0.1197,-2.51,-0.3794
591791.0,-1.8364,0.0072,8.4635,0.0851,-2.4754,-0.3656
591801.0,-1.6472,0.249,8.4252,0.0192,-2.453,-0.3448
591811.0,-1.245,0.0479,8.6742,-0.0724,-2.4765,-0.3081
591821.0,-0.7901,-0.2322,8.667,-0.1229,-2.5206,-0.2783
591831.0,-0.4764,-0.4501,8.8083,-0.19,-2.6031,-0.2762
591841.0,-0.2849,-0.4453,8.5042,-0.2341,-2.7484,-0.2863
591851.0,0.0,-0.2945,7.4077,-0.2554,-2.9234,-0.2905
591861.0,0.419,-0.3472,6.0549,-0.281,-3.0251,-0.2852
591871.0,1.0295,-0.407,4.7836,-0.2315,-2.9516,-0.2682
591881.0,1.549,-0.3304,3.9313,-0.0942,-2.6994,-0.2416
591891.0,1.9585,-0.3879,3.9552,0.1075,-2.3456,-0.1953
591901.0,2.2889,-0.3472,3.735,0.3054,-2.046,-0.1426
591911.0,2.6097,-0.5028,3.6129,0.2591,-1.9204,-0.124
591921.0,3.1556,-0.8164,3.158,0.1128,-1.8603,-0.1314
591931.0,3.7182,-1.2354,2.49,0.0053,-1.7033,-0.165
591941.0,4.0749,-1.5658,2.1237,-0.05,-1.4309,-0.232
591951.0,4.197,-1.5514,2.308,0.0351,-1.0546,-0.3081
591961.0,4.1946,-1.2282,2.5953,0.299,-0.6258,-0.3618
591971.0,4.1204,-0.6488,2.7461,0.647,-0.2038,-0.3783
591981.0,3.9816,-0.1101,2.8539,0.8982,0.1628,-0.3688
591991.0,3.6847,0.2131,3.2729,1.0099,0.4805,-0.3485
592001.0,3.5458,0.2777,4.0893,1.0664,0.7875,-0.3288
592011.0,3.3878,0.4573,4.9488,1.0946,1.0589,-0.3342
592021.0,2.7869,0.9122,5.5809,0.9881,1.184,-0.3693
592031.0,2.7461,1.312,5.8706,0.6976,1.1387,-0.4081
592041.0,2.727,1.913,5.7293,0.414,1.0962,-0.4278
592051.0,2.3846,2.7988,5.3343,0.2363,1.1659,-0.4044
592061.0,1.9297,3.8235,4.798,0.1123,1.2989,-0.3097
592071.0,1.798,4.5514,3.9433,-0.0303,1.4351,-0.1399
592081.0,1.549,4.8315,2.6863,-0.2996,1.5463,0.0782
592091.0,1.4844,4.3742,1.2282,-0.7035,1.6655,0.3097
592101.0,1.1947,3.6296,-0.7039,-1.0664,1.9231,0.5225
592111.0,0.3328,3.3543,-3.7757,-1.3031,2.4131,0.6971
592121.0,-1.9609,3.8954,-7.4771,-1.5431,3.1703,0.861
592131.0,-5.7628,4.1061,-9.9407,-1.8299,4.2963,1.0882
592141.0,-9.8569,2.2194,-8.6694,-1.7453,6.0677,1.4447
592151.0,-14.6429,-1.6783,-1.8699,-1.2276,8.177,1.7836
592161.0,-18.6029,-8.6933,10.4938,-0.3129,10.0122,1.9672
592171.0,-19.4457,-16.0316,25.2277,1.0946,11.0541,1.7448
592181.0,-19.4649,-18.4593,38.7502,2.6446,10.9477,0.9445
592191.0,-18.2749,-14.6166,48.0349,3.3018,9.1215,-0.2921
592201.0,-16.8672,-7.4029,48.5065,2.8394,6.1943,-1.4867
592211.0,-17.4777,-0.9816,48.5592,1.0483,3.339,-2.4727
592221.0,-18.9453,3.9409,48.2072,-0.9402,0.5715,-3.041
592231.0,-20.468,7.2257,44.8625,-2.0625,-2.0034,-3.0671
592241.0,-20.6715,8.8418,39.4445,-1.8911,-3.9222,-2.5903
592251.0,-19.915,9.3063,31.3712,-0.6604,-5.0194,-1.7836
592261.0,-17.9852,7.422,24.4496,0.5561,-5.4978,-0.9418
592271.0,-15.7203,5.9711,17.504,1.267,-5.684,-0.3251
592281.0,-13.8552,3.067,15.0547,1.036,-5.791,-0.0197
592291.0,-12.208,1.0918,13.5057,0.8205,-5.8288,0.05
592301.0,-11.7986,0.2251,12.5648,0.6577,-5.8767,-0.0229
592311.0,-11.3413,0.5028,10.8122,0.3358,-6.2619,-0.1751
592321.0,-10.4076,1.5036,6.9695,-0.1969,-6.8643,-0.3374
592331.0,-8.8801,2.5067,3.1268,-0.8604,-7.2298,-0.4725
592341.0,-7.1156,3.735,-0.4046,-1.2643,-7.1085,-0.5172
592351.0,-5.5306,4.2306,-1.9465,-1.3665,-6.5524,-0.4411
592361.0,-4.6184,4.8243,-2.2601,-1.1121,-5.8139,-0.2395
592371.0,-3.1244,4.8147,-2.4732,-0.6742,-5.1929,0.0883
592381.0,-1.2402,3.7924,-3.79,-0.2618,-4.723,0.4789
592391.0,0.68,1.8627,-5.5881,-0.0319,-4.1989,0.8088
592401.0,2.5259,-0.7087,-6.031,0.008,-3.4896,0.986
592411.0,3.7924,-2.7653,-4.9321,0.0239,-2.6302,0.9743
592421.0,4.3598,-3.5985,-3.0909,-0.1048,-1.9731,0.7865
592431.0,4.8171,-3.9265,-0.8092,-0.331,-1.5825,0.5337
592441.0,4.9321,-3.6727,0.9026,-0.3688,-1.3047,0.3092
592451.0,4.7046,-3.237,1.8962,-0.2368,-1.102,0.1405
592461.0,5.0326,-2.4373,2.4708,0.0442,-0.8796,0.0309
592471.0,4.7333,-1.4581,2.6121,0.2762,-0.6385,-0.0144
592481.0,4.9009,-0.9912,3.1005,0.3528,-0.4528,-0.0154
592491.0,4.9368,-0.8763,3.4788,0.3672,-0.282,0.0074
592501.0,4.9536,-0.9194,4.3479,0.3246,-0.108,0.0208
592511.0,4.9799,-0.6919,5.1787,0.3177,0.041,0.0223
592521.0,4.9081,-0.3041,5.849,0.2171,0.074,0.0223
592531.0,4.8123,-0.0718,6.4404,0.0591,0.0298,0.0415
592541.0,4.7788,0.079,6.4308,-0.0458,-0.0255,0.0905
592551.0,4.7285,-0.2442,6.1244,-0.1346,-0.0692,0.1602
592561.0,4.8842,-1.0654,6.0166,-0.183,-0.0218,0.2166
592571.0,4.8626,-1.9609,6.5314,-0.1405,0.1415,0.2272
592581.0,4.786,-2.7342,7.3813,-0.0021,0.2964,0.1942
592591.0,4.8363,-2.9018,7.8219,0.1655,0.3326,0.1144
592601.0,4.8339,-2.636,7.7883,0.2692,0.299,0.0106
592611.0,4.8626,-2.0087,7.4531,0.3049,0.2618,-0.0825
592621.0,4.8626,-1.2857,7.1371,0.2698,0.2474,-0.1463
592631.0,4.9105,-0.6991,6.6702,0.1868,0.2538,-0.1692
592641.0,4.8746,-0.4262,6.2249,0.0984,0.2884,-0.1543
592651.0,4.6831,-0.5243,6.019,0.0873,0.414,-0.116
592661.0,4.5873,-1.0582,6.2058,0.2363,0.6604,-0.0665
592671.0,4.5442,-1.6376,7.0677,0.4778,0.9663,-0.058
592681.0,4.3742,-1.3431,7.9033,0.6651,1.1589,-0.1171
592691.0,4.1013,-0.5962,8.5234,0.6753,1.1637,-0.1963
592701.0,3.9456,0.2107,8.8442,0.555,1.069,-0.248
592711.0,3.8666,0.8954,8.9663,0.3709,0.9328,-0.2554
592721.0,3.7685,1.3408,8.5521,0.2006,0.7859,-0.2203
592731.0,3.5937,1.5874,7.8195,0.125,0.7333,-0.1463
592741.0,3.3543,1.4796,7.4651,0.2027,0.8838,-0.0436
592751.0,3.225,1.1947,7.5944,0.3884,1.1557,0.058
592761.0,3.0263,0.9912,8.2265,0.4906,1.3505,0.1203
592771.0,2.8347,0.7781,9.1722,0.4826,1.4298,0.1522
592781.0,2.5953,0.7614,9.7324,0.4597,1.4096,0.1751
592791.0,2.6552,0.5171,9.9359,0.3475,1.2845,0.1873
592801.0,2.6743,0.091,9.9527,0.2049,1.1228,0.1788
592811.0,2.6408,-0.1341,9.335,0.1751,1.0254,0.1522
592821.0,2.5115,-0.1796,8.6024,0.1995,1.0467,0.1123
592831.0,2.3774,-0.2011,8.2959,0.2219,1.1659,0.0649
592841.0,2.0135,-0.079,8.6,0.2054,1.292,0.009
592851.0,1.9561,0.3735,8.9136,0.1921,1.3521,-0.0351
592861.0,1.7813,0.7925,8.8873,0.1527,1.3266,-0.0452
592871.0,1.8723,0.917,8.3989,0.1022,1.2845,-0.0197
592881.0,1.8627,0.7015,8.0493,0.0835,1.351,0.0176
592891.0,1.5754,0.5219,7.7117,0.1442,1.5261,0.0463
592901.0,1.154,0.17,7.9942,0.2198,1.7496,0.0601
592911.0,0.8332,-0.1628,8.576,0.3363,1.9864,0.0537
592921.0,0.395,-0.3735,9.9838,0.4917,2.2125,0.0277
592931.0,0.0718,-0.2179,11.4179,0.6508,2.2918,-0.0223
592941.0,-0.1844,0.3065,12.0835,0.6518,2.0971,-0.0952
592951.0,-0.1963,0.8882,11.9135,0.5236,1.7703,-0.1692
592961.0,-0.2418,1.5634,11.078,0.3975,1.5405,-0.2134
592971.0,-0.4046,2.2625,10.331,0.2559,1.4356,-0.2336
592981.0,-0.5986,2.8084,9.754,0.1235,1.409,-0.2075
592991.0,-0.8715,3.2537,9.1866,0.0372,1.434,-0.1352
593001.0,-1.1827,3.1436,8.6431,-0.0527,1.4782,-0.0165
593011.0,-0.9361,1.9609,8.3103,-0.1176,1.5798,0.1203
593021.0,-0.8068,0.6895,8.1092,-0.1181,1.782,0.1921
593031.0,-1.1396,-0.0622,8.4132,-0.0777,2.0566,0.1809
593041.0,-1.5203,-0.4118,8.8681,-0.017,2.3158,0.1224
593051.0,-2.0087,-0.3735,9.5122,0.0149,2.5132,0.0394
593061.0,-2.6959,0.0239,10.1442,0.0404,2.6568,-0.0404
593071.0,-3.3208,0.5842,10.4244,0.0724,2.7223,-0.0894
593081.0,-4.0175,1.0798,10.3525,0.1399,2.7915,-0.0968
593091.0,-4.7381,1.1636,10.6279,0.2634,2.9947,-0.066
593101.0,-5.0996,0.5962,12.6462,0.513,3.3794,-0.0239
593111.0,-5.7628,0.8763,14.6765,0.7928,3.6258,-0.0442
593121.0,-6.3135,1.6999,16.587,0.7482,3.4582,-0.1256
593131.0,-6.4404,2.9281,17.0419,0.4981,3.0437,-0.1905
593141.0,-7.1826,4.1994,17.2502,0.041,2.6105,-0.2155
593151.0,-7.7668,4.2353,18.6173,-0.3863,2.2982,-0.1325
593161.0,-8.1762,3.2058,20.7194,-0.4507,2.1396,0.0277
593171.0,-8.2121,1.8818,23.8822,-0.3081,1.9066,0.1447
593181.0,-8.6,1.8555,25.9244,-0.0968,1.3744,0.1719
593191.0,-8.2959,1.6568,28.1941,-0.1213,0.53,0.1479
593201.0,-8.418,2.15,27.9762,-0.2144,-0.5401,0.1096
593211.0,-8.6838,2.3415,26.3913,-0.6763,-1.8491,0.033
593221.0,-8.442,2.4205,23.1687,-1.1898,-3.1341,-0.0309
593231.0,-8.2959,2.5929,18.9166,-1.4367,-3.9935,-0.042
593241.0,-7.8578,2.3535,14.7962,-1.524,-4.4346,0.0048
593251.0,-6.9959,1.4724,12.299,-1.4846,-4.4841,0.0899
593261.0,-6.177,0.6057,11.1043,-1.2026,-4.2702,0.1841
593271.0,-5.6695,0.1125,9.8258,-0.8982,-4.1292,0.2543
593281.0,-4.6543,-0.3783,8.2313,-0.8046,-4.2228,0.2826
593291.0,-3.6009,-0.826,5.9448,-0.8221,-4.3138,0.2746
593301.0,-2.5115,-1.3384,3.814,-0.8679,-4.2367,0.2373
593311.0,-1.4317,-1.6735,1.7789,-0.8732,-3.9924,0.1666
593321.0,-0.1891,-2.0231,-0.0144,-0.87,-3.604,0.0708
593331.0,0.9673,-2.4852,-0.7925,-0.8977,-3.0666,-0.0447
593341.0,1.664,-2.7342,0.012,-0.8524,-2.4248,-0.182
593351.0,1.9824,-2.32,1.3431,-0.638,-1.8847,-0.3049
593361.0,2.2913,-1.7286,1.9345,-0.298,-1.5224,-0.3666
593371.0,2.6432,-1.2354,1.9154,0.0463,-1.2435,-0.3688
593381.0,2.909,-1.1349,1.7549,0.3374,-0.9514,-0.3358
593391.0,3.1963,-1.245,1.6879,0.5779,-0.6045,-0.3161
593401.0,3.237,-1.0415,1.7262,0.696,-0.265,-0.3395
593411.0,3.1029,-0.8356,2.4325,0.6433,0.0223,-0.3884
593421.0,3.2058,-0.5962,3.1915,0.572,0.257,-0.431
593431.0,3.1603,-0.3472,3.9504,0.4741,0.4092,-0.4651
593441.0,3.3064,-0.1772,4.0965,0.3773,0.4672,-0.4826
593451.0,3.5865,-0.0766,3.7517,0.2905,0.514,-0.4901
593461.0,3.7948,0.2298,2.6264,0.1841,0.5928,-0.5007
593471.0,3.711,0.6249,1.1732,-0.0101,0.7482,-0.5087
