time_ms,ax,ay,az,gx,gy,gz
2021541.0,-6.4189,3.4812,6.9049,-0.2501,0.0176,-0.0234
2021551.0,-6.3877,3.2968,6.9456,-0.2522,0.0234,-0.0266
2021561.0,-6.4045,3.122,6.8905,-0.2086,0.0335,-0.0314
2021571.0,-6.3518,3.0765,6.8211,-0.1602,0.0447,-0.0452
2021581.0,-6.3015,3.1963,6.7971,-0.125,0.058,-0.0639
2021591.0,-6.2944,3.2705,6.7971,-0.1181,0.0649,-0.0803
2021601.0,-6.2656,3.3686,6.8522,-0.1144,0.0553,-0.0952
2021611.0,-6.2153,3.5314,6.7133,-0.1192,0.0372,-0.1038
2021621.0,-6.1986,3.644,6.7325,-0.1437,0.0255,-0.1059
2021631.0,-6.2225,3.7685,6.7277,-0.1437,0.0298,-0.1
2021641.0,-6.2968,3.8786,6.7109,-0.1346,0.0399,-0.0857
2021651.0,-6.3997,3.7613,6.8283,-0.1298,0.0463,-0.0676
2021661.0,-6.3614,3.6033,6.8666,-0.1149,0.0452,-0.0553
2021671.0,-6.3973,3.5171,6.9647,-0.0867,0.0623,-0.0511
2021681.0,-6.438,3.4429,7.094,-0.0479,0.074,-0.0537
2021691.0,-6.4212,3.4046,7.1539,-0.0122,0.0681,-0.0601
2021701.0,-6.4404,3.565,7.082,0.0005,0.0601,-0.0718
2021711.0,-6.4189,3.8331,7.0988,-0.0351,0.0447,-0.0835
2021721.0,-6.4859,4.1539,7.2233,-0.0867,0.025,-0.0793
2021731.0,-6.4189,4.2258,7.3095,-0.1458,-0.0122,-0.058
2021741.0,-6.4356,4.4173,7.2161,-0.1868,-0.0463,-0.0277
2021751.0,-6.3398,4.446,7.1898,-0.2272,-0.0729,0.0138
2021761.0,-6.2872,4.3191,7.1132,-0.2352,-0.0947,0.0591
2021771.0,-6.1459,4.2018,6.8738,-0.215,-0.0984,0.0984
2021781.0,-6.0621,4.1132,6.6846,-0.2091,-0.0857,0.1261
2021791.0,-5.9424,4.0989,6.5817,-0.2405,-0.0612,0.1352
2021801.0,-5.9424,4.1659,6.5505,-0.3118,-0.0388,0.1336
2021811.0,-5.8826,4.2521,6.6822,-0.4097,-0.0346,0.1309
2021821.0,-5.8299,4.3981,6.6726,-0.4975,-0.0463,0.1362
2021831.0,-5.7102,4.5274,6.6415,-0.563,-0.049,0.1485
2021841.0,-5.691,4.5562,6.6391,-0.6066,-0.0298,0.1719
2021851.0,-5.6551,4.4724,6.7062,-0.6039,-0.0027,0.2006
2021861.0,-5.612,4.5633,6.5434,-0.5779,0.0176,0.2277
2021871.0,-5.5737,4.5849,6.4691,-0.5853,0.0484,0.2559
2021881.0,-5.5138,4.5777,6.5505,-0.5901,0.0899,0.2847
2021891.0,-5.4923,4.6495,6.5697,-0.5768,0.1421,0.3134
2021901.0,-5.5186,4.6783,6.6104,-0.5821,0.1788,0.3464
2021911.0,-5.5234,4.707,6.754,-0.6252,0.1857,0.3751
2021921.0,-5.4444,4.6759,6.7277,-0.6614,0.1868,0.4071
2021931.0,-5.4229,4.6998,6.7062,-0.6779,0.2038,0.4326
2021941.0,-5.4229,4.7549,6.7469,-0.7162,0.2325,0.456
2021951.0,-5.3391,4.7549,7.0461,-0.7684,0.2421,0.4789
2021961.0,-5.1739,4.6783,7.1443,-0.8014,0.2267,0.5013
2021971.0,-4.9584,4.6424,7.094,-0.8349,0.1926,0.5188
2021981.0,-4.5705,4.5777,7.0078,-0.8982,0.1532,0.5295
2021991.0,-4.4412,4.4843,7.1778,-0.9695,0.1346,0.5321
2022001.0,-4.3191,4.6376,7.0844,-1.0078,0.1,0.5406
2022011.0,-4.3646,4.5753,6.9097,-1.0408,0.0628,0.5624
2022021.0,-4.5346,4.2617,6.7516,-1.0451,0.049,0.5938
2022031.0,-4.7405,3.9289,6.4045,-1.0323,0.067,0.6119
2022041.0,-4.81,3.7062,6.2896,-1.0552,0.1208,0.6098
2022051.0,-4.9273,3.5578,6.6894,-1.094,0.1985,0.5997
2022061.0,-5.0637,3.4788,7.1802,-1.0828,0.2586,0.5928
2022071.0,-5.2936,3.5195,7.6998,-1.0163,0.2964,0.5938
2022081.0,-5.4755,3.486,8.1906,-0.9158,0.306,0.6045
2022091.0,-5.6144,2.9951,8.8394,-0.7513,0.3049,0.6242
2022102.0,-5.7245,2.9329,8.8729,-0.4385,0.3012,0.6353
2022111.0,-5.8778,3.1388,8.6838,-0.1655,0.3139,0.6364
2022121.0,-6.0885,3.0694,8.7269,-0.0106,0.3108,0.6412
2022131.0,-6.1866,3.055,8.1977,0.0894,0.2937,0.6359
2022141.0,-6.2273,3.0813,7.8003,0.0223,0.2975,0.5986
2022151.0,-6.2944,2.9904,8.0828,-0.2304,0.3139,0.5358
2022161.0,-6.5745,2.8706,8.9208,-0.4981,0.281,0.4651
2022171.0,-6.7349,2.885,9.3326,-0.6667,0.1793,0.406
2022181.0,-6.8139,2.6743,9.7157,-0.762,0.0665,0.364
2022191.0,-7.0006,2.466,9.8952,-0.7359,-0.0197,0.3347
2022201.0,-7.0653,2.071,10.1706,-0.6274,-0.0894,0.3171
2022211.0,-7.343,1.6137,10.1801,-0.4268,-0.1362,0.3006
2022221.0,-7.501,1.2354,9.8569,-0.241,-0.2102,0.2682
2022231.0,-7.4316,1.2019,9.1411,-0.1415,-0.282,0.2102
2022241.0,-7.5298,1.5874,8.8418,-0.1596,-0.3049,0.1383
2022251.0,-7.6495,1.9369,8.9639,-0.2065,-0.3022,0.0942
2022261.0,-7.841,2.2673,9.0644,-0.2107,-0.3166,0.0862
2022271.0,-8.0589,2.1979,9.232,-0.2065,-0.3496,0.1075
2022281.0,-8.2289,1.5299,9.4571,-0.1926,-0.3906,0.1389
2022291.0,-8.0254,0.8475,9.4355,-0.1139,-0.4209,0.1495
2022301.0,-7.9487,0.2705,9.7779,-0.0048,-0.3767,0.1304
2022311.0,-8.102,0.2873,10.2879,0.1022,-0.3209,0.083
2022321.0,-8.2576,0.8428,11.145,0.1123,-0.3453,0.0335
2022331.0,-8.3294,1.3982,11.9662,0.0676,-0.5023,0.017
2022341.0,-8.157,1.7358,11.8561,0.0564,-0.7487,0.0447
2022351.0,-7.8961,1.8244,11.2144,0.0362,-0.9796,0.0883
2022361.0,-7.6614,1.834,10.5273,-0.0564,-1.135,0.1229
2022371.0,-7.5106,1.7789,10.2352,-0.2086,-1.2531,0.1442
2022381.0,-7.1874,1.1899,10.1323,-0.3384,-1.3713,0.165
2022391.0,-6.7062,0.158,9.9288,-0.3443,-1.4596,0.1729
2022401.0,-6.2034,-0.237,9.0644,-0.2538,-1.483,0.1293
2022411.0,-5.8706,-0.1125,8.8729,-0.2943,-1.4505,0.0367
2022421.0,-5.6767,0.2993,9.019,-0.4001,-1.4303,-0.0596
2022431.0,-5.4923,0.7087,9.0501,-0.5193,-1.4633,-0.1362
2022441.0,-5.2648,0.8859,9.0573,-0.6204,-1.5096,-0.1836
2022451.0,-5.0566,0.8045,9.0597,-0.6518,-1.5373,-0.2112
2022461.0,-4.7764,0.3998,9.0357,-0.5859,-1.5389,-0.2368
2022471.0,-4.5083,0.2753,8.7029,-0.4566,-1.499,-0.2836
2022481.0,-4.4532,0.7709,8.6646,-0.3943,-1.4346,-0.3565
2022491.0,-4.537,1.5778,8.916,-0.423,-1.3989,-0.4198
2022501.0,-4.6064,2.308,9.1818,-0.4885,-1.4383,-0.4448
2022511.0,-4.4867,2.7845,8.9687,-0.5369,-1.5229,-0.4262
2022521.0,-4.3694,2.8443,8.5449,-0.572,-1.5889,-0.3778
2022531.0,-4.1803,2.2003,8.2959,-0.5614,-1.6107,-0.3203
2022541.0,-3.9361,1.549,7.7596,-0.448,-1.5921,-0.2905
2022551.0,-3.7397,1.5538,6.9504,-0.3565,-1.5548,-0.3044
2022561.0,-3.6583,1.8244,6.347,-0.3826,-1.5048,-0.3347
2022571.0,-3.5147,2.1261,5.9975,-0.4512,-1.4484,-0.3517
2022581.0,-3.2848,2.4277,5.4157,-0.531,-1.3846,-0.3491
2022591.0,-3.0861,2.3248,5.3415,-0.6252,-1.2803,-0.3304
2022601.0,-2.8539,1.8723,5.521,-0.6279,-1.1504,-0.299
2022611.0,-2.66,1.4078,5.4612,-0.5098,-1.0275,-0.2746
2022621.0,-2.4253,1.2546,5.2098,-0.365,-0.9126,-0.265
2022631.0,-2.1907,1.0989,4.8961,-0.248,-0.7843,-0.2613
2022641.0,-2.0063,1.0319,4.3958,-0.1623,-0.6364,-0.2708
2022651.0,-1.8651,1.0391,4.4029,-0.2309,-0.4784,-0.3033
2022661.0,-2.0399,0.5866,5.2816,-0.3624,-0.3182,-0.3358
2022671.0,-2.0997,0.182,5.8562,-0.3922,-0.2325,-0.3757
2022681.0,-2.1021,-0.0024,5.9927,-0.3858,-0.1719,-0.4321
2022691.0,-2.083,-0.0048,6.0621,-0.456,-0.1548,-0.5013
2022701.0,-1.9393,0.3065,5.7628,-0.571,-0.1671,-0.5768
2022711.0,-1.6065,0.6919,5.5593,-0.6598,-0.1144,-0.6279
2022721.0,-1.4964,1.1444,5.5162,-0.6481,0.0325,-0.6417
2022731.0,-1.561,1.1732,5.9448,-0.6103,0.1905,-0.6178
2022741.0,-1.6975,0.6057,6.3638,-0.538,0.2751,-0.5795
2022751.0,-1.9058,0.589,5.7628,-0.4885,0.2575,-0.5715
2022761.0,-1.9489,0.9026,4.5179,-0.5614,0.2112,-0.58
2022771.0,-1.9824,1.5012,2.387,-0.6657,0.2426,-0.5688
2022781.0,-1.743,2.3535,-0.4334,-0.8913,0.398,-0.539
2022791.0,-1.2761,2.5115,-1.8411,-1.2771,0.7726,-0.4757
2022801.0,-1.3001,3.0047,-2.3391,-1.5133,1.325,-0.3767
2022811.0,-1.6616,3.1268,-1.585,-1.5937,1.9044,-0.2208
2022821.0,-2.2649,2.9209,-0.2969,-1.4303,2.4413,-0.0096
2022831.0,-3.3232,2.6552,0.498,-1.0573,2.8676,0.2347
2022841.0,-4.4125,1.992,-0.1245,-0.5784,3.1544,0.4917
2022851.0,-5.4372,1.166,-1.8579,-0.074,3.5907,0.7056
2022861.0,-6.8738,-0.6009,-0.9002,0.3576,4.4144,0.8439
2022871.0,-9.2392,-1.9417,3.2992,0.9562,5.4552,0.8604
2022881.0,-11.9112,-1.4748,8.9423,1.6554,6.2145,0.7742
2022891.0,-13.6158,-1.3024,14.8105,2.1982,6.3987,0.6731
2022901.0,-14.2694,0.3376,18.5311,2.5967,6.0671,0.5364
2022911.0,-14.6429,1.5682,21.8758,2.6121,5.4424,0.4092
2022921.0,-14.3054,1.4437,23.6643,2.518,4.6006,0.3193
2022931.0,-13.7092,1.4916,23.6068,2.1433,3.637,0.1602
2022941.0,-13.3142,1.1803,24.8638,1.3218,2.6792,-0.067
2022951.0,-12.9909,1.4796,25.606,0.5779,1.6799,-0.2836
2022961.0,-12.5767,1.8387,25.5366,0.0112,0.6215,-0.4353
2022971.0,-11.8561,2.7797,22.8431,-0.3464,-0.4369,-0.5135
2022981.0,-10.9152,3.2465,19.6755,-0.6774,-1.2861,-0.5273
2022991.0,-9.8928,3.3255,16.0172,-0.8285,-1.7927,-0.4821
2023001.0,-8.9591,2.7366,12.9143,-0.845,-1.9736,-0.4076
2023011.0,-8.0876,1.8603,10.8122,-0.7343,-1.9055,-0.3406
2023021.0,-7.4986,1.4222,9.3661,-0.5002,-1.6942,-0.2959
2023031.0,-6.9168,1.47,8.2624,-0.2027,-1.442,-0.2581
2023041.0,-6.3925,1.6759,7.2257,0.0293,-1.1733,-0.2208
2023051.0,-6.0406,1.5682,7.2808,0.0894,-0.8801,-0.1995
2023061.0,-6.0023,1.6065,8.3366,0.125,-0.5736,-0.1963
2023071.0,-6.3422,1.4389,10.343,0.191,-0.3677,-0.1937
2023081.0,-6.6056,1.4317,11.7196,0.332,-0.4039,-0.1921
2023091.0,-6.6272,1.9321,11.7603,0.4597,-0.6204,-0.191
2023101.0,-6.5434,2.241,11.1929,0.4699,-0.8588,-0.1799
2023111.0,-6.529,1.9872,10.5345,0.4257,-1.027,-0.1628
2023121.0,-6.5266,2.0423,9.7731,0.3672,-1.1132,-0.1666
2023131.0,-6.7205,2.3631,9.4595,0.1926,-1.177,-0.1857
2023141.0,-6.7924,2.5307,9.3613,-0.0149,-1.2909,-0.191
2023151.0,-6.5242,2.6911,8.9663,-0.1639,-1.3899,-0.1825
2023161.0,-6.4021,2.7126,9.177,-0.257,-1.4106,-0.1591
2023171.0,-6.4141,2.5402,9.5577,-0.2634,-1.4436,-0.1165
2023181.0,-6.3422,2.229,9.5864,-0.1932,-1.5618,-0.0644
2023191.0,-6.0669,2.2984,8.6598,-0.107,-1.7097,-0.0181
2023201.0,-5.7293,2.1093,7.8027,-0.1059,-1.8039,0.0213
2023211.0,-5.3822,1.8172,6.6415,-0.1101,-1.8315,0.0553
2023221.0,-4.9728,1.2953,5.7293,-0.1793,-1.7922,0.0607
2023231.0,-4.6495,0.7949,5.3558,-0.2911,-1.6751,0.0229
2023241.0,-4.4245,0.4405,5.8849,-0.3773,-1.508,-0.042
2023251.0,-4.2952,0.5459,6.5841,-0.3081,-1.3478,-0.1091
2023261.0,-4.2066,0.7709,7.1347,-0.1862,-1.2558,-0.1591
2023271.0,-4.0558,1.3743,7.1347,-0.0952,-1.2584,-0.1953
2023281.0,-3.8188,1.9297,6.9647,-0.066,-1.2946,-0.2027
2023291.0,-3.5841,2.2505,6.5314,-0.0325,-1.3021,-0.1745
2023301.0,-3.2729,2.3343,6.1387,0.0037,-1.2345,-0.1314
2023311.0,-3.2178,2.5043,6.3398,-0.0133,-1.1217,-0.0915
2023321.0,-3.2681,2.7414,6.5434,-0.0676,-1.0706,-0.049
2023331.0,-3.2848,3.1484,6.1435,-0.2081,-1.1068,-0.0005
2023341.0,-3.3375,3.1675,5.6647,-0.4922,-1.1563,0.0543
2023351.0,-3.043,2.8587,4.9919,-0.804,-1.1653,0.1123
2023361.0,-2.7892,2.4134,4.7142,-1.0472,-1.0515,0.1586
2023371.0,-2.5881,1.3695,5.3558,-1.1403,-0.8306,0.2054
2023381.0,-2.5426,0.2131,6.2537,-0.9754,-0.58,0.2347
2023391.0,-2.4325,0.0838,6.6272,-0.6492,-0.3852,0.2166
2023401.0,-2.411,0.5243,6.6248,-0.3672,-0.2373,0.1873
2023411.0,-2.3391,1.1253,6.5242,-0.1878,-0.1203,0.1756
2023421.0,-2.2003,1.7885,6.2393,-0.0819,0.0122,0.191
2023431.0,-2.2338,2.1093,6.1675,-0.091,0.1639,0.2304
2023441.0,-2.3248,1.9178,6.7038,-0.1857,0.2927,0.2852
2023451.0,-2.4565,1.5299,7.2449,-0.257,0.3778,0.3358
2023461.0,-2.4565,0.7614,7.7165,-0.2868,0.4129,0.3767
2023471.0,-2.4469,-0.0646,7.8219,-0.2464,0.4177,0.3895
2023481.0,-2.6145,-0.8428,7.7285,-0.1815,0.4028,0.3624
2023491.0,-2.5187,-1.4341,6.8163,-0.0325,0.3491,0.3038
2023501.0,-2.3415,-1.4054,4.4341,0.1586,0.3406,0.2086
2023511.0,-2.0063,-0.9864,1.6855,0.1836,0.4512,0.0846
2023521.0,-1.8364,0.3687,-1.0511,0.0553,0.7732,-0.041
2023531.0,-1.9968,1.6209,-2.3487,-0.3081,1.2659,-0.116
2023541.0,-2.5355,2.8299,-2.7318,-0.8306,1.7906,-0.116
2023551.0,-3.5745,3.2202,-1.3958,-1.5218,2.2418,-0.0341
2023561.0,-4.4317,2.4397,0.7614,-1.9922,2.5643,0.141
2023571.0,-5.0925,0.6081,3.0191,-1.7969,2.9607,0.3868
2023581.0,-5.8466,-1.7789,5.533,-0.9434,3.4625,0.6167
2023591.0,-6.5841,-4.0941,8.1977,0.4432,4.0089,0.7354
2023601.0,-7.6734,-3.134,9.0094,1.906,4.4357,0.6502
2023611.0,-8.916,-0.4142,9.517,2.544,4.5953,0.4645
2023621.0,-10.0269,1.561,11.7723,2.2695,4.5884,0.2975
2023631.0,-11.2288,2.9066,15.9382,1.6006,4.483,0.1687
2023641.0,-12.3062,3.6919,21.0307,0.8716,4.0616,0.0974
2023651.0,-12.8928,4.5226,24.7249,0.2347,3.1331,0.0974
2023661.0,-12.4762,4.5035,25.29,-0.2267,1.8145,0.1926
2023671.0,-11.169,2.9066,22.6683,-0.3586,0.5752,0.3427
2023681.0,-9.9671,0.9122,18.2366,-0.2309,-0.2001,0.4262
2023691.0,-9.0692,-0.6345,14.3796,-0.2006,-0.5119,0.3656
2023701.0,-8.5617,-1.3551,12.8138,-0.3203,-0.5449,0.1921
2023711.0,-8.3582,-1.0008,12.1697,-0.3363,-0.4927,0.0011
2023721.0,-8.023,-0.2514,11.71,-0.2559,-0.5007,-0.141
2023731.0,-7.5537,0.9098,10.817,-0.1176,-0.5295,-0.2198
2023741.0,-7.2209,2.0949,10.1203,-0.0298,-0.4981,-0.2373
2023751.0,-7.0198,2.545,10.161,-0.0266,-0.4406,-0.199
2023761.0,-6.9743,2.5043,10.4986,0.0032,-0.4422,-0.1261
2023771.0,-6.8235,2.2577,10.1538,0.1213,-0.5624,-0.0372
2023781.0,-6.5242,1.8699,8.6359,0.2836,-0.6795,0.0474
2023791.0,-6.2177,1.5371,7.1132,0.3299,-0.6635,0.0883
2023801.0,-6.2728,1.1253,6.857,0.1953,-0.5209,0.0761
2023811.0,-6.4476,0.6728,7.6734,0.041,-0.3842,0.0325
2023821.0,-6.6774,1.0151,8.4539,-0.0255,-0.3267,-0.0234
2023831.0,-6.8354,1.6688,8.9854,-0.1245,-0.3991,-0.0617
2023841.0,-6.8211,1.9273,9.1387,-0.2767,-0.5816,-0.0633
2023851.0,-6.4715,1.664,8.6694,-0.3496,-0.7849,-0.0357
2023861.0,-5.9951,1.415,7.4891,-0.274,-0.8578,-0.0037
2023871.0,-5.8826,0.8715,7.0773,-0.1974,-0.7721,0.0112
2023881.0,-5.7485,0.34,7.4316,-0.1288,-0.6662,-0.0074
2023891.0,-5.8706,0.2873,8.1523,-0.0133,-0.5773,-0.0516
2023901.0,-6.0741,1.0343,8.5018,0.0952,-0.6071,-0.1016
2023911.0,-6.0286,2.0734,8.1283,0.0591,-0.7487,-0.1256
2023921.0,-5.9424,2.6121,7.8602,-0.1277,-0.8876,-0.1139
2023931.0,-5.8107,2.7605,7.4651,-0.3145,-0.9951,-0.0676
2023941.0,-5.5234,2.0255,7.0581,-0.4017,-1.0435,0.0
2023951.0,-5.1906,1.0798,6.5505,-0.381,-1.0062,0.042
2023961.0,-4.8842,0.3376,6.7804,-0.2831,-0.8711,0.0394
2023971.0,-4.8459,0.3304,7.0844,-0.0825,-0.7237,0.0069
2023981.0,-4.8363,0.7207,7.0916,0.0756,-0.6598,-0.0351
2023991.0,-4.8339,1.4126,6.7038,0.0793,-0.6545,-0.0697
2024001.0,-4.7836,2.1715,6.4021,-0.0984,-0.6476,-0.0878
2024011.0,-4.7525,2.4732,7.003,-0.3416,-0.5938,-0.074
2024021.0,-4.8028,2.3511,8.2744,-0.4214,-0.5087,-0.0208
2024031.0,-5.0637,2.3774,9.323,-0.2618,-0.4443,0.0564
2024041.0,-5.3295,2.2673,9.8402,-0.0772,-0.5023,0.1453
2024051.0,-5.2289,1.6376,9.4906,0.0122,-0.6779,0.2187
2024061.0,-4.9584,0.8356,8.5377,-0.0032,-0.8381,0.2437
2024071.0,-4.5514,0.0215,7.5968,-0.1107,-0.9078,0.2038
2024081.0,-4.3479,-0.5602,7.2065,-0.2363,-0.8498,0.1059
2024091.0,-4.1851,-0.6656,7.5106,-0.3363,-0.7333,-0.0223
2024101.0,-4.2737,-0.3735,8.497,-0.373,-0.63,-0.1474
2024111.0,-4.3718,0.407,9.244,-0.315,-0.6252,-0.2341
2024121.0,-4.4053,1.5778,9.2057,-0.2517,-0.7301,-0.2666
2024131.0,-4.3958,2.3774,8.7771,-0.2277,-0.8524,-0.2325
2024141.0,-4.2521,2.8347,7.6782,-0.2006,-0.9323,-0.1437
2024151.0,-3.9816,2.3296,6.4643,-0.2629,-0.9456,-0.041
2024161.0,-3.5985,0.8045,6.0382,-0.3549,-0.8455,0.0287
2024171.0,-3.4309,0.0383,5.7389,-0.3475,-0.6433,0.016
2024181.0,-3.4381,-0.17,6.1938,-0.356,-0.4448,-0.0468
2024191.0,-3.4189,0.2011,6.347,-0.3491,-0.3326,-0.1133
2024201.0,-3.3112,0.5602,6.122,-0.3528,-0.2927,-0.1532
2024211.0,-3.0981,0.7949,5.4109,-0.3757,-0.2788,-0.1681
2024221.0,-3.0167,1.1396,3.8499,-0.3959,-0.2645,-0.1575
2024231.0,-2.5786,1.4629,1.0008,-0.4587,-0.2597,-0.1192
2024241.0,-1.9968,1.7047,-3.0957,-0.6008,-0.0995,-0.066
2024251.0,-1.5251,1.6137,-6.7971,-0.8684,0.3517,-0.0053
2024261.0,-1.0463,1.5658,-8.7436,-0.9775,1.1797,0.0745
2024271.0,-2.4541,2.3248,-9.1842,-0.6401,2.3844,0.2059
2024281.0,-4.5131,3.0023,-7.75,-0.1064,3.6029,0.4044
2024291.0,-7.0246,2.0063,-3.5578,0.5715,4.9439,0.6534
2024301.0,-10.2711,0.2131,3.5745,1.2717,6.0687,0.821
2024311.0,-12.5145,-1.2641,11.169,1.9773,6.5567,0.837
2024321.0,-14.0707,-0.0335,16.496,2.7111,6.4838,0.7152
2024331.0,-15.0356,2.3487,20.7841,3.1113,5.9868,0.5875
2024341.0,-15.2295,3.5482,24.0785,3.3214,5.3243,0.53
2024351.0,-12.9885,6.1411,22.6396,2.9282,4.3043,0.4294
2024361.0,-15.6748,5.7652,28.8406,1.0887,3.298,0.1942
2024371.0,-15.9526,5.6527,33.277,-0.281,1.8996,0.0495
2024381.0,-15.5049,4.6208,33.2172,-1.2792,-0.2261,-0.0197
2024391.0,-13.7212,4.3646,26.0465,-1.8917,-2.2514,-0.0447
2024401.0,-11.995,3.3662,19.4457,-2.5047,-3.4853,-0.0931
2024411.0,-10.5584,2.3176,14.1497,-2.7377,-3.9084,-0.1309
2024421.0,-9.347,1.0654,10.8409,-2.5813,-3.8408,-0.1501
2024431.0,-8.3941,0.7709,8.4874,-2.0673,-3.5135,-0.1538
2024441.0,-7.6686,1.0846,7.1635,-1.441,-3.074,-0.124
2024451.0,-6.9599,1.5945,5.691,-0.8189,-2.6308,-0.0474
2024461.0,-6.0597,1.2258,5.1356,-0.497,-2.2397,0.0314
2024471.0,-5.4468,0.6105,5.928,-0.3698,-1.8448,0.0617
2024481.0,-5.4013,0.1413,7.6638,-0.2277,-1.5186,0.0548
2024491.0,-5.4971,-0.5866,9.6079,-0.0277,-1.3893,0.0303
2024501.0,-5.7221,-0.5148,10.2232,0.1846,-1.483,-0.0266
2024511.0,-5.77,0.2586,9.9311,0.2283,-1.7235,-0.1027
2024521.0,-5.7461,1.1301,8.9759,0.1352,-1.9789,-0.1527
2024531.0,-5.6048,1.7693,6.9264,-0.0319,-2.1955,-0.1591
2024541.0,-5.0733,1.7119,4.853,-0.3688,-2.3142,-0.1532
2024551.0,-4.4341,1.0151,3.7326,-0.7088,-2.1934,-0.1612
2024561.0,-4.118,-0.0479,3.8834,-0.8673,-1.889,-0.1894
2024571.0,-4.0773,-0.7087,4.6112,-0.8035,-1.5628,-0.248
2024581.0,-4.0534,-1.008,5.5138,-0.6173,-1.3282,-0.3257
2024591.0,-4.0893,-1.0127,6.2249,-0.3225,-1.1802,-0.397
2024601.0,-4.0941,-0.3711,5.9903,0.0591,-1.0834,-0.4539
2024611.0,-3.9456,0.8404,5.0302,0.3725,-0.9919,-0.4853
2024621.0,-3.8188,2.1356,4.0342,0.5241,-0.8418,-0.4746
2024631.0,-3.6943,3.0861,3.4572,0.5454,-0.6173,-0.4113
2024641.0,-3.7996,3.723,3.3399,0.4874,-0.3437,-0.3118
2024651.0,-3.8618,3.4907,3.8858,0.3624,-0.0958,-0.19
2024661.0,-3.7757,2.7964,4.6591,0.2618,0.1192,-0.0867
2024671.0,-3.8475,1.9872,5.9185,0.1687,0.3108,-0.0234
2024681.0,-3.8786,1.3408,7.1227,0.1208,0.4092,0.0021
2024691.0,-3.8403,1.2665,7.944,0.0596,0.4055,-0.0069
2024701.0,-3.7972,1.3575,8.4659,-0.0495,0.3246,-0.0186
2024711.0,-3.7014,1.5586,8.5353,-0.166,0.2081,-0.0223
2024721.0,-3.6536,1.6807,8.4683,-0.2708,0.1144,-0.009
2024731.0,-3.5482,2.071,7.9631,-0.3517,0.0617,0.0208
2024741.0,-3.474,2.1476,7.8362,-0.4848,0.0388,0.0702
2024751.0,-3.3495,2.0662,7.6902,-0.5459,0.0649,0.1437
2024761.0,-3.3471,1.3384,8.1044,-0.5374,0.1511,0.2214
2024771.0,-3.3591,0.3232,8.3893,-0.4273,0.2331,0.2772
2024781.0,-3.3591,-0.6249,8.5688,-0.3219,0.2751,0.2767
2024791.0,-3.2322,-1.3767,8.8418,-0.2661,0.2831,0.2166
2024801.0,-3.201,-1.8292,8.9998,-0.1846,0.2921,0.1123
2024811.0,-3.1412,-1.2953,8.6838,-0.0873,0.2953,-0.0165
2024821.0,-3.1651,-0.6752,8.7939,-0.0803,0.3203,-0.1293
2024831.0,-3.2322,0.3472,8.8825,-0.0862,0.3555,-0.2054
2024841.0,-3.4931,1.2737,9.3374,-0.1485,0.3847,-0.2336
2024851.0,-3.5985,1.7454,9.9168,-0.2639,0.3469,-0.215
2024861.0,-3.7014,1.585,10.3813,-0.3906,0.2549,-0.1708
2024871.0,-3.8068,1.2833,10.7284,-0.5177,0.116,-0.1368
2024881.0,-3.814,1.1253,10.4938,-0.6231,-0.0612,-0.1176
2024891.0,-3.699,1.0487,9.6558,-0.7732,-0.2591,-0.1107
2024901.0,-3.4596,0.6871,8.6,-1.0073,-0.4289,-0.1176
2024911.0,-3.3112,0.6393,7.3789,-1.2361,-0.5279,-0.1405
2024921.0,-3.3279,0.759,5.7006,-1.433,-0.6151,-0.1458
2024931.0,-2.873,1.008,2.0111,-1.5681,-0.7535,-0.1006
2024941.0,-1.9585,1.0558,-3.6464,-1.6283,-0.7412,-0.0043
2024951.0,-0.5315,1.3264,-9.8402,-1.5043,-0.2166,0.1293
2024961.0,-0.4405,2.2817,-13.6757,-0.9142,1.2042,0.3113
2024971.0,-3.2058,3.2729,-14.2216,-0.041,3.0112,0.5635
2024981.0,-6.5146,3.158,-12.5552,0.8716,4.7321,0.8631
2024991.0,-9.9766,1.0726,-6.6008,1.707,6.4918,1.1244
2025001.0,-13.2471,-3.2465,5.0159,2.626,8.0376,1.2286
2025011.0,-17.1185,-2.9856,15.2032,3.8786,8.7064,1.0818
2025021.0,-15.038,-0.8882,21.7896,4.4469,8.0572,0.7285
2025031.0,-15.0188,2.2625,25.4719,4.0621,6.8866,0.3475
2025041.0,-15.4977,6.4189,29.5732,3.0272,5.3158,0.0404
2025051.0,-14.9135,8.9328,28.8549,2.0726,3.5609,0.0064
2025061.0,-14.4586,6.7181,28.3976,0.7535,1.9459,0.0782
2025071.0,-14.1186,3.3208,27.6028,-0.5683,0.4268,0.049
2025081.0,-13.611,-0.2729,25.8885,-1.4968,-1.0515,-0.0921
2025091.0,-12.3852,-1.9704,20.3842,-1.7916,-2.295,-0.3171
2025101.0,-11.2815,-1.7885,15.2894,-1.9188,-2.9596,-0.6082
2025111.0,-10.4531,0.2298,11.4347,-1.8273,-3.0836,-0.8354
2025121.0,-9.7013,2.2625,8.916,-1.4835,-2.9154,-0.8812
2025131.0,-8.7915,3.6607,6.6224,-0.9248,-2.5925,-0.7439
2025141.0,-8.1786,4.2952,5.5162,-0.3709,-2.1215,-0.5002
2025151.0,-7.592,3.8571,5.6743,0.1107,-1.6134,-0.2187
2025161.0,-7.3095,2.9664,6.5601,0.4975,-1.1866,0.0234
2025171.0,-7.3981,2.15,7.7476,0.6944,-0.9504,0.1841
2025181.0,-7.2736,0.8667,8.8274,0.7056,-0.9424,0.2687
2025191.0,-6.8091,-0.6153,9.4954,0.7003,-1.0174,0.2655
2025201.0,-6.675,-1.2378,9.979,0.6944,-1.0759,0.1618
2025211.0,-6.8953,-1.0774,10.4459,0.5795,-1.2084,0.0011
2025221.0,-6.869,-0.1915,9.9838,0.3608,-1.4968,-0.157
2025231.0,-6.6655,0.7326,8.928,0.0442,-1.7969,-0.2756
2025241.0,-6.3135,1.4748,8.0014,-0.2176,-1.9337,-0.3374
2025251.0,-6.2968,2.2841,7.5513,-0.3326,-1.8858,-0.3427
2025261.0,-6.3805,2.6025,7.5992,-0.3602,-1.8039,-0.2836
2025271.0,-6.4165,2.5881,7.1515,-0.3299,-1.7932,-0.1958
2025281.0,-6.0238,2.0303,6.1028,-0.3251,-1.8044,-0.1139
2025291.0,-5.4875,0.8859,5.3486,-0.3368,-1.7044,-0.0702
2025301.0,-5.2098,0.3663,4.9895,-0.3038,-1.475,-0.0931
2025311.0,-5.0518,-0.1508,5.873,-0.2522,-1.1994,-0.1469
2025321.0,-5.126,0.2131,6.6415,-0.0809,-0.9759,-0.2091
2025331.0,-5.1667,1.0151,7.2113,0.0144,-0.8971,-0.2565
2025341.0,-5.0135,1.8651,7.2089,0.0559,-0.9019,-0.2602
2025351.0,-4.8937,2.4421,7.2808,0.0468,-0.8939,-0.2203
2025361.0,-4.853,2.3894,7.501,0.0468,-0.8508,-0.1506
2025371.0,-4.8243,2.0853,7.6878,0.0458,-0.8413,-0.0857
2025381.0,-4.7501,1.7238,7.7788,0.0601,-0.8445,-0.0357
2025391.0,-4.6926,1.6664,7.3406,0.1032,-0.8594,-0.0048
2025401.0,-4.4604,1.6233,6.7157,0.0633,-0.8514,0.0048
2025411.0,-4.2952,1.3862,6.7181,-0.0612,-0.7716,-0.0032
2025421.0,-4.2808,1.1756,7.1251,-0.1889,-0.68,-0.0335
2025431.0,-4.1994,1.1684,7.4148,-0.3113,-0.6625,-0.0729
2025441.0,-4.1276,1.2546,7.5992,-0.4331,-0.6923,-0.1101
2025451.0,-3.9528,1.4245,7.6974,-0.5156,-0.7322,-0.1341
2025461.0,-3.7469,1.7406,7.4675,-0.5295,-0.7434,-0.1357
2025471.0,-3.6296,1.8364,7.5226,-0.5225,-0.7125,-0.1155
2025481.0,-3.5458,1.9106,7.4819,-0.4603,-0.679,-0.0745
2025491.0,-3.45,2.0399,7.264,-0.4188,-0.6742,-0.0282
2025501.0,-3.3208,1.9369,6.9384,-0.4379,-0.6854,0.0229
2025511.0,-3.1029,1.9417,6.1723,-0.4874,-0.6875,0.067
2025521.0,-2.9616,1.573,5.7341,-0.5768,-0.6353,0.1075
2025531.0,-2.6935,0.5052,5.4181,-0.622,-0.5358,0.1426
2025541.0,-2.4852,-1.2282,5.5881,-0.6231,-0.3922,0.1277
2025551.0,-2.32,-2.1787,5.4731,-0.5906,-0.265,0.0202
2025561.0,-2.4541,-1.9154,5.7748,-0.5917,-0.1745,-0.1426
2025571.0,-2.5115,-0.8523,5.3247,-0.4965,-0.1458,-0.2639
2025581.0,-2.5235,0.8068,3.3734,-0.3283,-0.1266,-0.3033
2025591.0,-2.411,2.569,0.0335,-0.2953,-0.0835,-0.2496
2025601.0,-0.0838,3.3902,-3.8954,-0.4496,0.0851,-0.1187
2025611.0,-3.3399,4.7453,-7.9655,-0.6667,0.7152,0.049
2025621.0,-2.1404,4.5514,-10.5417,-1.1983,1.3425,0.2586
2025631.0,-3.1196,4.1132,-10.9223,-1.4617,2.3902,0.513
2025641.0,-5.2409,4.0893,-10.2424,-1.3053,3.6397,0.8014
2025651.0,-7.5872,3.4333,-6.6487,-1.0541,4.7938,1.1318
2025661.0,-11.7148,3.0718,-0.7446,-0.2857,5.9107,1.5048
2025671.0,-12.4858,2.6504,3.8642,1.0147,6.6977,1.9028
2025681.0,-14.528,-0.5794,10.4794,2.4222,7.5054,2.2104
2025691.0,-15.4163,-3.4931,17.5112,3.6061,7.9455,2.1854
2025701.0,-16.2351,-4.1084,25.527,4.0403,7.6475,1.7789
2025711.0,-16.8672,-3.0119,33.0663,3.8631,6.5226,1.2159
2025721.0,-16.496,-0.8021,34.6848,3.2815,4.5889,0.6465
2025731.0,-15.8879,0.6847,33.2794,1.8358,2.4344,0.0553
2025741.0,-15.7993,1.719,32.111,-0.1346,0.4044,-0.5204
2025751.0,-15.4043,2.7318,29.2571,-1.682,-1.4261,-0.9301
2025761.0,-14.5208,3.8738,24.0019,-2.4674,-2.8569,-1.1121
2025771.0,-13.3453,4.8339,18.1289,-2.6334,-3.6625,-1.0802
2025781.0,-11.9327,4.8435,13.0747,-2.2886,-3.8642,-0.8626
2025791.0,-10.3406,4.1683,8.8298,-1.4952,-3.5742,-0.5475
2025801.0,-8.8202,2.5881,6.4596,-0.5784,-2.9229,-0.2336
2025811.0,-7.9583,0.9409,6.2249,0.2256,-2.179,-0.0138
2025821.0,-7.4053,-0.2035,7.1467,0.7843,-1.6458,0.0798
2025831.0,-7.0485,-0.5986,7.9918,1.0648,-1.409,0.0665
2025841.0,-6.7516,-0.0599,8.4372,1.0445,-1.3856,-0.0223
2025851.0,-6.7804,1.008,8.3558,0.737,-1.4894,-0.1245
2025861.0,-6.529,1.4724,8.0924,0.1719,-1.698,-0.2059
2025871.0,-6.2872,1.0798,8.4874,-0.4326,-1.8837,-0.2724
2025881.0,-6.2345,0.7015,8.734,-0.7098,-2.013,-0.3241
2025891.0,-6.2465,0.6608,7.8602,-0.6598,-2.1247,-0.3448
2025901.0,-5.8012,0.5459,5.9831,-0.5204,-2.1875,-0.3427
2025911.0,-5.2313,0.6943,4.1899,-0.4528,-2.0816,-0.3539
2025921.0,-4.7836,1.0439,3.5267,-0.4337,-1.7693,-0.3677
2025931.0,-4.8147,1.4485,4.1946,-0.4369,-1.3904,-0.3682
2025941.0,-4.9704,1.6161,5.691,-0.4129,-1.1254,-0.3416
2025951.0,-5.0733,1.9513,6.5362,-0.2751,-1.0408,-0.2841
2025961.0,-4.9297,2.0159,6.3494,-0.0878,-1.0546,-0.1995
2025971.0,-4.5586,1.8004,5.5402,0.1064,-1.0179,-0.1139
2025981.0,-4.3574,1.5299,5.126,0.2272,-0.8535,-0.0601
2025991.0,-4.2904,0.8643,5.6192,0.2639,-0.638,-0.0378
2026001.0,-4.2593,0.4262,6.28,0.2692,-0.5023,-0.0553
2026011.0,-4.2617,0.6656,6.8857,0.2097,-0.4608,-0.108
2026021.0,-4.2689,1.2594,7.3598,0.1341,-0.4752,-0.1463
2026031.0,-4.1827,1.9154,7.2472,0.0713,-0.5209,-0.1517
2026041.0,-4.0821,2.3415,6.9264,-0.0202,-0.5593,-0.1266
2026051.0,-3.9002,2.3727,6.6679,-0.1054,-0.5438,-0.0718
2026061.0,-3.8092,1.7047,7.0006,-0.133,-0.4587,-0.0122
2026071.0,-3.7781,1.1061,7.1371,-0.0601,-0.3576,0.0255
2026081.0,-3.8092,0.6728,7.5465,0.0074,-0.2724,0.0261
2026091.0,-3.9121,0.4717,7.9392,0.0681,-0.2267,0.0016
2026101.0,-3.9792,0.8308,7.8745,0.0788,-0.2293,-0.0452
2026111.0,-4.0654,1.4461,7.7117,-0.0282,-0.2607,-0.0894
2026121.0,-4.0701,2.0063,7.3622,-0.2235,-0.3076,-0.1091
2026131.0,-3.9409,2.2051,7.1347,-0.4454,-0.3241,-0.1011
2026141.0,-3.9097,2.2697,7.0366,-0.6242,-0.2916,-0.0724
2026151.0,-3.814,1.6616,7.5872,-0.7343,-0.2176,-0.0229
2026161.0,-3.8738,1.2713,8.2313,-0.6476,-0.116,0.0261
2026171.0,-3.984,0.7997,8.7412,-0.4512,-0.0436,0.0729
2026181.0,-3.96,0.3591,8.8945,-0.2293,-0.0181,0.1016
2026191.0,-3.9241,0.3687,8.7005,-0.0569,-0.0106,0.0952
2026201.0,-3.893,0.6488,8.418,-0.0027,-0.009,0.0681
2026211.0,-3.8164,1.2426,8.0373,-0.0676,-0.0037,0.0431
2026221.0,-3.7493,1.5514,8.2169,-0.223,0.0122,0.041
2026231.0,-3.7206,1.8268,8.2528,-0.3304,0.0239,0.067
2026241.0,-3.6775,1.2594,8.7053,-0.4033,0.0474,0.1181
2026251.0,-3.711,0.1652,9.3613,-0.3624,0.0958,0.1522
2026261.0,-3.8307,0.1101,9.5768,-0.3225,0.0745,0.1213
2026271.0,-4.0007,0.2705,9.8162,-0.4284,-0.0341,0.0686
2026281.0,-3.9097,0.3041,9.4882,-0.5646,-0.2059,0.025
2026291.0,-3.6344,0.565,8.5593,-0.7024,-0.3379,-0.0181
2026301.0,-3.4907,0.7685,7.9176,-0.903,-0.3831,-0.0553
2026311.0,-3.1316,1.0295,7.6255,-1.102,-0.3959,-0.0761
2026321.0,-3.0694,1.5802,7.422,-1.2984,-0.4049,-0.0761
2026331.0,-3.2322,2.1141,6.9216,-1.5399,-0.5305,-0.0335
2026341.0,-3.3279,2.4397,4.8411,-1.7661,-0.8264,0.075
2026351.0,-3.043,2.478,-0.8092,-1.9018,-1.234,0.2602
2026361.0,-1.5802,2.9209,-8.1738,-1.8076,-1.2467,0.4922
2026371.0,-3.0981,3.2513,-17.0156,-1.1073,-0.3278,0.8226
2026381.0,-1.4772,2.6073,-23.7792,0.2112,1.4175,1.1393
2026391.0,-6.1244,3.8714,-26.0681,1.9736,4.7124,1.3824
2026401.0,-13.1585,1.8794,-15.8688,2.5972,7.7667,1.5399
2026411.0,-19.3308,0.4693,-1.2306,3.1592,9.8542,1.558
2026421.0,-19.733,-1.2354,13.8098,3.7674,10.6188,1.3633
2026431.0,-21.3299,2.1835,26.1183,4.1526,10.3618,1.0041
2026441.0,-20.6787,7.6854,36.3081,3.9068,8.6516,0.7519
2026451.0,-19.1847,13.3046,35.0966,3.5811,6.1805,0.8886
2026461.0,-17.6237,11.0947,33.538,2.3019,3.8605,1.2084
2026471.0,-16.0005,4.8052,29.9156,1.0935,2.1189,1.4128
2026481.0,-15.1601,-2.1308,28.8789,-0.1048,0.7285,1.2606
2026491.0,-13.4243,-5.3846,24.3371,-0.7976,-0.6641,0.829
2026501.0,-11.5927,-6.3087,19.2374,-1.2558,-1.7081,0.2687
2026511.0,-9.9288,-4.6591,14.1689,-1.3409,-2.1034,-0.2549
2026521.0,-9.1722,-2.4541,11.4898,-1.1217,-1.914,-0.6119
2026531.0,-9.2129,0.1891,10.1682,-0.6689,-1.524,-0.7609
2026541.0,-9.4044,1.7909,10.7356,-0.2144,-1.2212,-0.7199
2026551.0,-9.4044,2.4828,10.9247,0.406,-1.0286,-0.538
2026561.0,-9.4499,2.296,10.975,1.003,-0.8961,-0.323
2026571.0,-9.517,1.9058,11.1977,1.3755,-0.8349,-0.165
2026581.0,-9.742,1.5802,12.2511,1.5506,-0.8386,-0.0846
2026591.0,-10.0197,2.0087,13.1657,1.6597,-0.9168,-0.0601
2026601.0,-10.6015,2.9137,13.9941,1.5458,-1.1515,-0.0676
2026611.0,-10.9726,4.1156,14.1545,1.1632,-1.6112,-0.0734
2026621.0,-10.9535,4.6352,14.0085,0.6508,-2.1439,-0.0378
2026631.0,-10.7452,4.8387,12.8784,0.2634,-2.6079,0.0335
2026641.0,-10.5417,4.2641,10.8002,-0.0341,-2.9442,0.1192
2026651.0,-9.7899,3.0406,8.9711,-0.4023,-3.124,0.1511
2026661.0,-9.1674,2.1332,8.4515,-0.7615,-3.066,0.0958
2026671.0,-9.0022,1.6472,9.3302,-0.9833,-2.9,-0.0101
2026681.0,-8.9878,2.0039,10.1634,-1.0935,-2.8713,-0.1298
2026691.0,-8.8346,2.4732,10.4842,-1.1957,-3.0357,-0.2123
2026701.0,-8.2624,3.1603,9.5481,-1.2435,-3.2677,-0.2543
2026711.0,-7.7476,3.7254,8.0134,-1.2829,-3.3826,-0.257
2026721.0,-7.2616,3.802,6.8354,-1.3931,-3.3938,-0.2288
2026731.0,-6.6056,3.3567,6.1938,-1.5085,-3.3369,-0.1868
2026741.0,-5.9017,2.4349,6.1746,-1.4548,-3.1783,-0.1463
2026751.0,-5.5474,2.1715,6.0501,-1.2223,-2.9532,-0.1357
2026761.0,-5.4229,2.3511,6.28,-1.0515,-2.7936,-0.1389
2026771.0,-5.023,2.6791,6.0525,-0.9509,-2.7494,-0.132
2026781.0,-4.6591,3.0598,5.3846,-0.9216,-2.7228,-0.1149
2026791.0,-3.9002,3.0574,4.4796,-0.9653,-2.6552,-0.074
2026801.0,-3.1173,2.0494,4.5562,-1.0179,-2.4871,-0.0298
2026811.0,-2.5786,1.4964,4.5155,-0.9062,-2.2338,-0.017
2026821.0,-2.3703,0.8523,5.1619,-0.7897,-1.9997,-0.0271
2026831.0,-2.2936,0.3807,5.6647,-0.6236,-1.8294,-0.058
2026841.0,-2.2146,0.4118,5.9017,-0.4619,-1.7294,-0.1181
2026851.0,-1.9609,0.8691,5.7485,-0.307,-1.6352,-0.1862
2026861.0,-1.7406,1.6496,5.6934,-0.183,-1.4835,-0.2363
2026871.0,-1.6352,2.3272,6.4165,-0.1266,-1.3095,-0.2432
2026881.0,-1.4653,2.7318,7.2161,-0.0761,-1.1962,-0.1995
2026891.0,-1.324,2.7821,7.8602,-0.0176,-1.1621,-0.1187
2026901.0,-1.1947,2.2889,8.6048,0.05,-1.1557,-0.0277
2026911.0,-1.1037,1.8555,9.0022,0.1272,-1.1914,0.0335
2026921.0,-1.1325,1.3336,9.256,0.1394,-1.2643,0.0564
2026931.0,-1.1492,0.9888,9.0549,0.0277,-1.4255,0.0319
2026941.0,-0.8452,0.5794,8.7293,-0.2075,-1.6112,-0.0309
2026951.0,-0.498,0.5722,7.9966,-0.4438,-1.7347,-0.1181
2026961.0,-0.2107,0.6369,7.841,-0.6912,-1.7815,-0.199
2026971.0,0.2634,0.4142,7.841,-0.8237,-1.764,-0.2405
2026981.0,0.486,0.316,7.9751,-0.7833,-1.6788,-0.2549
2026991.0,0.4908,0.6536,8.0254,-0.6226,-1.5516,-0.2442
2027001.0,0.4741,1.1803,7.8937,-0.5002,-1.475,-0.2022
2027011.0,0.395,1.5227,7.3454,-0.447,-1.4468,-0.1368
2027021.0,0.4908,1.1181,6.4811,-0.4555,-1.4016,-0.0607
2027031.0,0.9601,-0.3352,6.1339,-0.4688,-1.2531,-0.0181
2027041.0,1.1732,-1.1181,6.1794,-0.3688,-0.9525,-0.0623
2027051.0,1.0702,-1.6352,7.3861,-0.2735,-0.6423,-0.1607
2027061.0,0.8739,-1.0558,8.1523,-0.1277,-0.4688,-0.2783
2027071.0,0.735,0.1939,8.5521,-0.0415,-0.4225,-0.3704
2027081.0,0.8045,1.2905,8.4204,0.0463,-0.4092,-0.3863
2027091.0,0.9098,2.0279,7.8554,0.132,-0.3751,-0.3443
2027101.0,1.0726,1.8603,7.4962,0.157,-0.2868,-0.2677
2027111.0,1.0846,1.6041,7.2329,0.1346,-0.1681,-0.2166
2027121.0,0.8978,1.822,7.3598,-0.0372,-0.1091,-0.2086
2027131.0,0.8739,1.9034,7.2616,-0.2804,-0.1735,-0.1921
2027141.0,0.9122,2.1907,5.8035,-0.5018,-0.3129,-0.165
2027151.0,1.2258,2.3272,3.3495,-0.8498,-0.4417,-0.1181
2027161.0,1.7885,2.0303,0.2705,-1.2153,-0.5055,-0.0426
2027171.0,4.4053,2.15,-4.5705,-1.383,-0.3725,0.0569
2027181.0,1.6041,3.0287,-7.7261,-1.3973,0.2666,0.2065
2027191.0,3.3662,3.9672,-11.9638,-0.8908,1.0781,0.4624
2027201.0,2.1835,6.4236,-16.0005,0.1038,2.5446,0.7928
2027211.0,-1.5299,9.3829,-17.4585,0.9179,4.4687,1.2568
2027221.0,-6.8666,10.2161,-11.8752,1.1834,6.4263,1.8954
2027231.0,-11.0947,2.7869,1.3838,2.0316,8.3919,2.6999
2027241.0,-15.3923,-6.1531,12.8305,3.8594,9.6653,3.1054
2027251.0,-11.9064,-10.9271,26.9539,5.5702,10.2506,2.6744
2027261.0,-14.188,-9.517,39.3439,6.8877,10.058,1.7389
2027271.0,-16.5344,-2.4636,49.4666,5.9873,7.7806,0.4773
2027281.0,-17.0491,7.1323,50.8744,3.4662,3.8333,-0.6263
2027291.0,-14.8249,9.7875,42.8059,0.9445,-0.0841,-1.1579
2027301.0,-12.3325,13.8265,30.2507,-1.4117,-2.7558,-1.4436
2027311.0,-12.1889,12.2368,23.8941,-3.1203,-3.9541,-1.3574
2027321.0,-9.2919,9.6271,12.8042,-3.3289,-4.4128,-0.9573
2027331.0,-7.1084,6.1459,10.489,-3.4571,-3.8445,-0.655
2027341.0,-5.9185,4.7477,9.3446,-2.3679,-2.8042,-0.3262
2027351.0,-5.1763,3.5769,9.0214,-0.8998,-1.9305,0.008
2027361.0,-4.1276,2.8946,7.9152,0.274,-1.3244,0.282
2027371.0,-3.565,2.6336,7.7452,0.7551,-0.9291,0.4209
2027381.0,-3.0933,2.6647,7.7452,0.6976,-0.7168,0.4528
2027391.0,-2.818,1.8794,8.4707,0.224,-0.7311,0.4044
2027401.0,-2.3822,1.2498,8.4276,-0.2389,-0.8673,0.2996
2027411.0,-1.968,0.5028,8.4036,-0.6087,-0.9903,0.166
2027421.0,-1.7071,0.1245,7.8123,-0.7482,-1.0227,0.0298
2027431.0,-1.8244,0.5124,7.1467,-0.8062,-0.9998,-0.0979
2027441.0,-1.7813,1.1516,6.5721,-0.8567,-0.9599,-0.1809
2027451.0,-1.5778,2.1596,5.7844,-0.7992,-0.8147,-0.1985
2027461.0,-1.5347,2.466,5.8562,-0.7412,-0.5763,-0.1458
2027471.0,-1.4557,2.1763,6.3279,-0.6268,-0.3294,-0.0564
2027481.0,-1.4629,1.6496,7.0725,-0.4917,-0.1272,0.0218
2027491.0,-1.494,1.0894,7.6447,-0.3666,-0.0117,0.0713
2027501.0,-1.3408,0.1724,8.4324,-0.2815,0.058,0.0825
2027511.0,-1.4222,-0.3591,9.3158,-0.1948,0.1171,0.0303
2027521.0,-1.8818,-0.1796,10.2472,-0.2118,0.0835,-0.0692
2027531.0,-2.3607,0.6776,10.829,-0.3406,-0.1123,-0.166
2027541.0,-2.2673,1.6065,10.7715,-0.4566,-0.3852,-0.2102
2027552.0,-2.1811,2.7294,9.7276,-0.5071,-0.5539,-0.1969
2027561.0,-2.2745,3.1268,9.2799,-0.6944,-0.6651,-0.125
2027571.0,-1.8172,2.2482,9.0453,-0.8615,-0.7721,-0.0149
2027581.0,-1.3264,1.0894,8.5305,-0.8551,-0.7934,0.0708
2027591.0,-1.0391,0.3855,7.9344,-0.7987,-0.7535,0.0974
2027601.0,-0.9433,-0.2466,8.0517,-0.8104,-0.6933,0.0798
2027611.0,-0.6943,-1.0894,8.4515,-0.7492,-0.6412,0.0442
2027621.0,-0.4573,-1.7382,8.667,-0.5358,-0.5726,-0.0218
2027631.0,-0.4956,-1.8004,8.7293,-0.3134,-0.5044,-0.1277
2027641.0,-0.6297,-1.312,8.6574,-0.24,-0.5082,-0.2559
2027651.0,-0.6033,-0.395,8.2408,-0.2959,-0.5571,-0.365
2027661.0,-0.4812,0.4094,8.0469,-0.4534,-0.5534,-0.4347
2027671.0,-0.5219,0.6464,8.2624,-0.6561,-0.4927,-0.4624
2027681.0,-0.5315,0.3663,8.691,-0.8934,-0.48,-0.4773
2027691.0,-0.4764,-0.2179,9.2895,-1.1398,-0.5295,-0.5018
2027701.0,-0.2298,-1.3384,10.1801,-1.2233,-0.5763,-0.5295
2027711.0,-0.1077,-1.6376,10.422,-0.9817,-0.5736,-0.5678
2027721.0,-0.2418,-1.5467,10.5034,-0.6018,-0.5401,-0.5933
2027731.0,-0.1891,-1.2522,9.6199,-0.165,-0.5475,-0.5917
2027741.0,0.1101,-0.158,7.8482,0.1548,-0.5007,-0.588
2027751.0,0.2705,0.5842,7.2927,0.1932,-0.2964,-0.5662
2027761.0,0.1939,0.838,7.6686,0.1373,-0.0495,-0.5209
2027771.0,0.0814,0.3448,8.679,0.0192,0.1176,-0.4773
2027781.0,0.0024,-0.34,9.5744,-0.1229,0.1431,-0.472
2027791.0,0.0575,-0.3998,9.8234,-0.2996,0.0458,-0.5151
2027801.0,0.1915,-0.2729,9.845,-0.5193,-0.0734,-0.564
2027811.0,0.2849,-0.0024,9.572,-0.6715,-0.166,-0.5917
2027821.0,0.4334,-0.1101,9.3685,-0.7482,-0.2102,-0.5811
2027831.0,0.4597,0.1652,8.8083,-0.7141,-0.24,-0.5497
2027841.0,0.4405,1.2905,7.3526,-0.629,-0.2778,-0.4869
2027851.0,0.431,3.1603,4.3072,-0.6917,-0.3507,-0.3709
2027861.0,0.4525,5.0613,-0.6225,-1.1467,-0.472,-0.1793
2027871.0,0.8595,5.8371,-6.1699,-1.8922,-0.3203,0.1096
2027881.0,0.929,4.6352,-8.1954,-2.4866,0.596,0.472
2027891.0,-1.1492,3.7613,-6.0908,-2.3839,2.0673,0.8508
2027901.0,-4.8052,4.7549,-1.9058,-1.6043,3.4454,1.268
2027911.0,-7.7692,6.2106,2.3176,-0.4017,4.3915,1.8209
2027921.0,-9.6869,7.5705,4.9201,1.3415,5.2658,2.485
2027931.0,-14.1234,6.8402,9.0692,3.1682,6.413,3.149
2027941.0,-12.3493,2.8587,17.8368,4.7784,7.5086,3.6498
2027951.0,-12.4977,-0.7877,27.4136,6.0368,8.1323,3.7455
2027961.0,-13.9151,-0.9936,35.0535,5.8607,6.9962,3.3794
2027971.0,-10.3022,-5.0949,38.3551,4.5347,4.7433,2.7579
2027981.0,-9.2608,-5.1763,36.6433,2.7532,2.527,1.8124
2027991.0,-8.6024,-6.2058,33.7894,0.2623,0.1623,0.7274
2028001.0,-7.8266,-6.3853,28.3713,-2.022,-1.9518,-0.3044
2028011.0,-7.4292,-5.4803,23.0729,-3.4539,-3.3246,-1.1419
2028021.0,-6.8091,-2.3918,17.0826,-3.6498,-3.8381,-1.6485
2028031.0,-6.6008,1.0702,12.4498,-2.949,-3.587,-1.7751
2028041.0,-6.0861,3.316,9.3494,-1.8656,-2.9639,-1.5655
2028051.0,-5.7916,4.1204,8.6048,-0.8024,-2.2429,-1.1781
2028061.0,-5.5593,3.8786,8.7843,0.1634,-1.6543,-0.7396
2028071.0,-5.1667,2.8706,8.9783,0.8184,-1.3611,-0.3714
2028081.0,-4.5514,1.8268,8.7293,1.0887,-1.3021,-0.1559
2028091.0,-4.5514,1.8268,8.7293,1.0887,-1.3021,-0.1559
2028101.0,-4.0749,1.8004,8.2313,0.9647,-1.3638,-0.1022
2028111.0,-3.7565,1.6807,8.1954,0.5688,-1.4793,-0.1304
2028121.0,-3.4668,1.7142,7.8865,0.1995,-1.6059,-0.1873
2028131.0,-3.3303,2.0901,7.1874,-0.1485,-1.706,-0.2543
2028141.0,-3.2346,2.1213,6.4979,-0.5103,-1.8028,-0.2937
2028151.0,-2.7581,1.9848,5.2146,-0.7684,-1.8438,-0.3012
2028161.0,-2.0351,1.506,4.4748,-0.9206,-1.6847,-0.2884
2028171.0,-1.6568,0.6201,4.8866,-0.8844,-1.3361,-0.2543
2028181.0,-1.4605,0.3184,5.9113,-0.6625,-0.9812,-0.2309
2028191.0,-1.3264,0.1676,7.343,-0.3155,-0.7093,-0.1873
2028201.0,-1.2402,0.8452,7.7835,0.1453,-0.5518,-0.1288
2028211.0,-1.1947,1.4557,7.8434,0.4539,-0.4624,-0.0543
2028221.0,-1.1492,1.834,7.5657,0.5146,-0.4108,0.0149
2028231.0,-1.0798,1.5969,7.9176,0.29,-0.4007,0.0553
2028241.0,-1.1157,1.0726,8.418,0.0053,-0.4017,0.0681
2028251.0,-1.1205,0.0048,9.2512,-0.2416,-0.4284,0.0511
2028261.0,-0.9457,-1.2594,10.161,-0.3124,-0.4523,-0.0032
2028271.0,-1.0008,-1.561,10.7859,-0.1969,-0.4693,-0.1075
2028281.0,-1.1133,-0.8715,11.0971,-0.0335,-0.5412,-0.2214
2028291.0,-1.2043,0.4046,10.5273,0.1101,-0.6694,-0.2879
2028301.0,-1.0678,1.3479,9.5265,0.1277,-0.7716,-0.2895
2028311.0,-0.8619,1.403,8.8849,-0.0165,-0.7955,-0.2559
2028321.0,-0.6584,0.984,8.8825,-0.1995,-0.7279,-0.2261
2028331.0,-0.6728,0.4908,9.402,-0.3304,-0.6439,-0.2176
2028341.0,-0.6177,0.2634,9.6558,-0.3858,-0.6162,-0.2214
2028351.0,-0.4166,-0.249,10.1825,-0.4182,-0.5811,-0.2283
2028361.0,-0.3855,-0.814,11.2288,-0.3693,-0.5204,-0.2496
2028371.0,-0.6273,-0.7398,12.0907,-0.2155,-0.5204,-0.2884
2028381.0,-0.6776,-0.759,12.5001,-0.0623,-0.6508,-0.3182
2028391.0,-0.6704,-0.2322,11.576,0.0399,-0.8705,-0.3539
2028401.0,-0.3735,0.4669,10.1275,-0.0138,-1.0642,-0.3815
2028411.0,-0.0311,0.9792,8.5856,-0.1261,-1.0993,-0.3773
2028421.0,0.1628,1.336,7.8099,-0.2559,-0.9668,-0.3523
2028431.0,0.1269,1.3886,7.9487,-0.3831,-0.738,-0.3076
2028441.0,-0.079,1.2426,8.7293,-0.5002,-0.5688,-0.2554
2028451.0,-0.0599,0.7087,9.5457,-0.5843,-0.5358,-0.2022
2028461.0,0.0192,0.3472,9.6845,-0.5497,-0.5757,-0.1687
2028471.0,0.1796,0.4094,9.0166,-0.4645,-0.6321,-0.1511
2028481.0,0.5076,-0.0575,8.4204,-0.3858,-0.6311,-0.1256
2028491.0,0.7063,0.0646,7.4124,-0.2336,-0.5412,-0.1229
2028501.0,0.759,0.5746,6.6367,-0.1628,-0.3863,-0.1298
2028511.0,0.7638,1.0798,6.3351,-0.232,-0.2256,-0.1203
2028521.0,0.6416,1.5826,6.3135,-0.3555,-0.0873,-0.0894
2028531.0,0.5363,1.9872,6.3422,-0.4949,0.0197,-0.0293
2028541.0,2.4636,0.6608,6.7181,-0.6561,0.0713,0.0543
2028551.0,-0.6321,0.5794,6.6846,-0.7774,0.1399,0.0958
2028561.0,0.8045,-0.2035,5.0877,-0.9961,-0.166,0.1112
2028571.0,1.8507,-0.7326,2.0782,-1.0589,-0.2235,0.1415
2028581.0,1.3168,-0.3448,-0.9242,-0.9253,0.1341,0.1916
2028591.0,1.2953,0.5626,-5.1571,-0.7827,0.5124,0.2831
2028601.0,0.6105,2.4301,-10.1179,-0.5082,1.2127,0.414
2028611.0,-1.3001,5.3654,-15.0476,-0.0788,2.5909,0.6593
2028621.0,-3.8882,6.3183,-13.5344,0.1341,4.5416,1.0637
2028631.0,-8.5521,4.8291,-6.0956,0.5018,6.6354,1.5607
2028641.0,-12.6366,-0.5722,7.9033,1.1648,8.1679,1.9704
2028651.0,-13.6733,-2.4014,21.8279,2.8543,8.8799,2.0816
2028661.0,-14.1569,-2.9712,29.7168,5.021,8.6953,1.9465
2028671.0,-12.6246,-1.1636,33.5954,5.6766,7.4693,1.483
2028681.0,-13.4841,3.5674,36.4852,4.5389,5.4504,0.8413
2028691.0,-12.323,7.5848,35.0439,2.9176,3.2225,0.3778
2028701.0,-11.8705,7.908,34.3496,0.9418,1.4729,0.1224
2028711.0,-12.1817,6.3853,34.1389,-0.7572,-0.232,-0.0021
2028721.0,-11.1282,4.707,28.5724,-1.5777,-2.0242,0.0027
2028731.0,-8.8298,2.2841,20.4249,-1.8321,-3.1921,0.0431
2028741.0,-6.9887,0.6009,14.3101,-1.6958,-3.2996,0.0415
2028751.0,-5.9328,-0.5363,11.5784,-1.251,-2.7851,0.0213
2028761.0,-5.2026,-1.2809,10.7835,-0.6268,-2.1806,-0.0021
2028771.0,-4.8028,-0.9433,10.9559,-0.0548,-1.7405,-0.0452
2028781.0,-4.4652,-0.0239,11.1761,0.2735,-1.5586,-0.0835
2028791.0,-3.893,0.4501,10.6638,0.3028,-1.6224,-0.125
2028801.0,-3.474,0.7374,9.9647,0.0362,-1.7735,-0.1969
2028811.0,-3.0765,0.5531,9.6175,-0.4204,-1.9369,-0.2905
2028821.0,-2.8515,0.0024,9.3996,-0.7982,-2.0955,-0.3868
2028831.0,-2.6169,-0.4046,8.7652,-0.936,-2.2178,-0.4746
2028841.0,-2.3703,-0.3352,7.683,-0.8508,-2.2439,-0.5491
2028851.0,-2.2984,0.3112,6.7014,-0.6667,-2.1391,-0.6013
2028861.0,-2.3128,1.312,5.9664,-0.4502,-1.9534,-0.6034
2028871.0,-2.2434,2.1811,5.1547,-0.2815,-1.7634,-0.5523
2028881.0,-1.9585,2.6193,4.4341,-0.2134,-1.5713,-0.4581
2028891.0,-1.4245,2.2098,4.3048,-0.1809,-1.2835,-0.3464
2028901.0,-1.1085,1.2115,5.0589,-0.1149,-0.9057,-0.2591
2028911.0,-1.1827,0.905,6.3638,-0.0724,-0.5896,-0.2405
2028921.0,-1.3503,0.6895,8.0828,-0.1112,-0.4528,-0.2496
2028931.0,-1.3599,0.6033,9.2775,-0.0974,-0.4858,-0.2607
2028941.0,-1.3312,1.1995,9.5529,0.0048,-0.5731,-0.2719
2028951.0,-1.415,2.1332,9.3733,0.1075,-0.6306,-0.2591
2028961.0,-1.6544,3.0095,8.8083,0.066,-0.7003,-0.2091
2028971.0,-1.6137,3.043,8.2097,-0.1618,-0.8115,-0.1282
2028981.0,-1.1396,1.9537,7.8243,-0.3661,-0.8434,-0.0399
2028991.0,-0.8356,0.6249,7.7117,-0.4507,-0.7545,-0.0005
2029001.0,-0.6009,-0.4836,8.3079,-0.4182,-0.596,-0.0218
2029011.0,-0.5842,-0.6608,9.0357,-0.2464,-0.4422,-0.0841
2029021.0,-0.5363,-0.4381,9.56,-0.0835,-0.398,-0.1559
2029031.0,-0.3448,-0.0359,9.8234,0.0399,-0.3954,-0.2176
2029041.0,-0.5387,0.9122,9.6989,0.05,-0.4166,-0.2762
2029051.0,-0.6464,1.4341,9.7516,-0.1602,-0.5098,-0.3097
2029061.0,-0.6201,1.1372,9.7947,-0.4321,-0.6316,-0.3187
2029071.0,-0.4381,0.5794,9.7827,-0.6433,-0.7231,-0.3331
2029081.0,-0.2514,-0.182,9.8689,-0.7407,-0.762,-0.3608
2029091.0,-0.1149,-0.3065,9.6343,-0.7066,-0.7726,-0.4103
2029101.0,-0.0407,-0.0646,9.4954,-0.6582,-0.771,-0.4566
2029111.0,0.0766,0.3831,9.1842,-0.5747,-0.7795,-0.472
2029121.0,0.2107,0.9194,8.4491,-0.4156,-0.7311,-0.447
2029131.0,0.3232,1.3551,7.7405,-0.3113,-0.63,-0.3991
2029141.0,0.3615,1.5682,7.4651,-0.315,-0.4853,-0.3395
2029151.0,0.316,1.312,7.6662,-0.4119,-0.3427,-0.2831
2029161.0,0.316,0.6608,7.8434,-0.5922,-0.2746,-0.2575
2029171.0,0.4357,-0.2394,8.1954,-0.8248,-0.241,-0.2692
2029181.0,0.6201,-1.1229,9.007,-1.0057,-0.2128,-0.3219
2029191.0,0.6464,-1.4317,10.0628,-0.9142,-0.1272,-0.3895
2029201.0,0.4214,-0.7853,10.9152,-0.547,-0.0548,-0.4315
2029211.0,0.2203,0.6488,10.6255,-0.0649,-0.0633,-0.4182
2029221.0,0.1628,1.9225,9.3565,0.216,-0.1373,-0.3523
2029231.0,0.3591,2.6025,7.8817,0.1101,-0.2304,-0.2703
2029241.0,0.6823,2.569,6.9097,-0.2395,-0.2416,-0.19
2029251.0,0.8428,2.49,6.3734,-0.6481,-0.1527,-0.1203
2029261.0,1.0104,2.1883,6.5146,-1.0578,-0.0623,-0.0357
2029271.0,1.3575,1.561,6.5649,-1.3399,-0.0255,0.0708
2029281.0,1.5538,1.1995,5.7509,-1.4543,-0.0048,0.1916
2029291.0,1.4629,1.0391,3.5338,-1.5469,-0.0841,0.3262
2029301.0,1.3192,1.3815,-1.2354,-1.6448,-0.2379,0.4789
2029311.0,1.5275,2.1284,-8.5329,-1.6996,-0.1628,0.6838
2029321.0,2.1045,3.5769,-16.1633,-1.4223,0.6859,0.953
2029331.0,-0.1939,6.1603,-21.409,-0.8125,2.6223,1.317
2029341.0,-5.8059,7.4412,-18.5982,-0.4571,4.9875,1.8358
2029351.0,-10.7188,3.5578,-8.4467,0.4374,7.208,2.5238
2029361.0,-14.042,-2.2098,2.9161,2.5472,9.1577,3.0756
2029371.0,-16.9486,-5.7868,16.2351,4.9827,10.6321,3.1347
2029381.0,-17.1353,-8.7388,30.0281,6.7365,11.0589,2.6393
2029391.0,-17.6596,-4.3503,37.7111,6.7126,9.6328,1.6235
2029401.0,-17.0395,0.8906,45.5736,4.4309,6.6679,0.4842
2029411.0,-15.6293,6.79,42.1906,2.1827,3.4582,-0.2932
2029421.0,-15.208,6.7995,40.6224,-0.4805,0.7689,-0.7364
2029431.0,-14.6046,6.1794,35.8915,-2.2029,-1.4617,-0.8908
2029441.0,-13.6565,4.9057,29.2643,-2.7053,-3.0953,-0.7902
2029451.0,-11.5616,3.7517,20.3531,-2.0694,-3.8046,-0.5103
2029461.0,-9.6822,2.7461,13.7188,-1.0084,-3.5428,-0.2144
2029471.0,-8.2959,2.4948,10.2927,-0.0032,-2.7383,0.0293
2029481.0,-7.6854,2.071,10.398,0.5933,-1.9784,0.2006
2029491.0,-7.2065,1.889,11.4012,0.8402,-1.6357,0.2905
2029501.0,-6.5601,1.4653,11.8369,0.7338,-1.7389,0.3017
2029511.0,-5.5737,1.0606,10.8625,0.4417,-2.0369,0.2325
2029521.0,-5.0159,1.2474,9.3326,-0.0149,-2.2551,0.0862
2029531.0,-4.6017,1.3312,8.8107,-0.6306,-2.3993,-0.0708
2029541.0,-4.2401,1.154,8.7149,-1.0493,-2.5084,-0.182
2029551.0,-3.7445,0.9888,7.7596,-1.052,-2.5302,-0.2203
2029561.0,-3.1388,0.3855,6.7253,-0.7966,-2.4009,-0.2038
2029571.0,-2.6624,0.565,5.4181,-0.4406,-2.1215,-0.1932
2029581.0,-2.4852,1.0654,4.9608,-0.2905,-1.7911,-0.1916
2029591.0,-2.3272,1.3551,5.1667,-0.3767,-1.5186,-0.1873
2029601.0,-2.1356,1.2186,5.8849,-0.5986,-1.334,-0.1846
2029611.0,-1.8316,0.5626,7.1012,-0.7455,-1.1898,-0.1793
2029621.0,-1.822,0.2514,7.8362,-0.6891,-1.0642,-0.1841
2029631.0,-1.664,-0.091,8.6311,-0.5358,-1.0046,-0.183
2029641.0,-1.3719,-0.249,8.9088,-0.1809,-0.9562,-0.1687
2029651.0,-1.2929,-0.0024,8.6143,0.2746,-0.8487,-0.157
2029661.0,-1.2689,-0.1101,9.0214,0.5747,-0.7279,-0.1554
2029671.0,-1.5778,0.2298,9.177,0.7035,-0.705,-0.1889
2029681.0,-1.7573,1.3862,8.6239,0.5449,-0.8524,-0.2533
2029691.0,-1.6975,2.3008,7.9224,0.1304,-1.0296,-0.2868
2029701.0,-1.2737,2.6312,7.3622,-0.2969,-1.0977,-0.2698
2029711.0,-1.0199,2.2769,7.2975,-0.6109,-1.0185,-0.2224
2029721.0,-0.8787,1.5921,7.8195,-0.7875,-0.9073,-0.1671
2029731.0,-0.6823,0.486,8.5856,-0.7444,-0.8242,-0.1027
2029741.0,-0.3328,-0.8475,8.8274,-0.4246,-0.7242,-0.0527
2029751.0,-0.1987,-1.2617,8.3701,-0.0261,-0.6157,-0.0633
2029761.0,-0.1006,-0.9697,8.1283,0.2017,-0.5039,-0.1235
2029771.0,-0.1652,-0.0575,7.9272,0.2442,-0.3884,-0.2001
2029781.0,-0.2801,0.6943,8.2648,0.058,-0.3267,-0.2581
2029791.0,-0.3519,1.2881,8.8011,-0.2246,-0.3235,-0.2847
2029801.0,-0.3974,1.4006,9.2392,-0.5092,-0.389,-0.2756
2029811.0,-0.261,1.1157,9.3853,-0.6832,-0.481,-0.2352
2029821.0,0.0048,0.759,9.1123,-0.6806,-0.514,-0.1857
2029831.0,0.1532,0.2394,9.1961,-0.5364,-0.4241,-0.1357
2029841.0,0.0263,0.0192,9.3709,-0.2778,-0.2703,-0.0963
2029851.0,-0.1197,-0.2945,9.7588,-0.0575,-0.1878,-0.0782
2029861.0,-0.067,-0.2753,9.5457,0.1229,-0.1963,-0.0857
2029871.0,0.0359,0.0862,8.9615,0.1969,-0.2043,-0.1176
2029881.0,0.1413,0.4788,8.4491,0.1309,-0.1703,-0.1543
2029891.0,0.1963,1.0175,8.3558,-0.0463,-0.1155,-0.1868
2029901.0,0.1676,1.3815,8.4539,-0.3012,-0.0782,-0.1963
2029911.0,0.1748,1.5514,8.6742,-0.5678,-0.0862,-0.1761
2029921.0,0.3065,1.3384,8.7436,-0.7684,-0.1304,-0.1256
2029931.0,0.4166,0.9337,8.4731,-0.803,-0.166,-0.0527
2029941.0,0.5986,0.7087,7.4244,-0.6534,-0.1772,0.0234
2029951.0,0.565,1.2689,4.9871,-0.4363,-0.1681,0.0862
2029961.0,0.68,2.6624,0.5028,-0.4566,-0.1889,0.1405
2029971.0,3.5554,3.699,-5.442,-1.027,-0.2011,0.207
2029981.0,-0.0024,4.2545,-8.6263,-2.0577,0.2533,0.2905
2029991.0,-0.565,5.0949,-13.7092,-2.9133,0.7354,0.5342
2030001.0,-1.7334,5.7892,-15.8688,-3.1602,1.7517,0.9094
2030011.0,-5.2744,7.5441,-15.3181,-2.1407,3.7477,1.5437
2030021.0,-9.572,4.2138,-7.5609,-0.3421,6.023,2.3982
2030031.0,-12.8952,-0.9505,5.0637,2.4381,8.1679,3.1176
2030041.0,-16.0268,-4.8004,16.5344,5.683,9.6429,3.356
2030051.0,-15.2056,-7.3119,27.1598,7.7806,9.7919,2.9511
2030061.0,-8.0996,-5.3367,22.5845,7.5752,8.8097,1.9098
2030071.0,-18.7346,-3.3279,57.1616,3.3938,7.4932,0.2027
2030081.0,-15.263,6.9049,44.4747,2.527,3.4305,-0.4879
2030091.0,-15.7179,2.9209,49.3828,-1.4282,-0.3868,-1.0685
2030101.0,-12.5097,5.5905,31.3832,-2.2157,-3.1863,-1.1845
2030111.0,-12.0428,2.2314,25.7089,-2.9421,-4.1361,-1.1345
2030121.0,-9.6582,4.0414,14.9805,-2.2008,-4.1297,-0.9732
2030131.0,-9.1554,3.5578,12.7563,-1.3909,-3.4007,-0.7237
2030141.0,-7.6614,4.3383,8.418,-0.1756,-2.6042,-0.3698
2030151.0,-6.5242,2.7988,8.7963,0.3507,-1.9289,-0.0841
2030161.0,-5.4827,2.4756,8.9064,0.7141,-1.4207,0.0809
2030171.0,-5.0829,2.0087,10.8577,0.5688,-1.2302,0.1032
2030181.0,-4.7884,1.7693,12.074,0.2027,-1.3941,0.0436
2030191.0,-4.537,1.5131,12.4977,-0.323,-1.8571,-0.0809
2030201.0,-4.1444,1.1037,11.3126,-0.8173,-2.3812,-0.2192
2030211.0,-3.79,0.8428,10.0509,-1.201,-2.768,-0.3576
2030221.0,-3.3998,0.8452,8.1307,-1.1999,-2.9133,-0.4395
2030231.0,-2.9975,1.0846,6.0837,-0.9477,-2.8484,-0.4597
2030241.0,-2.4541,1.7717,3.9409,-0.571,-2.5802,-0.4326
2030251.0,-2.0542,2.5738,2.7198,-0.3038,-2.1386,-0.3666
2030261.0,-1.7071,2.9377,2.9592,-0.2267,-1.6522,-0.2682
2030271.0,-1.5538,2.3774,4.0079,-0.2192,-1.2276,-0.1463
2030281.0,-1.1827,1.2594,5.2577,-0.2671,-0.9472,-0.0607
2030291.0,-0.9409,-0.1652,7.3717,-0.2661,-0.7343,-0.0404
2030301.0,-0.8164,-1.3455,9.0812,-0.067,-0.6103,-0.0729
2030311.0,-1.0295,-1.8914,10.6638,0.2038,-0.6348,-0.1644
2030321.0,-1.1492,-1.0391,10.2711,0.53,-0.8423,-0.2698
2030331.0,-1.075,0.3831,8.4922,0.6662,-1.0834,-0.3475
2030341.0,-0.7518,1.8914,6.347,0.5667,-1.1675,-0.3789
2030351.0,-0.6512,3.0358,5.3678,0.2538,-1.0307,-0.3602
2030361.0,-0.7278,3.3567,5.217,-0.1724,-0.8232,-0.2884
2030371.0,-0.4669,2.1763,5.7676,-0.6556,-0.6907,-0.1958
2030381.0,-0.2155,0.3472,7.1251,-1.0307,-0.5731,-0.1511
2030391.0,-0.0862,-0.7973,8.2193,-1.0738,-0.4358,-0.1628
2030401.0,-0.1341,-1.7214,9.7707,-0.8689,-0.307,-0.1969
2030411.0,-0.2562,-1.5107,10.1442,-0.4071,-0.265,-0.2389
2030421.0,-0.2921,-0.3519,9.5984,0.0388,-0.2895,-0.2677
2030431.0,-0.1748,0.9697,8.5258,0.3283,-0.2868,-0.2528
2030441.0,-0.0622,2.0949,7.6183,0.4103,-0.2059,-0.1953
2030451.0,-0.1006,2.8563,7.1395,0.3203,-0.0623,-0.1016
2030461.0,-0.1125,2.6576,7.3358,0.0942,0.0692,0.0202
2030471.0,-0.0694,1.1899,8.4348,-0.1101,0.2081,0.1362
2030481.0,-0.17,-0.2729,9.7564,-0.141,0.3374,0.1873
2030491.0,-0.4046,-0.8547,10.8409,-0.0575,0.357,0.158
2030501.0,-0.5171,-0.6345,10.9894,0.0617,0.241,0.0963
2030511.0,-0.4166,-0.1676,10.3214,0.1506,0.1155,0.0394
2030521.0,-0.2993,0.1221,9.7731,0.1618,0.0952,-0.0096
2030531.0,-0.3328,0.8571,9.3685,0.1059,0.1458,-0.0585
2030541.0,-0.4453,1.1732,9.6726,-0.066,0.1852,-0.0793
2030551.0,-0.4501,0.9218,10.3238,-0.2065,0.2123,-0.0644
2030561.0,-0.5531,0.9505,10.8098,-0.2379,0.2341,-0.0436
2030571.0,-0.68,0.9433,11.2025,-0.2432,0.2054,-0.0117
2030581.0,-0.6297,0.7566,11.2025,-0.2384,0.1314,0.025
2030591.0,-0.6105,0.5986,10.9176,-0.2309,0.074,0.0458
2030601.0,-0.6057,0.2729,10.6518,-0.2554,0.033,0.0495
2030611.0,-0.5004,-0.0096,10.3597,-0.2703,-0.0021,0.0351
2030621.0,-0.4286,-0.2059,9.9958,-0.2448,-0.0021,0.0069
2030631.0,-0.2705,-0.0742,9.4643,-0.1756,-0.0032,-0.0271
2030641.0,-0.3256,0.9026,8.77,-0.1075,0.0325,-0.0495
2030651.0,-0.3519,1.8507,7.4579,-0.1006,0.0277,-0.0133
2030661.0,-0.0982,3.2777,3.735,-0.2826,-0.0665,0.0585
2030671.0,0.4573,4.2329,-0.1413,-1.0041,-0.1485,0.1479
2030681.0,1.0271,4.604,-5.2337,-1.8347,-0.0271,0.3028
2030691.0,1.0487,4.0941,-7.8482,-2.6957,0.5369,0.5034
2030701.0,-1.5323,5.0398,-8.3175,-2.7931,1.5405,0.8301
2030711.0,-3.6607,6.4715,-7.1611,-1.6873,2.7074,1.3031
2030721.0,-4.7525,5.7293,-6.2417,0.596,4.3372,1.9411
2030731.0,-7.4651,1.1899,-1.0989,3.0102,6.2427,2.4786
2030741.0,-10.0916,-0.7997,6.1699,4.6517,7.6103,2.544
2030751.0,-11.5736,-1.549,15.8783,5.1466,8.1206,2.2695
2030761.0,-12.8353,-1.2881,24.9619,5.0338,7.821,1.8347
2030771.0,-10.7883,-1.4485,29.2787,4.0632,6.5732,1.2792
2030781.0,-13.1466,-3.3519,41.0558,1.6804,4.8454,0.5731
2030791.0,-11.8824,-1.1875,39.2434,0.5587,2.3253,-0.0138
2030801.0,-12.0452,-1.3264,37.0431,-0.5906,-0.0021,-0.464
2030811.0,-10.5153,0.1053,27.2915,-1.002,-1.8682,-0.7375
2030821.0,-9.4044,0.8284,20.4034,-1.3207,-2.6079,-0.9019
2030831.0,-8.4204,1.8579,15.5264,-1.235,-2.4945,-0.9498
2030841.0,-8.4252,1.9082,15.038,-1.0131,-2.0289,-0.8982
2030851.0,-8.2408,2.0255,15.773,-0.5545,-1.7491,-0.7817
2030861.0,-7.8171,2.1859,15.4905,-0.0043,-1.7682,-0.6396
2030871.0,-7.2544,2.2505,14.8871,0.2932,-1.947,-0.5305
2030881.0,-6.6535,2.3056,13.7523,0.3523,-2.1684,-0.4794
2030891.0,-6.2944,2.4038,12.7683,0.0942,-2.4334,-0.5023
2030901.0,-6.0094,2.7366,11.5712,-0.3821,-2.776,-0.5795
2030911.0,-5.794,3.0622,10.1873,-0.9078,-3.1405,-0.6572
2030921.0,-5.1499,3.0526,7.8051,-1.2611,-3.4108,-0.688
2030931.0,-4.3335,2.7174,5.4133,-1.4335,-3.4284,-0.6811
2030941.0,-3.4453,2.3679,3.4285,-1.4181,-3.1741,-0.6529
2030951.0,-2.6695,2.0662,2.466,-1.3149,-2.7223,-0.6231
2030961.0,-2.2338,2.1572,2.6288,-1.1818,-2.204,-0.597
2030971.0,-1.9752,2.4469,3.4453,-1.0366,-1.7278,-0.5486
2030981.0,-1.6783,1.9393,5.5545,-0.8668,-1.3324,-0.4635
2030991.0,-1.5562,2.0518,6.9599,-0.4933,-1.0461,-0.3672
2031001.0,-1.5802,2.5355,8.1666,-0.1873,-0.8971,-0.2719
2031011.0,-1.6185,2.9425,8.6862,-0.0282,-0.9142,-0.1564
2031021.0,-1.5419,3.0023,8.2672,-0.0516,-1.0509,-0.0372
2031031.0,-1.075,2.1524,7.3861,-0.2235,-1.1887,0.067
2031041.0,-0.5483,0.747,6.5817,-0.4017,-1.1893,0.1197
2031051.0,-0.328,-0.1676,6.3805,-0.5177,-1.0286,0.0873
2031061.0,-0.2251,-0.6369,6.8785,-0.5928,-0.8344,0.0101
2031071.0,-0.3041,-0.7566,7.8386,-0.6162,-0.6848,-0.0788
2031081.0,-0.4334,-0.34,8.6335,-0.5635,-0.6242,-0.1559
2031091.0,-0.431,0.5602,8.6407,-0.4576,-0.6492,-0.1894
2031101.0,-0.3567,1.087,8.1666,-0.4012,-0.6875,-0.166
2031112.0,-0.0311,1.2713,7.3909,-0.357,-0.6742,-0.0974
2031121.0,0.2131,0.9002,6.8738,-0.2937,-0.5353,-0.0096
2031131.0,0.2514,0.4788,6.8354,-0.1799,-0.2921,0.0654
2031141.0,0.1963,0.0814,7.5393,-0.0612,-0.049,0.1208
2031151.0,0.0335,-0.3017,8.3534,0.0889,0.1458,0.1564
2031161.0,-0.0048,-0.5555,9.323,0.1894,0.2512,0.1548
2031171.0,-0.1796,-0.0718,9.9527,0.2081,0.2485,0.1165
2031181.0,-0.3304,0.5938,10.1969,0.0878,0.1235,0.0809
2031191.0,-0.2538,1.0487,9.6462,-0.1208,-0.0644,0.0766
2031201.0,-0.0359,0.893,8.9711,-0.3677,-0.182,0.0995
2031211.0,0.182,0.0982,8.6119,-0.5475,-0.1793,0.1277
2031221.0,0.2562,-0.6249,8.7532,-0.5896,-0.0639,0.1341
2031231.0,0.1389,-1.1756,9.4068,-0.5151,0.0793,0.1203
2031241.0,0.0048,-1.3719,10.003,-0.3592,0.1666,0.0883
2031251.0,-0.1077,-1.0127,10.2352,-0.1921,0.1687,0.049
2031261.0,-0.146,-0.316,9.912,-0.0851,0.133,0.0213
2031271.0,-0.0527,-0.0215,9.6702,-0.0766,0.1187,0.0245
2031281.0,0.0479,0.0934,9.3565,-0.0851,0.1548,0.0431
2031291.0,0.0359,0.2945,9.3925,-0.1229,0.2421,0.066
2031301.0,-0.0862,0.2538,9.991,-0.1692,0.3363,0.0979
2031311.0,-0.3256,0.1867,10.5465,-0.2363,0.3565,0.1266
2031321.0,-0.2945,-0.3687,11.0804,-0.3501,0.2783,0.1447
2031331.0,-0.2921,-1.0391,11.3413,-0.423,0.1522,0.1362
2031341.0,-0.1365,-1.5251,10.7763,-0.4379,-0.0021,0.0942
2031351.0,0.1245,-1.8124,9.6151,-0.4762,-0.1298,0.0192
2031361.0,0.3591,-1.6759,8.4396,-0.5513,-0.1501,-0.0814
2031371.0,0.4597,-1.4629,7.8745,-0.6726,-0.0601,-0.1815
2031381.0,0.3304,-0.8715,7.7596,-0.7955,0.0697,-0.2613
2031391.0,0.1245,-0.2705,8.181,-0.9626,0.1437,-0.3022
2031401.0,0.0862,0.1556,8.4132,-1.0844,0.1027,-0.2884
2031411.0,-0.2466,0.6919,8.9304,-1.011,0.0181,-0.2081
2031421.0,-0.4956,1.7142,6.28,-0.4965,-0.1937,-0.009
2031431.0,0.0718,3.067,0.3926,0.0208,-0.4198,0.2698
2031441.0,1.5371,4.5873,-7.6351,0.3868,-0.3496,0.5805
2031451.0,1.2306,6.2273,-15.9095,0.6545,0.5215,0.8982
2031461.0,-1.506,8.7891,-21.4401,0.5204,2.1806,1.2856
2031471.0,-4.2377,7.0868,-17.3556,-0.0053,4.2441,1.8161
2031481.0,-8.2911,0.3567,-7.0964,0.3427,6.4907,2.3711
2031491.0,-12.7108,-4.9919,6.2393,1.3026,7.8774,2.5488
2031501.0,-11.6262,-8.2217,17.9924,3.0825,8.3648,2.4334
2031511.0,-11.0205,-12.2128,21.0594,4.7002,8.3015,1.9071
2031521.0,-12.5217,-8.1977,33.9737,4.8784,7.7523,0.7673
2031531.0,-13.0029,0.7877,33.3871,4.69,5.9229,-0.1421
2031541.0,-13.8098,4.8267,36.1716,2.1545,3.563,-0.8264
2031551.0,-12.8545,6.9623,34.9673,-0.1634,1.3755,-1.1361
2031561.0,-13.4147,4.5418,34.5483,-1.731,-0.4417,-1.1164
2031571.0,-12.2416,3.1627,27.7488,-1.7985,-1.947,-0.9158
2031581.0,-10.4603,2.2936,20.152,-1.1169,-2.5962,-0.6694
2031591.0,-8.6119,2.4756,12.9024,-0.1602,-2.3817,-0.4347
2031601.0,-7.6351,2.3798,10.2663,0.4188,-1.6517,-0.2724
2031611.0,-7.2664,2.6935,10.5536,0.7269,-0.9184,-0.1687
2031621.0,-7.1323,2.8228,12.5743,0.6965,-0.5954,-0.1123
2031631.0,-6.5793,2.6695,13.69,0.4507,-0.7678,-0.0921
2031641.0,-6.0885,2.4301,13.635,0.0585,-1.1818,-0.1176
2031651.0,-5.5234,2.1452,12.0787,-0.3602,-1.6714,-0.174
2031661.0,-4.8171,1.6496,9.8689,-0.7439,-2.0678,-0.2432
2031671.0,-4.0654,1.2713,7.1227,-0.92,-2.2157,-0.3038
2031681.0,-3.3447,0.8787,4.7884,-0.9195,-2.0731,-0.3539
2031691.0,-2.8323,0.8739,3.3064,-0.8168,-1.707,-0.397
2031701.0,-2.6456,1.549,3.1077,-0.6784,-1.2185,-0.4214
2031711.0,-2.7031,2.3104,4.0055,-0.5598,-0.7418,-0.3954
2031721.0,-2.8276,2.6576,5.612,-0.4789,-0.3879,-0.3171
2031731.0,-3.1675,2.8826,7.0725,-0.4214,-0.2187,-0.2086
2031741.0,-3.3567,3.0526,7.683,-0.4214,-0.2299,-0.0803
2031751.0,-3.1244,2.1596,8.0924,-0.4906,-0.3155,0.0585
2031761.0,-2.794,0.8116,8.2073,-0.3916,-0.2937,0.1724
2031771.0,-2.8012,-0.261,8.6598,-0.1474,-0.1479,0.2198
2031781.0,-2.9185,-0.5531,8.9543,0.067,-0.0532,0.1963
2031791.0,-2.9999,-0.3376,8.9878,0.1016,-0.0809,0.1261
2031801.0,-2.9664,0.2921,9.0214,-0.0756,-0.1708,0.0341
2031811.0,-3.1149,0.7135,9.3637,-0.2772,-0.2134,-0.0245
2031821.0,-3.2417,0.9266,9.5529,-0.4065,-0.2645,-0.0431
2031831.0,-3.2058,0.9768,9.6151,-0.4997,-0.3384,-0.033
2031841.0,-2.988,0.5435,9.5624,-0.5018,-0.3794,0.0021
2031851.0,-2.7629,-0.0694,9.5385,-0.3884,-0.3416,0.0367
2031861.0,-2.636,-0.4166,9.517,-0.2187,-0.2687,0.0463
2031871.0,-2.6528,-0.2873,9.4619,-0.075,-0.2065,0.0293
2031881.0,-2.7031,0.0024,9.6941,-0.0649,-0.1948,0.0048
2031891.0,-2.6336,0.0383,9.6462,-0.0889,-0.2325,-0.0059
2031901.0,-2.6432,-0.0192,9.6774,-0.1607,-0.2661,-0.0239
2031911.0,-2.6719,-0.1437,9.7085,-0.232,-0.3038,-0.0474
2031921.0,-2.6217,-0.5698,9.6319,-0.2543,-0.3267,-0.066
2031931.0,-2.557,-0.9673,9.7085,-0.2006,-0.2841,-0.099
2031941.0,-2.5762,-0.656,9.6151,-0.1117,-0.2341,-0.1538
2031951.0,-2.624,-0.2227,10.0461,-0.1149,-0.2144,-0.2027
2031961.0,-2.7007,0.2969,10.1921,-0.0782,-0.2267,-0.2134
2031971.0,-2.7102,0.7374,9.8976,-0.0734,-0.2735,-0.1985
2031981.0,-2.6576,0.9457,9.5792,-0.1458,-0.3315,-0.1729
2031991.0,-2.5355,0.9625,9.1889,-0.2261,-0.3581,-0.1378
2032001.0,-2.5187,0.6512,9.1626,-0.2687,-0.3182,-0.1
2032011.0,-2.4732,0.3711,8.9854,-0.2182,-0.24,-0.0697
2032021.0,-2.4445,0.0766,9.2943,-0.1634,-0.1495,-0.0591
2032031.0,-2.399,0.0168,9.3518,-0.0867,-0.0867,-0.0617
2032041.0,-2.3798,0.1652,9.6726,-0.0596,-0.0479,-0.0761
2032051.0,-2.3966,0.5531,9.9216,-0.0527,-0.0309,-0.0841
2032061.0,-2.4565,0.9888,10.0006,-0.0899,-0.0495,-0.0766
2032071.0,-2.5043,1.1301,10.2568,-0.1772,-0.1,-0.049
2032081.0,-2.5163,0.9122,10.1514,-0.2171,-0.1623,0.0005
2032091.0,-2.3918,0.498,9.7755,-0.2251,-0.2065,0.0383
2032101.0,-2.3176,0.2083,9.481,-0.2267,-0.2038,0.0527
2032111.0,-2.1955,-0.1532,9.3111,-0.2059,-0.1564,0.0527
2032121.0,-2.1069,-0.4597,9.3637,-0.1751,-0.0782,0.0309
2032131.0,-2.1284,-0.3519,9.6606,-0.1703,-0.0101,-0.0128
2032141.0,-2.2146,-0.1269,10.1706,-0.2128,0.0048,-0.0559
2032151.0,-2.2841,0.2274,10.6183,-0.2634,-0.0394,-0.0798
2032171.0,-2.2793,0.3831,10.3621,-0.1878,-0.1969,-0.0218
2032181.0,-2.1644,0.1149,9.8904,-0.1229,-0.2309,0.0122
2032191.0,-2.0399,-0.1772,9.4547,-0.0734,-0.199,0.0255
2032201.0,-1.9225,-0.7183,9.4212,-0.0516,-0.1357,0.017
2032211.0,-1.901,-0.7781,9.5337,-0.0372,-0.0702,-0.0303
2032221.0,-1.9393,-0.6656,9.9575,-0.058,-0.0213,-0.0894
2032231.0,-2.0375,-0.2825,10.1754,-0.1059,-0.0293,-0.1437
2032241.0,-2.1691,0.1365,10.6063,-0.2288,-0.0942,-0.1846
2032251.0,-2.229,0.5124,10.7188,-0.3113,-0.1799,-0.1889
2032261.0,-2.2027,0.4022,10.8242,-0.3528,-0.2671,-0.158
2032271.0,-2.1524,0.0072,10.5345,-0.2857,-0.3214,-0.1155
2032281.0,-2.0183,-0.3232,10.1682,-0.191,-0.3416,-0.0947
2032291.0,-1.913,-0.3735,9.6199,-0.0995,-0.3363,-0.0952
2032301.0,-1.8124,-0.2849,9.1961,-0.074,-0.3017,-0.1128
2032311.0,-1.7693,-0.1006,9.0453,-0.1149,-0.2421,-0.1405
2032321.0,-1.7837,0.1245,9.1626,-0.2081,-0.1799,-0.1655
2032331.0,-1.8316,0.0503,9.6845,-0.3374,-0.1341,-0.1852
2032341.0,-1.8842,-0.3041,10.386,-0.4619,-0.1336,-0.2059
2032351.0,-1.9345,-0.7111,10.9343,-0.5624,-0.2155,-0.2426
2032361.0,-1.8794,-0.7709,11.1761,-0.5928,-0.3437,-0.2911
2032371.0,-1.8387,-0.2969,10.6901,-0.5513,-0.4603,-0.3326
2032381.0,-1.6807,0.4238,10.0054,-0.5497,-0.531,-0.3459
2032391.0,-1.6065,0.9242,9.7013,-0.6178,-0.5273,-0.3187
2032401.0,-1.5706,0.9242,10.07,-0.6965,-0.4821,-0.2559
2032411.0,-1.7406,0.5626,10.6542,-0.745,-0.4672,-0.1745
2032421.0,-1.6041,-0.577,10.9822,-0.7795,-0.5587,-0.099
2032431.0,-1.2043,-2.0758,11.1642,-0.7721,-0.6827,-0.0819
2032441.0,-1.0558,-2.5642,10.671,-0.6651,-0.77,-0.1506
2032451.0,-0.9816,-2.4397,9.9958,-0.605,-0.8237,-0.2597
2032461.0,-0.8404,-2.0087,9.2201,-0.6087,-0.8514,-0.3629
2032471.0,-0.723,-1.2977,8.497,-0.6779,-0.8179,-0.447
2032481.0,-0.7087,-0.7111,8.4228,-0.8152,-0.7338,-0.4975
2032491.0,-0.9816,-0.2658,8.5569,-0.9535,-0.6455,-0.5076
2032501.0,-1.0487,-0.146,8.8226,-1.1079,-0.6385,-0.4821
2032511.0,-0.996,-0.1365,8.6742,-1.1584,-0.6481,-0.4252
2032521.0,-1.0008,-0.2251,8.418,-1.1116,-0.6071,-0.34
2032531.0,-0.6967,-1.1253,8.497,-0.9253,-0.489,-0.2246
2032541.0,-0.5195,-1.731,8.4084,-0.5348,-0.2937,-0.1314
2032551.0,-0.4764,-1.5993,8.2911,-0.1155,-0.0921,-0.0777
2032561.0,-0.4262,-1.1325,7.9727,0.2379,0.0889,-0.0239
2032571.0,-0.3376,-0.5028,7.7261,0.4342,0.2538,0.0245
2032581.0,-0.3615,0.0335,7.9296,0.4262,0.4033,0.0676
2032591.0,-0.5698,0.2873,8.5234,0.2506,0.4736,0.1139
2032601.0,-0.7326,-0.1101,9.098,-0.0362,0.4055,0.1511
2032611.0,-0.6321,-0.3687,9.0405,-0.3374,0.2272,0.1607
2032621.0,-0.5315,-0.4788,8.5353,-0.5688,0.0543,0.1634
2032631.0,-0.1748,-0.6991,7.3765,-0.6609,-0.042,0.1905
2032641.0,0.1293,-0.2107,6.5984,-0.6332,-0.0005,0.2299
2032651.0,-0.091,0.5148,5.8993,-0.3837,0.0873,0.3469
2032661.0,0.0287,1.4581,2.4205,0.0612,0.0766,0.5593
2032671.0,0.1963,2.5809,-2.8299,0.2123,0.1006,0.7976
2032681.0,0.4405,2.6169,-5.1356,0.2123,0.4709,1.0695
2032691.0,-3.0765,3.7397,-11.6071,1.0451,1.3313,1.4867
2032701.0,-3.0071,3.1939,-14.8369,1.8816,2.5541,1.8784
2032711.0,-6.5434,6.0118,-20.5111,3.1634,4.8928,2.2487
2032721.0,-12.481,3.3447,-10.4579,3.239,7.6305,2.5408
2032731.0,-15.9837,-2.0758,3.5985,3.5072,9.7781,2.6387
2032741.0,-19.2733,-6.3638,24.5142,3.6593,10.9445,2.229
2032751.0,-19.7953,-6.8738,44.331,3.8972,10.2809,1.5133
2032761.0,-18.2534,-2.9066,55.7993,3.7934,7.5634,0.7285
2032771.0,-16.5032,2.3655,52.7945,2.8143,3.3119,0.1011
2032781.0,-13.8672,4.877,39.8156,0.9099,-0.7753,-0.3124
2032791.0,-11.5975,4.8818,26.4871,-1.0121,-3.0666,-0.5491
2032801.0,-10.2687,3.5721,17.8296,-2.2375,-3.6279,-0.6167
2032811.0,-9.0237,1.5514,13.1035,-2.6143,-3.3789,-0.5571
2032821.0,-7.6686,-0.5722,11.1115,-2.2471,-2.817,-0.4443
2032831.0,-6.7516,-1.7597,10.6662,-1.2866,-2.1396,-0.3336
2032841.0,-6.0645,-1.7334,9.5912,-0.0862,-1.5756,-0.2373
2032851.0,-5.2912,-0.9529,8.4946,0.7439,-1.202,-0.1953
2032861.0,-4.6639,0.3759,7.8362,1.0371,-0.9424,-0.2134
2032871.0,-4.4484,1.3264,8.4132,0.8354,-0.771,-0.2602
2032881.0,-4.458,2.0734,9.3972,0.3725,-0.7764,-0.3134
2032891.0,-4.616,1.9776,10.319,-0.1777,-1.0073,-0.3485
2032901.0,-4.3191,1.3503,9.6941,-0.5741,-1.3638,-0.3656
2032911.0,-3.9002,0.8212,8.2097,-0.8471,-1.6171,-0.4055
2032921.0,-3.6176,0.6656,6.8881,-0.9344,-1.6416,-0.448
2032931.0,-3.5841,0.8499,5.8682,-0.7976,-1.4692,-0.4544
2032941.0,-3.3639,1.3719,4.8674,-0.5619,-1.2036,-0.4188
2032951.0,-3.1603,1.8268,4.3622,-0.364,-0.8908,-0.3491
2032961.0,-2.8491,1.9561,4.6807,-0.207,-0.5082,-0.2522
2032971.0,-2.9137,1.9034,5.7341,-0.075,-0.124,-0.1469
2032981.0,-3.1364,1.8387,7.1587,-0.0521,0.1038,-0.0564
2032991.0,-3.1316,1.1253,8.6455,-0.0979,0.1288,0.0314
2033001.0,-2.9329,0.0215,9.3015,-0.0271,0.0814,0.0984
2033011.0,-2.9161,-0.6177,9.5648,0.107,0.058,0.0984
2033021.0,-3.0095,-0.656,9.584,0.2038,0.0282,0.05
2033031.0,-3.1173,-0.4741,9.517,0.2139,-0.0319,-0.0144
2033041.0,-3.1268,-0.146,9.2991,0.1708,-0.0851,-0.0777
2033051.0,-3.2513,0.3472,9.1937,0.0889,-0.0963,-0.132
2033061.0,-3.3758,0.8092,9.3254,-0.0388,-0.1027,-0.1655
2033071.0,-3.5051,1.1229,9.6534,-0.1793,-0.1346,-0.1681
2033081.0,-3.4884,1.2546,9.8138,-0.2607,-0.1708,-0.1357
2033091.0,-3.5099,1.0534,10.07,-0.2767,-0.1958,-0.0756
2033101.0,-3.4069,0.5818,10.2137,-0.1857,-0.2054,-0.0069
2033111.0,-3.3303,0.0527,9.9168,-0.0197,-0.2171,0.0506
2033121.0,-3.1173,-0.1006,9.2584,0.0968,-0.2176,0.0686
2033131.0,-2.9832,-0.3184,9.2799,0.1133,-0.1602,0.0543
2033141.0,-2.9425,-0.2179,9.3733,0.1293,-0.074,0.0223
2033151.0,-3.1316,0.1293,9.991,0.067,-0.0059,-0.0218
2033161.0,-3.3399,0.3352,10.7021,-0.0537,-0.0351,-0.0527
2033171.0,-3.3782,0.1556,11.3342,-0.1639,-0.166,-0.0681
2033181.0,-3.2777,0.0144,11.1857,-0.1602,-0.3124,-0.0756
2033191.0,-3.1292,-0.0551,10.6877,-0.1192,-0.4214,-0.0851
2033201.0,-2.9928,0.0455,9.9838,-0.0857,-0.4794,-0.0995
2033211.0,-2.8419,-0.0742,9.4571,-0.0883,-0.4938,-0.1117
2033221.0,-2.7174,-0.1197,9.019,-0.0644,-0.4534,-0.1272
2033231.0,-2.648,0.067,8.7867,-0.0394,-0.381,-0.1463
2033241.0,-2.6767,0.407,8.6526,-0.0271,-0.2953,-0.1602
2033251.0,-2.7557,0.7781,8.7724,-0.0564,-0.2134,-0.1628
2033261.0,-2.8539,0.893,9.1147,-0.1048,-0.1532,-0.1453
2033271.0,-2.8874,0.6225,9.6726,-0.1368,-0.1176,-0.1171
2033281.0,-2.8922,0.4501,10.0102,-0.0979,-0.0952,-0.0952
2033291.0,-2.9377,0.3831,10.2687,-0.0261,-0.0926,-0.0798
2033301.0,-2.9281,0.3424,10.3693,0.025,-0.1235,-0.0718
2033311.0,-2.8778,0.3304,10.2807,0.05,-0.1671,-0.074
2033321.0,-2.8898,0.5339,10.1179,0.0399,-0.1969,-0.0894
2033331.0,-2.9377,0.7877,10.0245,-0.0314,-0.2256,-0.1059
2033341.0,-3.0047,0.8954,9.9958,-0.1181,-0.2575,-0.1091
2033351.0,-2.9808,0.8835,9.8904,-0.183,-0.2826,-0.1043
2033361.0,-2.9425,0.8092,9.8809,-0.2182,-0.2836,-0.0921
2033371.0,-2.8922,0.6895,9.9575,-0.2065,-0.2655,-0.0756
2033381.0,-2.8467,0.4525,10.0676,-0.1634,-0.2368,-0.0585
2033391.0,-2.7677,0.3112,10.2472,-0.1038,-0.2134,-0.0511
2033401.0,-2.7845,0.4764,10.477,-0.0341,-0.1979,-0.0564
2033411.0,-2.8539,0.8116,10.5632,-0.0122,-0.2182,-0.0569
2033421.0,-2.8371,1.0295,10.5201,-0.0612,-0.2831,-0.0495
2033431.0,-2.8228,1.1013,10.3046,-0.1474,-0.3592,-0.033
2033441.0,-2.7653,1.1109,10.0556,-0.2432,-0.4156,-0.0154
2033451.0,-2.6815,0.9625,9.9024,-0.3139,-0.4326,0.0101
2033461.0,-2.5235,0.6225,9.9024,-0.3363,-0.4156,0.0404
2033471.0,-2.4301,0.3256,10.0126,-0.2959,-0.3757,0.0654
2033481.0,-2.3391,-0.1245,10.3358,-0.2049,-0.3432,0.083
2033491.0,-2.2098,-0.3735,10.386,-0.0766,-0.3342,0.0846
2033501.0,-2.0806,-0.2394,10.3118,0.041,-0.3384,0.0633
2033511.0,-2.0614,0.1604,10.0197,0.0878,-0.3576,0.0404
2033521.0,-2.0375,0.4693,9.8641,0.0176,-0.3959,0.0223
2033531.0,-2.0399,0.7446,9.5529,-0.1022,-0.4331,0.0176
2033541.0,-2.0375,0.589,9.5289,-0.257,-0.4693,0.0234
2033551.0,-1.9201,0.182,9.4332,-0.3299,-0.4773,0.0372
2033561.0,-1.822,-0.4022,9.6127,-0.323,-0.4337,0.0394
2033571.0,-1.6544,-0.9242,10.0748,-0.2118,-0.3592,0.0234
2033581.0,-1.7454,-1.0295,10.4746,-0.017,-0.2927,-0.0122
2033591.0,-1.798,-0.6752,10.568,0.1341,-0.3171,-0.0612
2033601.0,-1.7166,0.0646,10.1706,0.1634,-0.4097,-0.1144
2033611.0,-1.6352,0.7614,9.6319,0.0426,-0.4949,-0.1485
2033621.0,-1.5826,1.1396,9.232,-0.1809,-0.5534,-0.157
2033631.0,-1.4581,0.9936,9.1339,-0.4528,-0.5853,-0.1469
2033641.0,-1.4485,0.5028,9.3996,-0.6816,-0.5944,-0.1341
2033651.0,-1.257,-0.2203,9.6199,-0.7716,-0.596,-0.1181
2033661.0,-1.1444,-1.3431,10.3094,-0.7311,-0.5598,-0.1171
2033671.0,-1.0319,-1.9297,10.6973,-0.5193,-0.5465,-0.1543
2033681.0,-1.0056,-1.8747,10.8386,-0.282,-0.5928,-0.224
2033691.0,-1.0774,-1.1732,10.2855,-0.0894,-0.6896,-0.2943
2033701.0,-0.8739,-0.1748,9.1004,-0.0479,-0.7939,-0.3437
2033711.0,-0.7781,0.7973,8.1451,-0.1985,-0.8131,-0.3629
2033721.0,-0.7039,1.2115,7.8506,-0.4832,-0.7545,-0.3427
2033731.0,-0.7398,0.8452,8.1307,-0.8179,-0.7098,-0.299
2033741.0,-0.5411,-0.2179,8.7604,-1.0648,-0.6949,-0.2549
2033751.0,-0.4549,-1.6017,9.6055,-1.1095,-0.6588,-0.2363
2033761.0,-0.3089,-2.6384,10.2615,-0.936,-0.6588,-0.2618
2033771.0,-0.2586,-2.8754,10.1825,-0.6029,-0.688,-0.3272
2033781.0,-0.2634,-2.5139,9.6845,-0.2272,-0.721,-0.3943
2033791.0,-0.0263,-1.6783,8.5258,0.1676,-0.7114,-0.4321
2033801.0,0.1844,-0.4932,7.2616,0.5151,-0.5614,-0.4278
2033811.0,0.2969,0.5914,6.8761,0.6997,-0.3017,-0.3805
2033821.0,0.2873,1.2067,7.4771,0.7391,-0.0458,-0.2948
2033831.0,0.1173,1.6209,8.2648,0.6625,0.0665,-0.1985
2033841.0,0.1676,1.7478,8.7412,0.4688,-0.0261,-0.1096
2033851.0,0.2873,1.9273,8.0589,0.2283,-0.2528,-0.0229
2033861.0,0.2969,1.9968,6.1579,-0.0633,-0.5481,0.0601
2033871.0,0.2897,2.8826,1.0558,-0.4097,-0.9009,0.1559
2033881.0,0.7661,3.9002,-6.5529,-1.0403,-1.1408,0.2916
2033891.0,4.7214,3.5338,-14.8417,-1.6911,-0.738,0.5215
2033901.0,0.2514,3.7158,-16.599,-1.7544,1.0403,0.829
2033911.0,-1.0199,4.4939,-17.2143,-0.9147,3.0926,1.3005
2033921.0,-6.0382,4.6064,-12.4403,0.2107,5.253,1.8204
2033931.0,-9.7779,1.2258,-4.4508,1.7171,7.1936,2.361
2033941.0,-12.9861,-5.9496,6.1028,3.5412,8.8256,2.6414
2033951.0,-14.4849,-10.6662,17.6979,4.8225,9.9713,2.2333
2033961.0,-14.8919,-9.0836,33.6218,5.137,9.7542,1.2111
2033971.0,-15.7299,-3.5769,42.7964,4.7582,7.7183,0.1724
2033981.0,-14.461,3.553,42.3798,3.2948,4.6086,-0.6582
2033991.0,-14.2072,7.2808,39.3607,0.746,1.5218,-1.2106
2034001.0,-13.6493,8.8849,33.5715,-1.3611,-0.8961,-1.3468
2034011.0,-12.5528,7.0485,25.9699,-2.4302,-2.4525,-1.1249
2034021.0,-10.6614,4.7381,19.2398,-2.4977,-3.0506,-0.8008
2034031.0,-9.0046,3.7565,13.1322,-1.6618,-2.7537,-0.4576
2034041.0,-7.8865,3.0047,10.4579,-0.7545,-2.0348,-0.1602
2034051.0,-7.039,2.5833,9.1818,0.0607,-1.3255,0.0835
2034061.0,-6.2824,2.1739,9.7229,0.4661,-0.8333,0.2304
2034071.0,-5.6455,2.2098,10.4627,0.5491,-0.6034,0.2794
2034081.0,-5.2625,2.2577,11.5688,0.3081,-0.6204,0.257
2034091.0,-4.9249,2.4157,11.8154,-0.1075,-0.8876,0.2033
2034101.0,-4.47,1.8651,11.3988,-0.6178,-1.3037,0.1447
2034111.0,-3.8092,1.391,9.7468,-0.9424,-1.6309,0.0921
2034121.0,-3.2968,0.7039,7.8458,-1.1254,-1.7868,0.0484
2034131.0,-2.7007,0.1532,5.9017,-1.1111,-1.7182,0.0112
2034141.0,-2.2673,-0.0503,4.6495,-0.9951,-1.442,-0.0309
2034151.0,-2.0973,-0.0263,4.3383,-0.8258,-1.0701,-0.058
2034161.0,-1.8603,0.2203,4.2832,-0.5938,-0.6875,-0.0548
2034171.0,-1.8986,0.3136,5.1164,-0.415,-0.3065,-0.0357
2034181.0,-2.059,0.6464,6.0573,-0.2501,0.0011,-0.0048
2034191.0,-2.2865,0.917,7.1156,-0.1868,0.1873,0.0341
2034201.0,-2.4924,0.7566,8.2887,-0.2139,0.2661,0.0777
2034211.0,-2.6959,0.4669,9.4619,-0.2246,0.2719,0.1165
2034221.0,-2.9066,0.1269,10.0413,-0.1729,0.2166,0.1453
2034231.0,-2.9353,-0.3831,10.2304,-0.1293,0.1117,0.149
2034241.0,-2.9281,-0.7063,10.058,-0.0654,0.0372,0.1208
2034251.0,-2.9712,-0.6033,9.8521,-0.0378,0.0074,0.0623
2034261.0,-3.0837,-0.2945,9.8354,-0.0889,0.0005,-0.0032
2034271.0,-3.1915,0.1173,9.9862,-0.1926,-0.0154,-0.0575
2034281.0,-3.3878,0.4669,10.4411,-0.3198,-0.0426,-0.0899
2034291.0,-3.5889,0.6536,10.9774,-0.3911,-0.1016,-0.0867
2034301.0,-3.7182,0.644,11.3509,-0.3581,-0.1772,-0.049
2034311.0,-3.6799,0.5986,11.0085,-0.2357,-0.2618,0.0059
2034331.0,-3.3998,0.2538,10.1275,-0.0186,-0.3001,0.0921
2034341.0,-3.3064,0.1652,10.1179,-0.0261,-0.2655,0.1027
2034351.0,-3.2513,-0.2203,10.3118,-0.0883,-0.2453,0.1016
2034361.0,-3.213,-0.5124,10.6686,-0.1511,-0.2607,0.0772
2034371.0,-3.1532,-0.4908,10.7883,-0.1857,-0.3219,0.0367
2034381.0,-3.1699,-0.2227,10.647,-0.2128,-0.3874,-0.0037
2034391.0,-3.1819,0.1197,10.5465,-0.2389,-0.4518,-0.0239
2034401.0,-3.055,0.3496,10.0652,-0.2607,-0.5092,-0.0218
2034411.0,-2.8683,0.2705,9.8785,-0.3001,-0.5273,-0.0074
2034421.0,-2.6504,0.1676,9.6774,-0.2964,-0.506,0.0112
2034431.0,-2.5067,-0.1293,9.7899,-0.2794,-0.4688,0.0309
2034441.0,-2.399,-0.261,9.6774,-0.2283,-0.4491,0.0399
2034451.0,-2.2649,-0.4094,9.6534,-0.2033,-0.4443,0.0372
2034461.0,-2.2218,-0.5124,9.5146,-0.191,-0.4342,0.0271
2034471.0,-2.2242,-0.5148,9.4116,-0.207,-0.4225,0.0043
2034481.0,-2.1476,-0.5794,9.3661,-0.2528,-0.4214,-0.0229
2034491.0,-2.0686,-0.8212,9.2703,-0.2841,-0.4113,-0.0532
2034501.0,-1.9585,-1.0606,9.5337,-0.2639,-0.3746,-0.0905
2034511.0,-1.9632,-0.9481,9.6558,-0.1623,-0.3044,-0.133
2034521.0,-2.1045,-0.5028,9.8282,-0.0878,-0.2634,-0.1708
2034531.0,-2.1261,-0.1484,10.0365,-0.0532,-0.2618,-0.1841
2034541.0,-2.2098,0.2777,10.0748,-0.0383,-0.2687,-0.1793
2034551.0,-2.2865,0.6129,10.1394,-0.0782,-0.2964,-0.1554
2034561.0,-2.296,0.7087,10.0676,-0.1543,-0.3448,-0.1187
2034571.0,-2.3104,0.6512,10.0437,-0.2485,-0.3911,-0.0777
2034581.0,-2.296,-0.0503,10.3621,-0.3006,-0.4166,-0.033
2034591.0,-2.2098,-0.8332,10.4818,-0.2097,-0.4198,-0.0106
2034601.0,-2.2242,-1.2067,10.5105,-0.0436,-0.4273,-0.0282
2034611.0,-2.1476,-1.3671,10.2185,0.1341,-0.4406,-0.0708
2034621.0,-2.0039,-0.972,9.5792,0.2155,-0.4645,-0.1421
2034631.0,-1.9585,-0.1939,9.3853,0.1666,-0.447,-0.2171
2034641.0,-2.1261,0.261,9.6917,0.0537,-0.3991,-0.2549
2034651.0,-2.1907,0.3065,10.1969,-0.083,-0.4124,-0.265
2034661.0,-2.2194,0.1963,10.5919,-0.1756,-0.4688,-0.2645
2034671.0,-2.1548,0.0096,10.7907,-0.2203,-0.5438,-0.2591
2034681.0,-2.0806,-0.2801,10.987,-0.2043,-0.605,-0.2549
2034691.0,-1.889,-0.0646,10.9702,-0.1011,-0.6348,-0.2554
2034701.0,-1.9393,0.3903,10.9559,-0.0037,-0.6534,-0.2485
2034711.0,-1.8962,0.4932,10.8984,0.0213,-0.7311,-0.2171
2034721.0,-1.7526,0.3424,10.8769,0.0032,-0.8056,-0.19
2034731.0,-1.6257,-0.1053,11.0253,0.0043,-0.8503,-0.1751
2034741.0,-1.4126,-0.9266,11.4515,0.0404,-0.8939,-0.1836
2034751.0,-1.3886,-1.3384,11.7651,0.1373,-0.9567,-0.2384
2034761.0,-1.2761,-1.2713,11.825,0.2363,-1.0727,-0.3203
2034771.0,-1.2426,-0.5962,11.4802,0.2921,-1.2111,-0.4081
2034781.0,-1.2737,0.2705,11.0133,0.2719,-1.3409,-0.4651
2034791.0,-1.233,0.68,10.8026,0.1868,-1.4436,-0.4784
2034801.0,-1.1971,0.6393,11.1594,0.1043,-1.5085,-0.4651
2034811.0,-1.561,0.4693,12.0596,0.1192,-1.5655,-0.4406
2034821.0,-1.743,0.2658,12.5959,0.2081,-1.7395,-0.415
2034831.0,-1.8196,-0.0622,12.6629,0.2916,-2.0226,-0.4012
2034841.0,-1.7957,-0.2634,11.9734,0.3794,-2.3562,-0.4129
2034851.0,-1.8579,-0.0335,10.5105,0.4023,-2.7085,-0.4576
2034861.0,-1.6328,0.3711,8.3534,0.299,-3.0634,-0.5193
2034871.0,-1.1612,0.8547,6.0094,0.0761,-3.3518,-0.5912
2034881.0,-0.9242,1.8028,3.3902,-0.1687,-3.5045,-0.655
2034891.0,-0.7566,3.45,-0.17,-0.4704,-3.612,-0.6753
2034901.0,0.316,5.0087,-5.5905,-1.0722,-3.8328,-0.629
2034911.0,2.6983,4.5633,-10.5896,-1.9247,-3.8732,-0.5257
2034921.0,2.4349,4.3551,-20.049,-2.4573,-3.6657,-0.3145
2034931.0,5.2194,2.3248,-26.9467,-2.3557,-3.165,-0.1607
2034941.0,2.7414,5.9568,-38.4509,-0.448,-1.0717,0.0314
2034951.0,1.2953,8.3462,-48.5185,1.1419,1.3585,0.3831
2034961.0,-3.3495,9.5433,-52.3181,2.1311,4.3697,0.7077
2034971.0,-11.0325,12.3445,-51.1234,2.5605,7.8056,1.0248
2034981.0,-22.2206,14.1809,-41.6639,2.1689,11.0828,1.4537
2034991.0,-32.0991,9.2201,-23.7481,1.4463,13.3156,2.0513
2035001.0,-41.4364,6.8594,-10.0868,1.8267,14.6512,2.5158
2035011.0,-44.8649,3.6224,2.1715,2.4722,15.451,2.7271
2035021.0,-47.2304,-0.9816,19.7833,2.7744,16.2502,2.6462
2035031.0,-48.7771,-3.1125,41.0079,2.9048,15.6989,2.2141
2035041.0,-43.4428,-4.7381,55.7729,3.5577,13.2927,1.615
2035051.0,-35.1684,-3.8164,51.6597,4.0334,9.8797,0.7497
2035061.0,-34.4406,0.3112,53.6445,2.7234,6.2592,-0.4432
2035071.0,-28.1007,7.3191,34.2395,2.7547,3.5205,-1.0924
2035081.0,-27.8924,12.4618,31.7184,0.8743,2.8771,-1.6581
2035091.0,-26.7337,15.8664,29.2859,-0.4837,2.5653,-1.6469
2035101.0,-25.7305,14.1737,36.0734,-1.873,2.1034,-1.2973
2035111.0,-24.2102,13.6661,37.8643,-1.6772,1.3079,-0.6343
2035121.0,-22.5127,10.9918,38.7885,-0.8333,0.1761,0.1564
2035131.0,-19.7857,9.1411,31.1031,0.4741,-1.0658,0.9195
2035141.0,-16.7355,5.636,24.1671,0.8945,-1.9098,1.4442
2035151.0,-14.2359,2.3894,18.0188,0.9998,-2.2088,1.6921
2035161.0,-12.0835,-1.0654,14.0037,0.6981,-2.1407,1.6847
2035171.0,-10.5297,-4.8507,13.9965,0.0931,-2.0178,1.4181
2035181.0,-9.6822,-6.3901,13.7188,-0.182,-1.9896,0.9727
2035191.0,-9.2703,-6.4428,14.0947,-0.4906,-2.2093,0.422
2035201.0,-8.8466,-4.5681,11.9207,-0.6987,-2.5525,-0.1197
2035211.0,-8.5952,-2.9904,11.4251,-1.2026,-2.842,-0.6109
2035221.0,-8.8945,-0.6081,10.4579,-1.4729,-3.0038,-0.9775
2035231.0,-9.3518,0.7302,10.9702,-1.6059,-3.1384,-1.1786
2035241.0,-9.4762,2.4804,9.6462,-1.3101,-3.2826,-1.2169
2035251.0,-9.3757,3.5147,8.4348,-0.9307,-3.3624,-1.1228
2035261.0,-8.849,4.1946,6.6224,-0.4826,-3.3097,-0.9445
2035271.0,-8.3055,4.5418,5.6383,-0.1628,-3.0948,-0.7508
2035281.0,-8.1906,4.8291,5.5354,-0.1181,-2.8841,-0.5933
2035291.0,-8.0804,4.3838,6.1531,-0.3709,-2.858,-0.4752
2035301.0,-7.8554,3.5506,6.1387,-0.7258,-3.0208,-0.4124
2035311.0,-7.3239,2.7725,5.3223,-1.0775,-3.2305,-0.4193
2035321.0,-6.6343,1.889,4.5562,-1.3154,-3.297,-0.4699
2035331.0,-6.0908,1.4317,4.1084,-1.3047,-3.148,-0.5374
2035341.0,-5.8059,1.1756,4.2904,-1.1244,-2.8984,-0.5906
2035351.0,-5.3558,1.2953,4.5322,-0.8131,-2.6441,-0.6247
2035361.0,-5.1164,2.1811,4.7573,-0.5087,-2.4179,-0.6375
2035371.0,-4.9656,3.2609,5.0542,-0.3203,-2.2237,-0.6066
2035381.0,-5.1763,4.027,5.5761,-0.3272,-2.1407,-0.5273
2035391.0,-5.0542,4.3215,5.5785,-0.4214,-2.1928,-0.4017
2035401.0,-4.6064,4.1396,4.7501,-0.464,-2.2125,-0.2304
2035411.0,-3.6966,3.2082,4.1492,-0.4166,-2.0284,-0.0431
2035421.0,-3.0263,1.652,4.9991,-0.2395,-1.5947,0.116
2035431.0,-2.9401,0.2801,7.2927,0.05,-1.1244,0.2017
2035441.0,-2.9473,-0.2682,9.8282,0.3379,-0.928,0.2006
2035451.0,-3.2825,-0.0359,11.5472,0.5247,-1.0546,0.1405
2035461.0,-3.5147,0.7638,11.5089,0.5614,-1.4255,0.0734
2035471.0,-3.3447,1.506,10.1562,0.3964,-1.8773,0.0234
2035481.0,-3.1101,2.1835,8.1139,0.1421,-2.1481,0.0016
2035491.0,-2.7078,2.2386,6.5074,-0.1623,-2.1742,0.0096
2035501.0,-2.2553,1.5921,6.4021,-0.4347,-1.9656,0.0239
2035511.0,-2.217,1.6065,7.5274,-0.6135,-1.6942,0.0048
2035521.0,-2.3918,1.3312,9.8569,-0.7178,-1.5479,-0.0037
2035531.0,-2.4062,1.2043,11.2001,-0.6391,-1.6378,0.0117
2035541.0,-2.3272,1.2498,11.2097,-0.5358,-1.9385,0.0287
2035551.0,-1.9225,1.3623,9.9216,-0.4385,-2.2535,0.0585
2035561.0,-1.3072,1.2857,8.1068,-0.3618,-2.4307,0.1054
2035571.0,-0.6536,1.2354,6.2177,-0.3331,-2.4344,0.1469
2035581.0,-0.1556,0.7518,5.3415,-0.3688,-2.2785,0.1772
2035591.0,0.1389,0.2538,5.2457,-0.365,-2.0518,0.1825
2035601.0,0.419,-0.1508,5.4229,-0.3155,-1.8533,0.1612
2035611.0,0.6752,-0.4645,5.6048,-0.2666,-1.7432,0.1123
2035621.0,1.0295,-0.4405,5.1811,-0.2059,-1.6948,0.0436
2035631.0,1.3599,-0.4357,4.9153,-0.174,-1.6261,-0.0303
2035641.0,1.5754,-0.2466,4.5011,-0.083,-1.5197,-0.091
2035651.0,1.6735,0.1101,4.0486,0.0218,-1.3787,-0.132
2035661.0,2.0016,0.2131,3.8331,0.0607,-1.2781,-0.1596
2035671.0,2.2984,0.3543,3.2561,0.1298,-1.193,-0.1745
2035681.0,2.6001,0.5531,2.4588,0.281,-1.0312,-0.1703
2035691.0,2.818,0.893,1.6735,0.4624,-0.7764,-0.1463
2035701.0,3.0789,0.6704,1.245,0.5603,-0.5007,-0.1101
2035711.0,3.1795,0.4932,0.9864,0.5896,-0.2384,-0.1016
2035721.0,2.8922,0.4693,1.482,0.5938,0.0186,-0.1208
2035731.0,2.2553,0.893,1.8986,0.7391,0.2001,-0.1224
2035741.0,1.4222,2.3966,0.7446,0.9935,0.2528,-0.0702
2035751.0,1.2091,3.7182,-2.4708,0.9658,0.1075,0.0447
2035761.0,1.5562,4.5298,-7.8171,0.3916,-0.1767,0.1703
2035771.0,1.6807,4.4341,-12.1697,-0.6641,-0.357,0.2517
2035781.0,-0.0287,6.6607,-24.0617,-1.4846,-0.464,0.3959
2035791.0,-0.656,7.8865,-33.2842,-2.6196,-0.0963,0.6662
2035801.0,-5.9544,9.5768,-39.8754,-3.0405,1.3792,1.1728
2035811.0,-10.7787,10.8505,-47.0796,-2.0816,3.5338,1.9358
2035821.0,-18.2366,7.2257,-47.6255,-0.2331,6.8941,2.7702
2035831.0,-30.5907,3.395,-39.8659,1.5006,10.8711,3.3012
2035841.0,-44.5202,-5.1691,-33.5835,2.2407,14.2792,3.298
2035851.0,-57.6069,-15.2056,0.917,0.9301,16.9898,2.452
2035861.0,-56.2518,-9.3565,23.5015,2.253,17.4357,1.2052
2035871.0,-58.3395,-0.7638,56.9796,3.5338,17.4357,0.183
2035881.0,-52.4881,12.7659,68.6849,4.9917,15.2626,-0.274
2035891.0,-47.8721,19.2614,75.1995,3.4811,10.1782,-0.3741
2035901.0,-37.1221,20.8415,67.5955,1.7182,5.3025,-0.0314
2035911.0,-30.2364,13.6039,60.0897,-0.5374,1.1712,0.3858
2035921.0,-23.9013,5.5402,44.3598,-0.9908,-1.4894,0.8115
2035931.0,-18.6365,-2.3056,32.3648,-0.6593,-2.5488,0.9222
2035941.0,-14.2766,-3.8188,20.5806,0.3432,-2.4653,0.6859
2035951.0,-12.2918,-0.8763,14.9662,0.9504,-1.6267,0.307
2035961.0,-11.8034,2.6863,14.1761,1.1706,-0.6726,0.107
2035971.0,-11.9638,3.9887,16.9988,1.1621,-0.05,0.166
2035981.0,-11.7651,3.0622,19.9006,1.1238,-0.1075,0.3682
2035991.0,-10.9391,1.0104,20.1089,1.1579,-0.6917,0.5635
2036001.0,-9.8186,-1.0343,17.753,1.2058,-1.3941,0.6359
2036011.0,-8.7819,-2.229,13.7834,1.1142,-1.9257,0.5396
2036021.0,-7.7979,-3.0478,10.9319,0.7306,-2.204,0.2868
2036031.0,-7.8147,-2.2194,8.0732,0.3459,-2.2817,-0.0612
2036041.0,-7.7189,-0.838,5.3367,-0.2357,-2.2774,-0.3794
2036051.0,-7.5609,0.1293,4.6519,-0.9551,-2.1109,-0.6353
2036061.0,-7.6495,1.1995,5.3079,-1.3638,-1.7959,-0.8179
2036071.0,-8.5353,1.9944,8.2169,-1.3143,-1.3968,-0.911
2036081.0,-8.2935,3.62,7.7381,-0.7934,-1.1824,-0.8636
2036091.0,-8.5353,3.4213,10.5393,-0.6364,-1.0914,-0.7774
2036101.0,-8.5856,4.1611,10.8409,-0.199,-1.1036,-0.647
2036111.0,-8.7604,3.893,12.2272,0.0043,-1.1855,-0.5119
2036121.0,-8.9998,3.893,12.7108,0.1187,-1.4479,-0.4092
2036131.0,-9.0812,3.9025,13.3333,0.1501,-1.7959,-0.3225
2036141.0,-8.9735,4.5777,12.2152,0.2788,-2.1662,-0.2208
2036151.0,-8.7819,4.9775,10.9247,0.2432,-2.4892,-0.1155
2036161.0,-8.5305,5.2936,9.3972,0.0894,-2.7308,-0.017
2036171.0,-8.3414,5.4516,8.0589,-0.1878,-2.9,0.0665
2036181.0,-8.0278,4.9752,6.9528,-0.4991,-2.9798,0.1564
2036191.0,-7.5609,3.8762,6.2417,-0.7354,-2.9612,0.2341
2036201.0,-6.9121,2.5187,6.0932,-0.8668,-2.8495,0.2597
2036211.0,-6.4667,1.47,6.2345,-0.8785,-2.6818,0.2224
2036221.0,-5.9616,0.6321,7.1275,-0.8386,-2.5456,0.1352
2036231.0,-5.7293,0.4621,8.1403,-0.6572,-2.4461,0.0245
2036241.0,-5.6144,1.2019,8.5066,-0.4177,-2.4546,-0.0766
2036251.0,-5.3534,1.9872,8.4707,-0.2762,-2.5728,-0.1298
2036261.0,-5.2577,2.9449,7.3861,-0.2203,-2.7106,-0.1341
2036271.0,-4.8411,3.5291,6.0142,-0.3523,-2.8159,-0.0952
2036281.0,-4.0917,3.2465,5.1811,-0.5342,-2.7516,-0.0165
2036291.0,-3.6895,2.4229,5.1858,-0.6337,-2.4935,0.0617
2036301.0,-3.2585,1.2115,6.3111,-0.6859,-2.2418,0.0968
2036311.0,-3.1292,0.7039,7.5441,-0.6444,-2.1167,0.0649
2036321.0,-3.1699,0.3519,8.6215,-0.5215,-2.1418,0.009
2036331.0,-2.9161,0.5674,8.1618,-0.3241,-2.2886,-0.0575
2036341.0,-2.5474,1.5251,7.0413,-0.2655,-2.4504,-0.1378
2036351.0,-2.1428,2.5187,5.6982,-0.3225,-2.494,-0.1767
2036361.0,-1.7837,3.0574,4.8578,-0.4842,-2.411,-0.1687
2036371.0,-1.5323,3.4309,4.3359,-0.6992,-2.2663,-0.1304
2036381.0,-1.3455,3.2681,4.5657,-0.9285,-2.1104,-0.0639
2036391.0,-0.8619,2.2194,5.2122,-1.0206,-1.9348,0.0357
2036401.0,-0.4764,0.8595,6.213,-0.8929,-1.7171,0.1171
2036411.0,-0.1724,0.0527,7.1491,-0.5635,-1.5389,0.1501
2036421.0,-0.0263,-0.1149,7.7548,-0.1697,-1.4351,0.1453
2036431.0,0.0048,0.577,7.6423,0.1463,-1.4277,0.1224
2036441.0,0.2179,1.1923,6.9959,0.2522,-1.5186,0.1144
2036451.0,0.5746,1.5395,5.7485,0.1862,-1.6144,0.1149
2036461.0,0.9146,1.6137,4.3167,-0.0319,-1.6426,0.1086
2036471.0,1.5897,1.2617,3.2561,-0.3145,-1.5782,0.1038
2036481.0,2.2338,0.4956,2.7509,-0.5034,-1.3111,0.1059
2036491.0,2.5139,-0.5746,3.6392,-0.6274,-0.9126,0.0835
2036501.0,2.5666,-1.5083,5.3486,-0.6577,-0.5864,0.0282
2036511.0,2.5355,-2.0255,7.1012,-0.5869,-0.4629,-0.0633
2036521.0,2.1428,-2.1691,8.2815,-0.348,-0.5092,-0.1703
2036531.0,2.2793,-1.7789,7.3263,0.0208,-0.6923,-0.2522
