time_ms,ax,ay,az,gx,gy,gz
1540461.0,-1.063,7.6519,39.9257,-0.0474,0.3065,-0.0096
1540471.0,-0.9002,7.3646,39.8874,-0.0325,0.2799,-0.0511
1540481.0,-0.8045,7.2305,39.5714,-0.0208,0.3081,-0.1203
1540491.0,-0.9768,7.5944,39.1979,-0.0798,0.306,-0.1974
1540501.0,-1.1875,8.0349,38.9106,-0.2863,0.3102,-0.2591
1540511.0,-1.4748,7.9871,38.834,-0.4789,0.323,-0.2687
1540521.0,-1.3503,8.2456,38.8914,-0.4784,0.4353,-0.2836
1540531.0,-1.4557,8.1211,39.2936,-0.3895,0.5481,-0.2815
1540541.0,-1.4844,7.8913,39.1596,-0.2208,0.5928,-0.2778
1540551.0,-1.2163,7.671,38.968,-0.0756,0.7466,-0.2815
1540561.0,-1.3024,7.6136,38.0774,-0.0117,0.9897,-0.339
1540571.0,-1.3599,7.3837,37.838,0.0495,1.3037,-0.3927
1540581.0,-1.8292,7.8051,37.8188,0.125,1.7224,-0.4603
1540591.0,-2.375,7.9583,39.1787,0.0617,1.9406,-0.5353
1540601.0,-2.873,8.1116,40.5482,-0.108,2.0843,-0.5906
1540611.0,-3.5626,8.7532,41.7357,-0.1431,2.1588,-0.6476
1540621.0,-3.7828,9.5193,42.9424,-0.3549,2.2136,-0.6556
1540631.0,-4.3479,10.1323,43.8713,-0.5358,2.1306,-0.622
1540641.0,-4.7788,10.343,45.0206,-0.7242,2.0359,-0.5098
1540651.0,-4.4819,9.7588,46.4188,-0.7482,1.9699,-0.4119
1540661.0,-5.1044,9.5672,48.382,-0.7104,1.7272,-0.3406
1540671.0,-5.3534,9.0501,48.3916,-0.7673,1.2973,-0.2703
1540681.0,-5.1427,8.0349,48.9088,-0.7253,0.9743,-0.2341
1540691.0,-4.7884,7.4124,48.3916,-0.7114,0.6593,-0.2714
1540701.0,-4.4245,6.5314,48.0181,-0.7572,0.3837,-0.3555
1540711.0,-3.735,5.8897,47.2998,-0.8195,0.2107,-0.5002
1540721.0,-3.3423,5.5641,46.5241,-0.9743,0.0213,-0.6449
1540731.0,-2.8922,5.545,46.5433,-1.1813,-0.2001,-0.8083
1540741.0,-2.6145,5.4588,46.2272,-1.5862,-0.3161,-0.9711
1540751.0,-2.557,4.549,46.3517,-2.1652,-0.5401,-1.1089
1540761.0,-2.7198,3.2944,48.1043,-1.6559,-0.5949,-1.268
1540771.0,-3.5147,3.5721,49.1099,-1.2957,-0.4395,-1.4133
1540781.0,-2.7485,3.5243,49.2152,-0.7274,-0.4358,-1.5591
1540791.0,-2.988,3.9648,50.1346,-0.5922,-0.3241,-1.7198
1540801.0,-3.3327,5.1427,51.7243,-0.3693,-0.3922,-1.8613
1540811.0,-3.4668,6.6367,53.2566,-0.3932,-0.754,-1.914
1540821.0,-4.0606,7.8338,54.2909,-0.5151,-1.2334,-1.8651
1540831.0,-4.2521,8.5234,55.1528,-0.7066,-1.8752,-1.7858
1540841.0,-3.9169,8.8202,55.1049,-0.9333,-2.5158,-1.665
1540851.0,-3.8595,8.7245,54.7985,-1.0509,-3.1166,-1.5804
1540861.0,-3.8116,8.5808,53.994,-1.3031,-3.596,-1.4649
1540871.0,-3.3519,7.7668,53.7546,-1.3824,-4.059,-1.4207
1540881.0,-2.7581,7.6998,52.9597,-1.5107,-4.5852,-1.4074
1540891.0,-2.059,7.4891,51.5903,-1.7443,-5.1993,-1.4069
1540901.0,-0.8619,7.5848,49.3972,-2.0667,-5.7633,-1.4245
1540911.0,0.3448,7.7955,47.4148,-2.5004,-6.3305,-1.475
1540921.0,1.1013,8.0732,44.6662,-2.8612,-6.8494,-1.4734
1540931.0,1.1684,8.3797,42.3774,-3.04,-7.2468,-1.4282
1540941.0,1.8387,8.8394,38.7573,-3.1746,-7.4719,-1.3175
1540951.0,2.5091,8.7532,35.6544,-3.2384,-7.4054,-1.1605
1540961.0,4.0223,8.4467,32.3888,-3.2831,-7.134,-1.027
1540971.0,4.7309,8.0254,30.8277,-2.6962,-6.6903,-0.87
1540981.0,5.5162,8.5138,28.0696,-2.2774,-6.1768,-0.6689
1540991.0,6.4165,8.9256,24.6507,-2.1386,-5.7324,-0.4597
1541001.0,7.1826,8.8681,22.7545,-2.3711,-5.1264,-0.2645
1541011.0,7.8434,8.5521,21.9979,-2.13,-4.4985,-0.1059
1541021.0,8.8107,9.4523,19.0483,-2.1433,-3.6237,0.0208
1541031.0,9.0118,9.481,18.7801,-2.1338,-2.9447,0.2214
1541041.0,9.7396,9.414,18.2055,-2.0332,-1.9145,0.4108
1541051.0,9.1937,9.3661,18.7131,-1.8353,-1.061,0.6071
1541061.0,9.2703,9.5768,19.0387,-1.7522,-0.2724,0.812
1541071.0,8.4659,8.8107,21.6053,-1.4814,0.3783,0.9919
1541081.0,8.1786,8.7532,22.9077,-0.9131,0.8115,1.2004
1541091.0,6.9815,8.0924,23.9899,-0.3496,1.1515,1.433
1541101.0,6.4931,7.2592,23.4728,0.6173,1.6756,1.6267
1541111.0,5.7461,6.5984,22.6013,1.4841,2.4392,1.756
1541121.0,5.3534,6.4548,21.6436,2.0508,3.3337,1.7959
1541131.0,3.9552,7.6902,21.7489,2.2237,4.1558,1.8225
1541141.0,3.0167,9.3757,23.5398,1.9491,4.839,1.9555
1541151.0,2.8539,10.2663,25.685,1.6884,5.303,2.1524
1541161.0,2.0877,10.0652,28.0313,1.2004,5.5584,2.3801
1541171.0,1.6664,8.7724,30.732,0.9897,5.6681,2.5712
1541181.0,0.9768,7.2018,33.6433,0.9445,5.8426,2.6813
1541191.0,0.2107,6.5314,34.6776,1.3622,6.0363,2.6882
1541201.0,-0.1149,7.1635,35.8651,1.6634,6.3571,2.7095
1541211.0,-0.8811,7.8817,38.0008,1.8337,6.504,2.7159
1541221.0,-0.9673,9.0884,39.0351,1.7719,6.2912,2.8122
1541231.0,-1.9537,9.8833,39.3798,1.5687,5.9229,2.9766
1541241.0,-2.4708,9.8833,39.1021,1.4654,5.8431,3.107
1541251.0,-3.6488,9.596,37.8092,1.6879,6.1858,3.2874
1541261.0,-5.2194,9.0405,38.0487,1.9869,6.8334,3.4092
1541271.0,-5.9376,8.9064,39.4852,2.2833,7.5416,3.4688
1541281.0,-6.8283,9.1554,42.9807,2.3322,7.9035,3.5146
1541291.0,-7.6519,9.7109,46.6103,2.1151,7.7359,3.554
1541301.0,-7.9679,9.7492,49.6557,1.7634,7.2085,3.5976
1541311.0,-8.3222,9.9216,51.1114,1.2728,6.3981,3.6663
1541321.0,-8.1499,9.347,51.8393,1.0972,5.7963,3.6673
1541331.0,-8.4946,9.3661,51.3125,0.9706,5.4669,3.6577
1541341.0,-9.845,9.4619,50.6038,0.6737,5.1567,3.6226
1541351.0,-11.0899,9.4332,50.7858,0.2911,4.7597,3.5896
1541361.0,-11.2144,9.1267,51.7722,-0.1187,4.3186,3.5859
1541371.0,-11.3677,8.3031,52.1553,-0.5071,3.7078,3.5412
1541381.0,-11.2432,7.4986,52.5671,-0.6188,3.1703,3.4598
1541391.0,-11.2815,7.4029,51.2263,-0.5651,2.8612,3.3842
1541401.0,-11.5113,7.3933,50.6805,-0.3672,2.6223,3.3395
1541411.0,-12.1434,8.3989,48.8034,-0.3549,2.4105,3.3151
1541421.0,-12.9861,8.5904,47.7308,-0.5321,2.2088,3.3864
1541431.0,-13.6086,8.3989,46.8019,-0.7604,2.1918,3.4518
1541441.0,-13.5608,6.857,47.8361,-0.9929,2.2242,3.5066
1541451.0,-13.3213,5.4205,49.3014,-0.9025,2.2274,3.4763
1541461.0,-12.8904,3.2561,52.4139,-0.4895,2.1354,3.4098
1541471.0,-12.1338,1.743,54.492,0.2591,1.9949,3.2608
1541481.0,-11.7412,1.3024,55.3635,0.8077,1.5607,3.0288
1541491.0,-11.6454,1.9249,54.6548,0.8269,0.9546,2.7281
1541501.0,-12.2966,3.1603,53.7738,0.3166,0.1277,2.4967
1541511.0,-12.2104,4.5394,51.7052,-0.4997,-0.6737,2.2769
1541521.0,-11.8274,5.4109,49.7707,-1.6331,-1.3409,2.1354
1541531.0,-11.3677,5.2481,48.4203,-2.6196,-1.7932,2.0422
1541541.0,-10.9559,4.2521,48.7843,-3.1778,-2.1609,1.9747
1541551.0,-10.0269,3.1508,49.3014,-3.0868,-2.4131,1.9268
1541561.0,-9.347,2.1356,49.4642,-2.5712,-2.5435,1.9028
1541571.0,-9.165,0.7566,50.0101,-1.9624,-2.7952,1.7991
1541581.0,-8.7819,-0.0575,48.8226,-1.3101,-3.1224,1.6868
1541591.0,-8.5904,-0.8906,46.8689,-0.7918,-3.38,1.5053
1541601.0,-8.4084,-1.2163,43.9288,-0.5598,-3.529,1.1951
1541611.0,-8.102,-1.5514,41.4197,-0.5896,-3.3832,0.8599
1541621.0,-8.2648,-1.0534,39.5618,-0.6359,-3.0916,0.5044
1541631.0,-6.9623,0.3639,38.4317,-0.746,-2.478,0.1399
1541641.0,-5.4109,2.8443,38.968,-0.9706,-1.7507,-0.1256
1541651.0,-4.7692,5.7269,41.9464,-1.334,-1.2425,-0.1655
1541661.0,-4.8459,7.1251,45.8537,-1.591,-1.1089,-0.0319
1541671.0,-4.2234,8.2169,49.4451,-1.782,-1.4633,0.1921
1541681.0,-3.802,8.2839,51.4083,-2.1215,-2.3732,0.5236
1541691.0,-3.6966,6.8761,52.2223,-2.3716,-3.496,0.8929
1541701.0,-2.1452,2.988,50.4219,-2.3764,-4.4958,1.119
1541711.0,-0.68,-1.3312,45.8729,-2.4381,-5.427,0.9977
1541721.0,2.375,-5.1523,40.2226,-2.3727,-5.5398,0.4672
1541731.0,2.8347,-6.4165,36.6313,-1.7581,-4.7566,-0.2868
1541741.0,2.2027,-3.6009,33.5476,-0.6933,-3.5157,-0.9179
1541751.0,-0.2107,2.3463,29.7551,-0.1527,-1.989,-1.2547
1541761.0,-4.9416,9.6151,29.7934,-1.4974,-1.1824,-1.0653
1541771.0,-6.7133,13.8672,35.53,-4.0276,-1.6724,-0.2682
1541781.0,-7.5848,11.0612,42.8658,-6.0448,-3.1017,0.8838
1541791.0,-8.0924,1.9537,46.3326,-6.8669,-4.8981,1.8289
1541801.0,-6.2728,-9.1937,45.9208,-5.6149,-5.5611,2.3429
1541811.0,-4.1755,-18.9717,42.4827,-3.306,-4.8662,2.0124
1541821.0,-2.4612,-26.5661,44.3693,0.9253,-3.2948,1.0467
1541831.0,1.6855,-27.495,43.8426,6.1587,-0.9243,-0.4108
1541841.0,1.9154,-19.6708,44.695,9.5078,0.4411,-1.8927
1541851.0,-0.6416,-6.3398,43.3159,9.6605,-0.3927,-2.6824
1541861.0,-0.9481,6.1196,39.3703,6.5945,-1.9752,-2.8026
1541871.0,-2.873,12.4307,40.3758,2.0784,-4.3245,-2.4211
1541881.0,-2.4804,12.718,37.7135,-2.3174,-7.3581,-1.8698
1541891.0,-0.8811,7.0964,30.8756,-6.0203,-9.3279,-1.5437
1541901.0,2.988,-0.0575,22.1224,-8.1243,-9.6249,-1.615
1541911.0,6.6846,-6.8666,17.9182,-8.6511,-8.2797,-2.1689
1541921.0,10.0652,-9.5289,16.4721,-7.0409,-5.6388,-2.8979
1541931.0,10.6686,-9.4523,17.8991,-4.284,-2.5281,-3.5268
1541941.0,9.8162,-7.106,21.4233,-1.0605,0.3932,-3.9217
1541951.0,8.2744,-2.9305,24.871,1.4793,2.6696,-4.0457
1541961.0,6.6463,-0.2203,30.3968,2.7792,3.6583,-4.0419
1541971.0,6.5314,2.6624,32.3409,2.9303,4.076,-4.0244
1541981.0,4.1755,3.2657,37.5698,2.0109,3.8227,-4.0499
1541991.0,3.3519,3.0742,41.8506,0.8264,2.7042,-4.2069
1542011.0,3.9169,4.6735,45.8921,-2.0593,0.5859,-4.6363
1542021.0,4.1084,6.2345,46.4475,-2.8106,-0.6428,-4.6986
1542031.0,4.1276,6.8857,45.7676,-3.5497,-1.782,-4.5581
1542041.0,4.4149,6.5984,43.7756,-3.7679,-2.9442,-4.333
1542051.0,5.2481,5.2385,40.5386,-3.5981,-3.7908,-4.109
1542061.0,5.4588,3.1699,35.2522,-2.8324,-4.0792,-3.936
1542071.0,5.6024,0.7853,28.6825,-1.8682,-3.9424,-3.9249
1542081.0,7.2496,0.3543,19.7665,-1.4426,-3.0948,-4.0659
1542091.0,7.6231,0.0383,13.9821,-1.466,-1.764,-4.3213
1542101.0,7.8051,1.4078,10.2951,-1.9763,0.0426,-4.5336
1542111.0,7.5274,1.5897,11.2049,-2.4334,1.8752,-4.6916
1542121.0,7.1539,1.8866,14.6908,-2.453,3.7429,-4.706
1542131.0,4.5681,1.3024,20.7529,-1.9954,5.2929,-4.6677
1542141.0,2.9784,0.4118,26.2883,-1.0515,6.4434,-4.6725
1542151.0,2.8922,-0.0958,31.364,0.1783,7.5592,-4.7502
1542161.0,2.3176,0.9673,36.2099,1.3771,8.3089,-4.8864
1542171.0,1.3024,3.6105,41.0462,2.0806,8.6293,-4.9933
1542181.0,0.4405,8.0445,46.1698,2.0832,8.318,-4.9151
1542191.0,-0.2394,11.5401,50.5272,1.3542,7.274,-4.5778
1542201.0,-1.1588,12.6701,53.8791,0.2304,5.7622,-4.0973
1542211.0,-1.9824,10.659,54.5686,-0.5949,4.2319,-3.6232
1542221.0,-0.6033,6.7516,54.492,-0.5204,3.5268,-3.3661
1542231.0,0.2777,4.2904,53.362,0.4991,3.8546,-3.306
1542241.0,-0.431,4.1084,54.6931,1.4053,4.0888,-3.3656
1542251.0,-0.9577,5.794,55.0954,1.8688,3.8818,-3.4225
1542261.0,-1.2258,7.4986,56.1488,1.8384,3.3523,-3.3741
1542271.0,-1.2546,8.6191,55.1145,1.4825,2.5031,-3.2629
1542281.0,-2.0207,7.8338,53.3715,0.7003,1.499,-3.1948
1542291.0,-2.6815,6.6463,49.3397,-0.1176,0.7966,-3.2539
1542301.0,-2.5762,5.5929,46.2272,-0.5098,0.8785,-3.4114
1542311.0,-3.2082,5.7078,45.7388,-0.4715,1.6538,-3.5598
1542321.0,-4.4053,6.4069,47.8457,-0.1394,2.1444,-3.6508
1542331.0,-4.2042,8.7532,50.2016,0.1809,2.2524,-3.6418
1542341.0,-3.5721,10.9942,52.4426,0.2112,2.0822,-3.4928
1542351.0,-4.4724,12.8329,53.6205,-0.0032,1.3611,-3.2326
1542361.0,-4.6735,13.8864,52.0691,-0.5321,0.4273,-2.9123
1542371.0,-4.3096,13.7714,49.9526,-1.1419,-0.1075,-2.6116
1542381.0,-4.4915,13.6853,47.4435,-1.4229,-0.174,-2.2881
1542391.0,-4.0606,12.8617,47.3286,-1.4064,0.0819,-1.9374
1542401.0,-4.1563,11.9997,47.9032,-1.3292,0.1463,-1.615
1542411.0,-3.9169,10.659,49.1482,-1.2111,-0.1511,-1.3106
1542421.0,-3.0454,9.5481,49.2439,-0.8306,-0.2528,-1.0669
1542431.0,-3.0454,8.1499,48.6502,-0.7109,-0.4448,-0.8721
1542441.0,-2.5953,6.0621,47.1754,-0.7114,-0.8051,-0.8024
1542451.0,-2.5857,4.8363,45.5281,-1.0201,-0.9429,-0.8822
1542461.0,-1.9249,4.0127,44.0725,-1.3159,-0.8993,-1.0637
1542471.0,-2.0782,4.0414,44.1203,-1.5793,-0.7364,-1.2547
1542481.0,-2.6049,4.5107,45.5473,-1.5298,-0.6417,-1.3484
1542491.0,-2.2697,5.0374,47.2903,-1.2308,-0.7077,-1.3127
1542501.0,-2.0016,5.4779,47.8074,-0.8615,-0.9179,-1.267
1542511.0,-1.7047,6.0813,46.821,-0.7343,-1.2409,-1.1935
1542521.0,-1.4748,6.3877,45.7676,-0.9019,-1.5852,-1.1047
1542531.0,-1.3599,6.6463,43.7469,-1.3462,-1.8693,-1.0408
1542541.0,-1.3408,6.5505,42.1763,-1.8012,-2.0002,-0.9892
1542551.0,-1.2929,6.7229,41.5346,-2.0779,-1.9113,-0.8775
1542561.0,-1.4653,6.6942,41.3335,-2.047,-1.7475,-0.6933
1542571.0,-1.2067,6.0813,42.1858,-1.8283,-1.4144,-0.4385
1542581.0,-1.1013,5.1427,44.3789,-1.326,-1.2414,-0.1884
1542591.0,-1.1684,3.7637,46.0644,-0.5481,-1.4058,0.0335
1542601.0,-0.7183,2.9209,45.3653,0.0085,-1.6059,0.1671
1542611.0,-0.1341,2.3367,43.6224,0.1383,-1.6958,0.174
1542621.0,0.1149,2.4612,42.3486,-0.0607,-1.698,0.1192
1542631.0,0.4022,2.3272,42.2433,-0.3374,-1.6799,0.0559
1542641.0,0.3543,2.7007,42.2241,-0.8306,-1.8214,-0.0234
1542651.0,0.9673,2.7102,42.8754,-1.3553,-1.9608,-0.0777
1542661.0,0.5555,2.7007,45.0685,-1.6213,-2.2849,-0.075
1542671.0,0.3926,1.8196,46.2272,-1.4968,-2.767,-0.0016
1542681.0,1.0056,0.6895,45.3366,-1.1941,-3.1639,0.0064
1542691.0,1.8292,-0.0096,43.6128,-0.87,-3.4156,-0.0905
1542701.0,2.0686,0.3926,40.8163,-0.6321,-3.4811,-0.1708
1542711.0,2.4229,1.063,38.6328,-0.4581,-3.2001,-0.2011
1542721.0,2.6719,2.1739,37.1005,-0.3986,-2.85,-0.2022
1542731.0,3.9169,2.5474,37.1676,-0.5199,-2.5754,-0.1469
1542741.0,4.5777,2.6336,37.7997,-0.7279,-2.4802,-0.0803
1542751.0,4.9512,1.9537,39.2074,-0.9993,-2.6334,-0.0404
1542761.0,5.2289,0.9481,39.2841,-1.0956,-3.0001,-0.0841
1542771.0,5.6312,0.7853,37.8954,-1.2388,-3.3161,-0.1692
1542781.0,6.1004,1.3791,36.0184,-1.3766,-3.281,-0.2591
1542791.0,6.177,2.3176,35.281,-1.1552,-3.207,-0.2506
1542801.0,7.0006,3.5243,33.9498,-0.8519,-2.9665,-0.1474
1542811.0,7.2209,4.616,32.5899,-0.5289,-2.6196,0.049
1542821.0,7.6902,4.9033,31.6705,-0.4044,-2.353,0.2969
1542831.0,8.2648,4.8459,31.048,-0.2948,-2.1471,0.5321
1542841.0,8.2839,3.9456,29.7168,-0.4347,-2.0295,0.7178
1542851.0,8.6479,2.9688,28.491,-0.7098,-1.8688,0.7928
1542861.0,8.5617,2.2697,26.183,-0.862,-1.5447,0.7859
1542871.0,8.3414,2.5857,24.8901,-0.8631,-1.0366,0.8056
1542881.0,8.4659,3.1125,23.5589,-0.8477,-0.2437,0.8588
1542891.0,8.0541,3.984,24.3155,-0.7082,0.6348,0.9935
1542901.0,8.0445,4.0127,25.5988,-0.2943,1.4676,1.2239
1542911.0,8.5425,4.0414,27.8302,0.1575,2.2248,1.4484
1542921.0,7.9487,3.1891,30.2436,0.4895,2.5494,1.624
1542931.0,7.039,2.5091,30.866,0.5577,2.5307,1.6916
1542941.0,6.7038,1.8675,31.0289,0.4895,2.4993,1.6905
1542951.0,6.4643,1.5897,29.5732,0.4166,2.7888,1.6522
1542961.0,5.4109,2.5091,29.0943,0.3102,3.2624,1.5974
1542971.0,4.6735,3.8786,29.736,0.0399,3.7509,1.6607
1542981.0,3.3615,5.0374,31.4885,-0.207,4.2032,1.8039
1542991.0,2.7007,5.4492,34.0455,-0.1916,4.5059,2.0582
1543001.0,3.2944,5.0661,36.8994,0.1187,4.805,2.3424
1543011.0,3.1316,4.2713,40.1364,0.6018,4.7688,2.6111
1543021.0,2.3463,3.6392,40.6152,0.795,4.2665,2.7601
1543031.0,2.2122,2.739,39.3319,0.8077,3.8179,2.8319
1543041.0,1.8866,2.5379,36.6983,0.8253,3.9057,2.8149
1543051.0,0.7278,2.873,35.4916,0.878,4.3894,2.8229
1543061.0,-0.2682,3.5051,35.3288,0.9381,5.0466,2.883
1543071.0,-1.0822,3.6392,37.2346,0.8184,5.6207,2.9798
1543081.0,-1.6568,3.3519,40.6057,0.6705,5.8059,3.0283
1543091.0,-1.743,3.1603,44.2257,0.6247,5.6478,3.1086
1543101.0,-1.6089,2.2793,47.2615,0.713,5.1109,3.1682
1543111.0,-2.308,1.4078,47.2998,0.8673,4.4368,3.1921
1543121.0,-2.1644,0.814,45.327,0.8014,3.9275,3.0181
1543131.0,-2.3942,0.8715,43.2872,0.8684,3.9233,2.817
1543141.0,-3.3615,1.8771,41.8315,0.8024,4.2079,2.6685
1543151.0,-4.3766,3.371,42.3199,0.7285,4.4298,2.5818
1543161.0,-4.8267,4.7022,43.5553,0.6598,4.6134,2.6175
1543171.0,-5.6599,5.6886,44.9056,0.6604,4.6012,2.8074
1543181.0,-6.2728,5.5067,45.9495,0.7753,4.5698,3.0203
1543191.0,-6.79,5.2577,46.1985,0.7035,4.5336,3.1506
1543201.0,-7.1347,4.3958,47.3956,0.613,4.3176,3.2507
1543211.0,-7.3933,3.7254,47.0317,0.6098,4.2314,3.2379
1543221.0,-7.8626,3.9744,47.4052,0.4156,4.1861,3.2097
1543231.0,-8.4276,4.2425,48.6502,0.2059,3.9536,3.2038
1543241.0,-8.6574,4.6448,50.1729,0.0718,3.6439,3.2102
1543251.0,-8.9064,4.1946,51.0731,-0.0575,3.1703,3.3039
1543261.0,-8.9639,3.6775,51.2455,0.0782,2.7186,3.3512
1543271.0,-9.1746,2.9401,49.9047,0.2123,2.3807,3.388
1543281.0,-9.7779,2.2505,48.5544,0.4193,2.221,3.3119
1543291.0,-9.7875,2.2889,46.5433,0.307,2.1657,3.1677
1543301.0,-9.9695,2.5953,45.6814,0.1016,2.2269,3.0251
1543311.0,-10.6303,3.7062,45.7197,-0.2543,2.278,2.9373
1543321.0,-10.5632,4.1084,46.5816,-0.5938,2.2317,2.9032
1543331.0,-10.8697,4.5107,48.2575,-0.8524,2.071,2.9351
1543341.0,-11.3198,3.9169,49.8185,-0.9908,1.7496,3.0261
1543351.0,-11.3581,2.8252,50.3644,-1.0009,1.2856,3.0825
1543361.0,-11.2911,1.8292,49.5504,-1.0935,0.8237,3.0538
1543371.0,-11.2432,1.2929,48.8321,-1.1611,0.5726,2.9974
1543381.0,-11.3198,0.68,48.3246,-1.2036,0.3512,2.8511
1543391.0,-11.224,0.929,47.2711,-1.1941,0.2368,2.7287
1543401.0,-10.8026,1.8579,46.4667,-1.3191,0.1884,2.6105
1543411.0,-11.0612,2.5379,46.3805,-1.6597,0.0388,2.6111
1543421.0,-11.4251,2.9401,46.1411,-1.9662,-0.1362,2.6701
1543431.0,-11.7029,1.8771,47.3382,-2.162,-0.281,2.8106
1543441.0,-11.5592,-0.6225,48.6406,-1.9124,-0.3991,2.8851
1543451.0,-11.3102,-3.2082,48.8417,-1.6597,-0.5433,2.7574
1543461.0,-11.0516,-4.9704,49.1961,-1.5506,-0.7072,2.4115
1543471.0,-9.7013,-5.5929,50.3549,-1.583,-0.8535,2.0013
1543481.0,-9.9216,-4.7884,50.4985,-1.3723,-1.1706,1.574
1543491.0,-9.4523,-3.0646,50.4602,-1.5107,-1.5548,1.2739
1543501.0,-9.6151,-1.9345,50.3165,-1.5985,-1.9108,1.1403
1543511.0,-9.6438,-1.0918,50.1059,-1.8326,-2.3386,1.0956
1543521.0,-9.3948,-1.8004,49.378,-1.9215,-2.7441,1.0461
1543531.0,-9.165,-2.059,48.1905,-2.245,-3.123,0.8993
1543541.0,-8.8394,-2.3367,47.884,-2.5504,-3.4401,0.7482
1543551.0,-8.1211,-2.1261,47.0604,-2.7468,-3.6955,0.6045
1543561.0,-8.0637,-1.81,46.5433,-2.5557,-3.8078,0.5342
1543571.0,-7.288,-1.7621,46.3901,-2.4137,-3.803,0.5257
1543581.0,-7.0964,-1.6568,46.6486,-2.1896,-3.9201,0.5582
1543591.0,-6.6176,-2.0686,46.2177,-1.9619,-4.1329,0.6582
1543601.0,-5.9376,-2.6432,44.8578,-1.8853,-4.3271,0.7338
1543611.0,-5.2385,-4.1276,44.5705,-1.8177,-4.5384,0.7524
1543621.0,-4.1468,-5.7844,42.9711,-1.7783,-4.6874,0.6428
1543631.0,-3.2944,-6.7612,41.6016,-1.9007,-4.8092,0.397
1543641.0,-2.7102,-7.1347,40.5674,-2.0497,-4.9375,0.0867
1543651.0,-1.7717,-6.7612,39.0446,-2.13,-4.9827,-0.2118
1543661.0,-0.9768,-5.3917,37.6847,-2.2274,-4.9444,-0.4119
1543671.0,-0.996,-4.4819,37.1293,-2.3312,-4.9231,-0.5087
1543681.0,-0.4501,-4.4819,36.344,-2.1551,-4.8486,-0.4959
1543691.0,0.4118,-5.363,35.1852,-1.7826,-4.6624,-0.4544
1543701.0,1.312,-6.675,33.9689,-1.4309,-4.5017,-0.5566
1543711.0,2.4612,-7.6231,32.9825,-1.1733,-4.2244,-0.7604
1543721.0,3.3998,-7.6902,31.795,-0.9285,-3.9275,-1.0147
1543731.0,3.7541,-6.8761,30.7128,-0.713,-3.5795,-1.2691
1543741.0,4.4915,-5.545,29.554,-0.5624,-3.2634,-1.4367
1543751.0,4.7405,-4.549,29.0848,-0.513,-2.9224,-1.4889
1543761.0,4.8267,-3.4477,27.0353,-0.6215,-2.676,-1.5139
1543771.0,4.7022,-2.6049,25.4264,-1.0727,-2.3647,-1.499
1543781.0,4.8171,-2.6624,25.1391,-1.3643,-1.9406,-1.4394
1543791.0,6.1196,-3.4285,24.8039,-1.3516,-1.143,-1.4053
1543801.0,6.5314,-4.118,26.2788,-1.1446,-0.1942,-1.4282
1543811.0,6.177,-4.6735,29.0752,-0.5699,0.4805,-1.4591
1543821.0,6.3782,-3.9361,30.9618,-0.0282,0.9051,-1.4803
1543831.0,6.0621,-3.237,33.0783,0.4959,0.9647,-1.4239
1543841.0,5.4779,-2.8156,32.3983,0.8067,0.754,-1.3143
1543851.0,5.363,-3.3423,31.3257,0.8179,0.6572,-1.2297
1543861.0,6.1004,-4.0606,29.4583,0.779,0.9376,-1.2898
1543871.0,5.8897,-4.6926,28.5006,0.6582,1.3526,-1.4378
1543881.0,6.1866,-5.5162,28.1941,0.6497,1.9236,-1.6283
1543891.0,5.8993,-5.4013,29.4966,0.6604,2.5504,-1.8949
1543901.0,5.0661,-4.7309,31.5173,0.8386,3.024,-2.0928
1543911.0,4.5873,-3.2944,33.5667,1.0914,3.3262,-2.1875
1543921.0,3.7541,-1.7334,35.8077,1.4362,3.4912,-2.1295
1543931.0,2.9113,-1.0534,36.162,1.4473,3.2539,-2.0375
1543941.0,2.6432,-1.1301,35.099,1.2334,3.1224,-1.9965
1543951.0,2.5283,-1.3599,33.8923,1.0578,3.4348,-2.0146
1543961.0,1.9824,-1.6089,34.036,1.0153,3.9706,-2.0667
1543971.0,1.2737,-1.6472,36.0375,1.202,4.5299,-2.1274
1543981.0,0.6033,-1.6185,39.4373,1.5133,4.8459,-2.1817
1543991.0,0.3352,-0.8236,42.3965,1.8943,4.7454,-2.1721
1544001.0,-0.4884,-0.1341,44.3693,2.0822,4.3319,-2.0806
1544011.0,-1.6664,-0.4405,44.3598,2.046,3.6397,-2.0258
1544021.0,-1.1013,-1.4078,42.1571,1.9614,3.3661,-2.0981
1544031.0,-1.2258,-1.5323,40.1364,1.8709,3.6051,-2.3189
1544041.0,-1.992,-0.7374,39.8587,1.7219,4.0217,-2.5456
1544051.0,-3.1699,0.431,41.1707,1.6985,4.4697,-2.6494
1544061.0,-4.1563,1.5897,44.3023,1.6831,4.606,-2.6967
1544071.0,-4.3766,2.4421,47.7308,1.84,4.3873,-2.6148
1544081.0,-4.4915,2.988,49.8473,1.8459,3.7274,-2.4733
1544091.0,-4.9129,2.5187,49.9239,1.7416,2.8521,-2.3482
1544101.0,-4.6831,1.2258,48.1235,1.5692,2.2742,-2.3557
1544111.0,-3.9552,0.6512,45.5664,1.5602,2.2327,-2.5153
1544121.0,-4.4819,1.1396,44.0342,1.4516,2.5494,-2.693
1544131.0,-5.363,2.3559,44.9248,1.2627,2.7782,-2.8042
1544141.0,-5.4205,3.2465,47.8649,1.1483,2.668,-2.7909
1544151.0,-5.9759,4.0318,49.7228,1.0908,2.072,-2.6707
1544161.0,-7.1826,3.1603,50.058,1.0616,1.193,-2.4823
1544171.0,-6.9719,1.3791,47.3286,1.2137,0.6758,-2.3982
1544181.0,-5.9472,-0.5938,44.1778,1.433,0.7886,-2.5509
1544191.0,-5.7461,-1.0343,41.6112,1.5788,1.3457,-2.8356
1544201.0,-6.8474,-0.249,42.0039,1.3329,1.7602,-3.148
1544211.0,-7.3167,0.7853,43.5362,1.11,1.9529,-3.4055
1544221.0,-7.8817,1.9728,46.0932,1.127,2.1146,-3.497
1544231.0,-8.4755,2.241,48.5257,1.3005,2.0183,-3.5119
1544241.0,-8.5521,2.4421,50.6038,1.5846,1.764,-3.4992
1544251.0,-9.0788,2.7677,50.4027,1.7879,1.3361,-3.5407
1544261.0,-8.4659,3.0742,50.0867,1.6698,0.9285,-3.588
1544271.0,-7.4891,3.2561,49.6462,1.4979,0.5678,-3.7014
1544281.0,-7.1347,3.2657,47.07,0.9817,-0.0798,-4.0026
1544291.0,-11.0038,3.3806,47.9702,1.002,0.381,-4.0989
1544301.0,-10.5632,6.6655,46.256,-0.1671,-0.0569,-4.1335
1544311.0,-8.8969,5.4396,49.9622,-0.3863,-0.5901,-4.0504
1544321.0,-8.8107,6.0047,48.2384,-0.82,-0.6162,-4.0153
1544331.0,-9.0692,4.9704,50.1537,-1.0754,-0.9477,-4.0488
1544341.0,-9.2608,4.9321,51.2359,-1.2941,-1.3633,-4.1585
1544351.0,-8.4276,5.7844,49.3684,-1.7698,-1.8816,-4.1414
1544361.0,-8.2456,5.5162,50.3836,-2.3168,-2.3503,-4.1601
1544371.0,-7.5944,6.043,48.9854,-2.4536,-2.8133,-4.1356
1544381.0,-7.2688,5.4588,48.382,-2.6137,-3.1043,-4.1052
1544391.0,-7.0198,5.4588,46.2081,-2.6723,-3.2496,-4.0877
1544401.0,-6.9049,5.2002,45.1163,-2.8197,-3.2959,-4.059
1544411.0,-6.5697,4.8267,43.8426,-2.9905,-3.1677,-4.0073
1544421.0,-6.0047,4.5394,43.6415,-2.966,-3.0086,-3.9972
1544431.0,-5.6407,4.4149,43.7947,-3.0692,-2.9389,-3.9259
1544441.0,-4.7692,4.0127,44.695,-2.9862,-2.8899,-3.8908
1544451.0,-4.3479,3.3423,44.7907,-2.7824,-2.7888,-3.8599
1544461.0,-4.5107,3.371,45.6526,-2.3429,-2.6318,-3.8227
1544471.0,-4.2138,3.7062,46.323,-1.972,-2.5201,-3.7413
1544481.0,-4.8267,3.9265,47.6159,-1.5681,-2.676,-3.6641
1544491.0,-4.9704,4.4819,47.4339,-1.3388,-2.9091,-3.5678
1544501.0,-4.2521,5.1811,46.9742,-0.9408,-2.9867,-3.4587
1544511.0,-4.1946,6.0238,46.8402,-0.7455,-3.0043,-3.2938
1544521.0,-3.7158,7.0294,46.3805,-0.48,-3.041,-3.0937
1544531.0,-3.2274,7.8243,46.1602,-0.4757,-3.1134,-2.8447
1544541.0,-3.1987,8.0828,46.3134,-0.6721,-3.3816,-2.5999
1544551.0,-3.0071,8.351,45.6239,-0.9035,-3.7072,-2.3599
1544561.0,-2.9401,8.0349,44.7811,-1.0807,-3.8605,-2.1029
1544571.0,-2.4421,7.604,43.948,-1.0706,-3.943,-1.873
1544581.0,-1.8866,7.106,42.9903,-1.0866,-3.9818,-1.6847
1544591.0,-1.4461,7.0294,42.1667,-1.1643,-3.9903,-1.5176
1544601.0,-0.7183,6.9719,41.707,-1.334,-4.0712,-1.358
1544611.0,0.3256,7.2113,40.7493,-1.4356,-4.0531,-1.2015
1544621.0,0.9577,6.9145,40.2322,-1.4851,-4.0339,-1.0461
1544631.0,1.1684,6.7133,39.5139,-1.5953,-4.0744,-0.8929
1544641.0,1.2737,6.6942,38.3551,-1.698,-4.1755,-0.7402
1544651.0,2.1165,6.292,37.0622,-1.7858,-4.1675,-0.5715
1544661.0,2.988,6.1292,35.6353,-1.8943,-3.9616,-0.4379
1544671.0,3.1699,6.1004,34.8021,-2.0034,-3.7615,-0.2969
1544681.0,3.8116,6.0621,34.5627,-1.9976,-3.4848,-0.1016
1544691.0,4.1851,5.9664,34.8787,-1.9396,-3.2209,0.1117
1544701.0,4.9129,5.3343,36.344,-1.6533,-3.0932,0.3661
1544711.0,5.1236,4.8171,36.3823,-1.1334,-3.0181,0.605
1544721.0,5.2194,4.4341,35.8364,-0.6226,-3.0655,0.8306
1544731.0,5.8035,4.3766,33.9977,-0.2575,-3.123,1.0163
1544741.0,6.3686,4.3191,31.2587,-0.1815,-3.0836,1.1877
1544751.0,6.8378,4.1946,28.6251,-0.3954,-2.8931,1.3026
1544761.0,6.608,4.2329,26.0106,-0.738,-2.4498,1.4383
1544771.0,7.0485,4.0127,25.12,-0.9605,-1.8071,1.6203
1544781.0,7.6231,3.6966,26.0776,-0.9972,-1.0467,1.8315
1544791.0,7.9679,2.5857,27.4854,-0.9307,-0.5002,2.0258
1544801.0,8.1403,1.5131,28.9315,-0.795,-0.2208,2.1428
1544811.0,8.2265,1.1013,29.4008,-0.6321,-0.0617,2.2152
1544821.0,8.351,0.3926,29.1326,-0.4965,0.0937,2.3019
1544831.0,8.5042,0.0287,28.2133,-0.2331,0.5231,2.3445
1544841.0,8.0924,0.498,28.6347,0.1144,1.1701,2.4131
1544851.0,7.4891,0.996,28.8645,0.3922,1.7475,2.5643
1544861.0,7.422,1.2833,30.3106,0.6609,2.1785,2.7324
1544871.0,6.6655,0.6704,31.6418,0.7529,2.4126,2.9373
1544881.0,6.6272,0.1149,32.36,0.7806,2.5052,3.0596
1544891.0,6.6176,-0.5171,32.6569,0.5757,2.5536,3.1214
1544901.0,6.8187,-1.1396,32.6856,0.3187,2.5861,3.131
1544911.0,6.5505,-1.4078,32.0536,-0.0287,2.6861,3.0559
1544921.0,6.0813,-1.4269,32.2547,-0.3214,2.9506,2.9724
1544931.0,5.1523,-1.2833,33.107,-0.4209,3.4013,2.9926
1544941.0,4.4628,-1.7142,35.6161,-0.1447,3.8078,3.0841
1544951.0,3.9456,-2.1261,37.0239,0.2714,3.9696,3.1751
1544961.0,3.6583,-2.5187,37.972,0.5151,4.1239,3.1602
1544971.0,3.4093,-2.7485,38.7573,0.6194,4.0164,3.1485
1544981.0,3.6679,-2.9113,38.336,0.5837,3.9648,3.0836
1544991.0,2.6624,-2.5666,38.1923,0.4459,4.1303,3.0192
1545001.0,1.9345,-2.3846,38.6711,0.3102,4.3032,2.9612
1545011.0,1.4269,-1.7047,39.6097,0.2027,4.6177,2.917
1545021.0,0.3639,-1.4557,41.6591,0.1517,4.7629,2.9793
1545031.0,-0.1341,-1.7142,44.0533,0.1868,4.7603,3.0607
1545041.0,-0.6895,-1.6759,45.9782,0.2203,4.4974,3.0964
1545051.0,-0.6991,-2.0877,47.8266,0.2772,4.1324,3.14
1545061.0,-0.9577,-2.0303,47.635,0.4768,3.704,3.2187
1545071.0,-1.1109,-1.8675,47.1945,0.8333,3.3943,3.256
1545081.0,-1.2929,-1.5802,45.8729,1.027,3.3954,3.3065
1545091.0,-1.2067,-1.1205,45.1163,1.0174,3.3805,3.3747
1545101.0,-1.3408,-1.3886,45.1259,0.7205,3.2305,3.421
1545111.0,-1.8387,-1.7047,45.1259,0.2724,2.7473,3.4715
1545121.0,-2.1739,-2.9592,45.4228,-0.1282,2.2737,3.4704
1545131.0,-2.4804,-4.0606,43.7756,-0.1256,2.1572,3.4007
1545141.0,-2.2505,-4.8076,43.1722,0.0995,2.3785,3.3023
1545151.0,-2.4804,-4.7501,42.703,0.3858,2.7249,3.157
1545161.0,-3.2848,-4.3958,42.8562,0.4704,3.0884,3.0384
1545171.0,-4.0797,-3.8882,43.8809,0.4927,3.3528,2.9335
1545181.0,-5.4588,-3.9935,46.9934,0.8312,3.388,2.8463
1545191.0,-5.5354,-3.2753,48.0564,1.1643,3.2278,2.792
1545201.0,-5.9664,-3.3902,49.0332,1.5453,2.9144,2.7409
1545211.0,-5.679,-2.6815,48.0181,1.7395,2.6877,2.6526
1545221.0,-5.9568,-2.1261,47.2328,1.724,2.3599,2.5568
1545231.0,-6.4835,-1.8579,45.7867,1.5474,2.3434,2.4413
1545241.0,-7.0485,-0.9098,44.8673,1.3101,2.4584,2.2971
1545251.0,-7.6806,-0.6512,45.2504,1.1036,2.4844,2.2141
1545261.0,-8.4467,0.1149,45.9782,0.9972,2.535,2.1641
1545271.0,-9.0118,0.9002,46.3517,1.0557,2.585,2.1689
1545281.0,-9.5289,1.4653,47.5201,1.0679,2.61,2.2072
1545291.0,-9.3853,1.9249,48.564,1.1174,2.4871,2.2615
1545301.0,-9.3948,2.2027,49.9526,1.0179,2.2631,2.3019
1545311.0,-9.4906,2.5474,50.2016,0.9158,1.9289,2.3546
1545321.0,-9.8928,3.0167,50.939,0.763,1.4734,2.4126
1545331.0,-9.8833,3.304,50.5464,0.5209,0.9546,2.4988
1545341.0,-9.6822,3.8786,49.5121,0.2767,0.6848,2.5994
1545351.0,-9.7396,3.2753,49.7515,-0.042,0.3406,2.7303
1545361.0,-9.4044,2.557,49.3972,-0.2075,-0.0404,2.7994
1545371.0,-8.8011,1.3216,48.6885,-0.4198,-0.3209,2.8064
1545381.0,-8.3318,0.0575,47.5201,-0.6721,-0.5944,2.7494
1545391.0,-7.6998,-1.063,47.386,-0.7726,-0.7833,2.6026
1545401.0,-7.3071,-1.4365,46.4858,-0.8274,-0.8296,2.3929
1545411.0,-7.2496,-1.4748,45.7293,-0.9312,-0.8785,2.2572
1545421.0,-7.0485,-1.1971,44.9727,-1.0376,-0.9009,2.1471
1545431.0,-6.9911,-1.4174,45.7388,-1.1286,-0.7556,2.079
1545441.0,-6.5984,-1.9058,46.1219,-1.2366,-0.6965,1.9944
1545451.0,-6.3686,-2.8922,48.2096,-1.3877,-0.7513,1.856
1545461.0,-5.7748,-3.304,50.0963,-1.4681,-1.0275,1.6778
1545471.0,-5.1715,-3.9169,51.3796,-1.6405,-1.5793,1.4644
1545481.0,-4.9895,-4.1659,52.1074,-1.8028,-2.228,1.2175
1545491.0,-4.9512,-3.9552,51.1018,-2.0518,-2.9298,0.9935
1545501.0,-4.5969,-3.5817,49.129,-2.1817,-3.4364,0.8046
1545511.0,-4.3191,-3.5243,46.5145,-2.4318,-3.6551,0.6635
1545521.0,-3.7254,-3.7062,45.0685,-2.751,-3.8078,0.5438
1545531.0,-3.1029,-4.6352,43.2201,-3.24,-3.9674,0.3863
1545541.0,-2.8443,-5.7748,42.0996,-3.903,-4.1031,0.1836
1545551.0,-1.9345,-7.4316,41.9081,-4.5001,-4.1068,-0.1346
1545561.0,-1.3216,-8.7724,42.1571,-4.8188,-4.176,-0.5231
1545571.0,-0.7853,-9.6343,43.7564,-4.6049,-4.2479,-0.9355
1545581.0,-0.6416,-8.9064,43.7756,-3.9845,-4.2564,-1.293
1545591.0,-0.8332,-7.671,43.6319,-3.1858,-4.2393,-1.5043
1545601.0,-0.7661,-5.6024,42.4348,-2.3897,-4.192,-1.5713
1545611.0,-0.8236,-4.1563,40.3088,-2.0077,-4.1803,-1.5213
1545621.0,-0.2011,-2.7964,38.5658,-1.9981,-4.0568,-1.3957
1545631.0,0.1149,-2.7581,38.0199,-2.0215,-3.9728,-1.2074
1545641.0,0.8715,-3.2178,37.9625,-1.9747,-3.9068,-1.0275
1545651.0,1.9154,-3.5913,36.9952,-1.7405,-3.7791,-0.9195
1545661.0,2.3942,-4.0797,36.8228,-1.6182,-3.612,-0.8072
1545671.0,3.0646,-4.8076,35.9705,-1.3452,-3.4231,-0.7322
1545681.0,3.6488,-4.7597,35.8268,-1.1414,-3.289,-0.6976
1545691.0,4.2042,-4.6064,34.7063,-0.8993,-3.1985,-0.6449
1545701.0,4.4532,-4.616,33.9594,-0.8104,-3.1554,-0.5619
1545711.0,5.0853,-4.5203,32.293,-0.9642,-3.1905,-0.4938
1545721.0,5.6216,-5.1236,30.1957,-1.1393,-3.0171,-0.4725
1545731.0,6.3207,-6.043,28.9315,-1.2606,-2.5196,-0.4917
1545741.0,6.7612,-6.8378,29.056,-1.1164,-1.9656,-0.5683
1545751.0,7.5657,-7.2018,29.554,-1.0914,-1.5804,-0.6955
1545761.0,7.4986,-7.1539,29.8892,-0.9152,-1.2872,-0.8253
1545771.0,7.3646,-6.6655,29.803,-0.6976,-1.085,-0.9126
1545781.0,7.288,-5.8514,28.9603,-0.5146,-0.8461,-0.9019
1545791.0,6.8666,-5.7652,28.0696,-0.381,-0.5092,-0.8407
1545801.0,6.9528,-6.426,27.3418,-0.248,-0.0708,-0.7902
1545811.0,7.6423,-7.6614,26.5182,-0.0048,0.5002,-0.8051
1545821.0,8.4563,-8.8681,27.2077,0.315,1.2159,-0.9849
1545831.0,8.351,-8.8777,28.175,0.7061,1.9257,-1.2175
1545841.0,7.4316,-7.9871,29.0752,0.9136,2.4557,-1.4452
1545851.0,6.5601,-7.0773,30.301,1.0334,2.8404,-1.5703
1545861.0,5.5354,-6.0525,31.364,1.0749,3.148,-1.6293
1545871.0,5.0566,-5.7557,32.4366,1.1499,3.5061,-1.6549
1545881.0,4.865,-6.0525,33.7008,1.202,3.8908,-1.6868
1545891.0,4.4532,-6.2441,35.3288,1.2324,4.2505,-1.781
1545901.0,4.3479,-6.6846,37.3974,1.3026,4.5081,-1.9252
1545911.0,4.0989,-6.4452,39.5331,1.3026,4.5506,-2.1487
1545921.0,3.1029,-6.0238,41.3622,1.1462,4.4149,-2.345
1545931.0,2.4134,-5.1427,42.5689,0.9381,4.234,-2.5142
1545941.0,1.1109,-4.3479,43.9671,0.7338,4.052,-2.6276
1545951.0,0.4501,-3.486,44.6758,0.4997,3.8248,-2.726
1545961.0,-0.1245,-2.6911,44.9727,0.3443,3.6801,-2.7601
1545971.0,-0.5555,-2.2984,46.3326,0.1059,3.4646,-2.7904
1545981.0,-1.2354,-1.4653,46.9742,-0.2485,3.1347,-2.7824
1545991.0,-1.7142,-1.1779,48.4586,-0.3358,2.768,-2.7196
1546001.0,-2.1069,-0.4788,49.062,-0.2916,2.4004,-2.5754
1546011.0,-2.5953,0.3831,49.378,0.0362,2.0417,-2.3519
1546021.0,-3.1316,0.8428,48.6598,0.1985,1.6304,-2.0375
1546031.0,-2.7581,0.7278,47.2137,0.4592,1.2856,-1.7235
1546041.0,-2.375,0.4022,45.1451,0.5396,1.1318,-1.4431
1546051.0,-1.7813,-0.0862,43.1052,0.3938,1.0456,-1.2175
1546061.0,-2.0207,-0.996,41.64,0.0575,0.9897,-1.0456
1546071.0,-2.1644,-2.8826,40.96,-0.2219,0.9807,-0.9147
1546081.0,-1.5706,-4.9608,39.4756,-0.1942,1.2276,-0.936
1546091.0,-1.5993,-6.9049,39.5426,-0.0532,1.6809,-1.0781
1546101.0,-1.6472,-7.8243,39.6001,0.2081,2.2445,-1.3404
1546111.0,-1.8579,-7.8817,40.9217,0.5981,2.8516,-1.6229
1546121.0,-2.0111,-7.3454,42.7221,0.8642,3.3385,-1.8677
1546131.0,-2.6049,-6.8761,45.4132,1.0962,3.6216,-2.1056
1546141.0,-2.6145,-6.4931,47.5872,1.176,3.5604,-2.3498
1546151.0,-1.3216,-6.3207,50.1346,1.1222,3.3661,-2.659
1546161.0,-2.8826,-5.8514,51.9638,0.8982,2.925,-2.9921
1546171.0,-4.8842,-4.9321,54.6644,0.7162,2.3679,-3.2815
1546181.0,-5.0087,-3.1412,55.1145,0.6641,1.7272,-3.4523
1546191.0,-4.7788,-1.6089,56.3978,0.4826,1.0403,-3.5125
1546201.0,-4.5011,-0.0862,56.1105,0.3272,0.3427,-3.4949
1546211.0,-4.8746,0.9768,55.4593,-0.0261,-0.4103,-3.4305
1546221.0,-5.1236,2.0399,54.109,-0.3618,-1.0658,-3.2916
1546231.0,-5.4205,2.6049,52.1649,-0.7774,-1.6213,-3.107
1546241.0,-5.3056,2.5283,50.5272,-1.2212,-1.9986,-2.8883
1546251.0,-4.8459,2.0399,48.9088,-1.4676,-2.2945,-2.6755
1546261.0,-4.5777,1.1396,47.884,-1.6325,-2.4403,-2.5004
1546271.0,-3.7062,0.498,46.7252,-1.5234,-2.4222,-2.3259
1546281.0,-3.6871,0.0192,45.576,-1.3643,-2.4318,-2.1923
1546291.0,-3.3519,-0.6129,45.0301,-1.0882,-2.3902,-2.0023
1546351.0,0.0383,-4.2425,40.1939,-1.11,-2.0832,-2.5041
1546361.0,0.5938,-4.118,40.0406,-1.4378,-1.9374,-2.6861
1546371.0,1.1109,-4.3862,40.9504,-1.6863,-1.7868,-2.859
1546381.0,1.1971,-4.5011,42.8179,-1.9055,-1.8337,-3.0522
1546391.0,1.5323,-4.5873,43.9863,-1.9513,-1.9837,-3.2512
1546401.0,1.4557,-4.1468,44.4172,-1.9513,-2.1614,-3.4241
1546411.0,1.2737,-3.7924,44.4172,-1.8012,-2.3307,-3.5902
1546421.0,1.743,-3.486,44.264,-1.4277,-2.3088,-3.704
1546431.0,1.9728,-2.2218,43.5074,-0.8226,-2.1567,-3.8105
1546441.0,1.9058,-0.5267,42.9903,-0.2778,-1.7714,-3.8094
1546451.0,1.7717,1.6759,43.7181,0.1623,-1.4777,-3.7269
1546461.0,1.9824,3.802,44.1587,0.2512,-1.3159,-3.5428
1546471.0,1.5514,5.2577,45.7197,0.0192,-1.491,-3.2438
1546481.0,1.8962,5.9664,46.7444,-0.2166,-1.8267,-2.8974
1546491.0,1.3886,5.9185,47.8266,-0.2746,-2.1407,-2.5275
1546501.0,2.0973,6.177,47.5776,-0.3539,-2.3988,-2.1806
1546511.0,2.4421,6.0238,48.0947,-0.3852,-2.7829,-1.8603
1546521.0,2.988,6.2728,47.7212,-0.3443,-3.1804,-1.5176
1546531.0,3.553,6.1387,46.7348,-0.3267,-3.5167,-1.1765
1546541.0,3.8595,6.1483,45.5856,-0.4693,-3.8568,-0.8354
1546551.0,4.865,5.2194,44.6567,-0.5529,-4.2452,-0.5337
1546561.0,5.2385,4.7597,42.2912,-0.6971,-4.6948,-0.2927
1546571.0,5.7078,3.7541,40.213,-0.8775,-4.9699,-0.0793
1546581.0,6.2345,2.8635,37.656,-0.9684,-5.0274,0.0905
1546591.0,6.8666,2.4134,35.4342,-1.1318,-4.9944,0.2315
1546601.0,7.5561,1.7047,34.0647,-1.1302,-4.8965,0.3267
1546611.0,8.169,1.5706,31.8525,-1.16,-4.8034,0.406
1546621.0,8.5521,1.0726,30.7799,-1.2765,-4.6491,0.489
1546631.0,9.0214,0.9481,29.1518,-1.3297,-4.574,0.5342
1546641.0,9.2608,0.6704,28.0984,-1.1659,-4.3282,0.6412
1546651.0,9.6726,0.9673,26.0585,-0.87,-3.9073,0.7572
1546661.0,9.9407,0.8045,24.0857,-0.5406,-3.3278,0.9184
1546671.0,10.5153,1.1109,22.9173,-0.2522,-2.6159,1.0738
1546681.0,11.3772,1.2546,21.7872,-0.1362,-1.8847,1.2329
1546691.0,11.971,1.1875,23.3866,0.0388,-1.2201,1.3595
1546701.0,11.722,1.7047,23.626,0.4214,-0.9227,1.516
1546711.0,11.0708,2.2218,22.3331,0.6045,-0.6178,1.7491
1546721.0,10.9846,2.2697,21.4808,0.7583,0.0128,1.989
1546731.0,10.9654,2.1356,20.7912,0.977,0.8333,2.2327
1546741.0,10.477,1.7142,21.3467,1.2356,1.6996,2.4514
1546751.0,10.3142,1.9537,22.2948,1.3893,2.5227,2.6201
1546761.0,10.2759,2.0877,24.9572,1.4117,3.008,2.8468
1546771.0,9.9311,2.1356,27.0736,1.4782,3.3209,3.0267
1546781.0,9.232,1.8866,28.7591,1.6756,3.4694,3.2454
1546791.0,8.4851,1.8866,29.4391,1.8539,3.4614,3.446
1546801.0,8.4084,1.4365,29.1997,2.1183,3.662,3.6838
1546811.0,7.9966,1.6951,28.6825,2.295,4.1122,3.878
1546821.0,6.7612,1.8292,29.1039,2.701,4.7145,4.0999
1546831.0,5.8802,1.8866,29.4104,2.9436,5.4387,4.3351
1546841.0,5.4396,1.7621,30.9044,3.0815,5.9394,4.5895
1546851.0,4.7597,0.9577,33.0017,3.388,6.6104,4.8066
1546861.0,3.8116,0.0575,35.9705,3.6524,6.9419,4.9827
1546871.0,3.9648,-2.0111,39.0638,3.5002,7.0718,4.9763
1546881.0,3.5721,-3.0454,40.1747,3.3528,6.9084,4.8188
1546891.0,3.3423,-4.6831,42.5881,3.3794,6.9201,4.482
1546901.0,3.1699,-3.9361,43.6319,3.4422,7.0521,4.1132
1546911.0,2.6815,-2.8156,45.6143,3.1709,6.8898,3.7535
1546921.0,1.8579,-1.1396,48.4682,2.6068,6.5264,3.4784
1546931.0,1.7909,0.0862,50.8912,2.0752,5.6436,3.2932
1546941.0,1.5897,1.1684,52.2415,1.5575,4.6203,3.1735
1546951.0,0.6991,0.68,51.6477,1.3191,3.6907,3.1512
1546961.0,-0.3831,0.0,50.1154,1.6309,3.1607,3.0378
1546971.0,-0.7183,-0.0766,47.5967,2.2317,3.0863,2.8686
1546981.0,-0.5842,1.2067,44.6854,2.8053,3.4476,2.6606
1546991.0,-1.743,3.4189,43.584,3.2081,3.8903,2.5126
1547001.0,-3.0167,5.9568,42.3774,3.3018,4.2777,2.4935
1547011.0,-3.237,8.1594,43.1627,3.24,4.8108,2.6494
1547021.0,-3.7062,10.0556,44.7045,3.0256,5.2812,2.9335
1547031.0,-4.2904,9.9407,47.9319,2.6483,5.3797,3.2672
1547041.0,-5.0182,8.9735,51.0252,2.4956,5.1594,3.497
1547051.0,-5.4013,8.0924,53.5056,2.312,4.748,3.6279
1547061.0,-5.3534,7.8817,54.6453,2.4291,4.4086,3.7328
1547071.0,-6.2345,8.4467,56.2829,2.3849,3.9195,3.8541
1547081.0,-6.2728,8.5042,57.2214,2.3243,3.1985,4.0121
1547091.0,-7.0485,7.8147,57.049,2.4051,2.485,4.1787
1547101.0,-8.102,7.1539,55.4976,2.5967,1.9076,4.2984
1547111.0,-7.92,6.3494,52.3756,2.6201,1.6793,4.3431
1547121.0,-8.4851,5.5929,50.058,2.3418,1.6762,4.2941
1547131.0,-8.7532,4.9799,48.8513,1.8831,1.6831,4.1537
1547141.0,-8.7532,4.0701,48.9758,1.358,1.764,3.9962
1547151.0,-9.4715,3.1603,49.7994,0.9764,1.7959,3.7956
1547161.0,-9.7109,2.6336,51.5424,0.6125,1.7852,3.579
1547171.0,-9.3087,1.81,53.4194,0.464,1.5618,3.3188
1547181.0,-8.8873,1.5514,55.0762,0.2139,1.2106,3.008
1547191.0,-8.916,1.9441,57.4417,0.0218,0.4917,2.7255
1547201.0,-8.2073,2.0303,57.6236,-0.0798,-0.2714,2.478
1547211.0,-7.8817,2.3272,56.5223,-0.2671,-1.1116,2.2562
1547221.0,-7.6136,2.49,55.239,-0.2879,-1.6825,2.0933
1547231.0,-7.4986,2.8156,52.7969,-0.365,-2.1471,1.9411
1547241.0,-7.5944,2.7869,50.6326,-0.4193,-2.4504,1.8475
1547251.0,-7.2209,2.4995,48.6119,-0.439,-2.3301,1.7358
1547261.0,-6.8953,1.81,48.2384,-0.5539,-2.0614,1.6107
1547271.0,-6.3877,0.9864,48.3341,-0.9099,-2.1151,1.3707
1547281.0,-5.6503,-0.316,49.1961,-1.4771,-2.4009,1.0296
1547291.0,-4.5969,-0.6129,50.5272,-1.9795,-2.8165,0.6183
1547301.0,-4.1946,0.0862,51.6956,-2.1582,-3.4135,0.2708
1547311.0,-4.4819,0.9002,51.3891,-2.0093,-4.0073,0.0745
1547321.0,-4.4341,1.7047,48.9662,-1.7911,-4.4181,-0.0138
1547331.0,-4.051,1.8196,46.2272,-1.6331,-4.6778,-0.0963
1547341.0,-3.2178,1.5897,43.7277,-1.6331,-4.6831,-0.2251
1547351.0,-2.6528,1.2737,41.7357,-1.7991,-4.5921,-0.4124
1547361.0,-1.9249,0.7949,40.4716,-2.0428,-4.5879,-0.6566
1547371.0,-1.5514,1.0918,39.5235,-2.2232,-4.5724,-0.8838
1547381.0,-1.3408,1.8196,38.7573,-2.4259,-4.515,-1.0759
1547391.0,-0.498,2.4517,38.1157,-2.6074,-4.4612,-1.1882
1547401.0,-0.249,2.988,37.1867,-2.6217,-4.3862,-1.1765
1547411.0,0.5938,3.0646,35.4533,-2.7941,-4.2558,-1.1068
1547421.0,1.5323,2.8156,34.3999,-2.9335,-3.9712,-1.0467
1547431.0,1.5706,1.8962,34.419,-3.1081,-3.6764,-0.9711
1547441.0,2.4421,0.0479,35.0415,-2.9894,-3.5465,-0.961
1547451.0,3.2657,-1.1492,34.9458,-2.7569,-3.3486,-1.093
1547461.0,3.62,-1.9824,34.5531,-2.5334,-3.2305,-1.2717
1547471.0,4.5011,-2.2505,33.7966,-2.2785,-3.0847,-1.4686
1547481.0,4.5777,-2.1261,33.2219,-2.0508,-2.9335,-1.6581
1547491.0,4.9416,-1.7047,31.479,-1.9082,-2.8463,-1.8065
1547501.0,5.5067,-1.3024,29.9084,-1.9709,-2.6409,-1.9374
1547511.0,5.5354,-0.9002,28.5963,-2.1976,-2.3392,-2.0407
1547521.0,5.8323,-1.3791,28.0888,-2.485,-2.0162,-2.1423
1547531.0,6.0908,-1.6185,28.5389,-2.6414,-1.6405,-2.2429
1547541.0,6.3973,-2.3463,30.1861,-2.3429,-1.4484,-2.311
1547551.0,7.2018,-2.9209,30.5979,-1.8672,-1.3143,-2.4456
1547561.0,7.2401,-3.2561,29.3816,-1.4106,-1.1408,-2.6074
1547571.0,8.0062,-2.557,27.5429,-1.0243,-0.754,-2.7585
1547581.0,8.0254,-1.6472,26.4607,-0.9057,-0.3081,-2.8755
1547591.0,8.5042,-1.0822,26.001,-0.8131,0.2182,-2.9798
1547601.0,8.0828,-0.4214,26.1734,-0.9323,0.8375,-3.0203
1547611.0,8.1403,-0.2969,27.6482,-1.0685,1.2547,-3.0543
1547621.0,7.9871,-0.3352,29.6977,-0.8152,1.6139,-3.0575
1547631.0,7.7859,-0.1532,31.3353,-0.4236,1.8438,-3.0229
1547641.0,7.6806,0.2394,32.6282,0.025,1.9656,-2.9772
1547651.0,7.355,0.5842,32.5324,0.3884,2.0002,-2.9032
1547661.0,7.4508,0.5938,31.977,0.6848,2.104,-2.8127
1547671.0,7.3646,0.1724,30.6745,0.8886,2.3732,-2.8069
1547681.0,7.1539,-0.3543,30.1191,0.961,2.9181,-2.8867
1547691.0,7.106,0.182,29.7168,0.9546,3.563,-3.0192
1547701.0,5.9472,0.9194,31.1725,0.7215,4.2026,-3.1443
1547711.0,4.8363,2.0016,34.6202,0.6231,4.6235,-3.2102
1547721.0,3.6583,2.9018,37.6081,0.4885,4.6235,-3.123
1547731.0,2.8347,2.8635,40.0981,0.5502,4.3394,-2.991
1547741.0,2.2122,2.3846,40.4812,0.7971,4.1122,-2.8409
1547751.0,2.6815,1.1588,40.2417,1.309,4.3144,-2.8096
1547761.0,2.2889,1.1109,40.778,1.7868,4.6916,-2.8989
1547771.0,1.6376,1.5323,41.4197,2.022,4.9439,-3.0591
1547781.0,0.2203,2.5762,42.7221,2.0007,5.0247,-3.1895
1547791.0,-0.4597,4.3096,44.2832,1.6746,4.8204,-3.2613
1547801.0,-1.5419,5.5067,45.9208,1.1909,4.3016,-3.1703
1547811.0,-2.4708,6.1962,46.4092,0.5598,3.5742,-3.0011
1547821.0,-2.6145,4.8746,45.9399,0.2118,2.9117,-2.8633
1547831.0,-2.059,3.6392,44.2161,0.2107,2.9341,-2.8324
1547841.0,-2.308,2.4229,44.0437,0.7407,3.496,-2.9011
1547851.0,-2.873,2.49,45.4707,1.3372,3.9919,-3.0139
1547861.0,-3.2944,3.1891,47.4914,1.8549,4.2048,-3.1145
1547871.0,-3.735,4.8363,49.0237,2.0869,4.1265,-3.1815
1547881.0,-4.3479,6.3973,50.125,1.9337,3.7173,-3.1677
1547891.0,-4.8842,7.4029,50.5368,1.5921,3.207,-3.1123
1547901.0,-5.2864,7.9296,50.7954,1.3069,2.8165,-3.0527
1547911.0,-6.0717,8.3318,50.69,1.0557,2.5355,-2.9564
1547921.0,-6.3877,8.3893,51.5903,1.118,2.5685,-2.8106
1547931.0,-6.675,8.3797,52.6724,1.1781,2.4557,-2.6552
1547941.0,-6.6463,8.2456,54.2622,1.1153,2.1551,-2.5648
1547951.0,-6.426,8.4372,55.3731,1.0754,1.8039,-2.478
1547961.0,-6.3877,8.2265,56.4936,1.0318,1.3377,-2.4041
1547971.0,-6.2537,8.0445,57.3938,0.9333,0.7168,-2.3557
1547981.0,-6.7325,7.9487,56.3978,0.7066,0.0,-2.3514
1547991.0,-6.5888,8.1307,55.0283,0.4017,-0.6183,-2.3754
1548001.0,-6.5697,8.5138,53.362,0.0442,-1.0573,-2.4041
1548011.0,-6.292,8.3989,51.9733,-0.3464,-1.3713,-2.4062
1548021.0,-6.0334,8.1116,51.1401,-0.7466,-1.6974,-2.4137
1548031.0,-5.0087,7.6136,50.2782,-1.1329,-1.8816,-2.4589
1548041.0,-5.0278,7.0485,50.6134,-1.4814,-2.2173,-2.5515
1548051.0,-4.8171,6.675,50.1442,-1.773,-2.652,-2.6866
1548061.0,-4.6639,6.5601,48.88,-1.9502,-3.0309,-2.7803
1548071.0,-4.2234,6.8378,47.1658,-2.1449,-3.2932,-2.8681
1548081.0,-3.7445,7.1443,45.193,-2.2636,-3.3848,-2.9527
1548091.0,-3.3519,7.8626,43.7181,-2.3732,-3.3326,-2.9814
1548101.0,-3.3615,8.4659,42.8275,-2.4424,-3.2911,-2.9729
1548111.0,-3.371,8.9352,42.1667,-2.4727,-3.2134,-2.8447
1548121.0,-3.5147,9.5577,41.8698,-2.3482,-3.0442,-2.6632
1548131.0,-3.371,9.596,41.7357,-2.2189,-2.8872,-2.4291
1548141.0,-3.304,9.2895,41.9081,-1.9614,-2.825,-2.1811
1548151.0,-2.5666,8.6479,42.0039,-1.6001,-2.6957,-1.9693
1548161.0,-2.1644,8.3989,41.707,-1.2717,-2.5871,-1.782
1548171.0,-1.5993,8.4755,41.1898,-1.0451,-2.5472,-1.6049
1548181.0,-1.2546,8.4467,40.6919,-0.9748,-2.6254,-1.4404
1548191.0,-0.7757,8.4276,39.8395,-0.977,-2.6361,-1.2765
1548201.0,-0.4405,8.5138,38.5371,-1.0674,-2.5078,-1.1526
1548211.0,-0.0192,8.3701,37.8571,-1.2159,-2.3759,-0.9908
1548221.0,0.0096,7.7572,37.6752,-1.3739,-2.2907,-0.845
1548231.0,0.7757,7.106,37.656,-1.3553,-2.0465,-0.7386
1548241.0,0.8619,6.6176,38.3551,-1.3085,-1.8055,-0.6268
1548251.0,1.1684,5.8802,39.7821,-1.1462,-1.7081,-0.531
1548261.0,1.3312,5.5162,40.1268,-0.9344,-1.7262,-0.4491
1548271.0,1.3982,5.3056,40.2513,-0.8434,-1.8656,-0.4252
1548281.0,1.5706,4.9895,40.1077,-0.7657,-2.0747,-0.3975
1548291.0,1.9824,4.7118,38.8818,-0.6811,-2.1966,-0.4039
1548301.0,2.308,4.7692,37.2729,-0.7348,-2.1785,-0.3959
1548311.0,2.5666,5.2002,35.7311,-0.8679,-2.03,-0.3959
1548321.0,2.6432,5.612,35.7789,-1.0977,-1.8789,-0.3719
1548331.0,2.8156,5.9376,35.7789,-1.2404,-1.7145,-0.2889
1548341.0,3.3136,5.6503,35.5012,-1.3372,-1.5692,-0.1676
1548351.0,3.2848,5.4779,36.1237,-1.3936,-1.5586,-0.0639
1548361.0,3.4955,5.1427,35.8651,-1.3329,-1.5415,0.0495
1548371.0,3.8978,4.5873,35.6066,-1.0781,-1.3782,0.1564
1548381.0,3.8882,4.2521,35.1565,-0.7753,-1.1728,0.2379
1548391.0,4.2808,4.2234,34.7351,-0.539,-1.0099,0.299
1548401.0,4.4915,4.8363,33.6529,-0.307,-0.7593,0.3767
1548411.0,4.865,4.9033,33.0879,-0.1969,-0.4592,0.481
1548421.0,4.7214,5.1427,32.5133,-0.3198,-0.274,0.6002
1548431.0,4.8171,5.1523,32.3505,-0.6114,-0.2261,0.7178
1548441.0,4.8076,4.8937,31.9291,-0.8897,-0.1261,0.8136
1548451.0,4.6352,4.367,31.4311,-0.9477,0.1421,0.9344
1548461.0,5.0182,3.9265,31.5556,-0.7258,0.6811,1.0371
1548471.0,4.549,3.6488,31.8237,-0.39,1.2414,1.1536
1548481.0,4.6064,3.7637,32.7623,-0.1288,1.6873,1.2648
1548491.0,4.6352,3.8116,34.2084,0.0213,2.0098,1.3691
1548501.0,4.9416,3.3327,35.5012,0.0958,2.1444,1.4665
1548511.0,5.0278,2.9113,36.3631,0.0293,2.1034,1.4809
1548521.0,4.9225,2.5857,36.4876,-0.0947,1.9592,1.4692
1548531.0,4.5969,2.3463,36.5259,-0.1963,1.9108,1.4282
1548541.0,3.9456,2.5187,35.9034,-0.1575,1.9949,1.3979
1548551.0,3.1316,2.9209,35.7598,-0.0245,2.254,1.4064
1548561.0,2.4517,3.6871,35.5108,0.1538,2.5914,1.4649
1548571.0,1.9058,4.3287,36.4398,0.3246,2.8947,1.6006
1548581.0,1.8483,4.2425,37.3687,0.4789,3.1315,1.7565
1548591.0,1.8196,3.9935,38.2498,0.5013,3.1842,1.8549
1548601.0,1.5323,3.5913,39.0925,0.3927,3.124,1.931
1548611.0,1.3886,2.8635,40.0215,0.4486,3.0905,1.9316
1548621.0,0.9194,2.8922,39.897,0.6146,3.065,1.931
1548631.0,0.3639,3.3998,39.648,0.6508,3.0863,1.9183
1548641.0,0.2394,4.0318,39.3894,0.514,3.074,1.9427
1548651.0,-0.249,4.2713,39.217,0.2666,2.9873,1.9981
1548661.0,-0.814,3.984,39.715,-0.0378,2.7941,2.0486
1548671.0,-0.5746,3.4955,39.1117,-0.1517,2.7409,2.0742
1548681.0,-1.2641,3.0837,38.6999,-0.0745,3.0134,2.1173
1548691.0,-1.2737,2.6815,38.8531,0.2065,3.3821,2.1141
1548701.0,-2.1261,2.8539,39.3798,0.564,3.7844,2.1125
1548711.0,-2.2697,3.2274,40.6248,0.803,4.1191,2.1433
1548721.0,-2.7198,3.7637,42.3008,0.9679,4.317,2.1769
1548731.0,-3.055,4.0989,44.0246,1.1653,4.4213,2.2476
1548741.0,-4.0031,4.3479,45.4324,1.2196,4.3011,2.3014
1548751.0,-4.2042,4.4724,46.9742,1.2962,4.0159,2.3487
1548761.0,-4.9129,4.5873,46.8785,1.3383,3.7487,2.4131
1548771.0,-5.794,4.3766,47.501,1.4404,3.5508,2.4445
1548781.0,-5.9376,4.4628,47.6255,1.5692,3.4396,2.4461
1548791.0,-6.0813,4.8171,47.5297,1.5788,3.2496,2.428
1548801.0,-6.3686,5.3726,47.5776,1.4383,3.041,2.3993
1548811.0,-6.6272,5.7461,47.0604,1.1882,2.8489,2.361
1548821.0,-6.7421,6.1196,47.0508,0.9307,2.7191,2.3636
1548831.0,-7.5178,6.2058,46.6774,0.6758,2.5478,2.3562
1548841.0,-8.1403,6.5793,47.4243,0.4299,2.4403,2.3626
1548851.0,-8.5808,6.6367,47.6063,0.1256,2.2934,2.4051
1548861.0,-8.7915,6.5218,48.1713,-0.0277,2.1125,2.4381
1548871.0,-8.7724,6.3877,48.7651,-0.2581,1.9092,2.4429
1548881.0,-8.6766,6.1004,49.5983,-0.4065,1.6575,2.4669
1548891.0,-8.6287,6.0238,50.1537,-0.5954,1.3654,2.4658
1548901.0,-8.7053,6.1483,50.0675,-0.7769,0.9466,2.4765
1548911.0,-9.2033,5.7748,49.8569,-0.9956,0.6008,2.4855
1548921.0,-9.1363,5.545,49.5025,-1.1318,0.3288,2.5238
1548931.0,-9.0022,5.114,48.8896,-1.3372,0.0064,2.5084
1548941.0,-8.8107,4.9321,48.066,-1.7086,-0.306,2.5169
1548951.0,-8.6191,4.5394,48.0277,-1.9529,-0.5326,2.5664
1548961.0,-7.9775,3.7445,48.0564,-1.9997,-0.7737,2.6191
1548971.0,-7.6327,3.3136,47.4722,-2.0385,-1.0685,2.6558
1548981.0,-7.173,2.5762,46.3134,-2.22,-1.3681,2.6925
1548991.0,-6.8666,1.7526,45.1259,-2.4706,-1.6187,2.7037
1549001.0,-6.5314,1.0151,43.5553,-2.6893,-1.8571,2.7031
1549011.0,-5.9376,0.1053,42.138,-2.9649,-1.8193,2.7074
1549021.0,-5.6599,-1.3216,42.1954,-3.1283,-1.6964,2.6845
1549031.0,-5.1906,-3.0358,43.201,-3.0229,-1.6698,2.634
1549041.0,-4.4724,-4.5969,43.6032,-2.6845,-1.5766,2.4887
1549051.0,-3.7254,-5.9855,44.2927,-2.1928,-1.4591,2.2955
1549061.0,-3.2178,-6.3973,44.8195,-1.5958,-1.3803,2.0609
1549071.0,-2.624,-6.6559,45.0972,-1.0137,-1.3255,1.7863
1549081.0,-2.7869,-6.2249,44.8673,-0.5928,-1.458,1.4862
1549091.0,-2.8252,-6.1962,44.5705,-0.4337,-1.6676,1.2095
1549101.0,-2.6336,-5.5737,43.0573,-0.5151,-1.8161,0.9168
1549111.0,-2.6336,-5.2768,42.205,-0.6753,-1.806,0.6332
1549121.0,-2.4229,-4.8363,41.8506,-0.8423,-1.6671,0.3799
1549131.0,-2.1452,-5.0374,43.5553,-0.8439,-1.6011,0.1447
1549141.0,-1.7621,-4.7214,44.4651,-0.8163,-1.69,-0.1
1549151.0,-1.5036,-4.0989,45.8059,-0.7301,-2.005,-0.2836
1549161.0,-1.4078,-3.1029,45.9974,-0.5454,-2.4381,-0.4033
1549171.0,-1.0056,-1.6568,45.2217,-0.4039,-2.8085,-0.3879
1549181.0,-0.6895,-0.8332,43.2584,-0.3922,-3.1474,-0.2857
1549191.0,-0.1341,-1.1396,41.9751,-0.5114,-3.4758,-0.1532
1549201.0,0.3543,-2.3559,40.96,-0.4965,-3.8812,-0.0729
1549211.0,1.1492,-3.2082,37.7613,-0.5997,-4.3777,-0.0798
1549221.0,2.0494,-4.4341,34.4382,-0.5981,-4.4107,-0.1884
1549231.0,2.4517,-4.6064,30.6362,-0.7035,-4.1558,-0.3682
1549241.0,2.9592,-5.5258,28.7975,-0.6481,-3.7647,-0.572
1549251.0,3.3232,-5.5354,25.9148,-0.7152,-3.2549,-0.8157
1549261.0,3.5243,-6.3207,24.6315,-0.6614,-2.4812,-1.0525
1549271.0,3.8403,-6.3303,23.875,-0.4454,-1.4942,-1.3228
1549281.0,4.4628,-6.5697,23.9707,-0.166,-0.5747,-1.6272
1549291.0,4.4436,-6.2345,24.3442,0.2506,0.4198,-1.9411
1549301.0,4.1946,-5.4205,25.1295,0.5108,1.2574,-2.2104
1549311.0,3.7924,-4.2329,26.4128,0.763,1.9811,-2.4264
1549321.0,3.3423,-2.7773,28.1941,0.8487,2.6164,-2.6058
1549331.0,2.4708,-1.3886,29.7647,0.9003,3.0772,-2.7085
1549341.0,1.8866,-0.3448,31.1534,0.8684,3.4609,-2.7074
1549351.0,1.0439,0.1245,33.1741,0.9152,3.8583,-2.6755
1549361.0,0.4788,-0.249,35.6544,1.1121,4.1856,-2.6366
1549371.0,0.1532,-0.3065,38.087,1.4543,4.4745,-2.6483
1549381.0,-0.2203,-0.2873,40.6535,1.648,4.507,-2.717
1549391.0,-0.6512,0.6033,42.5689,1.7379,4.2995,-2.8042
1549401.0,-1.2546,1.6472,44.331,1.5915,3.8381,-2.8282
1549411.0,-1.7047,2.8252,45.0014,1.3074,3.3071,-2.8409
1549421.0,-2.3559,4.0606,45.078,0.8253,2.7372,-2.75
1549431.0,-2.9209,4.1563,44.1108,0.3512,2.303,-2.602
1549441.0,-3.4668,4.0797,43.8139,0.0782,2.1269,-2.4467
1549451.0,-3.8307,3.0454,44.015,0.083,2.1497,-2.2657
1549461.0,-3.984,1.6855,45.0014,0.223,2.0327,-2.1731
1549471.0,-3.7733,0.5746,45.193,0.5098,1.9098,-2.204
1549481.0,-3.5338,-0.3352,44.7045,1.0201,1.9502,-2.2758
1549491.0,-3.7445,-0.4788,44.082,1.508,2.1471,-2.4131
1549501.0,-3.984,-0.0575,43.5649,1.7975,2.3796,-2.5786
1549511.0,-4.4149,0.8619,43.3446,1.8001,2.5871,-2.776
1549521.0,-4.8937,2.2889,44.3693,1.566,2.6568,-2.9277
1549531.0,-5.6216,3.4477,45.8537,1.2036,2.5861,-3.0421
1549541.0,-6.5122,3.7733,47.9319,0.9945,2.3285,-3.0857
1549551.0,-6.4165,4.0223,49.4067,0.9642,2.0204,-3.1299
1549561.0,-6.4835,4.1755,50.7092,1.1728,1.748,-3.1735
1549571.0,-6.5697,4.6543,50.9678,1.2707,1.3686,-3.2432
1549581.0,-6.8378,5.5545,51.0731,1.3175,0.9599,-3.2666
1549591.0,-7.1251,6.3782,50.4793,1.2324,0.5545,-3.2922
1549601.0,-7.2305,7.4508,49.2439,1.0233,0.2783,-3.339
1549611.0,-7.6614,8.8107,48.813,0.6162,0.0745,-3.356
1549621.0,-8.2552,9.979,48.8609,0.2788,-0.0894,-3.2906
1549631.0,-8.8873,10.8409,49.2152,0.0521,-0.2772,-3.1671
1549641.0,-9.3278,11.6071,49.5504,-0.1442,-0.5231,-2.9548
1549651.0,-9.5385,11.3389,50.0867,-0.0277,-0.654,-2.7287
1549661.0,-9.1363,10.9942,50.0867,0.1171,-0.7263,-2.527
1549671.0,-9.0788,10.5824,50.5751,0.2554,-0.8908,-2.3849
1549681.0,-8.7245,10.8793,51.0731,0.3602,-1.0743,-2.3227
1549691.0,-8.9447,11.2432,51.2263,0.4528,-1.2675,-2.2109
1549701.0,-8.9447,11.9327,50.8528,0.4672,-1.4787,-2.1029
1549711.0,-8.8585,12.5265,50.7762,0.4347,-1.6245,-1.9816
1549721.0,-9.2895,13.7906,50.7954,0.1043,-1.8895,-1.8337
1549731.0,-9.596,13.9821,51.5615,-0.2969,-2.3301,-1.6261
1549741.0,-8.8969,14.0204,51.8105,-0.5539,-2.7457,-1.4394
1549751.0,-8.418,13.8481,51.5424,-0.7269,-3.0527,-1.2547
1549761.0,-8.2552,13.8193,51.0252,-0.9275,-3.4082,-1.0876
1549771.0,-7.8721,13.4554,50.1059,-1.2239,-3.8839,-0.9232
1549781.0,-7.1251,13.0819,49.2248,-1.6054,-4.2532,-0.8062
1549791.0,-6.1866,12.8521,47.75,-2.0034,-4.6927,-0.6923
1549801.0,-5.5162,12.4977,46.8689,-2.3557,-4.9364,-0.5587
1549811.0,-4.865,11.8944,45.6814,-2.6409,-5.1908,-0.397
1549821.0,-4.0797,11.0516,44.4268,-2.8351,-5.4584,-0.2746
1549831.0,-3.0646,9.9982,42.7413,-2.9532,-5.6138,-0.1644
1549841.0,-2.308,8.7819,42.138,-2.8431,-5.7042,-0.0761
1549851.0,-1.4174,8.0349,40.4716,-2.5552,-5.6356,-0.0027
1549861.0,-0.6321,7.8338,39.9736,-1.9976,-5.5494,0.1197
1549871.0,-0.4405,8.0732,38.3455,-1.4245,-5.4281,0.29
1549881.0,0.3352,8.3701,35.7311,-1.0541,-5.4009,0.4927
1549891.0,1.1971,8.2073,33.107,-0.9371,-5.2546,0.7519
1549901.0,1.7334,7.8051,30.6841,-1.0578,-4.8954,0.9658
1549911.0,2.6336,6.1675,29.2188,-1.301,-4.4336,1.1584
1549921.0,3.802,4.616,28.9698,-1.4324,-3.9291,1.2409
1549931.0,4.9991,3.4572,29.0656,-1.6336,-3.5428,1.209
1549941.0,5.5258,2.3942,29.4104,-1.8518,-3.2773,1.1196
1549951.0,6.2153,2.0016,29.9084,-1.898,-3.0064,1.0078
1549961.0,6.6367,1.8866,29.9754,-1.7953,-2.7532,0.9594
1549971.0,6.7516,2.0399,29.7934,-1.6325,-2.6712,0.9445
1549981.0,6.7229,2.308,28.5963,-1.5735,-2.6015,0.9658
1549991.0,7.5657,1.9537,27.2747,-1.4324,-2.2881,1.0616
1550001.0,8.2839,1.5419,26.3554,-1.1893,-1.7421,1.1036
1550011.0,9.0692,0.6608,26.6331,-1.0738,-1.2462,1.1164
1550021.0,9.1363,0.6991,26.5852,-0.8556,-0.7865,1.0584
1550031.0,9.165,0.7661,27.4184,-0.7295,-0.2911,1.0568
1550041.0,9.0118,1.2163,27.1981,-0.5406,0.0218,1.1084
1550051.0,9.6247,1.3886,27.5142,-0.555,0.3629,1.1978
1550061.0,9.4044,1.3312,27.7249,-0.5672,0.6848,1.2856
1550071.0,9.4236,0.431,28.2899,-0.6295,1.0158,1.3372
1550081.0,9.7779,-0.4405,29.3242,-0.6066,1.3117,1.325
1550091.0,9.9311,-1.6568,30.3202,-0.6556,1.4984,1.2489
1550101.0,9.5768,-1.9154,31.048,-0.5922,1.7081,1.0993
1550111.0,9.5768,-2.1835,31.3545,-0.3523,2.0135,0.9663
1550121.0,9.0214,-1.3982,32.111,-0.1666,2.2636,0.8524
1550131.0,8.3893,-1.0151,32.7718,0.0484,2.4472,0.787
1550141.0,8.0445,-0.316,32.4271,0.2778,2.6451,0.7503
1550151.0,7.7189,0.067,32.8197,0.4528,2.9788,0.7412
1550161.0,6.6272,0.8428,32.9634,0.5146,3.3731,0.7716
1550171.0,6.0238,0.8811,34.5531,0.7827,3.7732,0.8152
1550181.0,5.7844,0.9673,35.9896,1.0594,4.0712,0.853
1550191.0,5.4779,1.6472,37.3879,1.0919,4.109,0.8961
1550201.0,5.1619,1.9058,37.972,0.8966,3.9084,0.9014
1550211.0,5.0853,1.9249,38.3168,0.663,3.7216,0.9275
1550221.0,4.3287,2.1452,37.8571,0.6705,3.7248,0.9472
1550231.0,3.3423,2.3942,37.723,0.9514,4.0882,0.9621
1550241.0,2.5379,3.2465,38.3838,1.1818,4.5251,1.0366
1550251.0,1.561,3.984,40.3854,1.5367,4.7826,1.1973
1550261.0,1.4653,4.8842,42.1475,1.6362,4.8587,1.4037
1550271.0,0.9577,4.8459,43.5936,1.4644,4.4655,1.6176
1550281.0,1.1588,3.9648,44.1491,1.1733,3.9398,1.7953
1550291.0,1.2163,2.9497,42.77,0.9802,3.6381,1.889
1550301.0,1.0343,1.5131,41.7549,1.0222,3.7642,1.8959
1550311.0,0.2873,1.0726,41.391,1.1877,4.0606,1.856
1550321.0,-0.5076,0.3926,41.8602,1.2324,4.2628,1.7682
1550331.0,-0.7374,-0.2298,43.2297,1.2446,4.3804,1.6213
1550341.0,-1.0056,-0.6321,44.5513,1.2675,4.3399,1.458
1550351.0,-1.4461,-1.0726,45.8921,1.2499,4.1617,1.218
1550361.0,-1.2258,-1.0056,46.1506,1.2026,3.8701,0.944
1550371.0,-1.3982,-0.6225,45.7484,1.176,3.7227,0.6396
1550381.0,-2.2218,0.6225,45.8537,0.9573,3.596,0.3246
1550391.0,-2.4995,2.4421,45.5473,0.6114,3.4593,0.0681
1550401.0,-3.2848,3.869,46.1794,0.0564,3.2321,-0.0873
1550411.0,-4.367,5.1236,47.0413,-0.439,2.7776,-0.0878
1550421.0,-5.3534,5.8706,47.6063,-0.6917,2.2838,-0.0016
1550431.0,-5.8802,5.8706,47.2328,-0.6417,1.9486,0.1511
1550441.0,-5.7652,5.4779,45.8729,-0.2022,2.0273,0.2719
1550451.0,-5.9855,5.5929,44.9727,0.2975,2.3243,0.3688
1550461.0,-6.0334,5.9568,44.7045,0.6029,2.6015,0.4252
1550471.0,-6.2632,6.5888,45.0301,0.5523,2.6664,0.4858
1550481.0,-6.4069,6.9336,45.6622,0.3469,2.5031,0.5566
1550491.0,-6.7804,7.0964,45.8825,0.0117,2.278,0.6125
1550501.0,-7.5753,7.0294,45.7388,-0.4901,1.9725,0.6694
1550511.0,-7.92,6.2632,46.1889,-0.564,1.8007,0.7077
1550521.0,-7.8913,6.0813,46.256,-0.455,1.8858,0.7455
1550531.0,-8.2935,6.1292,46.9742,-0.2895,1.9209,0.7668
1550541.0,-8.5425,6.3686,47.9511,-0.1942,1.7826,0.8232
1550551.0,-8.102,6.7325,48.8417,-0.0165,1.5096,0.8769
1550561.0,-8.0254,7.0964,48.5736,-0.0596,1.0392,0.961
1550571.0,-8.3701,7.4699,47.2903,-0.2836,0.5326,1.035
1550581.0,-8.3701,7.3741,45.3079,-0.5688,0.2772,1.1185
1550591.0,-8.2169,7.3454,43.019,-0.7913,0.3102,1.1802
1550601.0,-8.5521,7.0102,42.2912,-1.019,0.4693,1.2845
1550611.0,-8.9926,6.3877,42.7892,-1.0121,0.7354,1.3569
1550621.0,-8.7245,5.6312,43.9671,-0.7572,1.0323,1.433
1550631.0,-8.4946,5.0566,45.5377,-0.3368,1.2755,1.4942
1550641.0,-8.4755,4.9512,47.7883,-0.008,1.2813,1.5218
1550651.0,-9.1171,5.1044,49.2631,0.2134,1.0807,1.5421
1550661.0,-9.0501,5.612,50.0292,0.4294,0.779,1.5777
1550671.0,-9.0692,6.0334,50.1729,0.2943,0.3709,1.6112
1550681.0,-8.734,6.7133,49.7611,-0.0942,-0.0745,1.657
1550691.0,-9.0788,6.6463,49.3301,-0.5481,-0.6242,1.6958
1550701.0,-8.7532,6.6559,49.0716,-0.9919,-1.0195,1.7682
1550711.0,-8.8107,6.3494,48.6693,-1.384,-1.2882,1.8283
1550721.0,-8.9735,5.6407,48.7268,-1.5985,-1.6464,1.8885
1550731.0,-8.6287,4.8076,48.4682,-1.5969,-1.9247,1.9406
1550741.0,-8.3222,4.0797,47.6829,-1.4479,-2.0987,1.9885
1550751.0,-8.2265,3.2465,46.4092,-1.317,-2.1912,1.9917
1550761.0,-7.5465,2.8539,45.8633,-1.1754,-2.2045,1.9683
1550771.0,-7.106,2.7294,45.1738,-1.1675,-2.286,1.9353
1550781.0,-6.6367,2.1452,44.3693,-1.2318,-2.3573,1.8959
1550791.0,-6.2249,1.5514,44.2353,-1.3548,-2.4179,1.8337
1550801.0,-5.679,0.7183,44.2353,-1.4282,-2.5376,1.7326
1550811.0,-5.2289,0.3926,44.331,-1.4415,-2.5871,1.6176
1550821.0,-5.1332,-0.0383,44.4268,-1.4207,-2.7409,1.5213
1550831.0,-4.549,-0.1053,44.5226,-1.3297,-2.858,1.4415
1550841.0,-4.0031,-0.5363,44.0629,-1.2084,-3.0251,1.3877
1550851.0,-3.3615,-0.6991,43.0286,-1.1451,-3.1863,1.3287
1550861.0,-2.7581,-1.0534,42.0805,-1.1025,-3.1613,1.2457
1550871.0,-2.4612,-1.5993,41.9464,-1.0946,-3.231,1.1611
1550881.0,-1.8387,-2.3942,41.3526,-1.0616,-3.2576,1.0227
1550891.0,-1.2354,-3.3519,41.027,-1.0786,-3.3236,0.8312
1550901.0,-0.4597,-3.4764,40.3279,-1.1073,-3.4843,0.5699
1550911.0,0.3543,-3.2274,40.0789,-1.176,-3.6072,0.2953
1550921.0,0.6608,-2.5474,38.4317,-1.1462,-3.6295,0.1016
1550931.0,0.8811,-1.6759,36.9856,-1.1536,-3.5965,0.025
1550941.0,1.1588,-0.8523,36.1333,-1.1036,-3.4359,0.0154
1550951.0,1.3599,-0.4788,35.3001,-0.994,-3.2214,0.0942
1550961.0,1.9441,-0.4788,34.1892,-0.8977,-2.975,0.2277
1550971.0,2.5379,-1.2354,34.0551,-0.7348,-2.775,0.3139
1550981.0,3.486,-2.7485,33.787,-0.6167,-2.5227,0.3565
1550991.0,4.3862,-3.8211,33.5188,-0.5257,-2.3551,0.2474
1551001.0,5.1523,-5.0566,33.4422,-0.5289,-2.2455,0.0106
1551011.0,6.043,-5.2194,32.5516,-0.464,-2.1136,-0.2746
1551021.0,6.6176,-4.8267,32.0153,-0.4997,-1.9028,-0.5651
1551031.0,6.6846,-4.1084,30.9714,-0.7109,-1.7677,-0.8115
1551041.0,6.7804,-3.2944,30.8469,-1.1116,-1.7336,-0.9706
1551051.0,6.4931,-3.304,30.234,-1.4149,-1.7895,-1.0823
1551061.0,6.9145,-3.4668,29.3912,-1.5798,-1.7235,-1.2175
1551071.0,6.7612,-3.8978,28.1079,-1.5708,-1.4713,-1.3329
1551081.0,7.1635,-4.3958,27.2652,-1.2941,-0.8727,-1.4771
1551091.0,7.422,-4.4341,26.9874,-0.7721,-0.2336,-1.6527
1551101.0,7.288,-4.051,27.3801,-0.1607,0.4315,-1.7906
1551111.0,7.2018,-2.8156,27.4567,0.4965,1.0392,-1.8714
1551121.0,7.0773,-1.6376,28.0217,0.8072,1.5442,-1.9231
1551131.0,7.1347,-0.3831,28.5006,0.7928,1.682,-1.906
1551141.0,6.1483,-0.5842,28.7591,0.4305,1.4686,-1.8853
1551151.0,6.4739,-1.4844,27.7823,0.3198,1.6394,-1.947
1551161.0,6.2345,-1.7047,26.6523,0.5428,2.3918,-2.0747
1551171.0,5.3439,-1.5514,27.5525,0.9296,3.3076,-2.2445
1551181.0,4.3383,-0.5267,29.0465,1.2696,4.0877,-2.3471
1551191.0,3.5147,0.3926,31.9865,1.4894,4.5442,-2.4046
1551201.0,3.0071,1.5419,34.8021,1.6304,4.6049,-2.3865
1551211.0,1.2737,1.8196,36.3823,1.6384,4.2292,-2.253
1551221.0,0.4022,0.6895,35.4533,1.7592,4.0893,-2.2109
1551231.0,0.3352,-0.067,33.6433,2.1817,4.573,-2.2923
1551241.0,-0.0192,-0.3831,34.1126,2.717,5.6031,-2.4818
1551251.0,-1.4653,1.1205,37.0527,3.2443,6.5088,-2.6776
1551261.0,-3.4668,2.7198,40.4907,3.6013,6.8978,-2.775
1551271.0,-4.1755,4.6543,43.5074,3.6796,7.1915,-2.7899
1551281.0,-5.9089,6.043,47.9894,3.3422,6.9616,-2.7069
1551291.0,-6.9911,6.359,51.8488,2.8431,6.1704,-2.5839
1551301.0,-6.9528,5.679,54.0611,2.7547,5.5515,-2.5238
1551311.0,-7.0677,5.3056,55.5359,2.7601,5.0269,-2.5536
1551321.0,-7.4603,5.4396,56.7234,2.8117,4.4368,-2.6483
1551331.0,-7.9104,6.5218,57.231,2.8638,3.894,-2.7436
1551341.0,-8.2073,7.7764,57.8726,2.6856,3.3039,-2.7808
1551351.0,-8.6862,8.6191,58.2653,2.1944,2.3812,-2.7899
1551361.0,-9.1171,8.7532,57.5662,1.8885,1.6575,-2.7755
1551371.0,-9.5002,9.2033,55.8519,1.574,1.1696,-2.743
1551381.0,-9.5481,8.8681,54.923,1.2882,0.7003,-2.7441
1551391.0,-9.6917,9.2033,53.745,1.1589,0.4927,-2.7547
1551401.0,-9.6726,9.4044,53.0747,1.0233,0.3453,-2.7303
1551411.0,-9.2799,9.7396,53.4577,0.9998,0.2235,-2.7116
1551421.0,-8.9926,9.8545,54.0036,0.887,-0.133,-2.676
1551431.0,-8.5329,9.9216,54.176,0.7966,-0.7125,-2.6627
1551441.0,-8.0445,10.0269,53.0076,0.6396,-1.3899,-2.6281
1551451.0,-7.6231,10.094,50.6038,0.2698,-2.0625,-2.6292
1551461.0,-7.3358,9.8833,47.7117,-0.1862,-2.6568,-2.6164
1551471.0,-6.3398,9.3278,44.082,-0.7082,-3.0016,-2.6579
1551481.0,-5.545,8.7724,41.8219,-1.0674,-2.9133,-2.7388
1551491.0,-5.8514,8.9543,39.2649,-1.4638,-2.8133,-2.8069
1551501.0,-5.4971,8.5234,39.5043,-1.615,-2.5446,-2.8585
1551511.0,-5.43,8.8202,38.6903,-1.5149,-2.0742,-2.8468
1551521.0,-5.7078,8.8777,38.9585,-1.2207,-1.7725,-2.7803
1551531.0,-5.7269,8.7436,39.5905,-0.8195,-1.4383,-2.7047
1551541.0,-5.7078,9.3757,39.9161,-0.3485,-1.0674,-2.6052
1551551.0,-6.043,9.6438,41.2952,0.0809,-0.8418,-2.4647
1551561.0,-5.9951,10.228,41.7549,0.5741,-0.679,-2.3519
1551571.0,-6.0813,11.1857,42.1571,0.8578,-0.4837,-2.228
1551581.0,-5.7461,12.0859,42.6455,0.9019,-0.3602,-2.0822
1551591.0,-6.3686,12.7276,44.5705,0.7354,-0.4012,-1.9161
1551601.0,-6.7995,13.5991,45.5569,0.6008,-0.6715,-1.6762
1551611.0,-6.7995,13.5033,46.8976,0.3406,-0.9339,-1.4612
1551621.0,-6.7421,13.3118,47.9415,0.2097,-1.3415,-1.2191
1551631.0,-6.6942,13.0149,48.7364,0.1804,-1.7496,-1.0531
1551641.0,-6.3782,12.6893,48.1809,0.1235,-2.1992,-0.8993
1551651.0,-6.2441,12.5073,47.4818,0.0878,-2.635,-0.8067
1551661.0,-5.8802,12.4882,46.1315,-0.0239,-2.9809,-0.7072
1551671.0,-5.3247,12.4403,45.0301,-0.1857,-3.2746,-0.6013
1551681.0,-4.6735,12.3349,43.5074,-0.3358,-3.5215,-0.4959
1551691.0,-4.2617,12.0189,42.023,-0.5656,-3.8195,-0.4204
1551701.0,-3.2944,11.7603,40.2896,-0.9589,-4.1728,-0.3315
1551711.0,-2.1548,11.0516,37.4645,-1.6809,-4.581,-0.3267
1551721.0,-1.2258,9.9886,35.6832,-2.6936,-4.9939,-0.3773
1551731.0,-0.3256,9.0597,34.5914,-3.5971,-5.542,-0.5098
1551741.0,0.8332,8.3318,31.8525,-4.4612,-5.9671,-0.7013
1551751.0,1.3216,7.3167,29.3433,-5.0343,-6.0427,-0.8578
1551761.0,1.9345,6.857,27.1407,-5.3286,-5.8304,-1.0227
1551771.0,1.9537,6.924,24.6028,-4.9907,-5.2259,-1.1249
1551781.0,2.2122,7.4891,23.9612,-4.3436,-4.3325,-1.0658
1551791.0,2.5091,8.0445,22.5917,-3.5247,-3.3619,-0.9046
1551801.0,2.2505,8.4372,22.5342,-2.5871,-2.2923,-0.6651
1551811.0,2.739,8.5329,22.3044,-1.5857,-1.1584,-0.3358
1551821.0,3.0837,9.0597,21.9596,-0.5906,-0.0096,-0.0607
1551831.0,3.1603,9.7971,22.2469,0.2219,1.21,0.2783
1551841.0,2.7581,10.5536,23.4057,0.7822,2.2971,0.6364
1551851.0,2.2601,11.0038,25.3785,1.0185,3.1336,0.9514
1551861.0,2.0207,11.1091,28.0984,1.1307,3.8158,1.2702
1551871.0,1.561,11.4634,31.7184,1.2904,4.2973,1.5367
1551881.0,0.6512,12.1051,34.419,1.3111,4.383,1.8938
1551891.0,0.6512,11.9423,36.344,1.1079,4.2867,2.2647
1551901.0,0.3256,11.2432,37.8571,1.0573,4.1074,2.5627
1551911.0,-0.0287,10.5153,38.3168,0.9791,3.9483,2.8505
1551921.0,-0.3448,9.1746,39.3128,1.1196,4.1239,3.1033
1551931.0,-0.4788,8.1116,39.7054,1.3681,4.2872,3.2384
1551941.0,-0.6991,6.4548,40.4333,1.5117,4.3431,3.3065
1551951.0,-0.6225,6.0717,41.0749,1.5405,4.4032,3.2523
1551961.0,-1.1205,5.2864,42.6168,1.3723,4.2846,3.1501
1551971.0,-1.0056,4.8076,43.0573,1.1339,3.9376,3.0283
1551981.0,-1.4078,4.2521,43.4212,0.8333,3.5891,2.8143
1551991.0,-1.5802,4.051,43.4979,0.6119,3.4087,2.6169
1552001.0,-2.0207,3.8211,43.1722,0.5364,3.3943,2.4126
1552011.0,-2.5953,4.1851,43.4308,0.5039,3.4603,2.212
1552021.0,-2.9018,4.6831,44.2161,0.447,3.4055,2.0412
1552031.0,-3.3806,5.3917,45.0493,0.3097,3.2443,1.9098
1552041.0,-3.9552,6.1196,45.576,0.1011,3.0389,1.8454
1552051.0,-3.9169,6.0047,46.2847,-0.0543,2.6648,1.8017
1552061.0,-3.984,6.177,46.4667,-0.1873,2.1785,1.7751
1552071.0,-3.9648,6.5505,45.5473,-0.3677,1.7491,1.7783
1552081.0,-3.8403,6.177,43.6415,-0.5795,1.3388,1.764
1552091.0,-3.6009,6.2153,42.1188,-0.7886,1.0344,1.7294
1552101.0,-3.6966,6.0334,40.3279,-0.9748,0.8508,1.6969
1552111.0,-3.869,5.8802,38.2306,-0.9945,0.9206,1.6969
1552121.0,-4.2521,5.1811,37.0239,-0.6779,1.2973,1.7171
1552131.0,-4.4724,5.5354,36.5355,-0.2682,1.9247,1.6958
1552141.0,-4.7501,6.1962,36.6983,0.0426,2.5329,1.7304
1552151.0,-5.1715,6.5601,38.3647,0.2395,2.9766,1.7948
1552161.0,-5.43,6.7229,40.778,0.3544,3.272,1.8762
1552171.0,-5.8227,6.5027,43.1627,0.3326,3.2778,1.9502
1552181.0,-6.3303,6.2441,45.9304,0.3092,3.0293,1.9422
1552191.0,-6.5697,6.4739,47.0604,0.5082,2.7947,1.9422
1552201.0,-7.1443,6.6942,47.9511,0.6502,2.5227,1.9805
1552211.0,-7.5082,7.3646,47.4243,0.6566,2.2455,2.0061
1552221.0,-7.853,7.2401,47.6446,0.6337,2.0289,2.0391
1552231.0,-7.7381,7.4795,47.0796,0.621,1.8959,2.0763
1552241.0,-8.3606,7.7859,46.6486,0.4821,1.8475,2.0965
1552251.0,-8.5904,7.2305,47.7021,0.4651,1.7485,2.1386
1552261.0,-8.6287,7.0294,47.7978,0.5502,1.6916,2.1125
1552271.0,-8.9926,6.7804,47.9606,0.4539,1.6304,2.0736
1552281.0,-9.4236,6.7229,48.4491,0.4071,1.5649,2.022
1552291.0,-9.5098,7.0294,49.3684,0.2011,1.408,1.9709
1552301.0,-9.6055,7.0294,50.5081,0.1447,1.2553,1.9353
1552311.0,-9.7492,6.924,51.5136,0.0617,1.0052,1.8741
1552321.0,-9.3853,6.4931,52.8736,0.0319,0.7263,1.8044
1552331.0,-9.2895,6.6942,53.4673,-0.0213,0.2948,1.7214
1552341.0,-9.4715,6.7229,53.8408,-0.1298,-0.2171,1.6299
1552351.0,-9.73,7.3263,52.9119,-0.4017,-0.7423,1.5346
1552361.0,-9.4236,7.4412,51.7052,-0.7561,-1.201,1.4697
1552371.0,-9.4906,7.3837,50.8528,-1.1212,-1.516,1.416
1552381.0,-8.8107,7.4508,50.4123,-1.4553,-1.7836,1.3723
1552391.0,-8.5042,7.1635,50.5751,-1.8539,-2.2375,1.3377
1552401.0,-7.9966,6.4452,50.3644,-2.1162,-2.7234,1.3122
1552411.0,-7.422,5.5929,48.9758,-2.0912,-2.9655,1.3367
1552421.0,-6.5505,4.4915,47.8361,-1.9901,-3.091,1.2968
1552431.0,-6.2537,3.869,47.3286,-2.0513,-3.2767,1.1866
1552441.0,-5.5737,3.0933,47.1275,-2.2045,-3.6551,1.0568
1552451.0,-4.6543,2.6528,45.7484,-2.2093,-3.8365,0.886
1552461.0,-4.3191,2.5953,44.9918,-2.2274,-3.9813,0.7444
1552471.0,-3.6583,2.0877,44.6279,-2.3344,-4.1755,0.5832
1552481.0,-2.6049,1.6568,43.201,-2.279,-4.3149,0.4358
1552491.0,-1.9249,1.1684,42.5593,-2.4589,-4.4761,0.2639
1552501.0,-1.1684,0.2011,41.5155,-2.4568,-4.6251,0.0543
1552511.0,-0.2011,-0.4022,40.0311,-2.4951,-4.6533,-0.2208
1552521.0,0.6416,-0.4214,38.3647,-2.6483,-4.6209,-0.5114
1552531.0,0.814,0.249,36.5259,-2.8883,-4.4133,-0.7402
1552541.0,0.9673,1.1109,36.3727,-3.1379,-4.1132,-0.861
1552551.0,1.4844,1.2354,36.5738,-3.1756,-3.8818,-0.9003
1552561.0,2.1739,1.3312,37.0048,-3.074,-3.5864,-0.9472
1552571.0,2.2697,1.4461,38.2785,-2.95,-3.455,-0.9158
1552581.0,2.308,1.2929,39.1883,-2.6787,-3.5157,-0.8822
1552591.0,2.7869,1.1588,38.154,-2.4169,-3.6056,-0.8764
1552601.0,2.9113,1.1492,36.8994,-2.2045,-3.6694,-0.8599
1552611.0,3.2944,1.5323,34.7638,-2.0577,-3.5103,-0.8242
1552621.0,3.5051,1.3408,34.2084,-1.9018,-3.1719,-0.7769
1552631.0,3.802,0.747,33.9019,-1.6857,-2.9261,-0.7327
1552641.0,4.7405,0.2873,33.5284,-1.6735,-2.7787,-0.7732
1552651.0,5.1427,0.1437,33.0879,-1.8746,-2.7537,-0.8498
1552661.0,5.9664,0.067,32.542,-2.1306,-2.7883,-0.9344
1552671.0,6.3015,-0.1532,31.6609,-2.4488,-2.7792,-1.0302
1552681.0,6.11,-0.5555,31.1821,-2.7909,-2.8207,-1.1462
1552691.0,6.5122,-1.2833,30.1478,-2.9085,-2.801,-1.2717
1552701.0,7.1635,-1.3408,28.6921,-2.8697,-2.5153,-1.4378
1552711.0,7.2496,-1.2737,28.1941,-2.8431,-2.2178,-1.5703
1552721.0,7.853,-0.5076,27.2077,-2.7154,-1.8933,-1.648
1552731.0,8.1786,-0.2107,26.6139,-2.7654,-1.6746,-1.7102
1552741.0,8.1594,0.4597,24.8901,-2.8766,-1.4569,-1.7182
1552751.0,7.9104,0.8523,23.2812,-2.9394,-1.0951,-1.6932
1552761.0,7.2496,0.6512,21.701,-2.759,-0.5028,-1.6187
1552771.0,7.5657,-0.0096,20.8966,-2.1439,0.5635,-1.5022
1552781.0,7.2209,0.0,21.0307,-1.0775,1.8592,-1.4202
1552791.0,6.7421,0.8906,21.8926,0.0862,3.2454,-1.3143
1552801.0,5.7461,2.1261,23.6643,1.0089,4.5325,-1.135
1552811.0,4.9895,3.0646,26.5948,1.5144,5.4456,-0.9142
1552821.0,4.3479,3.4381,29.3912,1.442,5.8139,-0.6848
1552831.0,3.5913,2.739,32.3888,1.0243,5.6665,-0.5497
1552841.0,3.0167,2.3846,34.3903,0.6247,5.4994,-0.4347
1552851.0,2.5857,1.992,36.9761,0.7189,5.526,-0.3251
1552861.0,1.4557,1.8675,37.6177,1.027,5.5255,-0.2006
1552871.0,0.747,1.1301,38.968,1.715,5.8846,-0.0452
1552881.0,-0.2969,0.8619,40.7589,2.51,6.3492,0.0974
1552891.0,-0.9864,0.0766,43.3063,3.2613,6.5711,0.1564
1552901.0,-1.7334,-0.2394,45.011,3.8999,6.6323,0.1692
1552911.0,-2.6528,-1.1301,46.8689,4.5325,6.587,0.1219
1552921.0,-3.055,-1.3886,47.5584,5.0242,6.4418,-0.0623
1552931.0,-3.5243,-1.312,48.2671,5.3977,6.3657,-0.3182
1552941.0,-4.4053,-0.316,48.4299,5.4882,6.3039,-0.6747
1552951.0,-4.7118,1.5706,49.5025,5.104,6.2321,-1.0307
1552961.0,-6.3015,4.118,51.0061,4.309,5.7005,-1.251
1552971.0,-7.9775,6.5505,52.2127,3.1576,4.8992,-1.3766
1552981.0,-7.8338,8.1307,53.0747,1.7836,4.0031,-1.358
1552991.0,-8.4276,8.2073,53.9845,0.39,3.1283,-1.2313
1553001.0,-8.6479,5.8993,55.6891,-0.3299,2.3982,-1.1808
1553011.0,-8.102,3.869,57.4321,-0.3661,1.8794,-1.2127
1553021.0,-7.8721,3.304,57.4704,0.2453,1.5107,-1.3633
1553031.0,-7.9966,3.8403,57.1448,0.8381,1.3877,-1.4862
1553041.0,-7.6902,5.0278,56.6468,1.26,1.1132,-1.5383
1553051.0,-7.853,5.8035,56.0818,1.2797,0.6832,-1.5703
1553061.0,-7.6806,6.426,55.4497,1.0366,0.2277,-1.5937
1553071.0,-7.3071,6.4452,54.2239,0.6199,-0.2283,-1.6666
1553081.0,-6.6942,6.3015,53.4194,0.3602,-0.5885,-1.757
1553091.0,-6.8378,6.5122,53.994,0.1756,-0.9578,-1.8672
1553101.0,-6.8378,7.3167,52.7778,0.0367,-1.3627,-1.9342
1553111.0,-6.5027,7.8626,52.1361,-0.0186,-1.699,-1.9369
1553121.0,-6.043,8.4851,50.9678,-0.1032,-1.972,-1.897
1553131.0,-5.9951,8.7724,50.6038,-0.141,-2.2567,-1.8257
1553141.0,-5.7269,8.8107,48.2575,-0.2847,-2.5706,-1.7565
1553151.0,-5.4779,8.5808,47.1179,-0.4672,-2.8654,-1.7118
1553161.0,-5.0757,8.1499,45.2887,-0.6481,-2.9298,-1.6948
1553171.0,-4.6926,7.8243,43.9863,-0.7806,-2.9468,-1.7145
1553181.0,-4.1659,7.8817,43.1627,-0.796,-2.8463,-1.7512
1553191.0,-3.62,8.102,41.4963,-0.8226,-2.5158,-1.7911
1553201.0,-3.7254,9.4044,41.1515,-0.8232,-2.1173,-1.7762
1553211.0,-3.237,10.161,42.4827,-0.688,-1.8071,-1.6623
1553221.0,-3.2465,10.9367,43.9192,-0.6609,-1.7757,-1.4761
1553231.0,-3.4093,11.5305,45.2887,-0.7668,-1.9912,-1.2936
1553241.0,-3.3806,11.4347,45.6143,-0.7966,-2.2844,-1.0967
1553251.0,-3.0263,11.4347,45.4036,-0.7375,-2.5541,-0.9035
1553261.0,-2.5762,11.5017,44.1299,-0.7226,-2.6994,-0.7455
1553271.0,-2.4708,11.8657,43.2201,-0.8205,-2.718,-0.5816
1553281.0,-2.1069,12.038,42.5402,-1.0062,-2.7989,-0.4182
1553291.0,-1.8579,11.9231,42.3008,-1.1669,-2.8367,-0.2575
1553301.0,-1.5706,11.6071,42.3199,-1.442,-2.9351,-0.0947
1553311.0,-1.6855,10.5441,42.2337,-1.7139,-3.1735,0.0298
1553321.0,-1.4174,9.1267,42.1284,-1.7916,-3.3433,0.099
1553331.0,-0.7757,8.0637,41.5155,-1.7001,-3.4412,0.1479
1553341.0,0.0958,7.173,40.8259,-1.6128,-3.6035,0.1288
1553351.0,0.747,7.0868,39.4564,-1.533,-3.762,0.0889
1553361.0,1.0247,7.1922,37.2729,-1.5862,-3.8115,0.0537
1553371.0,1.7142,7.6327,35.3767,-1.5564,-3.6476,0.0798
1553381.0,1.7717,8.4755,33.9115,-1.6134,-3.3055,0.1575
1553391.0,2.1739,8.5617,33.4805,-1.5149,-2.7915,0.3624
1553401.0,2.375,8.6095,34.0455,-1.358,-2.3216,0.6258
1553411.0,2.806,7.4508,34.917,-1.1813,-2.0939,0.8721
1553421.0,3.5338,6.8666,35.3193,-0.8828,-1.9449,1.061
1553431.0,4.1084,6.0142,35.6353,-0.6976,-1.8071,1.2244
1553441.0,4.8842,5.5162,35.032,-0.5151,-1.757,1.334
1553451.0,4.7692,5.1044,34.0934,-0.6284,-1.8071,1.4154
1553461.0,5.1044,4.4436,32.7048,-1.0121,-1.8198,1.4521
1553471.0,5.2481,3.6583,31.7758,-1.3239,-1.7938,1.4436
1553481.0,5.7652,2.9497,31.115,-1.5011,-1.5266,1.4527
1553491.0,5.6312,2.0111,31.5173,-1.3244,-1.234,1.4484
1553501.0,6.0621,1.1971,31.3928,-1.1776,-0.9743,1.4175
1553511.0,6.5505,0.6895,31.6705,-0.9136,-0.7301,1.3649
1553521.0,6.8091,-0.565,30.8565,-0.7306,-0.5018,1.2638
1553531.0,7.1251,-0.814,30.3872,-0.6311,-0.3374,1.1318
1553541.0,7.2113,-1.5514,29.4104,-0.5055,-0.0857,0.9323
1553551.0,7.3167,-1.5323,28.5102,-0.5433,0.3283,0.7136
1553561.0,6.7421,-1.2258,28.8358,-0.5188,0.7694,0.5358
1553571.0,6.6463,-0.9002,29.5253,-0.331,1.2733,0.4071
1553581.0,6.2824,-0.1245,30.2819,-0.2043,1.6304,0.2873
1553591.0,5.9472,0.3448,31.7854,-0.017,1.8682,0.2235
1553601.0,6.043,0.929,32.4845,0.2059,2.1636,0.2075
1553611.0,5.7461,1.5036,32.9921,0.3634,2.4036,0.2139
1553621.0,5.9568,2.1548,33.5476,0.3124,2.5414,0.2144
1553631.0,5.679,2.2218,34.3137,0.2214,2.6121,0.223
1553641.0,5.3917,2.6719,34.9362,0.0937,2.643,0.223
1553651.0,5.1236,3.055,35.4342,-0.0059,2.5978,0.2464
1553661.0,5.0853,3.4189,35.281,0.0511,2.6909,0.2905
1553671.0,4.2713,4.0701,35.6832,0.2841,2.8888,0.4023
1553681.0,4.1563,4.7501,35.9992,0.6667,2.9713,0.5587
1553691.0,3.7924,4.7022,35.9609,1.1339,3.3794,0.7333
1553701.0,3.7733,4.0031,36.9473,1.7299,3.9999,0.8764
1553711.0,3.9552,3.6105,39.0159,2.4828,4.4431,0.8844
1553721.0,4.1755,4.1372,40.4716,3.0123,4.6374,0.8514
1553731.0,3.7733,5.2672,41.4388,3.1895,4.6815,0.7753
1553741.0,3.5434,6.2153,41.6591,2.8255,4.3931,0.704
1553751.0,3.3423,6.8953,42.1858,2.1609,3.9355,0.6508
1553761.0,1.1684,7.288,41.9751,1.4351,3.5135,0.5938
1553771.0,0.2682,6.9145,41.1515,0.9631,3.3183,0.531
1553781.0,-0.4501,7.6136,41.5538,0.8588,3.4742,0.4832
1553791.0,-1.0918,8.0062,42.4827,0.9865,3.7413,0.4715
1553801.0,-2.0303,9.098,43.5553,1.2414,3.927,0.5161
1553811.0,-2.5187,9.9024,45.3845,1.4676,3.9605,0.6816
1553821.0,-2.873,10.8505,46.5145,1.74,3.7881,0.8381
1553831.0,-4.0127,11.3485,46.074,1.8549,3.4609,1.0153
1553841.0,-4.8076,11.3868,45.3079,1.8821,3.2938,1.1765
1553851.0,-5.2481,11.157,44.7237,1.8975,3.2922,1.3228
1553861.0,-5.3917,11.3677,43.9863,1.93,3.505,1.4149
1553871.0,-6.0142,12.1051,44.3406,1.7666,3.6828,1.4942
1553881.0,-6.5314,12.4307,46.1985,1.5197,3.6269,1.6166
1553891.0,-6.3015,12.4786,47.4243,1.1632,3.4007,1.7475
1553901.0,-6.7612,12.038,48.8513,0.696,2.8942,1.8597
1553911.0,-7.3837,11.3294,49.5791,0.5172,2.3503,1.9172
1553921.0,-7.3358,10.6111,48.7459,0.4581,2.063,1.9858
1553931.0,-7.5561,10.1801,47.75,0.5539,1.9635,1.98
1553941.0,-7.5082,10.2472,46.821,0.5497,1.9986,1.9635
1553951.0,-8.0158,10.4483,46.5433,0.3704,2.0061,1.9683
1553961.0,-7.5178,10.7356,47.5776,0.2911,2.0284,1.9842
1553971.0,-7.9104,10.8122,48.9566,0.033,1.9949,2.0077
1553981.0,-8.418,10.7835,50.1346,-0.1527,1.6176,2.0321
1553991.0,-8.5042,10.3142,50.623,-0.3022,1.1089,2.0582
1554001.0,-8.8681,9.9216,49.9526,-0.4039,0.7375,2.0891
1554011.0,-9.2416,9.7779,49.0716,-0.5135,0.5241,2.0689
1554021.0,-9.1363,9.8162,48.4778,-0.6391,0.455,2.0869
1554031.0,-9.0118,9.8545,48.133,-0.7732,0.4299,2.1348
1554041.0,-9.0214,9.9407,48.9566,-0.9637,0.4055,2.1806
1554051.0,-9.0309,9.4236,50.7954,-1.0355,0.3278,2.254
1554061.0,-9.0692,9.2608,51.9542,-0.9599,0.041,2.3754
1554071.0,-9.2991,8.2265,53.4194,-0.9993,-0.5002,2.4908
1554081.0,-8.5425,7.4603,52.4713,-1.1456,-1.1664,2.5323
1554091.0,-8.1977,6.0621,51.4179,-1.3867,-1.8023,2.51
1554101.0,-7.6231,5.1427,49.6079,-1.6549,-2.2327,2.3961
1554111.0,-7.3933,4.1946,47.5488,-1.8959,-2.535,2.278
1554121.0,-6.7995,3.3423,46.5241,-2.0667,-2.7265,2.1072
1554131.0,-6.3015,2.6145,45.9495,-2.1567,-2.8814,1.9278
1554141.0,-5.8131,2.4804,45.8633,-2.1705,-3.0341,1.7469
1554151.0,-5.1906,2.4325,45.2408,-2.1412,-3.2289,1.5761
1554161.0,-4.9799,2.2122,44.5705,-2.1614,-3.4566,1.4612
1554171.0,-4.4053,2.375,43.1818,-2.2322,-3.703,1.3675
1554181.0,-3.8882,2.2505,41.391,-2.4738,-3.9547,1.2499
1554191.0,-3.2561,1.5323,40.2992,-2.6063,-4.0675,1.1387
1554201.0,-2.8922,0.8715,39.2745,-2.6632,-4.1228,1.0174
1554211.0,-1.9632,0.2586,37.9242,-2.4967,-4.0164,0.8876
1554221.0,-1.1779,0.0766,36.842,-2.2615,-3.8403,0.7513
1554231.0,-0.498,-0.0958,36.3727,-1.9534,-3.6322,0.6024
1554241.0,-0.1341,-0.2011,35.597,-1.7155,-3.4433,0.4613
1554251.0,0.9673,-0.316,34.6106,-1.5687,-3.3379,0.3203
1554261.0,1.3695,-0.2586,33.2603,-1.5085,-3.1522,0.1511
1554271.0,1.8675,-0.1724,31.8237,-1.4112,-2.8851,0.0303
1554281.0,2.4708,-0.0766,30.8756,-1.367,-2.5488,-0.0809
1554291.0,2.8156,-0.2586,30.0903,-1.4532,-2.1684,-0.1948
1554301.0,3.237,-0.6416,30.1669,-1.4527,-1.6916,-0.2857
1554311.0,4.051,-0.9864,30.9139,-1.3431,-1.1691,-0.4087
1554321.0,4.6256,-1.2929,32.0536,-1.1717,-0.771,-0.5172
1554331.0,4.7884,-1.8196,33.4614,-0.903,-0.5768,-0.6726
1554341.0,4.8746,-1.7717,33.8636,-0.7301,-0.6039,-0.8599
1554351.0,5.3247,-1.6664,33.4326,-0.6917,-0.713,-1.0531
1554361.0,5.8323,-1.245,31.9578,-0.6135,-0.5843,-1.2377
1554371.0,5.5354,-0.6416,30.8948,-0.5523,-0.331,-1.416
1554381.0,5.4971,0.1149,30.4926,-0.4656,0.0442,-1.5128
1554391.0,4.8937,0.7566,30.0616,-0.5241,0.4507,-1.5649
1554401.0,4.8171,1.0056,30.5404,-0.497,0.8391,-1.6022
1554411.0,4.8267,0.814,31.3353,-0.3336,1.2052,-1.5974
1554421.0,4.7501,0.7087,32.36,-0.0654,1.5703,-1.6341
1554431.0,4.5203,0.8523,32.858,0.1458,1.8358,-1.7044
1554441.0,4.3,0.814,33.9881,0.4273,2.1194,-1.7597
1554451.0,3.9648,1.1779,34.534,0.8711,2.4919,-1.8267
1554461.0,3.9073,1.6472,35.1086,1.1999,2.875,-1.8858
1554471.0,3.6583,1.9728,36.4685,1.4809,3.2172,-1.9976
1554481.0,3.2082,2.7773,38.4605,1.6331,3.4497,-2.088
1554491.0,3.0263,3.6488,40.1939,1.6416,3.4289,-2.162
1554501.0,2.1261,4.5969,41.6112,1.5373,3.1725,-2.1971
1554511.0,1.2258,5.1619,42.9711,1.293,2.6733,-2.2194
1554521.0,0.8428,5.2481,42.5881,1.2079,2.3796,-2.1982
1554531.0,0.6129,5.4109,41.9943,1.2313,2.362,-2.237
1554541.0,0.182,5.8897,41.8985,1.4133,2.5366,-2.2742
1554551.0,-1.063,6.7804,43.3542,1.5591,2.626,-2.2636
1554561.0,-1.5419,7.8147,43.5745,1.5256,2.5392,-2.1976
1554571.0,-2.1548,8.4851,44.7045,1.4,2.2599,-2.0673
1554581.0,-2.7102,8.4851,45.2504,1.2084,1.8587,-1.9443
1554591.0,-2.739,8.3222,44.9823,1.2744,1.5905,-1.8257
1554601.0,-2.7102,8.102,44.3023,1.4016,1.6123,-1.756
1554611.0,-2.9209,8.1882,44.0246,1.5234,1.6144,-1.7262
1554621.0,-3.2561,8.8777,43.0573,1.4021,1.665,-1.6825
1554631.0,-3.6392,8.983,43.5074,1.1515,1.5431,-1.5985
1554641.0,-3.735,9.1075,43.335,0.8578,1.3755,-1.5112
1554651.0,-4.051,8.8107,43.9001,0.6481,1.3329,-1.3941
1554661.0,-4.3958,8.4276,44.3885,0.5816,1.267,-1.2856
1554671.0,-4.3862,7.3358,44.9056,0.671,1.2515,-1.1903
1554681.0,-4.5394,6.4643,45.3366,0.8583,1.2771,-1.1424
1554691.0,-4.3479,5.7269,44.8961,0.9253,1.3319,-1.1621
1554701.0,-4.8459,5.3056,45.4132,0.9264,1.3079,-1.242
1554711.0,-5.4396,4.8746,45.6431,0.7992,1.251,-1.3031
1554721.0,-5.4588,4.6064,45.576,0.5326,1.1009,-1.3606
1554731.0,-5.4684,3.8595,46.4092,0.2261,0.9706,-1.4505
1554741.0,-5.2289,2.9113,47.07,-0.0106,0.7849,-1.5884
1554751.0,-5.3534,2.1165,47.6925,-0.1011,0.5832,-1.7671
1554761.0,-5.0853,1.8292,48.2671,0.0213,0.4422,-1.9608
1554771.0,-4.8554,1.9249,48.9088,0.3022,0.3453,-2.1497
1554781.0,-4.5873,2.2027,49.129,0.6119,0.2613,-2.3402
1554791.0,-4.0893,2.5953,49.378,0.8865,0.2033,-2.5307
1554801.0,-3.5721,2.7581,50.4506,1.0706,0.1362,-2.7441
1554811.0,-3.2178,3.1603,51.6573,1.1302,-0.2139,-3.0336
1554821.0,-2.8156,4.3958,52.0883,1.0536,-0.647,-3.3395
1554831.0,-2.9784,6.1483,52.6054,0.9168,-1.1909,-3.5407
1554841.0,-2.7773,7.9487,51.868,0.6907,-1.8251,-3.6828
1554851.0,-2.9688,9.6534,50.1537,0.3113,-2.3668,-3.7711
1554861.0,-3.0263,10.8505,48.3246,-0.3177,-2.8958,-3.8051
1554871.0,-2.7964,11.2815,46.256,-1.1329,-3.239,-3.8291
1554881.0,-2.7007,11.2911,46.0261,-1.7491,-3.496,-3.8748
1554891.0,-2.4421,11.4922,45.0685,-2.0731,-3.6269,-3.902
1554901.0,-2.5187,11.3772,45.2121,-2.1269,-3.6726,-3.9057
1554911.0,-2.8252,11.9519,44.8003,-1.7852,-3.6753,-3.853
1554921.0,-2.9113,12.3637,43.8426,-1.3356,-3.5811,-3.7658
1554931.0,-3.2848,12.967,42.9999,-0.803,-3.4321,-3.6381
1554941.0,-3.5243,13.5225,42.138,-0.265,-3.2869,-3.5072
1554951.0,-3.3327,14.0971,41.3239,0.1117,-3.0788,-3.3486
1554961.0,-3.2082,15.5432,39.5139,0.4081,-2.7904,-3.1969
1554971.0,-3.3806,16.5487,39.8778,0.1937,-2.5829,-2.9798
1554981.0,-3.2178,17.1425,40.8451,-0.0484,-2.6249,-2.7691
1554991.0,-4.1276,17.7554,41.5825,-0.3661,-2.8676,-2.5206
1555001.0,-3.8786,18.3779,41.0558,-0.6109,-3.1304,-2.2679
1555011.0,-3.304,18.7897,40.8451,-0.8716,-3.2885,-1.9603
1555021.0,-3.0071,18.7418,40.7302,-0.9972,-3.505,-1.6458
1555031.0,-2.9497,18.6939,39.7246,-1.1494,-3.704,-1.3053
1555041.0,-1.7909,18.3779,38.585,-1.2068,-3.7924,-0.9807
1555051.0,-1.561,17.8703,37.3112,-1.3808,-4.0116,-0.6832
1555061.0,-1.0726,17.4681,36.2291,-1.4324,-4.0813,-0.3943
1555071.0,-0.6991,17.018,34.4095,-1.5687,-4.0685,-0.1006
1555081.0,-0.1341,16.1656,32.7527,-1.508,-4.0366,0.2155
1555091.0,0.9673,15.6198,30.3585,-1.4926,-3.7487,0.4725
1555101.0,1.3503,14.9973,29.1039,-1.4548,-3.3262,0.745
1555111.0,1.7526,14.5759,27.562,-1.5894,-2.9676,0.9935
1555121.0,2.1644,13.532,27.4663,-1.4654,-2.4791,1.2808
1555131.0,1.9249,12.8138,27.4567,-1.1675,-2.0838,1.5394
1555141.0,2.308,11.7316,27.2269,-0.7029,-1.789,1.822
1555151.0,3.1795,11.2815,25.6754,-0.3182,-1.3984,2.0066
1555161.0,4.4724,10.4291,23.7601,-0.0202,-0.7748,2.1646
1555171.0,4.9991,10.2472,22.8407,0.4773,0.1054,2.2253
1555181.0,4.8076,10.8026,23.1376,0.8572,1.1914,2.3221
1555191.0,4.2713,11.6262,23.9612,1.2191,2.0332,2.4887
1555201.0,4.3574,12.0955,26.3554,1.5171,2.8042,2.7207
1555211.0,4.6639,11.7699,28.3186,1.6213,3.33,2.9218
1555221.0,5.0757,11.224,30.799,1.5798,3.5816,3.0527
1555231.0,5.047,10.6111,32.5228,1.3606,3.6045,3.1208
1555241.0,4.7501,10.1035,34.0743,1.1808,3.4864,3.1395
1555251.0,5.4779,10.0748,35.2331,1.1494,3.5125,3.1246
1555261.0,5.0374,10.5632,35.3288,1.0243,3.5018,3.1352
1555271.0,4.4245,11.0516,35.3959,0.853,3.4859,3.1895
1555281.0,3.9648,11.8369,35.4342,0.5731,3.6104,3.2996
1555291.0,3.2465,12.0668,36.162,0.3475,3.6859,3.4598
1555301.0,2.8922,11.5688,36.9186,0.0575,3.762,3.6476
1555311.0,2.3367,10.4387,38.4988,-0.0341,3.8424,3.8466
1555321.0,1.561,8.3893,39.1021,0.0293,3.7051,3.9297
1555331.0,1.312,6.8378,39.5235,0.282,3.7471,3.9403
1555341.0,0.8523,6.0525,38.5945,0.6162,4.0382,3.8669
1555351.0,0.3256,5.9951,38.8148,1.0706,4.4995,3.7844
1555361.0,-0.4501,6.4643,39.7916,1.3803,4.9886,3.6891
1555371.0,-1.312,7.1635,40.9696,1.4851,5.3376,3.6487
1555381.0,-1.5419,7.6231,42.9424,1.4697,5.5169,3.6295
1555391.0,-1.7621,7.6902,45.0876,1.1765,5.2589,3.5758
1555401.0,-1.8004,7.0773,46.2081,0.8743,4.8938,3.4933
1555411.0,-2.7198,6.7708,47.1945,0.5699,4.6219,3.3614
1555421.0,-3.1125,6.2249,48.0085,0.3315,4.367,3.2001
1555431.0,-3.3136,6.2441,49.0141,0.2049,3.9983,3.0373
1555441.0,-3.7158,6.5888,49.3589,-0.0261,3.7519,2.9133
1555451.0,-4.1563,7.355,49.9718,-0.2517,3.5375,2.8197
