time_ms,ax,ay,az,gx,gy,gz
1360641.0,-2.1476,3.2872,9.1051,-0.1905,0.0937,-0.0218
1360651.0,-2.047,3.1364,9.0094,-0.2118,0.1048,-0.0245
1360661.0,-1.9273,2.9305,8.9639,-0.24,0.132,-0.0372
1360671.0,-1.9393,2.8587,9.0405,-0.2692,0.1586,-0.0681
1360681.0,-2.0016,3.0478,9.0525,-0.2959,0.1937,-0.1043
1360691.0,-2.0423,3.2082,9.3111,-0.3517,0.2112,-0.1341
1360701.0,-2.0399,3.3686,9.4236,-0.3943,0.2171,-0.1501
1360711.0,-2.0279,3.3806,9.5313,-0.4358,0.2176,-0.1559
1360721.0,-2.0327,3.3351,9.7468,-0.4832,0.2134,-0.1634
1360731.0,-2.1093,3.3734,9.9048,-0.513,0.2027,-0.1692
1360741.0,-2.1715,3.1915,10.1394,-0.5364,0.1687,-0.174
1360751.0,-2.1524,3.2298,9.9024,-0.5204,0.1224,-0.1815
1360761.0,-2.083,3.2346,9.7923,-0.5348,0.0825,-0.1921
1360771.0,-2.0039,3.3447,9.493,-0.5475,0.0649,-0.2022
1360781.0,-1.9632,3.474,9.4834,-0.5539,0.083,-0.2038
1360791.0,-2.0255,3.4453,9.5337,-0.5428,0.1032,-0.1926
1360801.0,-2.0494,3.371,9.5098,-0.5358,0.1011,-0.1708
1360811.0,-2.0423,3.201,9.5936,-0.531,0.1048,-0.1501
1360821.0,-1.9992,2.9257,9.7181,-0.5034,0.1096,-0.1352
1360831.0,-1.9369,2.7749,9.6343,-0.4486,0.1038,-0.1298
1360841.0,-2.1715,2.7031,9.6175,-0.3757,0.1277,-0.1368
1360851.0,-2.5331,2.6695,9.5553,-0.3246,0.1426,-0.1399
1360861.0,-2.5857,2.8587,9.0525,-0.3246,0.1032,-0.1389
1360871.0,-2.5043,3.5506,8.7676,-0.3858,0.1032,-0.1187
1360881.0,-2.4014,2.7605,8.5904,-0.4832,0.1405,-0.0633
1360891.0,-2.3774,2.3439,9.1937,-0.472,0.182,-0.0447
1360901.0,-2.1979,2.6959,8.4396,-0.2623,0.2804,-0.0181
1360911.0,-2.32,2.0734,9.1267,-0.1697,0.3964,0.0138
1360921.0,-2.3774,2.0518,8.9112,0.0181,0.4693,0.0261
1360931.0,-2.1715,2.2386,8.6359,0.0894,0.4991,0.0218
1360941.0,-2.3559,2.6193,9.0285,0.1022,0.6013,0.0027
1360951.0,-2.7653,3.6679,9.3709,0.1165,0.7146,0.0106
1360961.0,-3.1316,4.1875,10.5273,0.0447,0.7253,0.0745
1360971.0,-3.2537,4.5035,10.5656,0.0133,0.6343,0.1799
1360981.0,-3.553,4.0414,10.5393,-0.0761,0.5369,0.2969
1360991.0,-3.3399,3.8307,6.6942,-0.3672,0.3044,0.4156
1361001.0,-3.0047,2.0853,10.2759,-0.8977,0.5135,0.3773
1361011.0,-2.4038,4.0773,7.3957,-0.8508,0.638,0.3581
1361021.0,-3.2729,1.64,8.9591,-1.4809,0.6582,0.4129
1361031.0,-2.5594,2.7677,9.5385,-1.7996,0.6816,0.34
1361041.0,-3.4261,2.5738,11.8872,-1.9449,0.8806,0.339
1361051.0,-3.4955,2.7342,12.9646,-1.7996,0.7652,0.397
1361061.0,-3.8858,2.1548,12.9263,-1.7171,0.5422,0.4842
1361071.0,-4.0055,1.6783,12.6941,-1.7459,0.356,0.522
1361081.0,-3.2346,0.8978,12.6318,-1.9135,0.1421,0.5268
1361091.0,-3.2681,-0.1197,14.7866,-1.9757,0.0415,0.4901
1361101.0,-4.2497,0.2203,16.0651,-1.4351,-0.0793,0.4693
1361111.0,-4.0294,1.0989,13.2519,-0.7918,-0.4624,0.5098
1361121.0,-3.6895,0.2705,12.4882,-0.6385,-0.6816,0.5438
1361131.0,-3.3208,0.8859,11.0828,-0.4156,-0.6827,0.5199
1361141.0,-3.4955,0.8284,11.2073,-0.3512,-0.7168,0.497
1361151.0,-3.0909,0.9553,9.5577,-0.158,-0.7662,0.513
1361161.0,-2.6217,0.3352,8.9998,-0.0819,-0.696,0.5156
1361171.0,-2.3296,0.0527,8.7388,0.0399,-0.5279,0.4805
1361181.0,-2.3607,0.0239,9.0118,0.157,-0.3539,0.4188
1361191.0,-2.4301,0.4214,9.1387,0.2746,-0.2256,0.3539
1361201.0,-2.569,0.8643,9.3757,0.3001,-0.1431,0.2932
1361211.0,-2.7174,1.1229,9.7324,0.2086,-0.1522,0.2384
1361221.0,-2.6839,1.3719,9.9192,0.1389,-0.1777,0.2134
1361231.0,-2.8587,1.2522,10.1993,0.1101,-0.1948,0.2075
1361241.0,-2.7821,1.0463,10.5273,0.19,-0.1676,0.2112
1361251.0,-2.715,0.2777,11.3605,0.3735,-0.1176,0.2293
1361261.0,-2.6001,-0.4238,11.5736,0.6747,-0.0963,0.2299
1361271.0,-2.5379,-0.6033,11.7867,0.9743,-0.0766,0.1846
1361281.0,-2.6073,0.0862,12.0165,1.2249,-0.0633,0.1144
1361291.0,-2.9233,1.0247,12.0309,1.4064,-0.0862,0.0575
1361301.0,-3.1699,1.3503,11.5568,1.4319,-0.1453,0.0298
1361311.0,-3.0981,2.0135,11.3964,1.1291,-0.2421,-0.0218
1361321.0,-3.2729,2.4876,12.0883,0.5736,-0.3783,-0.0873
1361331.0,-3.4788,2.6145,12.6342,0.0511,-0.5869,-0.1059
1361341.0,-2.2146,1.7573,9.7707,-0.4746,-0.9227,-0.0718
1361351.0,-3.292,-0.2729,14.5567,-1.0382,-0.796,-0.166
1361361.0,-2.9042,2.138,11.9686,-0.687,-0.8642,-0.241
1361371.0,-3.3351,0.6369,14.5998,-0.7662,-1.0557,-0.216
1361381.0,-2.5355,1.0989,11.4132,-0.3693,-1.2382,-0.1527
1361391.0,-2.3703,-0.1891,12.1673,-0.4012,-1.2542,-0.1618
1361401.0,-2.2098,-0.0934,11.3964,-0.1373,-1.2132,-0.2112
1361411.0,-2.229,-0.565,11.6095,0.0122,-1.2063,-0.2762
1361421.0,-2.1332,-0.735,11.6143,0.2687,-1.218,-0.3634
1361431.0,-1.8172,-0.3711,10.4746,0.4874,-1.292,-0.4773
1361441.0,-1.6951,0.0168,9.9958,0.4326,-1.3627,-0.6279
1361451.0,-1.9034,1.3647,9.6438,0.2528,-1.3936,-0.7923
1361461.0,-2.4038,1.64,9.8641,-0.0686,-1.483,-0.9104
1361471.0,-1.9944,2.399,8.2001,-0.4268,-1.7193,-0.9812
1361481.0,-1.585,1.4341,7.4244,-1.0695,-1.8603,-1.0233
1361491.0,-1.992,1.5586,8.667,-1.11,-1.6453,-1.144
1361501.0,-0.8859,2.6217,7.5298,-0.9073,-1.7139,-1.184
1361511.0,-1.245,2.1691,7.7524,-0.7327,-1.6176,-1.1483
1361521.0,-1.9058,3.146,7.5609,-0.1591,-1.4692,-1.1361
1361531.0,-0.6512,3.881,4.5274,0.2613,-1.5351,-1.0408
1361541.0,-1.3096,4.1803,3.8666,0.3155,-1.3335,-0.9541
1361551.0,-1.0127,5.1044,3.0047,0.4145,-1.0839,-0.8743
1361561.0,-0.4453,4.6998,2.3296,0.4358,-0.8588,-0.7487
1361571.0,-1.0487,5.4875,2.3367,0.4246,-0.5055,-0.6162
1361581.0,-0.4262,7.2137,3.2609,0.3688,-0.1809,-0.455
1361591.0,-1.0223,7.58,3.2753,0.348,0.1128,-0.1969
1361601.0,-0.9433,6.3566,6.2656,0.0543,0.3081,0.0809
1361611.0,-0.6369,5.7628,5.5713,0.0117,0.2591,0.3081
1361621.0,-0.6177,4.0725,6.8714,-0.1431,0.2735,0.4491
1361631.0,-0.2059,3.4955,6.0094,0.0074,0.3198,0.5444
1361641.0,-0.0239,2.4349,6.1004,0.1112,0.4395,0.5885
1361651.0,0.2227,2.0255,5.6647,0.2985,0.647,0.589
1361661.0,0.1891,1.6951,6.3159,0.3975,0.8801,0.5497
1361671.0,0.0599,1.8794,6.8498,0.4885,1.0791,0.4895
1361681.0,-0.3352,2.4277,7.7788,0.5316,1.2478,0.4294
1361691.0,-0.7925,2.7773,8.9878,0.5358,1.3154,0.4012
1361701.0,-1.0798,3.316,9.493,0.6258,1.2866,0.4055
1361711.0,-1.1085,3.7948,9.3302,0.7205,1.2366,0.4443
1361721.0,-1.1109,4.3072,8.9184,0.7471,1.1951,0.5098
1361731.0,-1.0295,4.5418,8.5736,0.7599,1.2281,0.6093
1361741.0,-0.9984,4.3359,8.7149,0.8056,1.3553,0.7327
1361751.0,-1.0558,3.8403,9.0788,0.8785,1.5128,0.8455
1361761.0,-1.2546,3.0119,9.8617,0.8918,1.615,0.9152
1361771.0,-1.4222,2.2601,10.41,0.8599,1.6293,0.9296
1361781.0,-1.5538,1.7837,11.1354,0.7934,1.59,0.8748
1361791.0,-1.6735,2.1237,11.3198,0.7072,1.4926,0.7833
1361801.0,-1.9369,2.9209,11.5831,0.5662,1.4032,0.7029
1361811.0,-2.138,3.6033,11.8585,0.3858,1.2866,0.6753
1361821.0,-2.1883,4.1156,11.789,0.232,1.1685,0.7061
1361831.0,-2.3703,4.0797,12.129,0.0825,1.1063,0.7748
1361841.0,-2.3463,3.4524,12.4451,-0.0394,1.0062,0.8493
1361851.0,-2.5833,2.6193,12.5408,-0.1107,0.8775,0.8838
1361861.0,-2.5618,2.5163,12.1506,-0.1846,0.7157,0.8594
1361871.0,-2.5235,2.3487,11.8298,-0.2597,0.5619,0.8072
1361881.0,-2.1763,2.7653,10.5632,-0.3006,0.4581,0.7732
1361891.0,-1.8555,2.6193,10.3741,-0.4358,0.4848,0.7721
1361901.0,-2.0279,2.8874,10.4579,-0.4981,0.6077,0.7976
1361911.0,-4.3886,2.1787,20.1903,-0.1846,1.2308,0.8333
1361921.0,-3.2681,4.7788,16.5176,0.5007,0.7423,1.0142
1361931.0,-3.9409,2.3607,20.3411,0.1171,0.0144,1.1217
1361941.0,-4.1108,4.0414,16.2399,0.679,-0.133,1.2776
1361951.0,-1.6209,0.2705,12.6342,0.0043,-0.8897,1.3909
1361961.0,-0.9936,-0.2011,5.7269,-1.0435,-1.2494,1.3095
1361971.0,-0.498,-1.7047,5.1236,-2.4956,-1.1675,1.0557
1361981.0,-0.3855,-1.5682,4.8195,-3.247,-0.9365,0.7795
1361991.0,-0.0718,-1.5897,6.5505,-3.5093,-0.5491,0.563
1362001.0,-0.972,-1.2067,9.0381,-3.2512,-0.2315,0.4076
1362011.0,-1.0487,-0.7781,9.4092,-2.6281,-0.2315,0.3086
1362021.0,-1.1588,-0.6512,9.2273,-1.8491,-0.224,0.2293
1362031.0,-0.5602,-0.249,7.9655,-0.9754,-0.1703,0.1719
1362041.0,0.4334,-0.5243,7.0725,-0.1458,0.0021,0.1171
1362051.0,0.3711,-1.0989,6.6726,0.6274,0.3363,0.0564
1362061.0,0.3424,-1.8148,7.1515,1.126,0.6614,-0.0458
1362071.0,-0.1149,-1.5467,8.7293,1.1222,0.829,-0.2538
1362081.0,-0.9457,-0.6584,10.0293,0.7535,0.713,-0.4922
1362091.0,-0.7638,0.3089,9.9479,0.1697,0.3799,-0.6662
1362101.0,-0.6919,0.6177,9.505,-0.4262,0.1054,-0.7668
1362111.0,-0.6752,0.7638,8.418,-0.7992,-0.0516,-0.8099
1362121.0,-0.237,0.5411,7.0773,-0.8354,-0.0372,-0.8056
1362131.0,-0.486,1.0487,6.1699,-0.497,0.2575,-0.7817
1362141.0,-0.2705,2.0901,5.3151,-0.1006,0.6066,-0.7237
1362151.0,-0.3112,2.5187,5.2792,0.1548,0.9589,-0.6492
1362161.0,-0.6105,2.2434,6.5649,0.2565,1.2909,-0.5672
1362171.0,-1.0582,2.2003,7.8697,0.364,1.5192,-0.5098
1362181.0,-1.6831,1.9561,9.2703,0.3645,1.6362,-0.4864
1362191.0,-2.2434,1.9034,10.9942,0.2458,1.6123,-0.4693
1362201.0,-2.2458,1.7095,11.8202,0.1596,1.4069,-0.4619
1362211.0,-2.2051,1.7813,11.4563,0.0399,1.1371,-0.4736
1362221.0,-2.399,1.8052,11.6023,-0.0372,0.9727,-0.4704
1362231.0,-2.2505,1.1301,10.8242,0.19,0.9567,-0.4023
1362241.0,-1.5945,-0.0455,10.331,0.5789,1.1041,-0.3267
1362251.0,-0.7494,-0.1413,10.1442,1.1233,1.4846,-0.315
1362261.0,-2.2338,0.4046,12.074,1.6591,1.9731,-0.3411
1362271.0,-2.7581,1.3024,13.0699,2.2907,2.2487,-0.3299
1362281.0,-3.7709,1.9632,13.5632,2.643,2.3605,-0.3219
1362291.0,-4.5897,2.1332,14.9518,2.6967,2.4089,-0.3432
1362301.0,-5.1906,3.0143,16.1704,2.5909,2.3402,-0.4076
1362311.0,-6.201,3.2968,18.7107,2.1513,2.1242,-0.4917
1362321.0,-6.7205,4.2737,20.5087,1.5894,1.6224,-0.5646
1362331.0,-7.1275,4.9512,21.3994,0.9903,0.9658,-0.605
1362341.0,-7.4484,6.0693,21.1121,0.4496,0.339,-0.5917
1362351.0,-7.7979,6.9815,21.3371,-0.0931,-0.2054,-0.5374
1362361.0,-8.0302,7.6064,20.5327,-0.5028,-0.7407,-0.4172
1362371.0,-7.7476,6.9049,19.3451,-0.8838,-1.2584,-0.2618
1362381.0,-7.4436,5.102,17.7841,-1.2217,-1.6841,-0.1485
1362391.0,-6.9719,3.7421,16.8001,-1.4585,-1.9427,-0.1261
1362401.0,-6.7038,2.8419,16.2183,-1.4324,-2.0758,-0.1511
1362411.0,-6.5745,2.5594,15.1577,-1.201,-2.1886,-0.1857
1362421.0,-6.4883,2.557,13.9726,-0.9786,-2.2939,-0.2272
1362431.0,-6.3015,2.6791,12.6318,-0.8679,-2.4121,-0.281
1362441.0,-5.9568,2.8156,11.4132,-0.8833,-2.51,-0.3448
1362451.0,-5.8347,2.8754,10.9583,-0.9488,-2.5589,-0.4209
1362461.0,-5.8514,3.0143,10.6853,-0.9317,-2.6595,-0.4821
1362471.0,-5.624,3.0239,9.7085,-0.7992,-2.8415,-0.5098
1362481.0,-5.1356,2.9808,7.9703,-0.5225,-2.9899,-0.5071
1362491.0,-4.3718,3.316,5.4372,-0.1862,-3.0261,-0.4869
1362501.0,-3.5698,4.0701,2.964,0.0016,-2.891,-0.4603
1362511.0,-3.3327,4.1539,1.9297,-0.125,-2.6648,-0.422
1362521.0,-2.4948,4.6328,0.9649,-0.2421,-2.4759,-0.3778
1362531.0,-1.7095,4.5466,0.3448,-0.3613,-2.2035,-0.3049
1362541.0,-2.1596,4.2162,0.6464,-0.5028,-1.8885,-0.2384
1362551.0,-1.992,3.8211,0.4573,-0.5997,-1.8108,-0.1825
1362561.0,-0.589,2.8539,-0.7159,-0.5917,-1.7389,-0.1442
1362571.0,0.1341,2.4229,-1.5036,-0.4017,-1.3904,-0.1527
1362581.0,0.2562,2.4708,-1.6257,-0.1634,-0.9844,-0.1825
1362591.0,0.34,2.9951,-1.9489,0.1096,-0.5986,-0.1958
1362601.0,0.4429,3.2585,-1.6592,0.2522,-0.2623,-0.1846
1362611.0,0.4166,3.6631,-1.6113,0.3464,0.0458,-0.1543
1362621.0,0.4238,3.7182,-1.1779,0.3108,0.2826,-0.1107
1362631.0,0.3615,3.5602,-0.9313,0.24,0.4629,-0.0596
1362641.0,0.2897,3.2681,-0.7853,0.1681,0.5938,-0.0133
1362651.0,0.2921,3.1963,-1.1325,0.1628,0.7072,0.0234
1362661.0,0.2322,3.0718,-1.8387,0.274,0.9136,0.0777
1362671.0,0.1796,2.1931,-1.8651,0.3714,1.2185,0.1437
1362681.0,-0.0575,1.5083,-1.8483,0.5603,1.5878,0.1421
1362691.0,-0.6752,1.2234,-1.2306,0.7636,1.9614,0.083
1362701.0,-1.1923,1.3647,-1.1492,0.9051,2.2423,-0.0016
1362711.0,-1.9345,1.4245,-1.2474,0.8567,2.4328,-0.1
1362721.0,-2.4517,1.743,-1.7166,0.6439,2.5563,-0.2043
1362731.0,-2.9042,2.5642,-2.3343,0.3719,2.7542,-0.2953
1362741.0,-3.6224,3.292,-2.0039,0.0442,3.0565,-0.3288
1362751.0,-4.6567,3.3399,-0.5387,-0.241,3.3837,-0.2783
1362761.0,-5.7341,2.4229,1.0032,-0.3501,3.6285,-0.1751
1362771.0,-6.3686,0.4884,2.8204,-0.2017,3.8807,-0.0846
1362781.0,-7.1012,-0.7518,4.5418,0.3272,4.2452,-0.0878
1362791.0,-8.0254,-0.4788,5.5498,1.0137,4.6395,-0.1942
1362801.0,-9.0381,-0.0407,6.6822,1.4841,5.012,-0.3384
1362811.0,-10.4962,0.8092,9.9527,1.6474,5.4025,-0.5257
1362821.0,-11.7172,2.2553,12.0476,1.698,5.5409,-0.7003
1362831.0,-13.4458,3.3327,16.1034,1.4282,5.5941,-0.8626
1362841.0,-15.2032,4.3981,20.2526,0.9674,5.2488,-0.9599
1362851.0,-15.4498,4.1396,23.1711,0.6609,4.6124,-0.9615
1362861.0,-15.2391,3.8427,23.4177,0.7338,4.0089,-0.9519
1362871.0,-12.2511,5.703,23.6787,0.9519,3.6588,-0.977
1362881.0,-15.4043,6.2944,30.2603,1.1063,3.596,-0.9312
1362891.0,-15.955,10.5417,29.6187,1.756,2.9532,-0.7976
1362901.0,-15.6988,10.8912,32.0201,1.1999,1.4787,-0.6162
1362911.0,-13.9319,12.9239,25.1846,0.8508,0.0851,-0.348
1362921.0,-12.9838,10.1418,23.9013,-0.2277,-0.8785,-0.1011
1362931.0,-11.9662,8.9519,18.8831,-0.7678,-1.5431,0.0857
1362941.0,-11.3485,6.0621,18.2797,-1.3941,-1.9209,0.1846
1362951.0,-10.0628,5.6958,14.7794,-1.3532,-2.1439,0.2448
1362961.0,-9.2632,4.7812,13.8265,-1.2946,-2.1551,0.2943
1362971.0,-8.3175,5.1834,11.5951,-0.9615,-2.0534,0.3666
1362981.0,-7.9248,4.4341,11.3246,-0.7849,-1.9145,0.4581
1362991.0,-7.2185,3.9193,10.003,-0.5412,-1.8204,0.5444
1363001.0,-7.1156,2.909,9.6391,-0.5114,-1.7437,0.571
1363011.0,-6.9025,2.1261,9.1602,-0.5028,-1.7166,0.5491
1363021.0,-6.5673,1.6664,8.7101,-0.4315,-1.6309,0.4911
1363031.0,-6.2249,1.6544,9.4308,-0.3342,-1.4447,0.4065
1363041.0,-6.3279,1.4964,10.2376,-0.2517,-1.3436,0.3251
1363051.0,-6.5194,1.9513,11.3413,-0.2059,-1.3888,0.2235
1363061.0,-6.7349,2.8898,11.4132,-0.1559,-1.558,0.1548
1363071.0,-6.6846,3.5219,10.5417,-0.2687,-1.9028,0.1266
1363081.0,-6.1316,3.6775,8.6646,-0.4379,-2.2216,0.1325
1363091.0,-5.5115,3.5985,6.9671,-0.5981,-2.3386,0.1447
1363101.0,-5.2984,3.3423,5.9161,-0.6976,-2.2668,0.1517
1363111.0,-5.0805,3.0335,5.2648,-0.7567,-2.1391,0.1527
1363121.0,-4.8028,2.9688,4.9368,-0.8402,-2.0279,0.1325
1363131.0,-4.3718,2.6695,4.7142,-0.9519,-1.9507,0.1133
1363141.0,-3.814,2.1955,4.4125,-1.0115,-1.8847,0.0883
1363151.0,-3.3327,1.9249,4.0797,-0.936,-1.724,0.0607
1363161.0,-3.1819,1.9632,4.0127,-0.7737,-1.5107,0.0372
1363171.0,-3.1053,1.8914,4.1779,-0.5779,-1.3191,0.0341
1363181.0,-2.7174,1.6735,4.1803,-0.3246,-1.1393,0.0436
1363191.0,-2.5642,1.3024,4.312,-0.0915,-0.9296,0.033
1363201.0,-2.5283,1.4365,4.4724,0.0325,-0.7785,-0.0176
1363211.0,-2.5283,1.7262,4.719,0.0298,-0.7082,-0.0761
1363221.0,-2.3272,1.9896,4.7142,0.0016,-0.6476,-0.1149
1363231.0,-2.1428,2.2218,5.1332,-0.0862,-0.5694,-0.149
1363241.0,-2.1548,2.6288,5.4899,-0.1405,-0.522,-0.1666
1363251.0,-2.0375,3.0215,5.5138,-0.1405,-0.5151,-0.1485
1363261.0,-1.8651,3.3303,5.3486,-0.1341,-0.4965,-0.107
1363271.0,-1.9896,3.4477,5.2912,-0.1479,-0.4544,-0.0442
1363281.0,-1.9537,3.1436,4.7597,-0.2309,-0.4789,0.0255
1363291.0,-1.822,2.5522,4.0582,-0.397,-0.5108,0.0665
1363301.0,-1.6927,2.1093,3.4812,-0.5513,-0.448,0.0708
1363311.0,-1.6951,1.585,3.3423,-0.6582,-0.3342,0.0537
1363321.0,-1.743,0.7925,2.9473,-0.6465,-0.2081,0.0149
1363331.0,-1.6352,0.5076,1.9752,-0.5475,-0.0644,-0.0702
1363341.0,-1.9848,1.2881,0.9984,-0.4784,0.1639,-0.1846
1363351.0,-2.0375,2.6001,-0.012,-0.555,0.3602,-0.2581
1363361.0,-2.0782,3.553,-0.8835,-0.7258,0.5608,-0.2549
1363371.0,-2.1955,4.2401,-1.6376,-0.8493,0.8594,-0.1543
1363381.0,-2.3583,4.5322,-1.5634,-0.9711,1.1861,0.0101
1363391.0,-2.9161,3.8595,-1.5586,-0.9812,1.5532,0.2293
1363401.0,-3.395,1.6257,-1.1899,-1.0126,1.9018,0.4326
1363411.0,-3.9049,-1.0678,-0.3328,-1.0382,2.2812,0.514
1363421.0,-4.4005,-2.7318,1.4868,-0.9876,2.7734,0.4512
1363431.0,-5.4396,-4.3144,4.6543,-0.8668,3.2485,0.2799
1363441.0,-6.6966,-5.1595,7.6303,-0.5827,3.6083,0.05
1363451.0,-8.2025,-3.8978,10.5967,-0.1905,3.8371,-0.2379
1363461.0,-7.4196,-1.391,13.5871,0.5342,4.0739,-0.4911
1363471.0,-9.7181,2.4205,16.2375,1.3734,4.4224,-0.5353
1363481.0,-11.0875,4.6064,20.7841,1.7687,4.3708,-0.4523
1363491.0,-11.7723,6.2776,22.2661,1.8768,3.7817,-0.3076
1363501.0,-11.7292,6.0214,23.6284,1.4633,2.9729,-0.1692
1363511.0,-11.4706,5.3582,23.8127,0.9009,2.1567,-0.099
1363521.0,-11.3246,4.6495,24.7034,0.2937,1.3729,-0.1091
1363531.0,-11.315,5.0901,24.6555,-0.049,0.6226,-0.1282
1363541.0,-10.9942,5.7724,23.863,-0.1974,-0.1623,-0.0862
1363551.0,-10.2472,6.4739,20.8559,-0.1336,-0.8812,0.0468
1363561.0,-9.2751,5.9999,17.6453,-0.0963,-1.358,0.2246
1363571.0,-8.1834,5.1619,14.4753,-0.0713,-1.5713,0.3837
1363581.0,-7.5274,3.9025,12.8066,-0.0958,-1.5665,0.4927
1363591.0,-6.6918,2.8898,11.4156,-0.0601,-1.4803,0.5608
1363601.0,-6.1339,1.913,10.9176,-0.0372,-1.3356,0.5779
1363611.0,-5.8754,1.3288,10.9032,0.0037,-1.1909,0.5539
1363621.0,-5.6719,0.9457,11.1378,0.0436,-1.1222,0.5055
1363631.0,-5.5306,1.1588,11.1019,0.1091,-1.1254,0.4443
1363641.0,-5.5522,1.142,10.9894,0.1277,-1.1818,0.3932
1363651.0,-5.2409,1.0199,10.1873,0.1751,-1.292,0.3576
1363661.0,-4.8147,0.8475,9.0381,0.2352,-1.3292,0.323
1363671.0,-4.4915,0.6369,8.2863,0.2873,-1.2334,0.2778
1363681.0,-4.4173,0.3328,8.3677,0.3682,-1.0451,0.2272
1363691.0,-4.3455,0.1604,8.6862,0.4943,-0.8833,0.1671
1363701.0,-4.4484,0.4118,9.2847,0.5832,-0.7758,0.0878
1363711.0,-4.7357,0.6177,10.0006,0.5837,-0.7668,0.0059
1363721.0,-5.023,1.008,10.1179,0.4895,-0.9179,-0.0788
1363731.0,-4.9775,1.5634,9.6678,0.2634,-1.1419,-0.1676
1363741.0,-5.0518,1.9585,9.1506,-0.0223,-1.3452,-0.241
1363751.0,-4.8387,1.9321,8.4827,-0.1985,-1.475,-0.2815
1363761.0,-4.5226,1.7621,7.6327,-0.2703,-1.5016,-0.3139
1363771.0,-4.379,1.8603,7.3095,-0.3054,-1.4309,-0.3586
1363781.0,-4.4149,2.0686,7.6375,-0.3416,-1.3276,-0.3938
1363791.0,-4.4939,1.9561,8.2384,-0.3315,-1.3031,-0.4119
1363801.0,-4.3096,2.1476,7.6064,-0.2661,-1.351,-0.4284
1363811.0,-4.1468,1.8531,7.288,-0.3028,-1.3702,-0.4534
1363821.0,-3.9169,1.8435,6.8115,-0.3304,-1.3564,-0.4986
1363831.0,-3.7996,1.9345,6.7181,-0.3794,-1.3085,-0.5513
1363841.0,-3.6224,2.083,6.7205,-0.4097,-1.2627,-0.5922
1363851.0,-3.3878,2.3511,6.5817,-0.4214,-1.2196,-0.6194
1363861.0,-3.2489,2.5666,6.5984,-0.4406,-1.1627,-0.6321
1363871.0,-3.1364,3.0287,6.6846,-0.4358,-1.0999,-0.6258
1363881.0,-3.0335,3.3184,6.7181,-0.447,-1.0488,-0.5944
1363891.0,-2.976,2.9928,6.8378,-0.5002,-1.0371,-0.547
1363901.0,-2.7557,2.1859,6.6774,-0.5252,-1.0339,-0.5119
1363911.0,-2.4565,1.4054,6.6008,-0.5566,-1.0142,-0.53
1363921.0,-2.2625,1.1995,6.9168,-0.5454,-0.9514,-0.5917
1363931.0,-2.3463,1.6879,7.1635,-0.448,-0.8998,-0.6545
1363941.0,-2.3822,2.557,6.8857,-0.3257,-0.9147,-0.6731
1363951.0,-2.2242,3.383,5.715,-0.2975,-0.9621,-0.6401
1363961.0,-1.8483,3.7637,4.4724,-0.4656,-0.9802,-0.5757
1363971.0,-1.4485,3.7589,3.4692,-0.7125,-0.8961,-0.4943
1363981.0,-1.2163,3.0813,3.3303,-0.9732,-0.7221,-0.4087
1363991.0,-1.494,2.6456,3.4429,-1.1824,-0.5848,-0.3453
1364001.0,-1.506,2.3727,2.7342,-1.3595,-0.6039,-0.2868
1364011.0,-0.9409,2.2386,0.9002,-1.4011,-0.629,-0.2118
1364021.0,-1.7382,3.2513,0.4836,-1.2047,-0.3938,-0.1288
1364031.0,-2.241,3.8283,-2.0159,-0.6992,-0.0772,0.0889
1364041.0,-1.5107,3.96,-5.6767,-0.5486,0.0543,0.2772
1364051.0,-1.8052,4.3551,-8.825,-0.5885,0.729,0.4539
1364061.0,-2.2865,2.8898,-9.5792,-1.0115,1.5341,0.6332
1364071.0,-2.4517,0.644,-8.1283,-1.434,2.3993,0.7508
1364081.0,-4.2306,-1.7789,-3.7661,-1.409,3.5747,0.8136
1364091.0,-6.2321,-4.1994,2.1883,-1.1488,4.3372,0.779
1364101.0,-8.3989,-4.7429,6.8881,-0.5694,4.6847,0.6359
1364111.0,-8.3055,-4.4963,9.1937,0.2607,4.8406,0.4438
1364121.0,-8.0302,-3.7038,11.3246,1.16,5.1072,0.2208
1364131.0,-9.5265,-1.6712,14.1569,1.8619,5.4595,0.009
1364141.0,-11.0708,0.7829,17.9445,2.0013,5.4052,-0.1751
1364151.0,-11.3557,2.6528,20.5446,1.8635,4.938,-0.2815
1364161.0,-11.6406,3.4333,22.8455,1.4926,4.3846,-0.315
1364171.0,-12.1266,3.4477,25.7903,0.9674,3.6881,-0.3315
1364181.0,-12.2416,3.4955,27.2316,0.4603,2.6941,-0.3443
1364191.0,-12.0859,3.6751,26.7791,0.0676,1.5218,-0.3384
1364201.0,-10.8864,3.8738,23.0538,-0.1054,0.4401,-0.2852
1364211.0,-9.6271,3.8355,19.1656,-0.2421,-0.182,-0.2166
1364221.0,-8.8538,3.4548,16.9462,-0.2559,-0.3108,-0.1357
1364231.0,-8.3127,2.9018,15.8424,-0.1383,-0.2959,-0.0452
1364241.0,-8.0014,2.7294,14.868,0.0399,-0.2756,0.0351
1364251.0,-7.7668,2.2984,14.449,0.1235,-0.3097,0.1032
1364261.0,-7.3143,1.573,13.4985,0.1341,-0.4278,0.1554
1364271.0,-6.7301,0.9122,12.6845,0.0367,-0.5231,0.1538
1364281.0,-6.4596,0.7063,12.6581,-0.1123,-0.5369,0.1107
1364291.0,-6.7133,0.3519,13.5751,-0.1974,-0.5438,0.0697
1364301.0,-6.8881,0.3184,14.1162,-0.1745,-0.6774,0.0341
1364311.0,-7.0413,0.4549,14.0037,-0.1054,-0.928,0.009
1364321.0,-6.8187,0.5291,12.6845,0.0239,-1.193,0.0037
1364331.0,-6.4572,0.9002,11.1474,0.1149,-1.3175,-0.0085
1364341.0,-6.4667,1.336,10.386,0.0809,-1.3058,-0.0239
1364351.0,-6.6128,1.1732,10.3166,-0.0575,-1.3164,-0.0271
1364361.0,-6.529,1.008,9.8904,-0.265,-1.4356,-0.0468
1364371.0,-6.3183,0.8356,9.6151,-0.5295,-1.5761,-0.0878
1364381.0,-6.0861,0.7757,9.1913,-0.6965,-1.6788,-0.1256
1364391.0,-6.0501,0.7039,9.098,-0.7141,-1.6985,-0.1543
1364401.0,-5.9065,1.087,8.5641,-0.5667,-1.7203,-0.1607
1364411.0,-5.6767,1.5155,7.4603,-0.3789,-1.7475,-0.1325
1364421.0,-5.2481,1.6903,6.2058,-0.2512,-1.7102,-0.0846
1364431.0,-4.9249,1.3623,5.6383,-0.1979,-1.5804,-0.042
1364441.0,-4.7262,1.0798,5.5067,-0.1639,-1.4181,-0.0234
1364451.0,-4.6256,1.1372,5.6503,-0.1596,-1.3026,-0.0266
1364461.0,-4.5442,1.4293,5.5665,-0.1564,-1.2393,-0.0277
1364471.0,-4.3886,1.6544,5.3463,-0.2054,-1.2042,-0.0149
1364481.0,-4.2353,1.4174,5.2289,-0.2751,-1.1749,0.0064
1364491.0,-3.8834,0.5722,4.9967,-0.2655,-1.1095,0.0239
1364501.0,-3.541,0.091,4.6855,-0.1985,-1.0046,-0.0027
1364511.0,-3.4836,-0.0024,4.695,-0.1192,-0.8668,-0.058
1364521.0,-3.3303,-0.0646,4.4843,-0.067,-0.7678,-0.1155
1364531.0,-3.0718,0.0575,4.0677,-0.1016,-0.6944,-0.1841
1364541.0,-2.8419,0.8188,3.5554,-0.2512,-0.6103,-0.2677
1364551.0,-2.8515,1.3623,3.9528,-0.5007,-0.4874,-0.3155
1364561.0,-2.806,1.5443,4.5993,-0.6178,-0.3693,-0.3134
1364571.0,-2.8132,1.7669,4.7309,-0.5805,-0.2932,-0.2746
1364581.0,-2.5953,1.7166,4.4796,-0.4991,-0.2416,-0.2091
1364591.0,-2.2649,1.8675,3.7876,-0.3831,-0.1745,-0.1336
1364601.0,-2.0375,1.7693,2.9113,-0.2528,-0.0404,-0.0442
1364611.0,-1.8483,1.4844,2.4205,-0.1501,0.1495,0.0394
1364621.0,-2.0423,1.5562,1.9776,-0.0341,0.3704,0.1096
1364631.0,-2.2601,1.5467,1.0487,0.0011,0.5545,0.1788
1364641.0,-2.66,1.5467,1.7526,-0.1394,0.7615,0.216
1364651.0,-3.1244,1.1085,1.9944,-0.2389,0.9275,0.3012
1364661.0,-2.3511,0.012,0.182,-0.4321,0.7338,0.3038
1364671.0,-1.3216,0.146,-2.0375,-0.4464,1.0589,0.2735
1364681.0,-2.7701,-0.1724,-0.7709,-0.6247,1.6421,0.2448
1364691.0,-2.9975,-0.2394,-0.3543,-0.7263,1.8874,0.2373
1364701.0,-3.2058,-0.6967,-0.419,-0.7098,2.1529,0.2724
1364711.0,-4.1611,-1.719,0.6752,-0.4624,2.627,0.3166
1364721.0,-5.3319,-2.8084,1.7645,0.1027,3.2044,0.3299
1364731.0,-6.7421,-3.7014,3.486,0.712,3.7599,0.2528
1364741.0,-8.4228,-3.5769,5.5354,1.268,4.2537,0.0686
1364751.0,-10.1562,-1.9537,8.2959,1.6495,4.6491,-0.1692
1364761.0,-11.8058,0.6584,11.9926,1.8885,4.8811,-0.3549
1364771.0,-13.307,2.9425,15.2894,2.0332,4.8396,-0.406
1364781.0,-16.2542,3.7613,16.4793,2.0188,4.5272,-0.348
1364791.0,-13.2615,3.5147,17.6788,1.665,4.0313,-0.323
1364801.0,-15.6557,3.3279,19.9341,1.2036,3.8152,-0.3278
1364811.0,-15.1122,3.3184,22.8503,0.8801,3.3257,-0.3719
1364821.0,-15.366,4.2162,24.2628,0.8205,2.7537,-0.3783
1364831.0,-14.777,5.5474,25.2062,0.8248,2.1247,-0.323
1364841.0,-14.5017,7.1299,25.3402,0.8168,1.4149,-0.1777
1364851.0,-14.1809,7.7859,24.1695,0.8535,0.7136,0.0756
1364861.0,-13.4889,7.039,22.2924,0.7189,0.0878,0.3533
1364871.0,-12.8832,4.8842,21.8519,0.4395,-0.381,0.5614
1364881.0,-12.3565,3.2226,21.3347,0.2975,-0.7859,0.6518
1364891.0,-12.1386,2.4421,20.9971,0.2357,-1.1568,0.6428
1364901.0,-12.1578,2.3679,20.8343,0.2128,-1.5548,0.5917
1364911.0,-12.1961,2.8419,20.2454,0.2017,-2.021,0.5401
1364921.0,-12.3565,3.5913,19.0626,0.2107,-2.4834,0.5199
1364931.0,-12.2799,3.8954,17.4322,0.2043,-2.9277,0.5518
1364941.0,-11.7507,4.0079,14.801,0.191,-3.2672,0.6034
1364951.0,-11.2049,3.4022,13.5009,0.0341,-3.3991,0.6369
1364961.0,-10.9894,2.8156,13.1944,-0.0585,-3.4018,0.6343
1364971.0,-11.2575,2.9592,13.69,-0.132,-3.4672,0.5954
1364981.0,-11.7244,3.4046,13.8265,-0.1607,-3.6881,0.5704
1364991.0,-11.6071,3.6512,12.8114,-0.1963,-4.0643,0.5821
1365001.0,-10.9607,3.7637,10.7524,-0.241,-4.3814,0.6125
1365011.0,-10.331,3.9049,9.1459,-0.3927,-4.5309,0.6274
1365021.0,-10.0341,4.1108,8.0397,-0.6625,-4.6198,0.6295
1365031.0,-9.6678,3.9504,6.9815,-1.0302,-4.7629,0.6359
1365041.0,-8.6359,3.4189,5.5282,-1.4101,-4.9561,0.6343
1365051.0,-6.5864,2.3128,4.3574,-1.649,-4.9864,0.6162
1365061.0,-7.8075,2.3679,5.6072,-1.5953,-4.7278,0.5662
1365071.0,-8.169,2.4517,3.9169,-1.351,-4.714,0.6141
1365081.0,-5.296,1.4317,0.723,-1.2925,-4.93,0.5917
1365091.0,-3.814,1.5251,-2.1931,-1.1744,-4.3729,0.5529
1365101.0,-1.5969,0.2251,0.8068,-1.3925,-3.7008,0.4528
1365111.0,-4.367,0.7661,2.3391,-1.2324,-3.2805,0.3544
1365121.0,-3.0023,0.2921,3.1196,-1.061,-3.3113,0.2847
1365131.0,-2.0135,1.2402,1.3767,-0.705,-3.2017,0.2171
1365141.0,-1.5299,1.5993,1.2617,-0.506,-2.8963,0.1878
1365151.0,-1.2426,2.2505,1.0127,-0.3358,-2.5919,0.1942
1365161.0,-0.9385,2.3152,1.6927,-0.2506,-2.3429,0.2373
1365171.0,-0.6081,2.2218,1.7837,-0.0894,-2.1689,0.3108
1365181.0,-0.1413,1.9537,1.585,0.1123,-1.9827,0.3906
1365191.0,0.1891,1.4293,1.2809,0.2756,-1.7874,0.4507
1365201.0,0.4381,1.1301,0.0551,0.2708,-1.6815,0.4581
1365211.0,1.2522,0.6273,-1.549,0.0106,-1.6277,0.4135
1365221.0,4.9871,0.0862,-1.8172,-0.3326,-1.4298,0.3102
1365231.0,0.0383,1.4413,-2.0614,-0.4661,-0.9653,0.2442
1365241.0,2.083,0.4645,-2.1428,-0.6497,-1.002,0.2267
1365251.0,4.4317,1.2833,-5.4516,-0.4762,-0.7045,0.2134
1365261.0,1.9513,1.7885,-4.7573,-0.5215,-0.0835,0.2315
1365271.0,2.15,2.0901,-5.9065,-0.7003,-0.0027,0.2788
1365281.0,2.5426,2.3966,-8.2959,-0.737,0.2118,0.3672
1365291.0,-0.3519,2.7366,-9.3829,-0.6811,0.7471,0.473
1365301.0,1.5778,2.3391,-13.7164,-0.5933,1.1345,0.5789
1365311.0,-0.2179,2.9975,-15.603,-0.6348,2.1194,0.6157
1365321.0,-1.5874,2.4445,-13.8217,-0.911,3.2986,0.6939
1365331.0,-3.7757,1.9968,-9.6486,-1.1813,4.1787,0.7567
1365341.0,-5.77,1.2234,-5.3271,-1.1158,4.7166,0.8572
1365351.0,-6.7612,1.2282,-4.4029,-0.7024,4.9066,0.978
1365361.0,-7.8266,0.8499,-4.2689,-0.1868,5.2344,1.1068
1365371.0,-8.8801,-0.2155,-3.3208,0.3155,5.8282,1.2265
1365381.0,-10.647,-2.4517,0.4645,0.8088,6.6179,1.2872
1365391.0,-12.8952,-4.9297,6.2153,1.4266,7.3714,1.2255
1365401.0,-14.6022,-7.1299,12.311,2.1343,7.8364,1.0115
1365411.0,-15.9981,-8.6862,18.2869,2.8308,8.0376,0.6103
1365421.0,-17.6141,-6.3877,23.9612,3.3518,7.9237,-0.0005
1365431.0,-23.2429,-0.8092,25.6395,3.4923,7.2591,-0.6029
1365441.0,-12.4211,3.2346,25.6227,3.0251,6.2731,-1.102
1365451.0,-20.9732,10.2185,34.0048,2.1162,6.454,-1.2654
1365461.0,-20.6476,10.7428,39.885,1.6543,5.2408,-0.945
1365471.0,-18.8663,10.1155,41.9368,1.1275,3.4907,-0.6412
1365481.0,-18.2965,10.1059,42.0757,0.8636,1.9928,-0.3645
1365491.0,-17.1257,8.7867,37.8954,0.7471,0.3704,-0.0952
1365501.0,-15.6437,7.4029,32.7838,0.5108,-0.7891,0.0458
1365511.0,-15.2032,6.7828,28.7687,0.1564,-1.5495,0.0649
1365521.0,-14.0348,6.7852,25.5677,-0.1176,-2.0641,0.0793
1365531.0,-12.7659,7.7907,21.3467,-0.2277,-2.3328,0.1309
1365541.0,-12.141,7.6255,20.8224,-0.5986,-2.3902,0.2182
1365551.0,-11.8848,7.7548,21.1169,-0.7891,-2.4647,0.3565
1365561.0,-11.8752,7.0653,21.816,-0.8418,-2.7712,0.5507
1365571.0,-11.5544,5.9328,20.3076,-0.6604,-3.2932,0.7843
1365581.0,-10.6446,4.2952,16.6828,-0.5571,-3.8679,0.9653
1365591.0,-9.6295,2.5809,12.1865,-0.7343,-4.2739,1.0121
1365601.0,-8.6526,0.9409,9.0261,-1.2372,-4.4676,0.9136
1365611.0,-7.4795,-0.5938,6.7157,-1.756,-4.5219,0.7157
1365621.0,-6.2584,-1.4054,5.3654,-2.0492,-4.4336,0.4629
1365631.0,-5.4492,-0.668,4.0103,-2.0226,-4.1973,0.2128
1365641.0,-4.8483,0.5052,3.3255,-1.8682,-3.9339,0.0426
1365651.0,-4.5059,1.4006,2.5546,-1.5937,-3.6684,-0.0181
1365661.0,-4.4484,1.8196,1.6137,-1.3478,-3.4779,-0.0106
1365671.0,-3.9768,1.8387,-0.2705,-1.2414,-3.4194,0.0154
1365681.0,-2.399,1.2043,-1.6616,-1.2563,-3.2943,0.0245
1365691.0,-2.4517,1.0271,-2.9664,-1.201,-2.9756,0.0106
1365701.0,-1.573,0.8475,-2.5809,-1.1941,-2.6228,-0.0628
1365711.0,-3.2106,1.8364,-4.5083,-1.193,-2.2727,-0.0713
1365721.0,-0.1556,0.498,-3.6296,-1.4692,-2.0518,-0.1171
1365731.0,0.7183,1.8986,-4.3167,-0.9988,-1.2835,-0.1362
1365741.0,-0.2586,1.4174,-0.1365,-0.6444,-0.4278,-0.0665
1365751.0,-0.6105,1.7071,2.3128,-0.2512,-0.1586,0.0176
1365761.0,-0.3041,1.2977,3.3255,0.1011,-0.1671,0.1224
1365771.0,0.5171,0.3089,3.4644,0.4757,-0.0665,0.2054
1365781.0,0.589,-0.1484,3.9911,0.737,0.1932,0.1942
1365791.0,0.3065,-0.1628,5.9759,0.6731,0.3581,0.1139
1365801.0,-0.1125,-0.2203,7.6351,0.4651,0.2884,0.0208
1365811.0,-0.1173,0.2753,7.8243,0.2762,0.0325,-0.0596
1365821.0,0.0718,0.5674,7.003,0.1245,-0.2107,-0.1027
1365831.0,0.3496,1.2857,5.4181,0.049,-0.2932,-0.1139
1365841.0,0.4022,1.4605,4.4412,-0.0702,-0.2373,-0.083
1365851.0,0.6536,0.8164,3.7182,-0.1027,-0.116,-0.0154
1365861.0,1.1277,-0.3855,3.067,0.0569,0.1304,0.0447
1365871.0,1.5658,-1.3551,3.0071,0.3656,0.5236,0.0521
1365881.0,1.5179,-1.743,3.5267,0.7354,0.9514,0.0027
1365891.0,1.4006,-1.4605,3.6703,1.0382,1.2361,-0.0798
1365901.0,1.8148,-0.8452,3.043,1.209,1.4346,-0.1623
1365911.0,1.5993,0.2729,2.4972,1.1504,1.6809,-0.2506
1365921.0,1.0223,1.6664,1.992,0.7412,1.8188,-0.3076
1365931.0,0.4166,2.1117,1.6424,-0.0357,1.8071,-0.3038
1365941.0,-0.3448,1.2737,1.3024,-0.9333,1.7405,-0.2554
1365951.0,-0.996,-0.7207,0.4525,-1.7224,1.6538,-0.2075
1365961.0,-0.9313,-3.1843,-0.8308,-2.2876,1.6591,-0.2155
1365971.0,-0.7326,-4.9273,-1.3647,-2.3498,2.0529,-0.2836
1365981.0,-1.5754,-5.1571,-0.5986,-1.6974,2.9165,-0.3725
1365991.0,-3.8618,-4.3239,1.4198,-0.5678,3.9951,-0.4337
1366001.0,-5.9352,-2.4445,2.4229,0.5619,4.9955,-0.4683
1366011.0,-5.5354,-1.6161,6.4643,0.9913,5.8165,-0.5545
1366021.0,-12.2248,-0.3208,15.8185,1.143,6.7094,-0.5875
1366031.0,-16.587,-0.6488,25.3378,1.3744,6.5258,-0.5438
1366041.0,-13.9175,-0.8835,27.4639,1.7895,5.4691,-0.5827
1366051.0,-15.3971,-0.6273,31.1869,1.7294,4.7438,-0.7646
1366061.0,-16.2734,1.3623,34.4765,1.5016,3.7908,-1.002
1366071.0,-16.7283,4.3359,36.2626,1.1004,2.5621,-1.1999
1366081.0,-16.9821,7.6902,37.1652,0.5885,1.2558,-1.259
1366091.0,-16.6852,10.4627,36.1022,0.1139,-0.1655,-1.1111
1366101.0,-15.7754,11.6071,32.4869,-0.2363,-1.5458,-0.7652
1366111.0,-14.3149,10.8218,27.1766,-0.4156,-2.5674,-0.3124
1366121.0,-12.864,8.2935,22.3858,-0.5507,-3.1235,0.108
1366131.0,-11.7005,5.4229,19.1057,-0.6524,-3.3374,0.3938
1366141.0,-10.7093,3.0239,16.9869,-0.6816,-3.4135,0.5364
1366151.0,-9.8306,1.4557,14.947,-0.6614,-3.5103,0.5619
1366161.0,-8.9304,0.5507,12.9191,-0.7301,-3.6359,0.4986
1366171.0,-8.0613,0.1915,11.2192,-0.8583,-3.7418,0.389
1366181.0,-7.1946,0.1891,9.414,-0.9466,-3.8195,0.2783
1366191.0,-6.3135,0.2538,7.5369,-0.9844,-3.8403,0.1894
1366201.0,-5.3678,0.2586,5.8347,-0.9594,-3.7631,0.1346
1366211.0,-4.525,0.1939,4.2665,-0.8657,-3.5838,0.1038
1366221.0,-3.6009,0.1077,2.8874,-0.7673,-3.3443,0.0846
1366231.0,-2.8156,-0.1628,2.0327,-0.671,-3.0187,0.0724
1366241.0,-2.2769,-0.4645,1.6999,-0.5678,-2.6451,0.0537
1366251.0,-1.8292,-0.984,2.1308,-0.4778,-2.2647,0.0229
1366261.0,-1.3862,-1.5299,2.8563,-0.3448,-1.9369,-0.0266
1366271.0,-1.1636,-1.5083,3.5865,-0.174,-1.6719,-0.1048
1366281.0,-0.9385,-0.9864,4.3335,-0.0537,-1.5022,-0.1846
1366291.0,-0.8236,-0.1269,4.81,0.0319,-1.3952,-0.2379
1366301.0,-0.656,0.7183,5.3271,0.0745,-1.3085,-0.2448
1366311.0,-0.5171,1.5443,5.7796,0.091,-1.2707,-0.2049
1366321.0,-0.4645,2.0614,6.1866,0.1123,-1.2393,-0.1149
1366331.0,-0.4549,2.059,6.4955,0.1261,-1.2324,0.0085
1366341.0,-0.3591,1.5036,6.4212,0.1208,-1.2499,0.125
1366351.0,-0.2586,0.8188,6.1962,0.0436,-1.2643,0.191
1366361.0,-0.1293,-0.4525,6.28,-0.0883,-1.3015,0.1985
1366371.0,0.4453,-1.6185,5.7245,-0.1091,-1.3356,0.1378
1366381.0,0.9433,-1.7214,5.1619,-0.025,-1.2462,0.0059
1366391.0,1.0726,-0.7446,5.2577,0.1442,-1.0227,-0.1277
1366401.0,0.814,0.9649,5.7868,0.3618,-0.7609,-0.1942
1366411.0,0.4621,2.5522,6.7086,0.4656,-0.5981,-0.166
1366421.0,0.2705,3.3471,7.4747,0.4305,-0.6093,-0.0537
1366431.0,0.6033,3.1244,7.5705,0.3464,-0.7519,0.1048
1366441.0,1.087,2.2338,6.8714,0.3555,-0.8642,0.2549
1366451.0,1.5323,1.3216,5.7628,0.4459,-0.8748,0.357
1366461.0,1.822,0.7183,4.5705,0.4757,-0.8216,0.3916
1366471.0,1.9417,0.1628,3.4812,0.3257,-0.7918,0.3608
1366481.0,2.2338,0.0311,1.7095,0.0059,-0.837,0.2708
1366491.0,3.9313,0.2203,-0.6369,-0.4507,-0.8498,0.1479
1366501.0,1.8196,1.4102,-1.5155,-0.9589,-0.6742,0.0293
1366511.0,2.8587,1.6664,-2.296,-1.3441,-0.5529,-0.0165
1366521.0,-0.8523,4.6926,-6.6966,-1.3973,-0.3549,0.042
1366531.0,2.6432,3.8044,-9.4499,-1.7496,-0.2006,0.1969
1366541.0,1.7621,5.8993,-14.9087,-1.5218,0.7247,0.3597
1366551.0,-0.6105,5.5785,-12.8736,-1.5495,2.0204,0.6311
1366561.0,-1.4868,4.6448,-13.2328,-1.1941,3.0724,1.0009
1366571.0,-3.2681,0.8404,-9.7803,-0.5614,4.4203,1.3383
1366581.0,-5.2672,-1.3408,-4.9895,0.5028,5.9873,1.524
1366591.0,-8.0541,-4.4173,3.5721,1.624,7.4272,1.5484
1366601.0,-11.145,-6.3566,12.0045,2.6233,8.3095,1.3388
1366611.0,-15.8951,-5.4684,18.6029,2.9554,8.5287,0.9152
1366621.0,-9.3398,-5.8586,28.3282,2.5052,8.1158,0.3453
1366631.0,-16.2375,0.091,36.5331,1.9215,7.5682,-0.0952
1366641.0,-16.4362,2.0758,47.0844,0.9498,5.6633,-0.2969
1366651.0,-13.2399,4.4867,43.2369,0.3682,2.8984,-0.2703
1366661.0,-13.1274,4.8674,38.6903,-0.6651,0.6391,-0.1958
1366671.0,-10.9774,3.4165,30.4902,-1.0876,-0.8248,0.0048
1366681.0,-9.177,0.3543,24.8686,-1.3388,-1.416,0.1378
1366691.0,-7.9152,-1.1564,21.6891,-1.0142,-1.2425,0.1756
1366701.0,-7.6998,-1.7573,21.5263,-0.3618,-0.8242,0.1735
1366711.0,-7.8913,-0.735,21.397,0.3384,-0.6119,0.1591
1366721.0,-8.1116,0.4884,21.2007,0.5608,-0.7875,0.1469
1366731.0,-7.592,0.917,19.9174,0.2996,-1.3106,0.1352
1366741.0,-6.7708,0.316,18.0331,-0.2432,-1.9108,0.0889
1366751.0,-6.122,-0.3591,15.9478,-0.787,-2.4137,-0.0074
1366761.0,-5.3917,-0.7949,13.4434,-1.1148,-2.7909,-0.1149
1366771.0,-4.3958,-0.7733,10.6303,-1.1222,-2.9101,-0.1937
1366781.0,-3.6943,-0.1293,8.2983,-0.9355,-2.7409,-0.2352
1366791.0,-3.2274,0.3807,7.173,-0.7221,-2.4222,-0.2214
1366801.0,-2.9066,0.1293,7.1946,-0.5028,-2.0901,-0.1634
1366811.0,-2.6456,-0.2179,7.4364,-0.257,-1.839,-0.108
1366821.0,-2.3727,-0.6009,7.3861,-0.0388,-1.6708,-0.0793
1366831.0,-2.0063,-1.0534,7.2161,0.0506,-1.5697,-0.1006
1366841.0,-1.7071,-1.391,7.2305,0.0202,-1.4899,-0.1729
1366851.0,-1.5754,-1.3695,7.7428,-0.05,-1.3899,-0.2852
1366861.0,-1.7621,-0.589,8.5808,-0.1181,-1.3329,-0.4039
1366871.0,-1.9225,0.328,9.2727,-0.1623,-1.4011,-0.4752
1366881.0,-1.8747,1.1636,9.0166,-0.1304,-1.55,-0.4752
1366891.0,-1.6951,1.7262,8.272,-0.0793,-1.6586,-0.423
1366901.0,-1.5514,1.7478,7.3047,-0.0383,-1.6969,-0.339
1366911.0,-1.142,1.3216,6.2656,-0.0628,-1.6948,-0.2629
1366921.0,-0.7087,0.7685,5.679,-0.1309,-1.5969,-0.2224
1366931.0,-0.3136,0.4405,5.6024,-0.1415,-1.4069,-0.2128
1366941.0,-0.1197,0.3783,5.9017,-0.0846,-1.1957,-0.2182
1366951.0,-0.0455,0.5602,6.3734,-0.0208,-1.0179,-0.2219
1366961.0,0.0311,0.747,6.9336,-0.0016,-0.9046,-0.215
1366971.0,0.0622,0.5842,7.6782,0.0282,-0.8455,-0.19
1366981.0,0.2131,0.5866,7.7237,0.1517,-0.8184,-0.1564
1366991.0,0.3208,0.6297,7.5082,0.2246,-0.7833,-0.1288
1367001.0,0.3926,0.3998,7.6423,0.1788,-0.7418,-0.1171
1367011.0,0.4286,0.5267,7.8721,0.1043,-0.704,-0.1298
1367021.0,0.4022,0.8882,8.2073,0.008,-0.68,-0.1442
1367031.0,0.4214,1.3216,8.3486,-0.1016,-0.6992,-0.1415
1367041.0,0.407,1.324,8.6143,-0.2171,-0.7285,-0.1155
1367051.0,0.3615,0.7685,9.1339,-0.2437,-0.763,-0.0745
1367061.0,0.5842,0.2203,8.7771,-0.0165,-0.8301,-0.0261
1367071.0,1.0175,0.0407,7.7045,0.4028,-0.7811,0.0101
1367081.0,1.0391,0.1317,7.1395,0.7854,-0.5805,0.0261
1367091.0,0.7254,0.2155,7.3215,0.9897,-0.4214,0.0192
1367101.0,0.668,0.249,7.0916,1.011,-0.4172,-0.0101
1367111.0,0.9002,0.1245,6.8378,0.8886,-0.48,-0.0649
1367121.0,1.1971,0.158,6.62,0.7657,-0.5358,-0.1352
1367131.0,1.6568,0.182,6.4524,0.7221,-0.5816,-0.1985
1367141.0,2.308,0.2873,5.7269,0.7492,-0.6673,-0.2554
1367151.0,1.6783,0.5602,4.3096,0.5997,-0.8673,-0.3304
1367161.0,1.9656,0.656,2.8539,0.0857,-1.2302,-0.4305
1367171.0,1.0032,1.5538,-3.6847,-0.6226,-1.7608,-0.4486
1367181.0,4.6064,-0.4214,-7.9511,-1.6128,-2.0492,-0.597
1367191.0,6.3829,0.9553,-11.7148,-1.7602,-1.1265,-0.7412
1367201.0,-1.3982,3.2154,-13.5991,-1.8033,-0.1719,-0.6896
1367211.0,1.9992,3.5171,-19.0363,-1.6288,0.3986,-0.4762
1367221.0,3.0478,5.8538,-24.3969,-0.5481,2.7292,-0.1836
1367231.0,-3.2226,5.3295,-14.8536,0.7497,6.1134,0.248
1367241.0,-7.2257,2.229,-7.1658,2.4536,8.5702,0.7519
1367251.0,-15.4594,-0.0527,1.0319,3.3832,10.1469,0.8897
1367261.0,-9.4978,-3.0981,13.9702,3.8057,11.5782,0.7199
1367271.0,-27.4304,1.6807,30.2627,3.5194,12.3322,0.1612
1367281.0,-18.9956,2.1715,48.4108,1.8294,10.3107,-0.2139
1367291.0,-17.6237,4.0151,55.2486,0.0883,6.943,-0.5816
1367301.0,-19.3188,4.5298,51.4251,-1.0115,3.1453,-0.7168
1367311.0,-14.1737,6.5697,43.9216,-1.4931,0.7231,-0.6348
1367321.0,-13.0125,5.9113,36.6337,-2.3062,-1.4638,-0.5002
1367331.0,-9.3111,5.7533,24.7058,-2.1705,-2.4456,-0.2198
1367341.0,-8.4013,3.6703,21.7082,-1.8581,-2.0864,0.0239
1367351.0,-8.1307,3.6464,18.0379,-1.0073,-1.525,0.2538
1367361.0,-7.908,2.7126,18.354,-0.721,-1.1967,0.4103
1367371.0,-7.2401,2.2505,17.7386,-0.5843,-1.1696,0.4997
1367381.0,-6.8019,1.2785,17.8272,-0.6933,-1.3388,0.5156
1367391.0,-6.3686,0.9912,16.9462,-0.7551,-1.6049,0.4725
1367401.0,-6.2896,0.8116,15.3037,-0.8317,-1.9348,0.4124
1367411.0,-5.6671,0.5291,13.0676,-0.9227,-2.2359,0.3469
1367421.0,-4.8291,-0.261,11.054,-0.9147,-2.3461,0.2863
1367431.0,-3.9959,-0.7111,9.1411,-0.8221,-2.3009,0.2017
1367441.0,-3.2394,-1.3503,7.9152,-0.7428,-2.1726,0.0958
1367451.0,-2.7246,-1.1109,6.6607,-0.687,-2.013,-0.0372
1367461.0,-2.4229,-0.7326,6.2824,-0.7072,-1.7868,-0.1548
1367471.0,-1.9848,-0.6249,6.1699,-0.6923,-1.5665,-0.2325
1367481.0,-1.9034,-0.6416,7.0749,-0.5848,-1.2962,-0.281
1367491.0,-1.9297,-0.2251,7.7069,-0.3379,-1.0908,-0.3006
1367501.0,-1.9273,0.2658,8.2648,-0.1479,-0.9828,-0.3006
1367511.0,-1.98,0.6033,8.9471,-0.1128,-0.9615,-0.2873
1367521.0,-2.1069,0.5291,9.4212,-0.2474,-1.077,-0.2772
1367531.0,-1.8387,0.1341,9.8617,-0.4624,-1.2829,-0.2826
1367541.0,-1.7166,-0.2227,9.9479,-0.5603,-1.4654,-0.3006
1367551.0,-1.5658,-0.3472,9.6534,-0.5662,-1.6378,-0.3278
1367561.0,-1.3527,-0.3136,8.9711,-0.5013,-1.7677,-0.3544
1367571.0,-1.1181,0.012,7.7716,-0.3975,-1.8688,-0.373
1367581.0,-0.8787,0.4262,6.7205,-0.3022,-1.8496,-0.3773
1367591.0,-0.6273,0.5411,6.268,-0.1639,-1.6905,-0.3485
1367601.0,-0.4214,0.1772,6.438,-0.0096,-1.4809,-0.3065
1367611.0,-0.3519,-0.0455,6.9623,0.0894,-1.3207,-0.2889
1367621.0,-0.2945,-0.3759,7.8961,0.0889,-1.2723,-0.2964
1367631.0,-0.1796,-0.5195,8.5449,0.1155,-1.3228,-0.3161
1367641.0,-0.2394,-0.4022,8.7053,0.2001,-1.4191,-0.332
1367651.0,-0.0383,-0.3256,8.3007,0.3006,-1.5516,-0.331
1367661.0,0.1891,-0.7374,7.2616,0.3496,-1.6793,-0.3283
1367671.0,0.6416,-1.221,6.2082,0.323,-1.7411,-0.3624
1367681.0,1.008,-1.4078,5.3846,0.2554,-1.6746,-0.4369
1367691.0,1.257,-1.5921,5.521,0.2214,-1.5128,-0.5209
1367701.0,1.5419,-2.0351,6.2177,0.3358,-1.3149,-0.5954
1367711.0,1.9273,-2.2362,6.4524,0.6673,-1.1547,-0.6683
1367721.0,2.3056,-2.229,6.7732,1.0626,-0.9913,-0.7551
1367731.0,2.3296,-1.6209,6.9983,1.4016,-0.8652,-0.853
1367741.0,1.889,-0.431,7.0366,1.4511,-0.919,-0.9557
1367751.0,1.5993,1.3791,5.6958,1.0887,-1.2207,-1.0328
1367761.0,1.3815,3.1005,3.1292,0.2586,-1.6346,-1.0738
1367771.0,4.4867,4.4365,0.4262,-0.8195,-1.9587,-1.061
1367781.0,-0.1508,6.4691,-1.3503,-1.7991,-1.9103,-0.9424
1367791.0,2.0686,6.754,-4.3718,-2.6047,-2.0859,-0.6651
1367801.0,2.296,7.2065,-8.2887,-3.0001,-1.8613,-0.3911
1367811.0,0.0,8.4851,-10.7715,-3.0394,-1.2233,-0.0644
1367821.0,-0.2921,9.0381,-15.536,-2.8543,-0.6838,0.3735
1367831.0,-0.328,8.3917,-20.3794,-2.3541,0.4092,0.8987
1367841.0,-1.2785,4.6902,-21.6077,-1.4968,2.3354,1.4521
1367851.0,-2.0853,-1.1205,-17.4633,-0.2022,4.897,1.831
1367861.0,-6.0956,-5.0805,-7.106,1.425,7.5576,1.8656
1367871.0,-13.2735,-5.8945,4.1324,2.9814,9.3258,1.6676
1367881.0,-12.3397,-8.5377,17.9469,4.2894,10.2091,1.1957
1367891.0,-15.3971,-5.0853,25.4408,4.8523,10.1703,0.5135
1367901.0,-16.8049,-1.8531,35.9178,3.563,8.7389,-0.2772
1367911.0,-9.4236,2.1644,41.0294,1.6304,6.313,-0.9019
1367921.0,-13.8816,6.0118,45.9759,-0.1687,4.1052,-1.086
1367931.0,-11.6454,6.7684,42.6312,-0.564,1.7655,-0.7833
1367941.0,-8.5473,5.9855,36.4661,-0.5763,0.157,-0.3815
1367951.0,-7.0581,5.0757,30.2148,-0.2666,-0.5279,-0.0043
1367961.0,-6.043,2.9904,26.6307,0.0463,-0.6087,0.299
1367971.0,-5.9807,0.2825,26.5301,0.3166,-0.4443,0.4581
1367981.0,-6.4691,-0.9433,26.827,0.6247,-0.4874,0.4619
1367991.0,-6.6056,-1.4557,25.9723,0.7226,-0.8902,0.3602
1368001.0,-5.964,-1.1013,23.6092,0.4746,-1.499,0.1671
1368011.0,-5.6647,0.2562,21.6005,-0.017,-2.0034,-0.0633
1368021.0,-5.5713,2.15,19.8479,-0.4715,-2.3998,-0.2139
1368031.0,-5.3558,3.6966,17.6955,-0.7625,-2.7404,-0.2176
1368041.0,-4.9129,4.0438,15.4043,-0.9275,-3.007,-0.0942
1368051.0,-3.96,3.3662,12.5432,-0.9381,-3.1512,0.0846
1368061.0,-3.1388,1.5107,10.5896,-0.8689,-3.0522,0.2347
1368071.0,-2.3367,-0.8212,9.4164,-0.7274,-2.842,0.2879
1368081.0,-1.6759,-2.5402,8.3773,-0.5811,-2.6536,0.1937
1368091.0,-1.4078,-3.2729,7.944,-0.4821,-2.4568,-0.0154
1368101.0,-1.1899,-2.3727,7.3933,-0.4278,-2.3115,-0.2692
1368111.0,-1.0918,-0.6919,7.1251,-0.4523,-2.2051,-0.4778
1368121.0,-0.8859,1.2929,6.8307,-0.455,-2.0705,-0.5688
1368131.0,-0.9337,2.8036,7.1204,-0.4821,-1.9353,-0.5364
1368141.0,-0.9074,3.6296,7.2592,-0.48,-1.8518,-0.4012
1368151.0,-0.7614,3.5123,7.0797,-0.5039,-1.8555,-0.2155
1368161.0,-0.3328,2.7126,6.5362,-0.514,-1.8821,-0.0362
1368171.0,0.1987,1.5347,6.0597,-0.4198,-1.8007,0.1
1368181.0,0.5363,0.7254,5.612,-0.2405,-1.624,0.1697
1368191.0,0.5986,0.0718,5.7221,-0.1266,-1.4356,0.1777
1368201.0,0.8068,-0.3687,5.7868,-0.0729,-1.3196,0.1415
1368211.0,1.0487,-0.1317,5.6719,-0.0942,-1.2478,0.0628
1368221.0,1.2378,0.6393,5.7197,-0.1969,-1.1845,-0.0149
1368231.0,1.3886,1.5083,6.019,-0.2613,-1.0898,-0.0351
1368241.0,1.2594,1.7166,6.8187,-0.2512,-0.9764,0.0133
1368251.0,1.3958,1.3479,7.0868,-0.1383,-0.9642,0.1054
1368261.0,1.9393,0.7159,6.8881,0.0495,-0.9381,0.1942
1368271.0,2.1165,0.0646,7.2903,0.2815,-0.7881,0.2501
1368281.0,2.3918,-0.6488,8.2672,0.4997,-0.6721,0.265
1368291.0,2.4565,-0.9266,9.2871,0.6758,-0.646,0.2325
1368301.0,2.3631,-0.6249,9.9024,0.7423,-0.7827,0.1708
1368311.0,2.2745,0.091,9.2416,0.6827,-1.044,0.1149
1368322.0,2.5953,0.6057,7.6088,0.4135,-1.3388,0.0782
1368331.0,3.1699,0.6656,5.8155,-0.0303,-1.5272,0.0516
1368341.0,3.4836,0.3879,5.2098,-0.4699,-1.4883,0.0309
1368351.0,3.4812,-0.1604,5.5234,-0.6816,-1.3675,0.0298
1368361.0,3.7924,-0.2993,4.7836,-0.6024,-1.3266,0.0468
1368371.0,3.9504,0.0814,2.5809,-0.4369,-1.2579,0.0644
1368381.0,4.3766,0.7518,-0.0215,-0.4464,-1.1361,0.067
1368391.0,4.5298,2.1668,-2.2769,-0.6981,-0.9083,0.0479
1368401.0,3.5913,4.5897,-4.7764,-1.2654,-0.7386,0.0415
1368411.0,4.9704,5.7748,-7.6519,-2.2423,-0.8322,0.1229
1368421.0,2.2841,7.525,-8.9591,-2.9287,-0.5513,0.3209
1368431.0,0.8547,7.1754,-11.7699,-2.8798,-0.1298,0.7444
1368441.0,2.6719,5.9831,-18.907,-2.1258,0.5566,1.2143
1368451.0,1.7262,3.3495,-20.6189,-0.9786,2.7335,1.6618
1368461.0,-2.1715,-1.2115,-13.0292,0.1586,5.3685,1.9699
1368471.0,-5.9975,-5.6216,-2.0518,1.5229,7.3437,2.0407
1368481.0,-11.2743,-6.2513,7.853,2.9793,8.4553,1.8587
1368491.0,-4.4436,-7.1323,13.6805,4.1542,8.7964,1.4745
1368501.0,-11.0852,-4.0893,20.4225,4.3633,9.2439,0.8397
1368511.0,-15.0308,-1.2091,34.9937,3.132,8.6953,0.257
1368521.0,-12.402,2.1524,39.1811,1.8438,6.5503,-0.1586
1368531.0,-11.6358,3.2825,41.707,0.2246,4.3149,-0.3512
1368541.0,-9.8785,4.0294,39.6192,-0.8205,2.304,-0.3187
1368551.0,-8.8562,2.4421,36.4661,-1.276,0.8375,-0.1548
1368561.0,-7.1611,-0.1269,31.9913,-1.0477,-0.0527,0.0186
1368571.0,-6.4404,-1.743,29.1901,-0.4156,-0.3693,0.074
1368581.0,-6.3542,-0.5004,26.6068,0.332,-0.4379,0.0447
1368591.0,-6.6822,0.9074,25.6204,0.5864,-0.6093,0.0149
1368601.0,-6.6415,1.8794,24.9021,0.3544,-1.0179,0.0074
1368611.0,-6.5362,1.9489,24.2485,-0.125,-1.5703,0.0074
1368621.0,-6.3135,1.9704,22.9412,-0.5917,-2.2008,0.008
1368631.0,-6.2153,1.7214,20.8008,-1.0211,-2.8707,0.0059
1368641.0,-5.5617,0.7015,17.5351,-1.3021,-3.5157,0.0117
1368651.0,-4.4748,-0.2658,13.1897,-1.3372,-3.9153,-0.0059
1368661.0,-3.4884,-0.7183,9.6127,-1.21,-3.9084,-0.0569
1368671.0,-2.7749,-0.4884,7.4316,-0.9903,-3.637,-0.1144
1368681.0,-2.3104,-0.1197,6.5912,-0.7077,-3.2714,-0.1293
1368691.0,-1.9345,-0.0718,6.1483,-0.4001,-2.9357,-0.0995
1368701.0,-1.3958,-0.1508,5.7557,-0.1905,-2.7063,-0.0665
1368711.0,-0.9098,-0.1221,5.5593,-0.1123,-2.4929,-0.0521
1368721.0,-0.5435,-0.067,5.8538,-0.2102,-2.37,-0.0718
1368731.0,-0.2442,0.2083,5.9975,-0.4033,-2.3519,-0.1043
1368741.0,0.261,0.5555,5.8299,-0.5763,-2.4206,-0.1203
1368751.0,0.838,0.7901,4.7645,-0.597,-2.453,-0.0931
1368761.0,1.4389,0.5459,3.6655,-0.5225,-2.3392,-0.0367
1368771.0,2.0734,-0.0455,3.1867,-0.4294,-2.1183,0.0149
1368781.0,2.4876,-0.6321,3.1268,-0.281,-1.8326,0.0458
1368791.0,2.818,-0.9625,3.1077,-0.1032,-1.5639,0.0415
1368801.0,3.0837,-1.1875,3.2082,0.0138,-1.318,0.0117
1368811.0,3.2705,-1.2186,3.723,0.042,-1.102,-0.0383
1368821.0,3.2154,-0.9313,4.288,0.0931,-0.9259,-0.0873
1368831.0,3.1843,-0.4046,4.7573,0.1974,-0.7646,-0.108
1368841.0,3.1627,-0.2418,5.4157,0.3166,-0.597,-0.0921
1368851.0,2.9568,-0.1006,6.4356,0.4108,-0.4581,-0.0692
1368861.0,2.6432,0.012,7.3981,0.4518,-0.4353,-0.0442
1368871.0,2.5618,-0.0239,7.7261,0.4581,-0.514,-0.0181
1368881.0,2.5833,-0.3735,7.8506,0.4135,-0.6173,-0.008
1368891.0,2.5331,-0.7685,7.9655,0.3464,-0.7322,-0.0255
1368901.0,2.3248,-1.0056,8.0158,0.3241,-0.8705,-0.0702
1368911.0,2.1955,-1.0175,7.4244,0.3826,-1.0717,-0.1235
1368921.0,2.4157,-0.6273,5.624,0.4677,-1.293,-0.1857
1368931.0,2.2745,0.6345,2.7174,0.3911,-1.4665,-0.2591
1368941.0,3.9265,1.81,-0.7278,-0.0803,-1.6511,-0.3193
1368951.0,1.8627,3.8283,-3.9504,-0.9115,-1.6852,-0.3539
1368961.0,3.9361,4.2306,-6.4093,-2.0758,-1.831,-0.3139
1368971.0,-1.506,6.9935,-12.6629,-2.817,-1.7086,-0.1559
1368981.0,4.0414,4.6591,-16.2471,-3.422,-1.3548,0.1165
1368991.0,2.9209,6.9695,-18.4737,-2.7808,0.2517,0.3544
1369001.0,-0.4166,5.4923,-16.6493,-1.6458,1.8448,0.8099
1369011.0,0.1796,2.2075,-18.1911,-0.7024,2.8388,1.2255
1369021.0,-1.494,0.2155,-16.4051,0.2192,4.3921,1.3904
1369031.0,-3.869,-1.3599,-11.5113,1.376,6.1039,1.4426
1369041.0,-6.857,-2.5426,-4.5274,2.569,7.7124,1.4186
1369051.0,-9.6941,-3.948,4.4772,3.8488,9.0363,1.2819
1369061.0,-15.4641,-2.0877,10.6566,4.7071,9.8414,1.0073
1369071.0,-8.8609,-3.5386,18.919,4.0531,9.8925,0.6524
1369081.0,-16.9198,-1.4557,29.6354,3.181,9.7935,0.1602
1369091.0,-17.7626,-0.5243,41.0079,2.1263,8.6819,-0.1415
1369101.0,-14.8249,2.0877,42.8658,1.2095,6.604,-0.3379
1369111.0,-14.8057,1.0199,46.663,0.2964,4.8795,-0.4757
1369121.0,-11.6669,1.561,48.7531,-0.0309,3.4348,-0.4204
1369131.0,-12.9957,-0.6584,47.8816,-0.0234,1.6304,-0.3911
1369141.0,-10.5824,1.2761,41.0989,0.2836,0.1155,-0.4081
1369151.0,-10.2352,1.7717,37.1867,0.0394,-1.0493,-0.4603
1369161.0,-8.7867,3.0071,31.2802,0.0415,-1.7107,-0.4363
1369171.0,-8.8992,3.1484,29.7551,-0.2304,-2.0162,-0.4081
1369181.0,-8.8681,3.6703,27.258,-0.3294,-2.4392,-0.3315
1369191.0,-8.3821,2.7869,24.8494,-0.539,-3.0059,-0.2357
1369201.0,-7.3167,1.8794,21.0738,-0.679,-3.5205,-0.1788
1369211.0,-6.6559,1.0439,18.1792,-0.8679,-3.8349,-0.1985
1369221.0,-5.9975,0.5602,15.2894,-0.9711,-4.0393,-0.2512
1369231.0,-5.3463,0.4621,12.0692,-1.0334,-4.1962,-0.3171
1369241.0,-4.276,0.4549,9.3685,-1.0121,-4.1542,-0.3847
1369251.0,-3.304,0.8763,7.0964,-0.8822,-3.885,-0.4246
1369261.0,-2.9018,1.0199,6.6343,-0.7519,-3.4736,-0.4299
1369271.0,-2.6025,0.8715,6.6056,-0.6157,-3.1703,-0.4044
1369281.0,-1.9944,0.8284,6.1842,-0.4975,-3.0048,-0.3789
1369291.0,-1.3024,0.7422,5.7509,-0.4071,-2.8409,-0.357
1369301.0,-0.9002,0.6297,5.7221,-0.2953,-2.6105,-0.3326
1369311.0,-0.7302,0.5171,5.6503,-0.2166,-2.4456,-0.3145
1369321.0,-0.2969,-0.0718,5.6814,-0.2086,-2.3386,-0.306
1369331.0,0.2179,-0.6488,5.703,-0.1995,-2.2173,-0.3304
1369341.0,0.4238,-0.6728,6.3039,-0.1676,-2.072,-0.3922
1369351.0,1.1636,-0.1293,6.9695,-0.0649,-1.955,-0.4459
1369361.0,-0.431,1.4629,9.3182,0.0873,-1.831,-0.4874
1369371.0,-0.7973,2.897,7.7764,0.1612,-2.0502,-0.3507
1369381.0,1.4748,1.5969,6.4452,-0.2341,-2.5126,-0.2565
1369391.0,2.4229,2.4756,3.5841,-0.166,-2.3019,-0.2134
1369401.0,2.3176,1.4868,4.9273,-0.3512,-1.8241,-0.1309
1369411.0,2.0518,0.6369,6.8522,-0.5539,-1.6586,-0.1016
1369421.0,2.3631,-0.0479,7.4124,-0.6167,-1.7618,-0.1064
1369431.0,2.9521,-0.4238,6.6774,-0.5177,-1.8667,-0.132
1369441.0,3.304,0.0431,5.7197,-0.2724,-1.757,-0.1666
1369451.0,3.146,0.826,5.1906,-0.0623,-1.5671,-0.1772
1369461.0,3.2346,1.4365,4.5825,0.0128,-1.4442,-0.1437
1369471.0,3.6009,1.5443,4.0103,-0.0027,-1.3159,-0.0782
1369481.0,4.027,1.4198,3.4309,-0.0814,-1.1547,-0.0181
1369491.0,4.3024,1.1636,3.4069,-0.2091,-0.9525,0.0261
1369501.0,4.1827,1.0894,3.5291,-0.3219,-0.7721,0.0564
1369511.0,4.2737,0.9481,3.3854,-0.4326,-0.7194,0.0899
1369521.0,4.4867,0.7829,2.818,-0.4544,-0.646,0.125
1369531.0,4.3,0.9505,2.1668,-0.4294,-0.53,0.1527
1369541.0,4.1899,1.2306,1.1037,-0.4401,-0.473,0.1852
1369551.0,4.3958,1.3072,-0.6369,-0.547,-0.4661,0.2192
1369561.0,4.6639,1.7669,-1.585,-0.6933,-0.3358,0.2368
1369571.0,4.0941,2.332,-3.7852,-0.8046,-0.1836,0.3097
1369581.0,4.2186,1.9896,-4.47,-1.1137,-0.1245,0.356
1369591.0,3.6176,3.0095,-7.1204,-1.1765,0.1043,0.4182
1369601.0,4.5107,2.8012,-7.5585,-1.4239,0.2873,0.4938
1369611.0,0.1173,4.9129,-7.9296,-1.0334,0.6875,0.622
1369621.0,1.2905,4.0917,-15.2726,-0.4959,0.8567,0.9642
1369631.0,1.7526,3.1125,-18.4114,-0.4997,1.6799,1.1222
1369641.0,-2.2458,2.9951,-16.7977,0.0937,3.5199,1.2872
1369651.0,-3.7206,0.8021,-14.303,0.5055,4.698,1.4521
1369661.0,-5.5761,-0.5339,-11.5927,0.8455,5.7931,1.4638
1369671.0,-8.0349,-1.8699,-6.0717,1.1584,6.8616,1.4106
1369681.0,-10.0652,-1.7597,-0.6033,1.889,7.7923,1.3367
1369691.0,-14.516,-1.3455,4.9464,3.0086,8.8011,1.2749
1369701.0,-14.7004,-1.7502,8.6215,3.6402,9.3013,1.1526
1369711.0,-16.3955,-1.3623,16.1968,3.4428,9.7595,0.8136
1369721.0,-19.4146,-1.5778,25.5916,2.4429,9.7196,0.5608
1369731.0,-20.4178,-1.2546,32.3648,1.3234,8.5143,0.281
1369741.0,-17.4082,-2.0279,36.9761,0.6332,7.2734,-0.0032
1369751.0,-17.4537,-0.2251,42.6982,0.1841,6.4785,-0.1022
1369761.0,-18.5215,0.2251,47.6063,-0.2187,4.6283,-0.1314
1369771.0,-15.1601,1.9225,40.6081,-0.1059,2.436,0.0048
1369781.0,-13.2926,0.4357,35.7239,-0.4624,1.0727,0.1006
1369791.0,-12.2056,0.1149,30.0065,-0.5816,0.3991,0.1235
1369801.0,-11.6909,-1.3072,27.8781,-0.9275,-0.0601,0.0772
1369811.0,-10.4076,-1.0223,24.0617,-0.9605,-0.4438,0.0085
1369821.0,-9.5553,-0.5124,22.9221,-0.9104,-0.4017,-0.0383
1369831.0,-9.6606,-0.5028,23.8941,-0.6981,-0.232,-0.0186
1369841.0,-9.7157,-1.743,25.5964,-0.414,-0.3794,0.0218
1369851.0,-8.9328,-3.5003,25.3929,-0.1091,-0.8939,-0.0032
1369861.0,-8.3055,-4.2258,24.3179,-0.0144,-1.5133,-0.1772
1369871.0,-8.0709,-3.1795,22.788,-0.1862,-2.1817,-0.4491
1369881.0,-8.0637,-2.083,20.9708,-0.5491,-2.8771,-0.6971
1369891.0,-8.09,-1.3527,18.2342,-0.9684,-3.5875,-0.8955
1369901.0,-7.8913,-0.9936,14.4969,-1.392,-4.2372,-1.0621
1369911.0,-7.0701,-0.5962,10.4459,-1.6793,-4.5932,-1.1909
1369921.0,-6.5625,-0.2035,7.9607,-1.7464,-4.5426,-1.2893
1369931.0,-6.2441,0.237,6.4021,-1.5027,-4.2766,-1.318
1369941.0,-5.8131,0.6153,5.4827,-1.0946,-4.0116,-1.2835
1369951.0,-4.7285,1.0127,4.1587,-0.5539,-3.7487,-1.1845
1369961.0,-3.6871,1.0487,3.4093,-0.0479,-3.4034,-1.0413
1369971.0,-3.2346,0.4908,3.5147,0.3113,-3.0176,-0.8924
1369981.0,-3.0047,-0.2298,4.4293,0.3821,-2.7829,-0.7939
1369991.0,-2.8108,-0.7901,5.0422,0.1697,-2.8346,-0.7779
1370001.0,-2.5546,-1.4389,5.2672,-0.1277,-3.0245,-0.8232
1370011.0,-2.1141,-1.6257,4.3239,-0.2687,-3.2475,-0.9003
1370021.0,-1.2809,-1.549,2.6169,-0.1809,-3.3209,-0.9706
1370031.0,-0.5052,-1.0846,0.3615,0.0165,-3.1991,-1.0275
1370041.0,0.1676,-0.7207,-1.2594,0.0984,-2.9192,-1.0722
1370051.0,0.7925,-0.4597,-1.9632,0.1208,-2.4674,-1.1025
1370061.0,1.142,-0.2107,-1.2546,0.0782,-1.9986,-1.1275
1370071.0,1.4341,0.4741,-0.1748,0.0921,-1.6022,-1.1291
1370081.0,1.6568,0.8092,1.5107,0.1772,-1.2526,-1.0701
1370091.0,1.573,0.249,3.6296,0.3272,-1.0679,-0.97
1370101.0,1.8603,-0.4501,4.4221,0.6891,-1.0775,-0.8663
1370111.0,2.3798,-1.1277,4.5633,1.2239,-1.0621,-0.7907
1370121.0,2.8587,-1.1851,3.8882,1.7911,-1.0073,-0.7508
1370131.0,3.3662,-0.6728,1.901,2.0864,-1.0264,-0.7529
1370141.0,3.8403,0.0407,-0.656,1.8395,-1.0211,-0.8046
1370151.0,4.0127,0.237,-1.5634,1.144,-0.8594,-0.8897
1370161.0,3.735,-0.079,-1.4437,0.423,-0.6588,-0.9876
1370171.0,3.8211,-0.6105,-0.8332,-0.0037,-0.4172,-1.0754
1370181.0,3.6919,-1.0798,0.0814,-0.0325,-0.133,-1.1552
1370191.0,3.2178,-0.984,0.2274,0.241,0.0394,-1.2409
1370201.0,3.1149,0.2442,-1.6879,0.6439,0.1346,-1.3031
1370211.0,5.5354,1.1636,-4.5849,0.8104,0.2554,-1.3282
1370221.0,3.3112,1.7813,-3.5985,0.7199,0.7237,-1.3255
1370231.0,1.9632,3.644,-8.3055,0.5225,0.7482,-1.2127
1370241.0,4.0821,3.7709,-12.3182,-0.4778,0.6274,-1.2233
1370251.0,0.9385,3.9744,-13.6422,-0.8035,1.6905,-1.1153
1370261.0,1.1109,2.9904,-15.8688,-0.7785,2.3493,-0.9477
1370271.0,0.5004,2.9018,-18.761,-0.1751,3.6455,-0.8397
1370281.0,-3.6033,5.1643,-15.4139,0.6188,5.6569,-0.7412
1370291.0,-7.3933,6.1986,-10.2879,1.3968,7.1436,-0.5146
1370301.0,-10.2999,5.7317,-5.7988,2.1359,8.3409,-0.2363
1370311.0,-13.4674,2.3942,3.3184,2.6159,9.5583,-0.0442
1370321.0,-17.5351,-1.0534,13.465,3.3087,10.5326,-0.0495
1370331.0,-21.1456,-3.3255,23.9468,3.5178,10.6758,-0.4252
1370341.0,-16.1728,-4.9464,33.2363,2.9362,9.6408,-1.0754
1370351.0,-21.0857,-2.0662,39.6935,2.2375,8.1073,-1.8267
1370361.0,-21.0977,4.8746,43.7636,1.5633,6.2427,-2.3381
1370371.0,-20.2166,12.1578,41.2928,0.9296,4.1877,-2.486
1370381.0,-18.7945,15.5575,38.4748,-0.0607,2.6446,-2.2742
1370391.0,-18.014,14.7794,38.5562,-1.1079,1.583,-1.8927
1370401.0,-17.8799,12.2894,38.1396,-1.4633,0.6242,-1.4463
1370411.0,-16.8288,10.5943,35.1062,-1.251,-0.4156,-1.0382
1370421.0,-15.5551,10.4339,30.9977,-0.6194,-1.1047,-0.6747
1370431.0,-14.8225,11.2934,26.9635,0.1634,-1.3691,-0.3124
1370441.0,-14.0492,11.7723,23.966,0.6039,-1.5224,0.0495
1370451.0,-12.9047,10.9056,22.5989,0.5459,-1.7379,0.3821
1370461.0,-11.9902,9.2105,22.1416,0.298,-2.0013,0.6502
1370471.0,-11.212,7.3957,21.6388,0.0261,-2.4179,0.8439
1370481.0,-10.3573,5.3175,19.9605,-0.2315,-3.0134,0.9684
1370491.0,-9.1698,3.3639,16.9007,-0.4087,-3.6051,1.0174
1370501.0,-7.8195,1.6999,13.4746,-0.5177,-3.9488,0.9855
1370511.0,-6.6128,0.6752,10.7691,-0.5768,-3.9988,0.8833
1370521.0,-5.8179,0.1293,9.2656,-0.6449,-3.8802,0.7391
1370531.0,-5.0805,-0.5842,9.2249,-0.696,-3.7163,0.5912
1370541.0,-4.6974,-1.1037,9.3877,-0.6316,-3.6146,0.4331
1370551.0,-4.4652,-0.7638,9.0214,-0.5454,-3.637,0.2698
1370561.0,-4.1252,-0.1125,7.8243,-0.5502,-3.753,0.1405
1370571.0,-3.4357,0.34,6.0789,-0.6188,-3.8408,0.0543
1370581.0,-2.806,0.5004,4.2425,-0.7258,-3.7945,-0.009
1370591.0,-2.3607,0.6823,3.2633,-0.878,-3.6184,-0.0644
1370601.0,-2.059,0.7159,3.0335,-0.9844,-3.381,-0.1016
1370611.0,-1.5658,0.1389,3.1484,-0.9738,-3.157,-0.116
1370621.0,-0.8835,-0.2346,3.043,-0.7966,-2.9261,-0.1394
1370631.0,-0.486,-0.1365,2.8754,-0.5582,-2.668,-0.1745
1370641.0,0.0359,-0.158,2.8132,-0.3358,-2.4259,-0.1948
1370651.0,0.4501,-0.1125,2.6887,-0.1272,-2.1801,-0.2187
1370661.0,0.6895,0.3256,2.6456,0.0223,-1.9459,-0.2474
1370671.0,0.929,0.4597,2.964,0.0952,-1.7448,-0.2639
1370681.0,1.0798,0.6584,3.2106,0.1442,-1.5591,-0.2778
1370691.0,1.1181,1.154,3.4117,0.0782,-1.4543,-0.3038
1370701.0,1.154,1.7813,3.1268,-0.0851,-1.4058,-0.3129
1370711.0,1.4269,1.9728,2.8874,-0.331,-1.3665,-0.3017
1370721.0,1.6855,1.9297,2.5379,-0.5417,-1.2664,-0.2799
1370731.0,1.9034,1.1325,3.2417,-0.6753,-1.0775,-0.2575
1370741.0,1.8914,0.4741,4.0917,-0.5555,-0.9073,-0.2522
1370751.0,1.9704,0.4262,4.1707,-0.2176,-0.8046,-0.2703
1370761.0,2.1644,0.4741,3.869,0.2006,-0.6774,-0.2895
1370771.0,2.3535,0.8763,3.3519,0.5321,-0.5603,-0.3336
1370781.0,2.3487,1.7382,2.5809,0.6481,-0.4773,-0.4055
1370791.0,5.1332,1.2905,2.8467,0.489,-0.4379,-0.4879
1370801.0,0.2298,3.2178,3.9145,0.4028,-0.2501,-0.5741
1370811.0,1.731,2.6839,1.6472,-0.042,-0.646,-0.5103
1370821.0,3.6536,2.9281,0.1484,-0.3102,-0.812,-0.6332
1370831.0,1.1875,4.8339,-1.3575,0.107,-0.1421,-0.6215
1370841.0,0.7661,5.126,-3.3016,-0.1064,-0.1575,-0.5023
1370851.0,2.1069,5.4348,-6.6152,-0.547,-0.2208,-0.4299
1370861.0,-2.964,7.944,-13.5727,-1.0254,0.1713,-0.3155
1370871.0,-2.964,7.944,-13.5727,-1.0254,0.1713,-0.3155
1370881.0,2.1452,7.3933,-22.0434,-2.2189,2.1923,0.0415
1370891.0,2.1452,7.3933,-22.0434,-2.2189,2.1923,0.0415
1370901.0,-0.9984,4.5657,-13.9103,-1.6442,4.8577,0.4108
1370911.0,-4.8626,2.3703,-4.2545,-0.2932,6.9914,0.7322
1370921.0,-11.6478,1.901,12.5983,1.5197,8.1413,0.8817
1370931.0,-11.6478,1.901,12.5983,1.5197,8.1413,0.8817
1370941.0,-8.5162,1.3671,20.5877,1.5905,7.7694,0.762
1370951.0,-11.9973,4.197,24.9572,1.8108,7.1718,0.7301
1370961.0,-10.5393,3.1627,24.3011,1.3026,5.344,0.7508
1370971.0,-7.4316,2.2434,15.4234,0.8163,3.9759,0.7279
1370981.0,-6.4165,-0.8045,14.1138,0.2288,4.2553,0.5805
1370991.0,-7.4962,-2.9544,18.8328,0.265,5.3339,0.3342
1371001.0,-11.3916,-3.6583,30.6937,0.5624,6.0645,-0.0287
1371011.0,-12.3062,-0.4525,38.4006,1.0014,5.2839,-0.414
1371021.0,-13.2758,4.3096,42.2481,1.1957,3.5311,-0.6667
1371031.0,-12.5169,9.3374,39.2027,1.5186,1.516,-0.6332
1371041.0,-11.3294,13.2447,31.7399,1.6613,-0.1809,-0.3608
1371051.0,-10.2448,14.9925,24.191,1.4351,-1.1552,0.0543
1371061.0,-9.481,13.7044,18.7203,0.8806,-1.6043,0.497
1371071.0,-8.758,10.817,14.7411,0.3171,-1.7246,0.8391
1371081.0,-7.4723,7.7045,12.7156,-0.0899,-1.5814,1.0163
1371091.0,-6.6798,5.2553,13.9151,-0.1272,-1.0882,1.0504
1371101.0,-7.2185,4.9704,17.4178,0.1038,-0.6417,0.9855
1371111.0,-8.4132,6.5673,20.9421,0.2043,-0.8253,0.9147
1371121.0,-8.7987,8.0517,21.3563,0.108,-1.7123,0.9615
1371131.0,-8.1594,8.5329,18.567,0.0016,-2.751,1.1377
1371141.0,-7.1778,8.078,14.5615,0.0729,-3.3975,1.3925
1371151.0,-6.8331,7.3741,10.9223,0.2448,-3.6099,1.6666
1371161.0,-6.4165,5.6072,8.3199,0.3171,-3.6647,1.9289
1371171.0,-5.296,3.0789,5.6264,0.3272,-3.6604,2.1167
1371181.0,-4.1084,-0.1221,4.2497,0.2703,-3.4571,2.163
1371191.0,-2.9113,-2.9808,4.276,0.2288,-3.1373,2.0231
1371201.0,-2.5307,-3.7278,4.7094,0.1639,-2.9208,1.7017
1371211.0,-2.387,-2.8659,4.9584,-0.0229,-2.9436,1.3207
1371221.0,-2.2098,-1.4533,4.3598,-0.1634,-3.0719,1.0068
1371231.0,-2.2697,-0.1556,3.7038,-0.1767,-3.1208,0.7987
1371241.0,-2.3152,0.6416,2.636,-0.0894,-3.1703,0.7098
1371251.0,-1.6017,0.8236,0.6129,0.074,-3.2102,0.696
1371261.0,-0.012,1.2043,-1.5778,0.2192,-3.0777,0.6912
1371271.0,-0.3759,1.8004,-3.6655,0.2645,-2.7606,0.7242
1371281.0,2.5211,0.486,-4.6639,0.1602,-2.4334,0.7753
1371291.0,1.4676,0.1772,-5.6264,0.3326,-1.7028,0.7891
1371301.0,2.3248,-2.1835,-4.7908,0.2517,-0.986,0.7694
1371311.0,3.4022,-3.4477,-2.5139,0.016,-0.3709,0.4991
1371321.0,2.2098,-1.7909,0.3065,-0.1639,0.1745,0.1676
1371331.0,1.64,-1.5586,3.7781,-0.4342,0.2059,-0.0585
1371341.0,1.9417,-1.1588,3.9576,-0.0788,0.0995,-0.1868
1371351.0,2.5307,-1.4126,3.1484,0.6258,0.1602,-0.2607
1371361.0,2.9832,-1.3838,2.1045,1.5022,0.4566,-0.3549
1371371.0,2.6695,0.3639,0.9768,2.2562,0.8418,-0.48
1371381.0,2.1189,1.9537,0.1796,2.5233,1.1302,-0.5444
1371391.0,1.7502,2.8012,-1.6352,2.3025,1.268,-0.572
1371401.0,1.6472,3.8092,-5.102,1.6011,1.4234,-0.6284
1371411.0,0.9936,4.8171,-7.8985,0.2214,1.7033,-0.7215
1371421.0,-0.1604,6.4452,-9.1459,-1.4181,2.1598,-0.7524
1371431.0,-2.071,7.7452,-7.841,-2.7122,2.8314,-0.5864
1371441.0,-4.0414,8.6981,-6.5577,-3.2523,3.4763,-0.1681
1371451.0,-5.4013,9.3901,-7.4986,-3.2092,3.9488,0.4502
1371461.0,-7.6567,9.6606,-10.4148,-2.7484,4.6283,1.1999
1371471.0,-9.991,6.2249,-10.4818,-1.93,5.9213,1.9896
1371481.0,-12.4235,0.826,-8.5042,-0.5694,7.837,2.5387
1371491.0,-19.1105,-6.11,1.0702,0.522,9.9101,2.5807
1371501.0,-16.338,-11.7196,14.0851,1.4521,11.0977,2.0087
1371511.0,-23.6212,-13.9103,27.6435,2.4701,11.7262,0.9488
1371521.0,-14.2,-15.4282,40.6416,2.5126,10.3592,-0.4257
1371531.0,-22.5677,-1.8411,46.8976,2.0135,8.07,-1.9119
1371541.0,-21.1552,10.2448,52.8281,1.1478,5.0556,-2.4882
1371551.0,-18.2247,17.4058,40.6344,0.953,1.6559,-2.1348
1371561.0,-14.516,15.5863,31.0648,0.049,-0.3533,-1.4734
1371571.0,-11.813,12.6486,21.6627,-0.5332,-1.1483,-0.9051
1371581.0,-10.3358,8.4013,17.1305,-0.7354,-1.0382,-0.5146
1371591.0,-9.0549,5.2936,14.0611,-0.5507,-0.5747,-0.3342
1371601.0,-9.2919,3.5985,15.8233,-0.249,-0.0053,-0.3783
1371611.0,-9.402,5.102,16.7786,0.183,0.1985,-0.4986
1371621.0,-9.6414,7.106,18.1792,0.423,0.0261,-0.5539
1371631.0,-9.3254,6.9432,17.2885,0.5459,-0.4193,-0.4773
1371641.0,-7.9248,8.0756,15.6772,0.447,-0.9099,-0.4012
1371651.0,-8.1427,8.1523,15.5408,0.3065,-1.184,-0.2815
1371661.0,-7.7452,7.9176,13.5967,0.422,-1.4873,-0.0814
1371671.0,-6.8019,7.0174,11.6813,0.4055,-1.7938,0.1117
1371681.0,-5.8227,5.4444,9.2344,0.3363,-1.9113,0.2645
1371691.0,-5.1308,3.9169,8.0325,0.2006,-1.8198,0.3278
1371701.0,-4.8937,2.5977,8.0828,0.0782,-1.6517,0.3044
1371711.0,-4.5298,2.7485,8.418,0.0772,-1.499,0.2224
1371721.0,-4.9847,3.316,9.7133,0.0942,-1.3846,0.1453
1371731.0,-5.2265,3.9552,10.4028,0.1059,-1.5006,0.1128
1371741.0,-5.2792,4.5155,9.8354,0.0772,-1.7916,0.1123
1371751.0,-5.0302,4.4245,8.1379,-0.0117,-2.0603,0.1389
1371761.0,-4.3287,3.7685,6.1028,-0.2033,-2.2013,0.1368
1371771.0,-3.8666,3.5338,4.6783,-0.4784,-2.1657,0.0686
1371781.0,-3.9337,3.8499,4.3838,-0.738,-1.9805,-0.009
1371791.0,-3.948,4.2473,4.9632,-0.9003,-1.7969,-0.042
1371801.0,-3.9289,4.6735,5.4372,-0.8599,-1.6309,-0.0059
1371811.0,-3.7828,5.1164,5.679,-0.7114,-1.508,0.0814
1371821.0,-3.6703,4.877,5.8395,-0.4938,-1.3883,0.215
1371831.0,-3.3806,3.7804,6.0789,-0.1958,-1.243,0.348
1371841.0,-2.8371,3.1987,6.8331,0.1916,-1.0179,0.4331
1371851.0,-3.2489,1.731,9.1626,0.6263,-0.77,0.481
1371861.0,-3.1939,1.2761,9.7636,1.0477,-0.8455,0.4534
1371871.0,-3.2944,1.8459,8.825,1.1738,-1.1419,0.3507
1371881.0,-2.8826,2.9018,6.2872,1.0036,-1.4426,0.2554
1371891.0,-2.2338,3.7086,3.7062,0.5981,-1.5495,0.1889
1371901.0,-1.8292,4.6017,1.7957,0.125,-1.3542,0.1554
1371911.0,-1.7047,3.8547,2.1237,-0.4129,-0.9844,0.1666
1371921.0,-1.4868,3.8618,3.4237,-0.7918,-0.6274,0.1761
1371931.0,-2.0207,3.8547,5.8754,-1.0823,-0.3858,0.1889
1371941.0,-2.3391,2.7342,7.7692,-1.1036,-0.3544,0.2448
1371951.0,-1.9154,1.7286,7.8961,-0.9498,-0.5204,0.2778
1371961.0,-1.6688,1.2833,7.0964,-0.7902,-0.6588,0.2474
1371971.0,-1.5658,1.4557,6.4524,-0.5741,-0.6731,0.1948
1371981.0,-1.5754,1.731,5.3798,-0.2671,-0.6385,0.1697
1371991.0,-1.3862,2.296,3.4979,0.0569,-0.5752,0.1692
1372001.0,2.1763,2.1356,1.822,0.1788,-0.431,0.1671
1372011.0,-6.5553,4.5011,-0.8835,-0.132,-0.1995,0.1745
1372021.0,-0.3496,2.2075,-5.7868,-1.5942,-0.8769,0.257
1372031.0,1.1732,1.1732,-11.2144,-2.8378,-0.82,0.1282
1372041.0,-4.8626,2.059,-16.0148,-3.0341,0.3022,0.1777
1372051.0,-1.1349,-0.7685,-17.4825,-2.8388,1.2505,0.3251
1372061.0,-1.98,2.0686,-24.7944,-0.3501,3.6801,0.4778
1372071.0,-9.1075,-0.6009,-17.1808,1.6017,6.8387,0.6353
1372081.0,-14.1449,-0.5674,-11.066,3.3161,8.9863,0.5475
1372091.0,-18.4258,-1.1779,-2.3535,4.2926,10.3932,0.1948
1372101.0,-23.523,-0.9074,8.2696,4.3362,11.2308,-0.373
1372111.0,-21.9165,2.4157,17.3987,3.5646,10.8636,-1.0403
1372121.0,-24.7656,7.331,32.2427,2.4424,10.0649,-1.6362
1372131.0,-24.7704,13.2328,41.7716,1.7911,8.3856,-1.6655
1372141.0,-26.5325,15.1744,49.5049,0.2033,4.6491,-1.4867
1372151.0,-14.4825,17.4226,31.151,-0.3799,1.3888,-1.0648
1372161.0,-15.603,14.4682,29.1877,-1.3941,0.3954,-0.7348
1372171.0,-14.5639,15.1864,19.405,-1.6011,-0.4927,-0.3884
1372181.0,-12.3637,10.149,19.2087,-2.2157,-0.8892,-0.0926
1372191.0,-9.7659,8.9256,14.4035,-1.4974,-0.6295,0.1788
1372201.0,-9.6893,7.4292,17.8823,-0.5981,0.2677,0.3618
1372211.0,-10.7691,8.5569,20.152,0.4943,0.779,0.5513
1372221.0,-11.5999,8.2983,23.4871,0.9589,0.5353,0.7359
1372231.0,-11.801,7.6423,23.444,1.1435,-0.158,0.9035
1372241.0,-11.4874,6.6655,22.2014,0.986,-0.9371,0.961
1372251.0,-11.2575,6.6032,20.1544,0.5523,-1.6357,0.9062
1372261.0,-11.1785,7.2065,18.7849,-0.0548,-2.195,0.803
1372271.0,-11.2791,8.5234,17.006,-0.6439,-2.6675,0.7386
1372281.0,-11.3126,8.4707,16.1513,-1.1914,-3.0735,0.7652
1372291.0,-11.0157,8.2432,14.4179,-1.3941,-3.3465,0.8429
1372301.0,-10.975,7.4005,13.8145,-1.3798,-3.413,0.9386
1372311.0,-10.7141,6.3303,12.8784,-1.1254,-3.4481,1.0302
1372321.0,-10.2424,5.5545,11.3246,-0.8514,-3.479,1.0679
1372331.0,-9.8976,5.2026,10.2113,-0.7311,-3.4029,1.0562
1372341.0,-9.517,4.774,10.2113,-0.7928,-3.2901,0.9998
1372351.0,-9.4954,5.1284,10.4866,-1.0211,-3.2363,0.8982
1372361.0,-9.8976,5.7126,11.6191,-1.5335,-3.3816,0.7732
1372371.0,-10.082,6.0621,12.2679,-2.0641,-3.7743,0.6854
1372381.0,-10.1107,5.5115,11.9327,-2.3594,-4.2244,0.6508
1372391.0,-9.4762,4.7573,10.0724,-2.3349,-4.6288,0.6444
1372401.0,-9.1435,4.4772,7.8123,-2.0901,-4.7603,0.6284
1372411.0,-8.9591,4.6112,6.177,-1.8305,-4.7076,0.6082
1372421.0,-8.679,4.8507,4.5969,-1.6575,-4.6549,0.6045
1372431.0,-8.1547,4.9129,3.0023,-1.5921,-4.5794,0.6162
1372441.0,-7.0701,4.6639,1.1708,-1.6224,-4.4495,0.629
1372451.0,-6.0597,4.4939,-0.2729,-1.773,-4.1813,0.6125
1372461.0,-5.2768,4.4197,-0.9864,-2.0662,-3.844,0.5763
1372471.0,-4.1348,3.6392,-0.2993,-2.3972,-3.5162,0.5475
1372481.0,-3.1388,2.7031,1.1588,-2.37,-3.0868,0.5316
1372491.0,-2.8946,1.9034,3.4117,-2.0231,-2.7037,0.5199
1372501.0,-2.7031,1.4988,4.6232,-1.4995,-2.5589,0.5161
1372511.0,-2.1141,1.2067,4.312,-1.0323,-2.6238,0.5082
1372521.0,-1.3144,1.3144,2.7653,-0.6694,-2.6302,0.4853
1372531.0,-0.5267,1.1947,1.8411,-0.505,-2.4722,0.4528
1372541.0,0.1844,0.9864,1.8747,-0.4576,-2.1806,0.4007
1372551.0,0.3208,0.5722,3.5099,-0.4768,-1.8682,0.332
1372561.0,0.2586,0.3855,5.4109,-0.4257,-1.7538,0.2629
1372571.0,0.2322,0.3879,5.9807,-0.2783,-1.8837,0.2118
1372581.0,0.8739,0.316,4.6304,-0.0761,-2.1167,0.1804
1372591.0,2.0997,0.5794,2.0758,0.0692,-2.2184,0.1453
1372601.0,3.2801,0.7757,0.5315,0.1229,-2.013,0.1139
1372611.0,3.735,1.0104,0.4214,0.125,-1.6426,0.0968
1372621.0,3.6823,1.0582,1.1109,0.0117,-1.3819,0.0947
1372631.0,3.4884,1.1085,1.6712,-0.1719,-1.3473,0.1117
1372641.0,3.7852,1.8818,0.0575,-0.323,-1.4782,0.1666
1372651.0,4.0247,3.3232,-3.462,-0.6359,-1.5421,0.2629
1372661.0,5.6336,3.9816,-6.1531,-1.4048,-1.4686,0.3773
1372671.0,5.5067,2.8683,-7.2472,-2.5196,-1.3771,0.4683
1372681.0,0.1939,2.3894,-12.6965,-3.4215,-1.4633,0.5534
1372691.0,6.122,1.0558,-17.3364,-4.2681,-1.3462,0.6087
1372701.0,6.0621,2.3535,-20.2933,-4.0882,-0.0128,0.6731
1372711.0,-1.0918,4.0199,-19.8024,-2.9782,1.8411,0.9855
1372721.0,0.1245,2.2027,-20.4656,-1.3622,3.4523,1.4399
1372731.0,-3.4405,0.7733,-18.1217,0.5779,5.8011,1.7794
1372741.0,-9.1171,-1.1181,-9.9383,2.2939,8.1312,1.9513
1372751.0,-12.7036,-1.7717,-4.3958,3.8009,9.6829,1.922
1372761.0,-17.188,-1.1947,6.4811,4.5645,10.969,1.5399
1372771.0,-18.9693,-1.8028,16.1513,4.574,11.441,1.1499
1372781.0,-18.7011,-2.5738,24.3035,3.0932,10.3922,0.5401
1372791.0,-18.5934,-3.0023,39.0159,1.2185,9.2726,-0.3076
1372801.0,-17.8703,1.087,45.4827,0.2384,7.1995,-0.8498
1372811.0,-16.168,3.0526,48.4993,-0.7535,4.3224,-1.1249
1372821.0,-13.283,6.608,42.0158,-1.235,1.5612,-1.1185
1372831.0,-11.3054,7.3023,34.7494,-1.5841,-0.2485,-0.9046
1372841.0,-9.1482,6.9073,26.001,-1.5208,-1.1557,-0.5821
1372851.0,-7.6327,4.7453,21.1097,-1.3697,-1.259,-0.2719
1372861.0,-6.6128,2.806,19.1584,-0.8375,-0.8333,-0.0213
1372871.0,-6.4883,0.5866,19.8647,-0.133,-0.2879,0.1554
1372881.0,-7.0653,-0.3041,22.3882,0.4959,-0.0458,0.2097
1372891.0,-7.082,0.2705,22.9341,0.8711,-0.3719,0.1878
1372901.0,-6.9121,0.5243,22.5677,0.7114,-1.0419,0.116
1372911.0,-6.529,0.6847,20.8774,0.2703,-1.8794,0.0234
1372921.0,-5.5593,0.4932,17.4274,-0.1681,-2.6904,-0.0585
1372931.0,-4.7764,-0.2969,14.2144,-0.4645,-3.157,-0.125
1372941.0,-3.8618,-0.4118,10.4339,-0.4023,-3.3209,-0.1846
1372951.0,-3.3303,-0.565,7.8817,-0.3001,-3.1528,-0.2363
1372961.0,-2.8395,-0.4956,6.0645,-0.1852,-2.8511,-0.2746
1372971.0,-2.2577,0.012,4.9991,-0.0894,-2.453,-0.2975
1372981.0,-2.0518,0.2682,5.5713,-0.0734,-1.9938,-0.2985
1372991.0,-1.9465,0.6871,6.9073,-0.05,-1.6565,-0.2841
1373001.0,-2.2434,0.8547,8.7532,0.0447,-1.4628,-0.2357
1373011.0,-2.15,0.9122,9.2464,0.216,-1.4979,-0.166
1373021.0,-1.7382,0.8547,8.9423,0.2847,-1.6033,-0.1187
1373031.0,-1.5131,0.9122,8.9974,0.2128,-1.6421,-0.1059
1373041.0,-1.4485,0.8452,9.256,0.0708,-1.7389,-0.1091
1373051.0,-1.1971,0.6369,9.3039,0.0053,-1.8635,-0.1006
1373061.0,-1.0463,0.7111,8.9328,0.0064,-1.9401,-0.0921
1373071.0,-0.9816,0.7207,8.5018,-0.0777,-2.0598,-0.0889
1373081.0,-0.7183,0.644,7.4316,-0.1942,-2.1982,-0.0942
1373091.0,-0.2514,0.3831,6.3542,-0.3038,-2.2705,-0.1123
1373101.0,0.0766,0.2298,5.3965,-0.3001,-2.1912,-0.1421
1373111.0,0.4405,0.3998,5.0925,-0.182,-1.9976,-0.1692
1373121.0,0.5602,0.9697,5.0853,0.0138,-1.7842,-0.1697
1373131.0,0.6153,1.9034,5.217,0.1852,-1.6011,-0.1293
1373141.0,0.7398,2.5331,5.3319,0.2528,-1.5117,-0.0314
1373151.0,0.9984,2.6336,5.1571,0.2474,-1.4819,0.1054
1373161.0,1.2186,1.8603,4.9967,0.1634,-1.4686,0.2331
1373171.0,1.573,0.7039,4.221,0.0388,-1.5415,0.3012
1373181.0,2.2721,-0.1891,3.1364,-0.0335,-1.524,0.2996
1373191.0,2.5738,-0.6081,2.6001,-0.0021,-1.3441,0.2458
1373201.0,2.6743,-0.2562,1.7358,0.0665,-1.176,0.1745
1373211.0,2.7653,1.1947,-0.0934,-0.0176,-1.0626,0.1133
1373221.0,2.9473,2.9042,-2.5857,-0.5396,-1.0179,0.1011
1373231.0,4.0223,3.6033,-4.3934,-1.4591,-1.0248,0.1485
1373241.0,5.4181,3.4429,-6.6463,-2.3328,-0.9748,0.2453
1373251.0,2.0231,3.3351,-9.0214,-2.9766,-0.7897,0.3773
1373261.0,3.4069,1.9249,-14.5879,-3.3422,-0.5715,0.589
1373271.0,3.3232,1.7142,-17.3628,-3.4087,0.2112,0.6055
1373281.0,0.4669,3.1556,-18.2534,-2.7441,1.6565,0.7168
1373291.0,-2.5355,3.4548,-17.844,-1.8071,2.9836,0.9647
1373301.0,-3.7757,3.8259,-18.2462,-0.5369,4.3117,1.201
1373311.0,-7.1539,4.5969,-16.9749,0.7157,6.0703,1.4309
1373321.0,-11.6789,4.1611,-10.7164,1.6378,7.8189,1.6517
1373331.0,-15.5072,3.5051,-4.2784,2.6622,9.2162,1.8156
1373341.0,-19.2063,2.0135,3.9959,3.6796,10.5369,1.8544
1373351.0,-25.0481,2.569,11.3413,4.1569,11.5202,1.6942
1373361.0,-18.7681,0.5507,26.4966,3.1836,11.7251,1.317
1373371.0,-26.3123,2.4636,41.3886,2.2099,11.1595,0.8631
1373381.0,-23.784,0.8356,54.1856,0.7556,8.4893,0.5779
1373391.0,-18.5742,0.2658,52.4091,-0.2921,4.8454,0.3746
1373401.0,-15.524,-1.3886,46.5529,-1.0828,1.9225,0.1857
1373411.0,-12.5959,-1.3024,37.3495,-1.2036,0.1543,0.058
1373421.0,-11.8082,-1.4629,30.5428,-1.0068,-0.7333,-0.0261
1373431.0,-10.3956,0.0982,23.6403,-0.4512,-1.0163,-0.0064
1373441.0,-10.1227,-0.0766,20.0682,0.0458,-0.8657,0.0979
1373451.0,-8.9376,-0.1963,16.0914,0.364,-0.6694,0.1878
1373461.0,-7.9631,-1.482,15.5886,0.1192,-0.4869,0.174
1373471.0,-7.1587,-2.3655,15.433,-0.107,-0.3076,0.083
1373481.0,-7.106,-2.8323,17.3484,-0.3613,-0.1836,-0.0718
1373491.0,-7.501,-2.296,19.3212,-0.4337,-0.2671,-0.2261
1373501.0,-8.0397,-1.8292,20.0347,-0.3858,-0.6917,-0.3288
1373511.0,-7.6399,-1.3096,18.1504,-0.2751,-1.3218,-0.39
1373521.0,-6.9192,-1.0463,15.0045,-0.2144,-1.8454,-0.4417
1373531.0,-6.1818,-1.221,11.746,-0.1463,-2.0433,-0.497
1373541.0,-5.2936,-1.3455,9.3182,-0.1383,-1.9747,-0.5843
1373551.0,-5.0326,-1.0558,8.8298,-0.183,-1.7001,-0.6976
1373561.0,-5.2553,0.6201,8.6886,-0.2389,-1.4463,-0.7971
1373571.0,-5.4731,1.4988,10.1466,-0.5161,-1.342,-0.837
1373581.0,-5.5929,1.7502,11.3772,-0.6353,-1.3909,-0.7992
1373591.0,-5.4731,1.5371,11.7388,-0.4794,-1.5069,-0.7104
1373601.0,-5.2122,0.893,11.6406,-0.183,-1.6001,-0.6178
1373611.0,-4.7836,0.2179,11.2815,0.1357,-1.682,-0.5587
1373621.0,-4.4843,0.1245,10.8457,0.3986,-1.6958,-0.5486
1373631.0,-4.5346,0.7829,11.1067,0.4661,-1.7054,-0.571
1373641.0,-4.7525,1.6783,11.643,0.3618,-1.8406,-0.5726
1373651.0,-4.7022,2.2697,11.3964,0.1277,-2.1396,-0.5358
1373661.0,-4.6064,2.1668,10.6135,-0.1543,-2.4727,-0.4715
1373671.0,-4.1827,1.7406,9.2775,-0.3129,-2.7441,-0.4012
1373681.0,-3.4836,1.1468,7.367,-0.2639,-2.867,-0.3272
1373691.0,-2.569,0.4022,5.7461,-0.0138,-2.7015,-0.2533
1373701.0,-2.0423,-0.1365,5.4731,0.2772,-2.3509,-0.2097
1373711.0,-1.9513,-0.1149,6.0214,0.4805,-2.0438,-0.1963
1373721.0,-1.8435,0.1413,7.003,0.5087,-1.9076,-0.1974
1373731.0,-1.6807,0.5698,7.5202,0.4331,-1.9454,-0.2001
1373741.0,-1.6352,0.577,7.7524,0.29,-2.0566,-0.1852
1373751.0,-1.2881,0.0359,7.4603,0.1809,-2.1971,-0.1692
1373761.0,-0.7422,-0.6033,6.7612,0.0889,-2.3338,-0.1862
1373771.0,-0.5004,-1.4078,6.7133,0.0665,-2.3759,-0.2464
1373781.0,-0.3017,-1.5299,6.0597,0.2746,-2.3972,-0.3214
1373791.0,-0.0024,-1.0894,5.1906,0.6146,-2.3456,-0.3927
1373801.0,-0.0048,0.0503,4.3766,0.9498,-2.2296,-0.4342
1373811.0,-0.0551,1.7645,3.462,1.1382,-2.1375,-0.414
1373821.0,-0.1796,3.0239,3.1939,1.118,-2.0625,-0.3139
1373831.0,0.1724,3.9911,1.6089,0.9051,-2.1497,-0.1655
1373841.0,0.5674,4.4269,-0.3472,0.2469,-2.369,-0.0463
1373851.0,0.6823,4.2665,-2.7988,-0.7269,-2.6712,0.0293
1373861.0,3.0598,3.9337,-4.4005,-1.6309,-2.925,0.0266
1373871.0,-0.2394,4.9297,-12.785,-2.1731,-3.1182,0.1437
1373881.0,3.5003,3.6775,-19.3619,-3.0974,-3.3023,0.1995
1373891.0,-4.7022,8.272,-27.6482,-2.8468,-1.989,0.2847
1373901.0,2.6576,3.8882,-32.0464,-2.3759,-0.4464,0.7333
1373911.0,2.0446,4.7238,-42.5282,-0.7317,2.246,1.0036
1373921.0,-4.7214,0.6177,-27.744,0.0511,6.1363,1.1355
1373931.0,-11.9758,3.9792,-18.2055,1.7235,8.6617,1.226
1373941.0,-17.1209,3.1029,-4.3479,3.4859,10.2288,1.3446
1373951.0,-21.6484,2.8276,-1.3982,5.7298,11.1451,1.3899
1373961.0,-12.8736,1.4198,3.5721,6.0836,11.8017,1.0041
1373971.0,-27.9475,2.557,19.5127,4.5618,12.8872,0.4284
1373981.0,-27.6411,3.1867,34.012,2.5717,11.3212,-0.0271
1373991.0,-23.1974,1.5706,40.7709,1.1935,9.0448,-0.4331
1374001.0,-21.0618,1.6305,47.0245,0.2698,7.2165,-0.6944
1374011.0,-20.0012,2.2505,46.8857,-0.2464,4.5134,-0.8466
1374021.0,-16.4769,4.1037,38.4676,-0.3932,2.079,-0.878
1374031.0,-14.4729,4.5801,31.8213,-0.5172,0.8689,-0.8168
1374041.0,-13.4889,4.8363,26.5517,-0.182,0.6029,-0.655
1374051.0,-12.809,3.6057,24.7656,0.24,0.6832,-0.4566
1374061.0,-12.3325,2.6743,23.5566,0.8232,0.8216,-0.3006
1374071.0,-11.959,2.296,23.6451,1.1361,0.9088,-0.2464
1374081.0,-11.9519,2.6504,24.8279,0.9796,0.7396,-0.2943
1374091.0,-12.0309,3.3686,25.9627,0.4576,0.2027,-0.3693
1374101.0,-11.7723,3.5338,25.8981,-0.1538,-0.6332,-0.4028
1374111.0,-11.0468,3.1771,24.2078,-0.6034,-1.5234,-0.3852
1374121.0,-10.3477,2.8036,20.9469,-0.7689,-2.2647,-0.3315
1374131.0,-9.6151,2.2817,16.7714,-0.7982,-2.7941,-0.2682
1374141.0,-8.5497,1.2881,12.6773,-0.8046,-3.0804,-0.2315
1374151.0,-7.1682,0.3136,9.2536,-0.6912,-3.0027,-0.2469
1374161.0,-6.3255,-0.5722,8.0421,-0.5034,-2.5967,-0.3272
1374171.0,-6.201,-0.3639,8.0014,-0.3187,-2.1928,-0.4544
1374181.0,-6.3398,0.4453,8.6263,-0.2905,-1.9928,-0.5795
1374191.0,-6.2968,1.4605,8.8155,-0.3358,-1.9614,-0.6566
1374201.0,-6.0382,2.4134,8.6,-0.4885,-2.0023,-0.6768
1374211.0,-5.9256,2.3439,9.3972,-0.705,-2.0417,-0.6524
1374221.0,-5.7006,2.3679,9.1435,-0.6923,-2.1545,-0.5885
1374231.0,-5.5115,1.9968,8.734,-0.497,-2.2029,-0.5199
1374241.0,-4.9967,1.7047,7.5226,-0.2038,-2.204,-0.455
1374251.0,-4.6184,1.4653,6.8307,-0.0064,-2.1034,-0.4315
1374261.0,-4.3814,1.652,6.6535,0.0559,-1.9672,-0.4512
1374271.0,-4.1994,2.241,7.0677,0.0074,-1.8847,-0.4794
1374281.0,-3.9528,3.0933,7.3047,-0.049,-1.8443,-0.4784
1374291.0,-3.9672,3.9193,7.7285,-0.1415,-1.8299,-0.4342
1374301.0,-3.972,4.5298,8.2672,-0.1948,-1.8619,-0.3406
1374311.0,-3.9528,4.4317,8.5162,-0.1362,-1.9411,-0.19
1374321.0,-3.6512,3.984,7.6447,0.0362,-2.0593,-0.0255
1374331.0,-3.0478,3.7302,6.2417,0.2304,-2.0822,0.1117
1374341.0,-2.6384,3.6751,5.3582,0.3368,-1.9651,0.215
1374351.0,-2.4995,3.3758,5.1236,0.3235,-1.8001,0.3081
1374361.0,-2.4732,2.9712,5.3295,0.2283,-1.7012,0.3879
1374371.0,-2.2242,2.1979,5.6048,0.1708,-1.6762,0.4496
1374381.0,-1.5586,1.3551,4.865,0.265,-1.6432,0.481
1374391.0,-0.9984,0.8811,4.6376,0.3507,-1.5128,0.4624
1374401.0,-0.9313,1.0726,4.7716,0.422,-1.3808,0.4379
1374411.0,-0.7949,1.3144,4.5179,0.5167,-1.342,0.4592
1374421.0,-0.2035,1.5826,3.4453,0.6199,-1.3207,0.5263
1374431.0,0.3807,2.1141,1.7478,0.513,-1.3005,0.6125
1374441.0,3.5841,1.0056,1.391,0.033,-1.3494,0.6875
1374451.0,-0.0359,1.1732,0.6991,-0.5241,-1.4724,0.7253
1374461.0,2.2242,-1.2953,-7.6734,-1.6831,-2.4557,0.7599
1374471.0,6.2968,-1.8627,-15.7203,-3.182,-3.065,0.4491
1374481.0,-5.3391,2.3032,-24.361,-3.7333,-2.0513,0.2373
1374491.0,2.5426,0.0551,-31.7687,-4.3633,-1.2095,0.3145
1374501.0,0.2059,2.1021,-37.1724,-3.6604,1.4191,0.3693
1374511.0,-5.9496,0.0982,-26.4392,-2.5696,4.7374,0.6008
1374521.0,-11.1642,-1.245,-19.2901,-0.0713,7.4874,0.8886
1374531.0,-15.5479,-2.739,-6.3159,2.5738,9.8191,0.9285
1374541.0,-24.9811,0.3136,2.9616,5.2482,11.5788,0.7359
1374551.0,-17.2311,5.9113,12.7491,6.3438,12.2067,0.2708
1374561.0,-27.902,11.4682,25.3714,5.0104,12.4589,-0.1245
1374571.0,-22.0506,9.8497,45.9782,1.7597,10.3389,-0.2841
1374581.0,-22.946,7.0222,54.3244,-0.6194,6.7344,-0.3586
1374591.0,-18.9118,3.2489,52.8305,-1.9204,2.7303,-0.248
1374601.0,-14.4322,3.1771,37.9888,-1.5814,-0.3464,-0.0921
1374611.0,-11.7819,3.383,26.6546,-0.9472,-1.3175,0.058
1374621.0,-10.4363,4.6878,16.2231,-0.1554,-1.2393,0.2304
1374631.0,-9.584,2.8754,14.0085,0.1117,-0.4284,0.406
1374641.0,-9.4954,2.0423,14.8943,0.3948,0.4347,0.5156
1374651.0,-10.1993,1.1708,19.0363,0.4842,0.9227,0.5513
1374661.0,-10.1801,0.8092,21.9955,0.4385,0.7641,0.5438
1374671.0,-10.0916,0.2753,23.7625,0.157,0.1022,0.4816
1374681.0,-9.6367,0.0048,22.4025,-0.1825,-0.8455,0.3879
1374691.0,-8.7891,-0.7877,19.0004,-0.5789,-1.7895,0.2607
1374701.0,-7.5465,-1.1923,14.5352,-0.8375,-2.3865,0.1027
1374711.0,-6.7636,-1.4389,11.0708,-0.8886,-2.478,-0.0569
1374721.0,-6.3015,-1.1827,8.8298,-0.7492,-2.2578,-0.1926
1374731.0,-6.098,-0.6752,7.8985,-0.5257,-1.8794,-0.2879
1374741.0,-6.2321,-0.0024,8.4132,-0.3304,-1.4654,-0.3453
1374751.0,-6.3231,0.5148,9.4523,-0.2043,-1.2308,-0.3789
1374761.0,-6.1675,0.7183,10.4435,-0.158,-1.1855,-0.3996
1374771.0,-6.0932,0.7254,10.7835,-0.1187,-1.2829,-0.4294
1374781.0,-5.7126,0.5818,10.2089,-0.0846,-1.4356,-0.4821
1374791.0,-5.2385,0.7111,9.426,-0.1383,-1.5144,-0.5757
1374801.0,-5.2792,1.1732,9.5864,-0.29,-1.4894,-0.6806
1374811.0,-5.3726,1.8172,10.0389,-0.4443,-1.5309,-0.7519
1374821.0,-5.5569,2.4373,10.3956,-0.497,-1.6171,-0.7641
1374831.0,-5.5306,3.3016,10.1251,-0.422,-1.706,-0.6971
1374841.0,-5.4588,3.8906,9.6822,-0.3198,-1.7741,-0.5566
1374851.0,-5.1116,3.9816,8.6383,-0.2522,-1.8523,-0.3762
1374861.0,-4.4724,3.3399,7.6878,-0.2756,-1.8656,-0.2065
1374871.0,-3.9696,2.4804,7.3574,-0.3108,-1.7554,-0.0835
1374881.0,-3.7733,1.4796,8.1235,-0.3049,-1.5889,-0.0112
1374891.0,-3.711,0.6728,9.0046,-0.2011,-1.525,0.0128
1374901.0,-3.4907,0.4477,9.0884,-0.0474,-1.5857,-0.0053
1374911.0,-3.2489,0.735,8.6359,0.0213,-1.6927,-0.041
1374921.0,-3.0311,1.2641,7.9942,-0.0383,-1.7927,-0.0649
1374931.0,-2.7246,1.5778,7.1898,-0.1963,-1.8879,-0.0628
1374941.0,-2.1452,1.391,6.3973,-0.3709,-1.9273,-0.0383
1374951.0,-1.7861,1.1899,5.8371,-0.4417,-1.8395,-0.009
1374961.0,-1.506,0.6369,5.9304,-0.4432,-1.7145,0.0197
1374971.0,-1.2809,0.2634,5.77,-0.3177,-1.5947,0.0415
1374981.0,-0.9912,0.1939,5.4995,-0.1517,-1.4638,0.0463
1374991.0,-0.8763,0.2658,5.5689,0.0128,-1.3101,0.0553
1375001.0,-0.7829,0.3496,5.8873,0.166,-1.1712,0.0761
1375011.0,-0.6129,0.431,5.9735,0.3198,-1.0956,0.1043
1375021.0,-0.4022,0.5219,5.8849,0.4528,-1.0531,0.1437
1375031.0,-0.1532,0.2777,5.6048,0.5348,-1.0142,0.1846
1375041.0,0.1604,-0.2179,5.5067,0.5763,-0.9706,0.207
1375051.0,0.0335,-0.6153,5.7533,0.5837,-0.936,0.2011
1375061.0,-0.2921,-0.7063,5.8466,0.6236,-0.9732,0.1836
1375071.0,-0.0575,-0.0455,5.2768,0.7513,-1.0541,0.1767
1375081.0,-0.0072,0.8284,4.1396,0.8375,-1.1563,0.2134
1375091.0,0.7446,1.4126,2.0327,0.7173,-1.3872,0.2778
1375101.0,3.6488,2.1428,1.4293,0.2645,-1.6942,0.2884
1375111.0,-3.7254,4.2641,-4.6759,-0.3762,-2.2806,0.3592
1375121.0,3.7972,0.8571,-13.137,-2.0327,-3.587,0.4129
1375131.0,-4.367,2.2936,-23.0346,-2.9144,-3.2863,0.2304
1375141.0,1.7334,-0.3352,-28.0122,-2.5584,-2.0082,0.2751
1375151.0,0.067,0.249,-38.7118,-0.9051,0.489,0.3406
1375161.0,-3.0047,-1.9513,-32.4702,0.331,4.1638,0.3054
1375171.0,-10.8529,1.4078,-20.8798,2.3184,7.8795,0.1995
1375181.0,-19.642,4.4819,-11.248,4.2026,10.4278,0.2442
1375191.0,-16.3117,0.7997,7.4005,4.8837,11.9736,0.1548
1375201.0,-23.5278,5.5665,21.2725,6.2002,13.0501,-0.2464
1375211.0,-26.2333,10.9822,37.3567,5.8639,12.4365,-0.6008
1375221.0,-21.7394,7.1682,55.6197,2.7947,9.5663,-0.7833
1375231.0,-20.8008,9.4786,56.2206,0.6891,5.0992,-1.0653
1375241.0,-17.6931,4.549,53.4434,-1.1329,1.1025,-1.0717
1375251.0,-12.955,5.1882,34.9984,-1.1765,-1.657,-1.0504
1375261.0,-10.9607,4.1372,25.6323,-1.0818,-2.3477,-1.0435
1375271.0,-9.1842,6.4141,15.1673,-0.2203,-1.9018,-0.9333
1375281.0,-9.5529,6.6774,14.4107,0.3395,-0.837,-0.7859
1375291.0,-9.2488,7.6734,13.6158,1.0392,0.1554,-0.5396
1375301.0,-9.6151,6.5194,18.4713,1.2148,0.8471,-0.332
1375311.0,-9.9479,6.2489,22.1703,1.2372,0.9461,-0.1862
1375321.0,-10.4722,5.7676,24.9548,0.8338,0.381,-0.1277
1375331.0,-10.1083,5.1643,24.5741,0.1804,-0.6981,-0.1245
1375341.0,-9.2392,4.2832,21.3515,-0.5002,-1.8241,-0.1564
1375351.0,-8.102,3.6009,16.3931,-0.9376,-2.5749,-0.2001
1375361.0,-7.0509,3.2825,11.6981,-1.1451,-2.776,-0.2485
1375371.0,-6.4811,3.2058,8.9998,-1.2457,-2.5499,-0.2932
1375381.0,-6.1172,3.0047,7.9775,-1.2153,-2.1545,-0.3065
1375391.0,-5.7245,2.7246,8.3222,-0.9839,-1.6932,-0.2937
1375401.0,-5.6599,2.8419,8.8107,-0.6359,-1.3138,-0.2724
1375411.0,-5.6695,3.1651,9.5146,-0.4496,-1.094,-0.2496
1375421.0,-5.8035,3.4907,10.4986,-0.4986,-1.0504,-0.2277
1375431.0,-5.8706,3.2825,11.3198,-0.6444,-1.1877,-0.1974
1375441.0,-5.4372,2.8611,11.4012,-0.7194,-1.3659,-0.1745
1375451.0,-5.1188,2.2122,11.473,-0.7779,-1.5186,-0.1788
1375461.0,-4.9871,1.9369,11.248,-0.8205,-1.6884,-0.2187
1375471.0,-4.7142,1.8794,10.805,-0.8668,-1.881,-0.2794
1375481.0,-4.4484,2.1476,10.1083,-0.8205,-2.0013,-0.3288
1375491.0,-4.4796,2.7581,9.6343,-0.7215,-2.03,-0.3411
1375501.0,-4.6807,3.5219,9.0716,-0.6391,-2.0848,-0.299
1375511.0,-4.367,4.0462,7.9487,-0.6311,-2.2051,-0.2075
1375521.0,-3.802,3.948,6.79,-0.6513,-2.2551,-0.0841
1375531.0,-3.0454,3.5291,6.0789,-0.58,-2.1125,0.0458
1375541.0,-2.8539,3.0598,6.6894,-0.4273,-1.8246,0.165
1375551.0,-2.909,2.5355,8.0182,-0.2395,-1.616,0.2724
1375561.0,-2.9401,1.9632,9.1363,-0.1128,-1.6389,0.3507
1375571.0,-2.8443,1.561,9.2081,-0.0718,-1.8576,0.3895
1375581.0,-2.5546,1.2474,8.3342,-0.1155,-2.1513,0.3964
1375591.0,-2.1668,0.929,6.8522,-0.1846,-2.3977,0.3719
1375601.0,-1.4293,0.9146,4.865,-0.2006,-2.5004,0.331
1375611.0,-0.8835,0.9242,3.5674,-0.2166,-2.3993,0.2826
1375621.0,-0.5004,0.8835,2.8922,-0.241,-2.228,0.2421
1375631.0,-0.2155,0.9122,2.5666,-0.2128,-2.0444,0.2112
