time_ms,ax,ay,az,gx,gy,gz
194701.0,-2.1189,1.6161,10.1251,-0.116,-0.0979,-0.0899
194711.0,-2.0087,1.6807,9.8904,-0.1399,-0.1383,-0.0761
194721.0,-1.9058,1.7142,9.5002,-0.1671,-0.1623,-0.0559
194731.0,-1.8124,1.6544,9.1626,-0.1852,-0.1389,-0.0314
194741.0,-1.6664,1.4509,8.9376,-0.1772,-0.0697,-0.0069
194751.0,-1.7262,1.2426,9.0309,-0.1761,0.0399,0.0037
194761.0,-1.7717,1.1444,9.5385,-0.1751,0.1394,-0.0011
194771.0,-1.9321,1.0965,10.0102,-0.1586,0.1979,-0.0064
194781.0,-2.0423,1.2234,10.252,-0.1346,0.2102,-0.0117
194791.0,-2.0853,1.4174,10.3669,-0.1453,0.1761,-0.0138
194801.0,-2.2266,1.6065,10.3765,-0.1394,0.1735,-0.0016
194811.0,-2.375,1.7286,10.3022,-0.1575,0.1538,0.0218
194821.0,-2.3104,1.6616,10.1179,-0.199,0.1208,0.0506
194831.0,-2.2793,1.4629,10.1203,-0.2432,0.1352,0.0692
194841.0,-2.4038,1.4796,10.319,-0.2575,0.1836,0.0782
194851.0,-2.5642,1.5107,10.8074,-0.2506,0.2251,0.091
194861.0,-2.7174,1.5371,11.2049,-0.2208,0.2054,0.1176
194871.0,-2.66,1.5251,11.1785,-0.1735,0.141,0.149
194881.0,-2.5953,1.6903,10.92,-0.1048,0.1064,0.1836
194891.0,-2.5139,1.6759,10.7715,-0.0745,0.0862,0.2219
194901.0,-2.4038,1.7382,10.6326,-0.0585,0.0585,0.2607
194911.0,-2.2936,1.8172,10.3741,-0.05,0.0319,0.3012
194921.0,-2.1476,1.9201,10.1586,-0.0564,0.0101,0.3448
194931.0,-2.0638,2.0973,9.833,-0.0899,-0.0053,0.3874
194941.0,-1.9609,2.1907,9.5337,-0.1735,-0.0303,0.4294
194951.0,-1.7454,2.0494,9.2105,-0.2815,-0.0564,0.4709
194961.0,-1.4868,1.7837,8.7245,-0.4023,-0.0532,0.4959
194971.0,-1.3599,1.5826,8.5042,-0.5167,-0.0005,0.5013
194981.0,-1.2905,1.4844,8.4707,-0.5981,0.0819,0.5002
194991.0,-1.2498,0.9816,8.8849,-0.6268,0.1868,0.5066
195001.0,-1.1875,0.8452,9.7157,-0.5225,0.3278,0.5071
195011.0,-1.5802,1.3192,10.7212,-0.3395,0.4422,0.5146
195021.0,-1.8914,1.9585,11.3557,-0.1676,0.4156,0.563
195031.0,-1.8507,2.241,11.3102,-0.0431,0.2889,0.6476
195041.0,-1.5897,2.2577,10.6662,0.058,0.1857,0.7439
195051.0,-1.4389,1.968,10.173,0.1362,0.1958,0.8274
195061.0,-1.482,1.4772,10.0006,0.1979,0.2794,0.8801
195071.0,-1.8196,1.6879,10.137,0.2485,0.389,0.8908
195081.0,-1.9369,1.1564,10.3406,0.2735,0.4986,0.9046
195091.0,-2.1931,0.668,11.236,0.2118,0.5481,0.8583
195101.0,-2.4421,1.154,11.3006,0.1836,0.5156,0.7779
195111.0,-2.5355,1.0463,11.8393,0.074,0.4385,0.7253
195121.0,-2.5762,1.2019,11.6574,0.0708,0.3602,0.6923
195131.0,-2.3846,0.7518,11.1833,0.0692,0.3044,0.6689
195141.0,-2.4756,0.3567,10.9415,0.0133,0.2969,0.5981
195151.0,-2.5762,0.7039,10.501,-0.0851,0.3437,0.4715
195161.0,-3.3303,0.8739,11.88,-0.4113,0.3948,0.3193
195171.0,-3.8738,1.2881,13.2184,-0.6976,0.2799,0.1889
195181.0,-3.6655,1.2354,14.3365,-0.9206,-0.0096,0.1064
195191.0,-4.0103,1.0918,14.7507,-0.9642,-0.323,0.0596
195201.0,-4.1204,1.3958,14.3269,-0.8482,-0.6481,0.0372
195211.0,-4.0175,1.3815,13.8217,-0.6816,-0.953,0.058
195221.0,-3.7661,1.2713,12.5049,-0.3938,-1.2036,0.1043
195231.0,-3.3399,1.1875,10.884,-0.1431,-1.4042,0.1368
195241.0,-2.8635,1.166,9.2273,0.0474,-1.5128,0.1453
195251.0,-2.3918,1.4389,7.6974,0.1655,-1.4867,0.1203
195261.0,-2.3583,2.0494,7.1778,0.1463,-1.3643,0.0718
195271.0,-2.4373,2.4253,7.1898,0.0575,-1.2845,0.0511
195281.0,-2.1596,2.4493,7.2042,-0.0011,-1.2537,0.0708
195291.0,-2.047,2.5714,7.015,0.0059,-1.2063,0.1054
195301.0,-2.0853,2.3487,7.118,0.0585,-1.1244,0.1692
195311.0,-1.798,2.0279,6.9168,0.216,-1.0392,0.248
195321.0,-1.5634,1.5443,6.8594,0.4028,-0.9237,0.3246
195331.0,-1.1875,0.9457,7.0198,0.6572,-0.7774,0.3911
195341.0,-0.9888,0.723,6.7181,0.9935,-0.6215,0.4337
195351.0,-0.723,0.6153,5.8155,1.2616,-0.4821,0.4486
195361.0,-0.5626,0.8667,4.9201,1.3473,-0.2948,0.4262
195371.0,-0.6153,1.221,4.7357,1.2058,-0.0426,0.3799
195381.0,-0.7518,1.2522,5.4899,0.9291,0.1836,0.3315
195391.0,-0.8308,1.0894,6.4284,0.647,0.3331,0.2905
195401.0,-0.9218,0.5243,7.7381,0.4566,0.4374,0.2618
195411.0,-0.9098,-0.1676,8.9783,0.4826,0.5204,0.2426
195421.0,-1.0726,-0.3065,9.6822,0.6556,0.5534,0.2049
195431.0,-1.1995,0.3065,9.6462,0.8328,0.5321,0.1591
195441.0,-1.3072,1.0367,9.1794,0.8737,0.4864,0.1282
195451.0,-1.415,1.1157,8.8226,0.7327,0.4581,0.1086
195461.0,-1.4078,0.9768,8.7556,0.4693,0.4406,0.0681
195471.0,-1.5395,0.3089,9.4906,0.2198,0.4938,0.0239
195481.0,-1.6544,-0.7997,11.0947,0.1548,0.5997,-0.0298
195491.0,-1.9321,-1.4078,13.2758,0.2943,0.6832,-0.1229
195501.0,-2.4636,-0.9577,15.0476,0.5108,0.5614,-0.2416
195511.0,-2.7222,0.237,15.2678,0.6928,0.1836,-0.3342
195521.0,-2.3942,1.5299,13.9438,0.7934,-0.2261,-0.3762
195531.0,-2.1165,2.7485,12.0213,0.6859,-0.5108,-0.3847
195541.0,-1.7549,3.1005,11.248,0.3682,-0.6529,-0.3581
195551.0,-1.5395,3.4524,10.8122,0.0431,-0.7072,-0.3139
195561.0,-1.5993,3.0239,11.4491,-0.3315,-0.7673,-0.2538
195571.0,-1.3168,2.3631,11.813,-0.5885,-0.9333,-0.191
195581.0,-1.1803,1.8962,11.5305,-0.7285,-1.1403,-0.1458
195591.0,-0.7949,1.2905,10.6231,-0.7402,-1.3372,-0.1016
195601.0,-0.0646,0.9074,9.2919,-0.6093,-1.4,-0.0681
195611.0,0.2035,0.8978,8.4707,-0.3858,-1.3138,-0.0426
195621.0,0.4717,1.5969,7.039,-0.0692,-1.242,0.017
195631.0,0.9098,3.1364,4.0725,0.2043,-1.1988,0.1282
195641.0,1.901,4.9201,-1.8387,0.0309,-1.2276,0.2762
195651.0,2.8467,5.5761,-6.6966,-1.0493,-1.1813,0.4007
195661.0,2.387,5.1858,-9.9934,-2.1939,-0.7295,0.5624
195671.0,-0.0694,4.8147,-13.4674,-2.7372,0.0952,0.8099
195681.0,-0.6871,3.6464,-16.496,-2.6318,1.5288,1.143
195691.0,-3.4596,0.2418,-11.2599,-2.0859,3.8078,1.5218
195701.0,-8.7245,-2.229,-2.5762,-0.6705,5.9538,1.8363
195711.0,-6.2872,-11.0756,1.1157,0.7551,7.0255,1.9305
195721.0,-10.4938,-16.0507,19.247,1.69,7.8343,1.293
195731.0,-9.7205,-9.0668,14.4993,3.9573,7.0457,0.4145
195741.0,-9.3589,-4.525,12.141,4.4687,5.9671,-0.3868
195751.0,-9.1099,2.8754,0.6895,4.3814,5.5015,-0.9732
195761.0,-11.4299,5.0494,2.5067,2.1694,5.9474,-1.4399
195771.0,-15.014,5.9424,6.3829,-0.0277,6.488,-1.6634
195781.0,-17.0443,0.2682,23.0945,-2.3317,6.4513,-1.7581
195791.0,-16.8983,-1.2641,31.3928,-2.2152,5.7952,-1.7033
195801.0,-15.6293,-3.2513,40.5506,-1.4532,4.3894,-1.6953
195811.0,-15.7203,2.5067,37.0766,0.5321,2.7856,-1.6682
195821.0,-15.3588,7.0653,33.3129,1.3138,1.0302,-1.5777
195831.0,-14.1545,11.7124,23.9971,1.3877,-0.3975,-1.3287
195841.0,-13.4458,10.9391,20.468,0.2107,-1.3223,-1.0355
195851.0,-12.3062,8.6119,17.5112,-0.8253,-1.8762,-0.7891
195861.0,-11.6669,5.3534,17.686,-1.4106,-2.1444,-0.6188
195871.0,-10.5632,3.5051,16.2207,-1.1462,-2.2876,-0.4853
195881.0,-9.5433,2.4014,15.129,-0.629,-2.3152,-0.3991
195891.0,-8.6191,2.3798,13.6589,-0.0819,-2.2977,-0.3549
195901.0,-8.1666,2.7246,12.5959,0.2575,-2.2748,-0.331
195911.0,-7.8985,2.6145,12.1889,0.3475,-2.3099,-0.3108
195921.0,-7.5082,2.0686,11.8705,0.3602,-2.3722,-0.3017
195931.0,-7.3143,1.834,11.7029,0.2751,-2.4951,-0.3459
195941.0,-7.1299,1.9848,11.3796,0.1091,-2.6904,-0.414
195951.0,-7.0557,1.743,11.0445,-0.1229,-2.9197,-0.4619
195961.0,-6.7373,0.7422,10.8505,-0.2783,-3.1294,-0.4911
195971.0,-6.3494,0.6009,9.5624,-0.307,-3.3363,-0.5518
195981.0,-5.9472,1.0534,7.6543,-0.4512,-3.5577,-0.6396
195991.0,-5.5019,1.1325,5.545,-0.6965,-3.6822,-0.7077
196001.0,-4.5705,0.5291,3.814,-0.9833,-3.6407,-0.7753
196011.0,-3.6105,-0.3376,3.9121,-1.1973,-3.3619,-0.8775
196021.0,-3.2034,-0.5459,5.2313,-1.1126,-2.9585,-0.9887
196031.0,-3.3639,0.6249,6.347,-0.8764,-2.7292,-1.0807
196041.0,-3.3064,2.162,6.0358,-0.7061,-2.7489,-1.0813
196051.0,-2.7174,3.0454,4.8195,-0.6971,-2.8436,-0.9887
196061.0,-1.9824,3.2992,3.2561,-0.7466,-2.7856,-0.8471
196071.0,-1.4916,2.6097,2.4684,-0.828,-2.552,-0.6976
196081.0,-0.9146,1.5179,2.1237,-0.8567,-2.2535,-0.5805
196091.0,-0.5914,0.6321,2.3248,-0.8333,-1.9422,-0.522
196101.0,-0.2466,-0.3112,2.624,-0.729,-1.6288,-0.4991
196111.0,-0.0024,-0.8356,2.9305,-0.6002,-1.3622,-0.5364
196121.0,0.0982,-0.2562,2.6121,-0.4869,-1.1691,-0.6178
196131.0,0.2562,0.6608,2.0494,-0.4395,-0.9998,-0.6699
196141.0,0.5148,1.482,1.2761,-0.3954,-0.7726,-0.6572
196151.0,0.5722,1.9896,1.2665,-0.3129,-0.4432,-0.5875
196161.0,0.5291,2.1979,1.2785,-0.1075,-0.099,-0.4587
196171.0,0.668,2.0423,1.0199,0.1181,0.1905,-0.3081
196181.0,0.7757,1.5874,0.7422,0.257,0.4613,-0.1825
196191.0,0.7326,0.8619,0.723,0.29,0.7247,-0.1006
196201.0,0.8068,0.2083,0.2298,0.1937,0.8945,-0.0899
196211.0,0.6608,-0.1532,-0.1676,-0.0303,1.0286,-0.1474
196221.0,0.5555,0.3543,-1.2043,-0.1868,1.202,-0.2187
196231.0,0.2394,1.7382,-2.4493,-0.2959,1.4612,-0.2581
196241.0,-0.723,4.0558,-4.8243,-0.2959,1.8241,-0.1873
196251.0,-1.3024,6.0262,-8.1786,-0.29,2.4126,0.0463
196261.0,-3.2561,6.5338,-8.9376,-0.3076,3.5657,0.4204
196321.0,-14.2575,1.9417,20.1999,3.794,6.4907,0.8067
196331.0,-14.7603,4.9536,19.2302,3.1756,5.7255,0.5247
196341.0,-15.8089,5.0661,20.9804,2.113,5.2371,0.3517
196351.0,-16.2183,1.9441,25.3283,1.0903,4.7597,0.2022
196361.0,-16.362,0.486,30.6242,0.2682,3.8658,-0.1128
196371.0,-15.9621,1.9034,33.4135,-0.0623,2.5653,-0.4379
196381.0,-15.2989,5.3917,31.9626,-0.1937,1.0509,-0.6321
196391.0,-14.3389,8.5712,27.9068,-0.5263,-0.4523,-0.6141
196401.0,-12.7755,9.7851,22.4552,-0.9802,-1.6485,-0.39
196411.0,-11.406,8.7771,18.2725,-1.3665,-2.3152,-0.0756
196421.0,-10.4698,7.1491,14.8704,-1.3335,-2.5616,0.265
196431.0,-9.6175,5.1882,12.1051,-0.9961,-2.5754,0.5875
196441.0,-8.5832,3.6631,9.0453,-0.5428,-2.4855,0.8359
196451.0,-7.5322,2.1931,6.7564,-0.2288,-2.2977,0.9865
196461.0,-6.462,0.8116,4.9871,-0.0431,-1.9864,1.0307
196471.0,-5.5905,-0.431,4.8626,-0.0165,-1.5873,0.9605
196481.0,-5.0278,-1.2617,6.1028,0.0043,-1.2047,0.812
196491.0,-4.8866,-1.3455,8.3031,0.091,-0.9402,0.63
196501.0,-5.0661,-0.6201,9.8545,0.2687,-0.9083,0.4736
196511.0,-5.1882,0.1987,10.2137,0.3315,-1.1424,0.3565
196521.0,-5.1715,1.2378,9.1339,0.2208,-1.5213,0.2655
196531.0,-4.956,1.4868,7.2856,-0.0319,-1.8518,0.2208
196541.0,-4.4077,0.2083,5.9328,-0.2841,-1.9598,0.1862
196551.0,-4.0103,-1.312,5.9089,-0.3714,-1.8289,0.0894
196561.0,-3.9241,-1.9752,6.6774,-0.2778,-1.6277,-0.083
196571.0,-4.1372,-1.2594,7.92,-0.2027,-1.5602,-0.3081
196581.0,-4.3862,0.0168,8.6503,-0.1596,-1.6634,-0.4885
196591.0,-4.3335,1.2833,8.6024,-0.2001,-1.9098,-0.5954
196601.0,-4.2114,2.8778,7.3885,-0.29,-2.1716,-0.6268
196611.0,-3.9265,3.7661,6.3015,-0.4411,-2.2822,-0.5635
196621.0,-3.735,4.0462,5.1499,-0.5741,-2.2748,-0.4321
196631.0,-3.1963,2.873,4.4843,-0.7466,-2.1817,-0.2857
196641.0,-2.6647,1.4437,5.0278,-0.9424,-2.0066,-0.2214
196651.0,-2.6528,0.6704,5.77,-1.0201,-1.8597,-0.2341
196661.0,-2.3727,0.4381,6.1028,-1.0254,-1.806,-0.2762
196671.0,-2.2482,0.8906,5.5617,-1.0217,-1.7964,-0.3262
196681.0,-1.8483,1.1636,4.4796,-1.102,-1.7773,-0.3475
196691.0,-1.4341,1.2091,3.6224,-1.1749,-1.6352,-0.3427
196701.0,-0.8954,1.4916,2.8012,-1.1244,-1.3393,-0.3134
196711.0,-0.5459,1.6951,2.6815,-1.0355,-0.9519,-0.2522
196721.0,-0.4334,2.083,2.7605,-0.8881,-0.6109,-0.1575
196731.0,-0.1101,2.4062,2.0111,-0.6625,-0.3501,-0.0144
196741.0,-0.1413,2.7222,0.2682,-0.3666,-0.066,0.1719
196751.0,0.0239,2.3487,-2.5666,-0.1096,0.3342,0.3799
196761.0,-0.1125,1.0798,-4.2234,0.0122,1.0126,0.5374
196771.0,-0.6009,-0.9361,-4.2329,0.1128,1.9044,0.6034
196781.0,-1.4605,-3.3471,-1.6951,0.2655,2.8676,0.5518
196791.0,-2.4828,-4.1492,1.549,0.6268,3.6567,0.3789
196801.0,-3.5314,-3.0119,3.8164,1.0828,4.1052,0.1628
196811.0,-4.1803,-0.1844,3.486,1.3846,4.2644,-0.0074
196821.0,-5.3079,2.8994,3.0837,1.2414,4.4341,-0.0814
196831.0,-6.7277,5.0829,3.1987,0.7764,4.6629,0.0069
196841.0,-8.351,4.4843,6.4236,0.2325,5.0029,0.24
196851.0,-10.0916,2.375,11.3413,0.2597,5.4382,0.5348
196861.0,-11.643,-1.257,18.2247,0.8945,5.766,0.7785
196871.0,-12.4858,-3.0909,22.867,1.9582,5.6276,0.8141
196881.0,-12.6701,-3.1101,27.076,2.8133,5.0237,0.6125
196891.0,-12.7539,-0.0934,27.4735,3.4758,4.1079,0.3006
196901.0,-13.137,4.1108,26.4679,3.2799,2.982,-0.0404
196911.0,-13.4003,7.331,24.9548,2.2008,1.7507,-0.282
196921.0,-13.441,7.829,25.0721,0.6194,0.5976,-0.4049
196931.0,-13.6206,6.5697,26.4511,-0.7407,-0.4294,-0.4502
196941.0,-13.3908,4.8794,26.8079,-1.4681,-1.5197,-0.4486
196951.0,-12.8569,4.2353,25.2325,-1.5852,-2.5765,-0.415
196961.0,-12.1027,4.4484,21.1408,-1.2702,-3.4369,-0.3177
196971.0,-10.9918,4.7262,15.8951,-0.9589,-4.0297,-0.1788
196981.0,-9.7564,4.6639,11.5736,-0.7992,-4.2404,-0.0367
196991.0,-8.7197,4.276,8.4683,-0.6784,-4.1191,0.1016
197001.0,-7.8027,3.4405,6.9719,-0.6103,-3.853,0.2192
197011.0,-7.1036,2.5666,6.45,-0.5827,-3.5992,0.282
197021.0,-6.5529,1.6807,6.1148,-0.6103,-3.4428,0.2895
197031.0,-5.7078,0.1125,6.0094,-0.7008,-3.3481,0.2336
197041.0,-5.0398,-0.6177,5.9256,-0.771,-3.2501,0.0782
197051.0,-4.7142,-0.182,6.1531,-0.8269,-3.1645,-0.1293
197061.0,-4.5346,0.8739,5.6719,-0.8301,-3.1639,-0.2868
197071.0,-4.197,2.0638,4.2449,-0.8147,-3.2156,-0.3544
197081.0,-3.4141,2.6935,2.1955,-0.7737,-3.1235,-0.3326
197091.0,-2.9018,2.5402,1.2809,-0.7295,-2.7457,-0.2767
197101.0,-2.4493,2.2434,2.1356,-0.6694,-2.2476,-0.2368
197111.0,-2.806,2.6552,3.8906,-0.6039,-1.8773,-0.2144
197121.0,-2.5139,2.8299,4.4891,-0.4182,-1.7693,-0.1352
197131.0,-1.9321,2.8611,3.5817,-0.2192,-1.7161,-0.0271
197141.0,-1.3264,2.3822,2.8611,-0.1219,-1.5304,0.0607
197151.0,-0.9601,2.2577,2.3703,-0.1165,-1.2175,0.1027
197161.0,-0.8859,1.8004,3.0047,-0.3799,-0.9642,0.091
197171.0,-0.9529,1.4341,3.7373,-0.7503,-0.8413,0.042
197181.0,-1.0343,0.747,5.5282,-1.0695,-0.7859,-0.0106
197191.0,-1.0989,0.4142,6.0071,-0.9073,-0.745,-0.0117
197201.0,-0.8595,0.6416,5.1954,-0.5183,-0.6843,0.0096
197211.0,-0.5602,1.2857,3.9289,-0.1894,-0.5741,0.0378
197221.0,-0.0024,2.0399,1.8818,0.0878,-0.3523,0.0979
197231.0,0.3879,2.387,0.6153,0.1825,0.0426,0.174
197241.0,0.4717,2.4062,0.2011,0.1139,0.489,0.2469
197251.0,0.5291,2.5091,-0.3783,-0.0702,0.8471,0.3161
197261.0,0.5411,2.2936,-1.4389,-0.3874,1.0935,0.3906
197271.0,0.747,2.1452,-3.6966,-0.7141,1.2861,0.4762
197281.0,0.2753,2.1883,-7.1132,-0.8993,1.7091,0.5864
197291.0,-1.0295,0.972,-9.335,-0.9477,2.5467,0.7476
197301.0,-2.5594,-1.3264,-6.8857,-0.539,3.9573,0.9019
197311.0,-4.9177,-5.2241,-3.158,0.107,5.3829,0.8743
197321.0,-7.8697,-5.023,2.6217,0.7572,6.2082,0.6199
197331.0,-9.3518,-2.1069,6.2632,1.7214,6.6998,0.4023
197341.0,-10.8242,1.4724,9.1291,2.5291,6.9552,0.3209
197351.0,-12.3708,4.3096,10.7907,3.0996,7.018,0.4065
197361.0,-13.7499,3.6847,12.8545,3.3039,7.0202,0.5773
197371.0,-15.2582,1.9106,15.3899,3.0894,6.9803,0.5646
197381.0,-19.1273,1.1947,21.3539,2.3711,6.8398,0.2868
197391.0,-18.2534,-1.0295,31.6681,1.4889,6.3188,-0.1277
197401.0,-20.1304,0.8619,39.0399,1.1669,5.0668,-0.596
197411.0,-20.3627,3.4764,41.7046,0.721,2.6771,-0.9562
197421.0,-18.9405,7.5202,35.3767,0.5374,0.1937,-1.0749
197431.0,-17.7219,10.4938,27.009,0.1735,-1.4755,-0.9892
197441.0,-16.678,12.0883,20.4273,-0.3948,-2.229,-0.7678
197451.0,-16.2279,11.0181,19.1704,-0.9966,-2.4147,-0.4459
197461.0,-15.8999,9.086,19.4768,-1.011,-2.5057,-0.0564
197471.0,-15.4115,6.9168,19.2709,-0.5678,-2.7143,0.34
197481.0,-14.2527,4.616,18.3061,0.0059,-3.0288,0.6609
197491.0,-12.9885,3.6248,16.204,0.5156,-3.3092,0.8461
197501.0,-12.2463,3.802,14.1569,0.5204,-3.6109,0.8796
197511.0,-11.236,3.7828,12.2535,0.0303,-4.0095,0.8381
197521.0,-10.6231,3.201,11.9255,-0.6423,-4.3772,0.7519
197531.0,-10.2663,2.2913,11.0875,-0.9525,-4.6485,0.696
197541.0,-9.6391,1.3216,9.6462,-1.1217,-4.9715,0.6162
197551.0,-8.9136,1.4724,7.2042,-1.1914,-5.2285,0.4949
197561.0,-7.7859,1.4245,4.5873,-1.3431,-5.3158,0.3815
197571.0,-6.6822,1.5562,2.885,-1.6229,-5.2434,0.2453
197581.0,-5.77,1.6017,2.2386,-1.9241,-5.0348,0.1133
197591.0,-5.1427,1.0463,2.8012,-2.2173,-4.8731,-0.0053
197601.0,-4.5729,-0.1053,3.7637,-2.2455,-4.7832,-0.0926
197611.0,-3.7206,-1.0367,3.5147,-1.848,-4.6991,-0.158
197621.0,-3.1891,-0.5555,2.4301,-1.309,-4.5693,-0.2416
197631.0,-2.5953,0.7159,0.9385,-0.8056,-4.3351,-0.2799
197641.0,-1.9201,1.8866,-0.9888,-0.5763,-4.0946,-0.2629
197651.0,-1.0127,1.7789,-2.6935,-0.7716,-3.9366,-0.2357
197661.0,0.5698,0.7518,-4.7285,-1.0669,-3.678,-0.241
197671.0,1.5993,-0.1772,-5.4205,-1.3079,-3.1198,-0.3257
197681.0,2.1213,-0.644,-4.7477,-1.3723,-2.4206,-0.4528
197691.0,2.1644,-0.9864,-2.2242,-1.2957,-1.764,-0.5816
197701.0,1.7861,-0.8595,0.6871,-0.9142,-1.2835,-0.6747
197711.0,1.4605,-0.0742,2.0758,-0.2613,-1.0578,-0.6944
197721.0,1.3886,0.7614,2.1189,0.4262,-0.9695,-0.6449
197731.0,1.4533,1.4557,0.7685,1.0243,-0.8812,-0.5523
197741.0,1.6783,2.0614,-1.4581,1.2739,-0.8099,-0.4699
197751.0,2.1045,2.1739,-3.5745,1.1776,-0.7061,-0.406
197761.0,1.9225,2.7988,-5.4372,0.9812,-0.4177,-0.3539
197771.0,1.1109,4.1899,-8.0756,0.5779,-0.2134,-0.2943
197781.0,0.5435,6.3111,-13.3812,-0.3219,-0.241,-0.2102
197791.0,1.0942,8.2432,-17.0204,-1.773,-0.2879,-0.0729
197801.0,-2.976,11.0277,-24.2221,-2.4839,-0.0984,0.265
197811.0,0.2777,14.935,-35.3983,-2.3397,0.5624,0.9184
197821.0,-6.5817,19.2159,-40.2537,-1.1536,3.3699,1.9401
197831.0,-12.05,17.0611,-37.4884,0.5209,6.5152,3.3433
197841.0,-19.7617,6.4524,-26.2979,2.4339,10.0399,4.6251
197851.0,-31.8525,-7.2257,-13.0915,4.068,13.0447,5.0753
197861.0,-34.4262,-24.8327,10.2711,3.4156,14.7624,4.3984
197871.0,-36.9186,-34.9051,38.8627,2.6584,15.5286,2.3232
197881.0,-41.288,-26.3769,64.3059,2.6542,13.5103,-0.3235
197891.0,-35.8436,-7.2712,66.8916,4.1281,9.2965,-1.9997
197901.0,-31.3209,12.2966,55.9477,5.3706,5.857,-2.6515
197911.0,-26.0034,24.2533,43.6104,4.6879,3.3262,-2.5488
197921.0,-24.4975,27.7009,40.7469,2.8213,2.6212,-2.0289
197931.0,-25.1319,21.6579,47.9415,0.8615,2.1338,-1.318
197941.0,-23.8271,15.0284,49.8545,-0.3374,0.2591,-0.7503
197951.0,-20.4632,11.3509,40.6128,-1.2297,-2.3807,-0.4603
197961.0,-16.9869,9.5672,29.6881,-2.0289,-3.9802,-0.3677
197971.0,-14.3868,9.2703,19.3643,-2.4243,-4.3096,-0.2895
197981.0,-13.3764,6.4859,15.0021,-2.668,-3.8019,-0.1474
197991.0,-11.4802,6.1459,13.611,-2.3184,-2.8777,-0.025
198001.0,-11.7843,5.2218,17.0946,-1.6964,-1.823,0.1453
198011.0,-11.3892,1.4772,23.7122,-0.8535,-1.2356,0.3688
198021.0,-12.7084,0.2227,29.8341,0.0952,-1.4857,0.4374
198031.0,-13.8576,-0.996,32.19,0.7338,-2.8543,0.4597
198041.0,-14.3269,-1.1827,28.4407,0.9243,-4.9077,0.4033
198051.0,-15.2008,1.2809,20.0179,0.5582,-6.8706,0.2645
198061.0,-15.9621,2.5235,11.2336,-0.3384,-8.3733,0.1958
198071.0,-15.9334,1.7645,2.3056,-1.3446,-9.279,0.19
198081.0,-14.1114,1.3982,-7.7907,-2.369,-9.7919,0.1346
198091.0,-8.4803,0.4956,-17.1377,-3.4018,-9.6382,-0.0011
198101.0,-2.9544,-0.6656,-21.7513,-3.8482,-8.2105,-0.224
198111.0,-1.8004,-0.9649,-21.4712,-3.836,-6.2241,-0.4848
198121.0,1.2665,-1.5634,-18.5239,-3.4428,-4.4623,-0.7056
198131.0,1.7933,-1.9106,-12.6414,-2.3966,-2.6595,-0.8418
198141.0,0.3089,-1.0463,-5.6383,-0.7317,-1.1866,-0.8785
198151.0,1.3168,1.3982,-3.7661,1.1281,-0.481,-0.7689
198161.0,1.1325,3.5626,-3.3136,2.3131,-0.1117,-0.5635
198171.0,1.3719,5.6216,-5.0829,2.7164,0.1857,-0.3161
198181.0,0.7542,5.1188,-4.0677,2.0305,0.5002,-0.1325
198191.0,0.3663,3.3998,-1.5682,0.8466,0.6683,-0.0921
198201.0,0.0144,0.9792,3.3567,-0.3272,0.696,-0.1905
198211.0,-0.4453,0.261,6.8905,-0.7833,0.5321,-0.3352
198221.0,-0.5171,0.3855,9.1698,-0.6657,0.2889,-0.4289
198231.0,-0.6201,1.7095,9.4834,-0.158,0.0362,-0.4321
198241.0,-0.1652,2.7605,8.1163,0.3847,-0.2581,-0.3219
198251.0,0.7063,3.5698,5.6719,0.8434,-0.3762,-0.1463
198261.0,1.2809,3.5506,3.6727,1.1222,-0.2006,0.0506
198271.0,1.7214,2.7916,3.1101,1.1494,0.1378,0.2102
198281.0,1.8914,2.1404,3.9385,1.0004,0.4619,0.2841
198291.0,1.8531,1.2953,4.4652,0.7859,0.6476,0.3134
198301.0,1.7837,-0.2921,6.1794,0.481,0.738,0.29
198311.0,1.324,-0.6033,7.1084,0.4092,0.7178,0.2198
198371.0,-3.6368,9.9503,-37.4693,-0.241,1.9853,1.1222
198381.0,-6.2728,9.0094,-43.4045,0.3996,3.9653,1.9113
198391.0,-11.746,2.8108,-43.1579,1.7459,7.4996,2.6728
198401.0,-21.9405,-8.0158,-28.9603,2.9862,11.698,2.8702
198411.0,-31.2515,-17.2023,-9.1985,3.7546,14.5341,2.1114
198421.0,-38.5155,-13.0508,11.6622,3.9892,15.8415,0.4129
198431.0,-45.5664,3.9193,27.1119,3.6301,14.8364,-1.1621
198441.0,-41.7405,16.86,29.5444,2.4429,11.8219,-1.7203
198451.0,-40.8499,18.8088,31.8046,1.5905,10.108,-1.2537
198461.0,-35.5419,4.3167,40.474,1.8613,9.5674,-0.5124
198471.0,-38.4365,-0.3759,56.6588,3.1363,9.5397,-0.6598
198481.0,-39.2984,3.9169,64.9691,3.7062,7.0127,-1.3053
198491.0,-34.9625,12.6821,59.5989,2.2045,2.3174,-2.0162
198501.0,-30.2364,19.5846,50.5607,-0.0692,-1.3723,-2.3312
198511.0,-26.4416,21.2198,41.8961,-1.4213,-3.2688,-1.9555
198521.0,-23.0059,18.4282,34.3783,-1.8725,-4.3878,-1.2052
198531.0,-19.4744,14.5879,26.4703,-1.4138,-5.0162,-0.3688
198541.0,-16.69,9.6007,18.986,-0.4273,-4.9258,0.3879
198551.0,-14.6381,3.3208,15.6293,0.3299,-4.4075,0.8413
198561.0,-12.4858,-0.0646,14.7124,0.7311,-3.9499,0.861
198571.0,-12.0548,-1.142,17.7147,0.8333,-3.6274,0.5901
198581.0,-12.7898,2.8491,18.2127,0.9083,-3.8583,0.273
198591.0,-13.2974,6.3853,16.4482,0.1857,-4.8678,0.1022
198601.0,-12.2272,7.2496,11.5951,-0.911,-6.206,0.1336
198611.0,-10.6662,5.4875,5.296,-1.6341,-6.9973,0.299
198621.0,-9.2392,2.8491,-1.0487,-1.856,-7.0175,0.4672
198631.0,-7.5585,-1.0223,-5.3941,-2.0497,-6.6291,0.5092
198641.0,-5.3151,-4.039,-7.7692,-2.2035,-5.9565,0.3108
198651.0,-4.4173,-4.9177,-6.5362,-2.1439,-4.9407,-0.0835
198661.0,-3.9672,-2.8419,-3.5386,-1.7693,-4.0047,-0.5002
198671.0,-4.3551,0.6153,-0.5387,-1.21,-3.3981,-0.7583
198681.0,-4.0821,4.1731,0.0599,-0.5193,-3.2299,-0.754
198691.0,-3.0382,6.9671,-3.0574,0.0335,-3.1831,-0.5199
198701.0,-1.7621,7.3191,-5.1308,0.0426,-2.875,-0.1878
198711.0,-0.9625,5.2529,-4.8578,-0.2288,-2.312,0.1139
198721.0,-0.5531,1.834,-1.743,-0.5289,-1.7421,0.2762
198731.0,-0.5076,-0.8859,1.9513,-0.5326,-1.3377,0.2724
198741.0,-0.5483,-1.2139,4.4604,-0.3145,-1.2249,0.133
198751.0,-0.4046,0.0886,5.3391,-0.025,-1.2888,-0.0053
198761.0,-0.1724,1.8794,4.8507,0.2756,-1.3154,-0.0564
198771.0,0.1006,3.474,3.7613,0.4129,-1.3085,-0.0208
198781.0,0.5722,4.1659,2.2936,0.273,-1.2787,0.0734
198791.0,0.759,4.2066,2.1596,-0.0122,-1.1265,0.1772
198801.0,0.656,4.9249,1.9872,-0.1522,-0.8924,0.3006
198811.0,0.3136,4.6495,3.0526,-0.2692,-0.6912,0.4842
198821.0,0.0646,3.553,4.2425,-0.1357,-0.4927,0.7104
198831.0,-0.2801,2.162,5.9831,0.191,-0.3565,0.9035
198841.0,-0.2945,1.0008,6.0932,0.7098,-0.3847,1.0483
198851.0,0.1796,-0.3304,4.2425,1.1275,-0.5683,1.1148
198861.0,1.5897,-1.154,-0.8595,1.2079,-0.8471,1.0504
198871.0,1.9944,-1.0942,-4.9033,0.763,-0.8775,0.8285
198881.0,3.3782,0.5938,-10.8146,0.1815,-0.7934,0.6417
198891.0,2.2577,1.2474,-14.3628,-0.4315,-0.4182,0.6093
198901.0,-0.3256,2.2889,-19.2661,-0.4145,0.1522,0.7359
198911.0,-2.5953,4.1539,-27.5549,0.124,0.8966,0.994
198921.0,-4.47,6.5218,-37.6129,0.7551,2.4328,1.3718
198931.0,-5.9352,2.8252,-40.7445,0.8508,4.9678,1.8374
198941.0,-10.9271,-6.2249,-35.3671,0.6902,8.0434,2.0609
198951.0,-17.8488,-16.6636,-24.3969,0.3209,10.6449,1.6618
198961.0,-24.7513,-21.2031,-9.6391,0.1596,12.5307,0.6502
198971.0,-35.6066,-14.8488,10.0676,1.5101,14.3319,-0.6279
198981.0,-42.6527,-2.0806,24.598,3.6812,14.722,-1.5288
198991.0,-44.343,9.3374,31.9841,5.3312,13.3443,-1.8502
199001.0,-44.7117,16.7929,33.7989,6.1502,11.9943,-1.9252
199011.0,-46.0453,19.8144,46.9766,5.0003,11.3111,-2.1561
199021.0,-45.327,21.2701,65.2204,2.5627,9.2891,-2.4647
199031.0,-42.5019,20.6979,78.4508,-0.1107,4.805,-2.5674
199041.0,-36.9593,22.0219,70.7175,-1.0999,-0.6593,-2.1481
199051.0,-30.5572,21.0762,50.204,-1.0004,-4.6533,-1.3345
199061.0,-24.5525,18.2797,29.5923,-0.705,-6.3295,-0.4874
199071.0,-20.4537,14.2742,17.243,-0.5236,-6.1278,0.2017
199081.0,-17.9565,9.6295,12.2966,-0.1405,-5.0035,0.7253
199091.0,-16.9462,4.5131,13.6565,0.2506,-3.9563,1.0014
199101.0,-15.6677,0.2873,15.9693,0.6955,-3.5332,1.0217
199111.0,-14.0061,-1.233,16.8552,0.9525,-3.7397,0.7551
199121.0,-13.5679,2.1883,14.5232,0.7003,-4.4038,0.3209
199131.0,-12.6725,5.0063,12.232,-0.3656,-5.2865,-0.0192
199141.0,-12.4331,6.2991,10.5632,-1.5447,-6.0581,-0.19
199151.0,-12.5696,6.7205,8.7795,-2.2844,-6.7073,-0.1788
199161.0,-12.7515,6.1507,6.438,-2.3344,-7.199,0.0234
199171.0,-12.4786,4.1946,1.549,-1.8443,-7.5794,0.3597
199181.0,-10.4579,1.3599,-5.7868,-1.2989,-7.7332,0.6609
199191.0,-7.0797,-1.9848,-12.2823,-1.0632,-7.2665,0.7396
199201.0,-4.391,-2.7198,-16.6373,-1.1073,-6.1975,0.4933
199211.0,-2.3343,-2.3128,-15.7586,-1.6575,-4.9348,0.0947
199221.0,-1.2857,-0.8906,-11.1642,-2.0098,-3.645,-0.2873
199231.0,-0.8811,1.7382,-4.6831,-1.7725,-2.6249,-0.5353
199241.0,-1.6855,5.0278,-1.4676,-0.9243,-2.1215,-0.5273
199251.0,-1.4174,7.2018,0.1915,-0.1112,-1.9411,-0.2331
199261.0,-0.1197,7.5417,-2.1715,0.5561,-1.9241,0.2485
199271.0,1.1157,5.782,-4.8387,0.8205,-1.6166,0.7008
199281.0,1.798,3.1699,-5.4444,0.6087,-0.9477,0.9594
199291.0,1.5586,0.2131,-2.557,-0.0208,-0.2554,0.9722
199301.0,0.917,-1.9824,2.3439,-0.7375,0.1277,0.7774
199311.0,-0.0168,-2.6528,7.4603,-1.1073,0.2075,0.4842
199321.0,-0.7015,-1.6879,9.9144,-1.0594,-0.0756,0.2182
199331.0,-0.735,-0.7159,9.8881,-0.8344,-0.5571,0.0495
199341.0,0.0335,0.7087,6.596,-0.489,-0.9743,-0.0277
199351.0,0.8835,1.8268,2.8635,-0.191,-0.978,-0.0255
199361.0,1.6759,1.8723,0.893,0.0878,-0.4677,0.0495
199371.0,1.4916,1.5083,2.15,0.3746,0.3171,0.1373
199381.0,0.8547,1.2378,4.7405,0.6614,0.8908,0.2139
199391.0,0.3065,0.7853,6.754,0.8567,1.0616,0.2799
199401.0,-0.0694,0.4717,7.4795,0.9557,0.97,0.3113
199411.0,-0.486,0.6081,7.0773,0.9722,0.7891,0.3187
199421.0,-0.9601,1.0343,5.0949,0.837,0.53,0.3193
199551.0,-46.1434,12.6701,63.4128,5.1338,13.1905,-3.2023
199561.0,-44.2018,31.2826,65.5125,3.9823,8.9251,-3.3496
199571.0,-37.3591,34.0719,63.6953,0.2629,3.3779,-2.6329
199581.0,-32.3912,23.7553,58.2006,-1.9991,-0.7173,-1.3638
199591.0,-29.6498,16.8049,40.0789,-1.2936,-2.9229,-0.0899
199601.0,-23.8869,9.6606,27.2269,-0.6683,-3.9041,0.6864
199611.0,-17.4872,6.79,15.208,0.1086,-3.6625,0.9919
199621.0,-14.8488,3.8283,14.8512,0.2304,-2.4472,0.9871
199631.0,-14.1952,2.988,17.7769,0.3677,-1.5048,0.8647
199641.0,-14.8967,1.312,24.5047,0.306,-1.4633,0.7412
199651.0,-14.5903,1.8052,25.8861,0.7386,-2.2961,0.6816
199661.0,-14.279,2.557,23.4799,1.1627,-3.3645,0.6891
199671.0,-13.4554,3.4189,18.0571,1.2382,-4.2803,0.7109
199681.0,-12.9933,2.5163,14.7052,0.7673,-4.8428,0.6859
199691.0,-12.0859,2.2098,12.153,0.257,-5.1328,0.5715
199701.0,-12.0524,3.304,11.6933,-0.3044,-5.2695,0.4023
199711.0,-12.4666,3.972,11.2671,-0.8673,-5.6936,0.323
199721.0,-12.0237,3.2657,8.9591,-1.2829,-6.4008,0.3656
199731.0,-10.7356,1.6328,4.4221,-1.3542,-6.8882,0.4619
199741.0,-8.8657,-0.4741,0.6057,-1.268,-6.876,0.4949
199751.0,-7.5346,-1.0439,-2.9928,-0.9791,-6.4061,0.4156
199761.0,-6.3351,-1.0367,-5.5426,-1.0397,-5.8793,0.2671
199771.0,-3.8618,-1.008,-7.4699,-1.3622,-5.3057,0.0718
199781.0,-2.0231,-0.2777,-6.5553,-1.5197,-4.3229,-0.1277
199791.0,-1.482,0.395,-3.1292,-1.3633,-3.2065,-0.2341
199801.0,-1.3503,1.4222,0.8571,-1.0036,-2.4036,-0.2623
199811.0,-1.6688,2.4253,4.0055,-0.6337,-2.0875,-0.2283
199821.0,-1.4222,2.8228,3.9217,-0.3161,-2.1497,-0.125
199831.0,-0.8859,2.3703,3.1316,-0.2448,-2.1625,-0.0351
199841.0,-0.6847,1.6424,3.0694,-0.3124,-2.0066,-0.0192
199851.0,-0.6105,1.336,3.9073,-0.3751,-1.7661,-0.0686
199861.0,-0.8404,2.2122,4.9919,-0.3746,-1.5543,-0.1458
199871.0,-1.0439,3.7254,5.77,-0.4214,-1.5229,-0.1644
199881.0,-0.7135,4.4843,5.0206,-0.4895,-1.5745,-0.0564
199891.0,-0.2059,3.9313,4.6208,-0.6231,-1.4814,0.1043
199901.0,-0.2969,3.3232,4.5753,-0.7668,-1.2537,0.2208
199911.0,-0.1173,1.7621,5.2648,-1.0557,-1.1281,0.2831
199921.0,-0.0144,-0.0287,6.8426,-1.2616,-1.0233,0.2554
199931.0,-0.1413,-0.5986,7.9655,-1.2106,-0.9732,0.1474
199941.0,0.0431,-0.4573,8.4228,-1.0493,-1.0616,0.0282
199951.0,0.1077,0.6225,7.3885,-0.7641,-1.1701,-0.0516
199961.0,0.1963,1.8771,5.8012,-0.5555,-1.1988,-0.0623
199971.0,0.4357,2.3846,4.4891,-0.4645,-1.1595,0.0149
199981.0,0.9409,1.9848,2.6911,-0.3012,-1.0584,0.1532
199991.0,1.5419,1.4389,0.7494,-0.0585,-0.7801,0.2831
200001.0,1.9465,1.0415,-0.9984,0.125,-0.3741,0.3714
200011.0,2.0183,0.6728,-2.4301,0.1256,0.041,0.4071
200021.0,2.7342,0.17,-4.1994,-0.0436,0.3826,0.3916
200031.0,2.332,-0.4022,-5.7581,-0.2341,0.795,0.3257
200041.0,1.3934,0.5052,-9.0549,-0.2714,1.3207,0.2559
200051.0,1.3575,-0.2682,-9.6414,-0.4252,2.0641,0.265
200061.0,0.3639,-1.8148,-7.2449,-0.0277,3.3991,0.339
200071.0,-1.7693,-1.6903,-2.1979,0.522,4.6235,0.3182
200081.0,-3.4022,-0.7901,2.9329,0.7402,5.0295,0.2453
200091.0,-4.1228,0.9457,4.0725,0.8519,4.9077,0.2107
200101.0,-4.7549,2.976,3.292,0.7471,4.7603,0.2304
200111.0,-5.715,4.9416,0.3735,0.6465,4.8731,0.3602
200121.0,-8.6455,5.8107,-0.3615,0.5667,5.6143,0.5726
200131.0,-12.4786,1.403,3.4213,0.6274,6.7392,0.8503
200141.0,-13.0149,-6.1531,13.6278,1.1696,7.9886,0.8721
200151.0,-16.2949,-8.497,27.8015,2.5057,9.0757,0.3735
200161.0,-18.3827,-4.312,42.3343,3.736,8.765,-0.4667
200171.0,-20.1664,6.0047,48.6071,3.8392,6.3247,-1.243
200181.0,-17.5639,13.8744,46.1602,2.3855,2.576,-1.5548
200191.0,-15.9406,17.4226,38.4485,0.6151,-0.3868,-1.3383
200201.0,-14.4945,15.7203,31.3066,-0.8508,-2.1817,-0.7886
200211.0,-12.9143,11.3772,25.6922,-1.6719,-3.264,-0.1846
200221.0,-11.1833,7.3478,20.0945,-1.6352,-3.7849,0.3469
200231.0,-9.2249,2.7797,15.5599,-1.1526,-3.8631,0.7423
200241.0,-7.0461,-1.1779,12.2727,-0.5007,-3.6168,0.8934
200251.0,-5.5857,-2.8659,9.8545,-0.0293,-3.2954,0.7652
200261.0,-4.2473,-3.4093,8.5904,0.0745,-3.0293,0.4741
200271.0,-3.6057,-2.411,8.181,-0.1176,-2.8617,0.1075
200281.0,-3.5626,-0.5578,8.1954,-0.4028,-2.7984,-0.199
200291.0,-3.395,0.8715,7.5369,-0.68,-2.8644,-0.3688
200301.0,-3.2394,1.7238,6.7564,-0.8961,-2.9346,-0.4374
200311.0,-2.7892,1.7669,5.6312,-0.961,-2.8894,-0.4273
200321.0,-2.2601,1.075,5.5378,-0.9562,-2.7074,-0.4071
200331.0,-2.1117,1.0367,5.8442,-0.8131,-2.436,-0.4209
200341.0,-2.1668,1.5179,6.2752,-0.7716,-2.3088,-0.4518
200351.0,-2.0375,2.2936,6.2106,-0.7998,-2.3253,-0.4576
200361.0,-1.8771,3.1484,5.4564,-0.7854,-2.3136,-0.4033
200371.0,-1.2617,3.0406,4.0821,-0.713,-2.2354,-0.2719
200381.0,-0.6584,2.0853,3.146,-0.5497,-1.947,-0.1282
200391.0,-0.0287,0.5387,3.4333,-0.2799,-1.4601,-0.0314
200401.0,-0.1484,-0.3017,4.9728,0.0383,-0.9413,-0.0261
200411.0,-0.4405,-0.17,6.5769,0.2751,-0.6561,-0.0867
200421.0,-0.4956,0.395,7.3933,0.3725,-0.6204,-0.1591
200431.0,-0.4238,0.9194,7.331,0.364,-0.6678,-0.2054
200441.0,-0.3136,1.4198,6.9623,0.248,-0.6731,-0.2384
200451.0,-0.2466,1.5634,7.0461,0.066,-0.6247,-0.2543
200461.0,-0.1508,1.7885,6.9983,-0.049,-0.5667,-0.2543
200471.0,-0.067,1.9824,6.6391,-0.1644,-0.5465,-0.2416
200481.0,0.1963,1.8268,6.2034,-0.3171,-0.5241,-0.2171
200491.0,0.2993,1.4892,6.2656,-0.4166,-0.3773,-0.1905
200501.0,0.091,1.3216,7.0485,-0.4762,-0.2001,-0.1703
200511.0,0.0192,1.1253,7.5274,-0.4997,-0.1878,-0.1405
200521.0,0.4334,0.6728,6.687,-0.373,-0.2613,-0.0894
200531.0,1.0008,0.3663,4.9368,-0.0931,-0.1873,-0.0431
200541.0,1.3647,0.1269,3.1963,0.2347,0.1011,-0.0122
200551.0,1.6233,-0.2418,2.0039,0.506,0.539,-0.0005
200561.0,1.549,-0.4405,1.664,0.629,1.0318,-0.0394
200571.0,1.0343,-0.146,2.162,0.588,1.4942,-0.1203
200581.0,0.5004,-0.2251,3.3471,0.4065,1.8475,-0.1958
200591.0,-0.146,-0.261,4.64,0.1979,2.071,-0.2772
200601.0,-0.4453,-0.0407,5.2864,0.0335,2.1423,-0.3485
200611.0,-0.4573,-0.1413,5.0685,-0.0372,2.1465,-0.3778
200621.0,-0.5315,0.1245,3.6703,0.0442,2.2583,-0.3868
200631.0,-0.8643,0.4621,2.1955,0.0963,2.4541,-0.3762
200641.0,-1.0726,0.9601,0.4214,0.2762,2.8404,-0.3241
200651.0,-2.4157,2.7222,-0.5866,0.5901,3.5891,-0.2506
200661.0,-4.9752,4.8626,-0.1077,0.8306,4.4431,-0.1096
200671.0,-7.7165,5.5234,0.9337,0.8508,5.1993,0.1149
200681.0,-10.1035,3.0406,5.9065,0.6396,5.9299,0.3209
200691.0,-11.5137,0.1508,11.983,0.8759,6.5524,0.423
200701.0,-13.137,-1.4126,20.7601,1.5075,6.9877,0.3427
200711.0,-13.7906,-0.5842,29.8605,2.643,6.9473,0.1815
200721.0,-14.7387,2.5163,36.739,3.7865,6.2662,-0.0239
200731.0,-16.0028,9.1913,40.0741,3.82,4.673,-0.3209
200741.0,-16.9557,14.3437,41.4101,2.1002,2.2088,-0.5433
200751.0,-16.9581,14.856,39.9856,-0.4081,-0.6396,-0.5784
200761.0,-16.3763,12.3804,35.1373,-2.4036,-3.1427,-0.4959
200771.0,-15.536,10.331,28.3761,-3.2709,-4.8582,-0.3443
200781.0,-13.9869,9.1674,19.4816,-3.0958,-5.7569,-0.0713
200791.0,-11.7747,7.8673,11.9255,-2.5094,-5.8463,0.2661
200801.0,-9.4571,6.4284,6.5673,-1.7193,-5.2567,0.6226
200811.0,-7.5848,4.0654,4.446,-1.0355,-4.3537,0.9333
200821.0,-6.3375,1.4006,4.3335,-0.6481,-3.6136,1.0882
200831.0,-5.0996,-0.7542,4.2641,-0.6486,-3.3183,1.0238
200841.0,-3.9289,-1.822,3.213,-0.9067,-3.2858,0.7694
200851.0,-2.7892,-1.7478,1.6544,-1.3122,-3.256,0.4177
200861.0,-1.822,-1.2617,1.0104,-1.6357,-3.0203,0.0809
200871.0,-1.4006,-0.4046,1.7071,-1.6762,-2.5797,-0.165
200881.0,-1.4653,0.2011,4.0558,-1.4058,-2.1354,-0.2841
200891.0,-1.7549,1.664,4.7812,-0.8397,-1.9241,-0.2948
200901.0,-1.6616,2.4684,4.1851,-0.3959,-1.9816,-0.2017
200911.0,-0.9337,2.727,1.7885,-0.0101,-2.0007,-0.0463
200921.0,-0.0335,2.2338,-0.838,0.2331,-1.7272,0.1096
200931.0,0.7566,0.668,-1.64,0.2347,-1.1696,0.2033
200941.0,1.0989,-1.3336,-0.1676,0.1048,-0.489,0.174
200951.0,0.996,-2.4876,3.1196,-0.0452,0.0809,0.0085
200961.0,0.2322,-2.0016,6.7588,-0.1522,0.3805,-0.2315
200971.0,-0.4429,-0.6297,9.4595,-0.3017,0.3092,-0.4507
200981.0,-0.9433,1.1301,11.4395,-0.5039,-0.0537,-0.5885
200991.0,-1.1803,2.4181,11.0756,-0.3858,-0.5422,-0.5662
201001.0,-0.6512,3.2537,7.8697,-0.1133,-0.928,-0.4198
201011.0,0.0048,3.2537,5.2601,0.0819,-0.9216,-0.2315
201021.0,0.3448,2.2984,4.3574,0.306,-0.5486,-0.0367
201031.0,0.4597,1.5395,4.9728,0.5172,-0.0963,0.1
201041.0,0.1963,1.5323,5.9783,0.629,0.19,0.1708
201051.0,0.103,1.549,6.2824,0.5837,0.2474,0.2203
201061.0,0.2993,1.1636,5.7293,0.3709,0.1974,0.2405
201071.0,0.5578,0.4477,4.9775,0.1197,0.2251,0.2246
201081.0,0.7087,-0.4812,4.3359,-0.0287,0.3719,0.1729
201091.0,0.8284,-1.1277,3.79,-0.0202,0.6188,0.0788
201101.0,0.6632,-0.4381,3.5147,0.0995,0.9386,-0.0378
201111.0,0.419,0.917,3.1556,0.3017,1.2696,-0.0921
201121.0,0.1556,2.3463,1.9728,0.5007,1.616,-0.0601
201131.0,-0.2753,3.5626,0.6919,0.4023,1.9411,0.0208
201141.0,-0.826,3.7757,-0.1724,0.0229,2.2562,0.1442
201151.0,-1.4054,3.0813,-0.7135,-0.3778,2.6531,0.2953
201161.0,-2.5594,2.0351,-0.9505,-0.7221,3.0735,0.4363
201171.0,-3.7493,0.2442,-1.4317,-0.8546,3.5338,0.5736
201181.0,-4.9943,-2.3774,-0.6536,-0.5912,4.3277,0.6816
201191.0,-6.8091,-6.2273,2.794,0.1112,5.4696,0.6705
201201.0,-9.0644,-7.1012,9.3589,1.1164,6.67,0.364
201211.0,-12.7611,-4.707,20.1735,2.1577,7.6087,-0.1213
201221.0,-14.7962,-0.2538,30.0544,2.9883,7.5188,-0.5438
201231.0,-16.362,6.5888,37.723,3.0064,6.2124,-0.862
201241.0,-16.8241,12.0309,40.7445,2.1423,3.9733,-0.8908
201251.0,-16.3644,13.0987,39.9903,0.7551,1.4702,-0.6561
201261.0,-15.6844,10.7787,35.8029,-0.5523,-0.7604,-0.364
201271.0,-14.7698,7.5681,30.9786,-1.4835,-2.4456,-0.1713
201281.0,-13.7858,5.6575,25.2493,-1.7065,-3.48,-0.0527
201291.0,-12.7443,4.6184,20.1568,-1.5426,-4.0334,0.0399
201301.0,-11.0564,3.6871,15.7922,-1.1855,-4.234,0.1421
201311.0,-9.5912,3.0622,12.9861,-0.7391,-4.1276,0.2347
201321.0,-8.6048,2.8683,10.9343,-0.298,-3.9185,0.3235
201331.0,-7.6495,2.4134,9.3134,-0.1075,-3.8296,0.397
201341.0,-6.359,1.7047,7.7213,-0.1884,-3.8679,0.4097
201351.0,-5.6719,1.1157,6.7397,-0.3767,-3.8658,0.3475
201361.0,-5.272,1.1229,5.7341,-0.5704,-3.878,0.2501
201371.0,-4.1707,1.0894,4.3574,-0.7247,-3.969,0.1607
201381.0,-3.7134,0.7638,2.3367,-0.7806,-3.9696,0.0729
201391.0,-2.4684,0.6632,-0.4764,-0.7588,-3.8089,-0.0032
201401.0,-0.8045,0.2322,-1.9896,-0.7955,-3.3763,-0.0862
201411.0,-0.1628,0.6416,-2.2362,-0.7865,-2.676,-0.1777
201421.0,0.2083,0.7278,-0.5555,-0.8482,-2.0444,-0.248
201431.0,0.2394,1.0582,1.3024,-0.8205,-1.5814,-0.2778
201441.0,0.2562,1.3671,3.1268,-0.6401,-1.2898,-0.2549
201451.0,0.3998,1.6017,3.9552,-0.2123,-1.0722,-0.1591
201461.0,0.6632,1.6879,3.8211,0.3283,-0.8455,-0.0202
201471.0,0.9529,1.2474,3.7565,0.737,-0.571,0.1149
201481.0,1.0989,0.3472,4.2808,0.9929,-0.2501,0.2011
201491.0,1.0343,-0.1652,5.1332,1.0839,0.0234,0.1974
201501.0,0.8547,-0.0862,6.1746,0.9546,0.1724,0.1112
201511.0,0.498,0.2562,6.8402,0.6359,0.165,-0.008
201521.0,0.5507,0.4884,7.1443,0.1708,0.0484,-0.1352
201531.0,0.4453,0.9625,7.501,-0.2826,-0.0138,-0.2549
201541.0,0.158,1.1492,8.7867,-0.5853,0.0261,-0.3315
201551.0,-0.1413,1.5562,9.6965,-0.6247,0.0463,-0.3469
201561.0,-0.3256,1.4676,10.8122,-0.522,0.0074,-0.3022
201571.0,-0.1939,1.8387,10.5273,-0.1836,-0.0654,-0.2187
201581.0,-0.012,2.2482,9.7085,0.2299,-0.0346,-0.1075
201591.0,0.1556,2.5259,8.7508,0.5736,0.091,0.0133
201601.0,0.146,2.9353,7.9511,0.7285,0.2772,0.1086
201611.0,-0.0072,2.7126,8.023,0.6066,0.4486,0.1735
201621.0,0.0742,1.5754,8.6455,0.3161,0.5465,0.1894
201631.0,-0.0144,1.2139,9.347,-0.0144,0.5449,0.1229
201641.0,-0.2274,1.1444,9.7205,-0.3219,0.4417,0.0367
201651.0,0.0263,0.7326,9.0214,-0.5161,0.265,-0.0186
201661.0,0.3112,0.5722,7.865,-0.5789,0.224,-0.0702
201671.0,0.3112,0.7853,7.2401,-0.4975,0.3395,-0.1048
201681.0,0.4214,1.391,5.4899,-0.2325,0.4581,-0.0851
201691.0,0.5914,2.6743,1.8938,-0.0734,0.605,-0.0436
201701.0,0.9242,3.2944,-1.6041,-0.3512,0.8099,0.0149
201711.0,1.391,3.7637,-5.7221,-0.7572,1.2308,0.1086
201721.0,-0.3041,3.9025,-8.023,-1.2425,2.0188,0.2304
201731.0,-1.8986,3.6368,-10.0844,-1.5607,2.9484,0.4656
201741.0,-3.4692,-0.012,-7.7045,-1.4926,4.3458,0.7987
201751.0,-6.043,-4.2928,-2.0614,-0.7593,6.0049,1.0302
201761.0,-9.2727,-8.8681,8.9663,0.3453,7.349,0.9642
201771.0,-9.7947,-7.8171,15.1888,1.9725,7.7625,0.5986
201781.0,-11.7579,-3.7757,21.1336,3.0905,7.5799,0.1144
201791.0,-12.0931,2.3511,22.4504,3.7876,6.9207,-0.232
201801.0,-14.0875,7.4962,23.8271,3.4066,6.0363,-0.3895
201811.0,-14.6286,10.726,23.5637,2.4179,5.0215,-0.3193
201821.0,-16.1656,10.2544,26.3027,1.0749,4.2883,-0.1261
201831.0,-17.2119,6.6367,32.2595,0.0952,3.712,0.0639
201841.0,-18.3324,3.7421,38.7286,-0.3129,2.8234,0.0803
201851.0,-18.2869,2.8204,40.6775,-0.4502,1.0988,-0.0686
201861.0,-17.2909,4.6855,36.8875,-0.6455,-0.9216,-0.3033
201871.0,-16.3452,7.3526,31.0265,-1.0876,-2.5142,-0.4869
201881.0,-15.4785,8.9543,25.9986,-1.6815,-3.5252,-0.5199
201891.0,-15.0595,8.9447,23.2597,-2.204,-4.1542,-0.4145
201901.0,-14.5232,7.9703,20.4704,-2.3865,-4.6517,-0.2075
201911.0,-13.6469,5.5545,18.5215,-2.3658,-5.0923,0.016
201921.0,-12.9071,3.8523,15.7467,-2.0316,-5.393,0.1634
201931.0,-12.4451,2.3224,13.9702,-1.7565,-5.6404,0.2075
201941.0,-11.576,1.3072,11.576,-1.4303,-5.9432,0.1793
201951.0,-10.7907,1.8148,8.6048,-1.0759,-6.1432,0.0947
201961.0,-10.1323,3.3423,5.0925,-0.8487,-6.2795,0.0399
201971.0,-8.7029,4.13,0.4429,-0.8689,-6.4183,0.0601
201981.0,-6.7014,4.5322,-4.3407,-1.1009,-6.3061,0.1006
201991.0,-4.5729,3.8355,-7.6136,-1.3659,-5.741,0.1506
202001.0,-2.5929,2.7677,-9.1028,-1.5548,-4.7975,0.1894
202011.0,-0.9984,0.9673,-7.2616,-1.7985,-3.7753,0.1634
202021.0,-0.2251,-1.2665,-2.3679,-1.8124,-2.8718,0.0809
202031.0,-0.3639,-2.6001,3.201,-1.2675,-2.3221,-0.0325
202041.0,-0.0455,-1.9585,4.5777,-0.1932,-2.2003,-0.0926
202051.0,0.0455,-0.2322,3.7086,0.6316,-2.3466,-0.108
202061.0,0.8164,1.7885,-0.3998,1.0791,-2.5132,-0.0431
202071.0,1.9154,2.3727,-3.9816,0.8663,-2.4014,0.0569
202081.0,3.0694,1.0104,-4.4628,0.3624,-1.8438,0.1437
202091.0,3.1867,-1.2043,-0.4501,0.0149,-1.0115,0.165
202101.0,2.6935,-2.1739,3.9887,0.0548,-0.4879,0.1139
202111.0,2.4636,-2.806,6.9887,0.165,-0.5193,0.033
202121.0,2.8012,-2.6001,6.9743,0.2671,-0.8067,-0.0766
202131.0,2.9544,-2.1835,6.6439,0.2017,-1.0142,-0.2118
202141.0,2.715,-1.4054,6.7995,0.1655,-1.1031,-0.3209
202151.0,2.624,-0.2921,5.2672,0.2485,-1.2515,-0.365
202161.0,3.1412,0.1604,3.3375,0.24,-1.3345,-0.357
202171.0,3.8499,0.0263,2.0375,0.2591,-1.1557,-0.3267
202181.0,4.0965,0.0192,1.154,0.3501,-0.7615,-0.3006
202191.0,4.1635,-0.577,1.6975,0.3251,-0.3581,-0.2889
202201.0,4.0797,-1.3001,2.7557,0.3831,-0.0149,-0.2937
202211.0,4.1492,-1.7095,2.9497,0.6651,0.2815,-0.3108
202221.0,4.027,-1.9345,2.7054,1.0009,0.5853,-0.3592
202231.0,3.7948,-1.6927,1.7286,1.1786,0.7854,-0.4635
202241.0,3.237,0.6536,-0.2969,1.0552,0.8695,-0.6332
202251.0,2.5594,4.4101,-3.8283,0.3719,0.7072,-0.7753
202261.0,4.7477,8.3366,-8.3534,-0.8913,0.3272,-0.7833
202271.0,1.3455,12.05,-11.7986,-2.2567,-0.0372,-0.5358
202281.0,-0.486,18.2223,-30.4542,-2.7532,-0.8657,0.1602
202291.0,-0.0527,17.3843,-50.1489,-3.1448,-0.1868,1.3111
202301.0,-10.094,17.4633,-59.0697,-2.6866,3.6998,2.6148
202311.0,-20.5997,10.1083,-55.1887,-1.2473,8.7192,4.0563
202321.0,-39.2817,-4.1755,-36.2315,1.1946,14.5283,5.0726
202331.0,-56.6612,-18.0188,-4.5107,3.3576,17.4357,5.0801
202341.0,-56.8862,-18.1576,17.753,6.0645,17.4357,3.8546
202351.0,-57.638,-16.1441,49.7252,6.4157,17.4357,1.773
202361.0,-49.3924,-4.1851,64.5381,5.2823,16.4625,-0.3166
202371.0,-43.9671,-2.0925,78.4508,1.6198,10.671,-1.8805
202381.0,-39.1835,1.7358,72.7143,-0.8493,4.7619,-2.7132
202391.0,-34.4597,3.3854,62.8071,-2.3158,0.2198,-3.0224
202401.0,-29.4343,8.078,43.6439,-1.5607,-2.1231,-2.7707
202411.0,-26.4751,10.7859,32.3409,-0.3097,-2.1311,-2.2386
202421.0,-24.373,14.9135,25.9915,0.9775,-1.1249,-1.6267
202431.0,-25.3522,17.7793,29.7599,1.3234,-0.1485,-1.011
202441.0,-25.7281,18.2893,35.1636,1.317,-0.1501,-0.3102
202451.0,-26.6068,15.1721,42.0063,0.8626,-1.242,0.3145
202461.0,-26.736,12.4906,40.778,0.5092,-3.3736,0.754
202471.0,-25.7089,10.0556,34.4262,-0.1932,-5.8676,0.9514
202481.0,-23.705,10.4842,22.9843,-0.7907,-7.7114,1.0243
202491.0,-22.0171,9.2344,15.6222,-1.624,-8.5617,1.1079
202501.0,-19.9581,7.2568,9.1722,-1.9374,-8.8192,1.2771
202511.0,-17.6812,3.8666,4.1635,-1.8635,-8.7644,1.4873
202521.0,-14.7818,-0.8116,-0.9792,-1.574,-8.6261,1.6006
202531.0,-11.3174,-4.2952,-6.5769,-1.2441,-8.2919,1.4926
202541.0,-7.9631,-6.0621,-10.7643,-1.0222,-7.5661,1.1627
202551.0,-5.1116,-6.3782,-12.9957,-0.9578,-6.562,0.7077
202561.0,-2.7102,-5.0398,-11.7843,-1.2185,-5.5521,0.1995
202571.0,-2.0207,-2.0183,-8.9687,-1.4346,-4.7129,-0.2309
202581.0,-1.6807,0.419,-6.4979,-1.5208,-4.2755,-0.4358
202591.0,-1.1612,1.3192,-5.4995,-1.367,-4.1127,-0.4108
202601.0,0.1077,1.573,-8.0541,-0.9168,-3.9584,-0.2368
202611.0,1.7885,-0.0622,-9.596,-0.5406,-3.3959,-0.0282
202621.0,3.1292,-2.5019,-9.4332,-0.1107,-2.4376,0.1107
202631.0,3.2226,-4.5442,-5.8826,0.1059,-1.4532,0.0745
202641.0,2.9353,-5.7604,-1.4748,0.1788,-0.8652,-0.1101
202651.0,2.6935,-5.9376,2.8706,0.1815,-0.6582,-0.3842
202661.0,1.8699,-3.8786,5.6024,0.2059,-0.7348,-0.6816
202671.0,1.221,-1.0534,6.6319,0.0197,-1.1488,-0.8982
202681.0,1.391,0.826,5.964,-0.2373,-1.6793,-0.9493
202691.0,1.8771,1.4724,3.6296,-0.2389,-1.9582,-0.8514
202701.0,2.5594,1.1444,0.9888,-0.1357,-1.8964,-0.7056
202711.0,3.3758,-0.5219,0.2298,-0.0527,-1.558,-0.5976
202721.0,3.644,-1.5969,1.1229,0.1559,-1.0648,-0.589
202731.0,3.2561,-1.9441,3.0502,0.4539,-0.6848,-0.6455
202741.0,3.0023,-1.5658,3.2609,0.854,-0.6066,-0.6987
202751.0,3.5913,-0.2658,0.6728,1.1621,-0.7077,-0.738
202761.0,4.1563,1.4557,-3.6966,1.1595,-0.6859,-0.7572
202771.0,3.7852,2.4157,-8.5545,0.5997,-0.5252,-0.7875
202781.0,6.1411,4.0749,-14.0516,-0.4395,-0.3092,-0.8258
202791.0,4.2234,5.4803,-15.8879,-1.4952,0.3028,-0.7939
202801.0,3.4764,7.829,-20.5039,-2.0784,0.7439,-0.5726
202811.0,1.3767,11.0014,-27.2269,-2.2439,1.3069,-0.1229
202821.0,-1.1875,13.3908,-38.482,-1.4809,2.5733,0.5965
202831.0,-8.3151,15.6557,-46.2727,-0.5997,5.0615,1.4532
202841.0,-15.9621,10.9152,-43.9001,0.3235,8.7958,2.4621
202851.0,-30.1286,0.3136,-24.3514,1.6389,13.6838,3.2794
202861.0,-41.1683,-10.1155,3.0885,2.9703,16.8084,3.3837
202871.0,-48.1522,-14.7315,27.5788,4.0196,17.4357,2.6223
202881.0,-41.786,-18.4186,50.4075,3.6657,16.1533,1.069
202891.0,-41.1013,-8.8466,62.3857,2.8803,12.8989,-0.7827
202901.0,-36.8851,2.3798,62.2229,1.2893,8.5665,-2.0566
202911.0,-32.5899,6.9025,64.6746,-0.9759,5.2136,-2.6026
202921.0,-31.9554,9.481,67.2699,-1.7198,2.9761,-2.4871
202931.0,-31.6729,10.7236,68.139,-1.0775,0.431,-1.8278
202941.0,-28.8358,10.8888,56.5199,0.7918,-2.3381,-0.7918
202951.0,-24.5621,9.6654,40.8379,2.2365,-4.1957,0.1783
202961.0,-21.4377,7.0294,29.2787,2.56,-4.9114,0.7636
202971.0,-18.8591,5.2696,21.0714,1.8943,-5.2041,0.9424
202981.0,-17.243,3.814,17.4777,0.4071,-5.6111,0.7875
202991.0,-15.2822,2.7653,13.9965,-0.8455,-6.1134,0.5279
203001.0,-13.7475,2.7246,10.6374,-1.4713,-6.4151,0.2847
203011.0,-11.4515,3.0574,6.0837,-1.4218,-6.4109,0.1751
203021.0,-9.086,2.8994,3.8978,-0.97,-5.9171,0.1937
203031.0,-6.9097,3.8714,1.5945,-0.2336,-5.1546,0.3108
203041.0,-5.7748,3.553,2.0734,-0.0564,-4.5873,0.4555
203051.0,-4.4269,1.9848,1.7023,-0.1878,-4.458,0.5768
203061.0,-3.5937,-0.2945,1.087,-0.456,-4.4517,0.5938
203071.0,-1.7478,-2.6719,-1.4245,-0.6763,-4.4272,0.489
203081.0,-0.4118,-3.9911,-3.6871,-0.9881,-4.1659,0.2107
203091.0,0.5555,-4.1013,-4.4245,-1.334,-3.6535,-0.1522
203101.0,1.719,-4.5729,-1.9992,-1.5218,-2.9548,-0.4821
203111.0,1.1684,-3.3567,2.3583,-1.1547,-2.2727,-0.7476
203121.0,0.1939,-0.814,4.8052,-0.4507,-2.1231,-0.8732
203131.0,0.3807,1.5467,3.3375,0.1405,-2.4365,-0.8253
203141.0,1.0511,3.4165,-0.8236,0.3443,-2.7319,-0.688
203151.0,2.3248,3.632,-4.628,0.1288,-2.6451,-0.5204
203161.0,2.3248,3.632,-4.628,0.1288,-2.6451,-0.5204
203171.0,3.1603,2.8395,-5.9304,-0.2352,-2.0375,-0.3858
203181.0,3.4285,1.0487,-4.0294,-0.5954,-1.2169,-0.3044
203191.0,3.122,-0.8547,0.7422,-0.762,-0.4496,-0.3012
203201.0,2.2889,-1.8411,6.1459,-0.5779,0.0484,-0.3549
203211.0,1.4772,-1.9393,11.4778,-0.1442,0.1229,-0.4182
203221.0,0.9529,-0.8021,12.7802,0.6141,-0.2097,-0.422
203231.0,0.9194,0.5962,11.7124,1.1217,-0.7029,-0.3964
203241.0,0.8284,2.1811,9.7588,1.2691,-1.0802,-0.3523
203251.0,1.0151,3.3471,7.4771,1.085,-1.3532,-0.2703
203261.0,1.5036,3.0837,5.7389,0.6029,-1.5341,-0.1735
203271.0,1.913,2.4157,4.6831,0.1596,-1.5155,-0.1096
203281.0,1.9992,1.7789,5.4588,-0.1309,-1.3164,-0.0788
203291.0,1.81,1.1349,7.3358,-0.0011,-1.1813,-0.0138
203301.0,2.6791,1.2043,5.0829,0.6529,-1.2771,0.1096
203311.0,3.6583,1.913,0.4262,1.0844,-1.3069,0.1905
203321.0,4.1372,4.1444,-5.8849,0.7407,-1.2542,0.1724
203331.0,5.114,6.1675,-11.1953,-0.7402,-1.2521,0.0878
203341.0,2.2505,8.2049,-14.7531,-2.8303,-1.2851,0.0506
203351.0,2.1787,11.169,-21.7178,-4.2723,-1.4537,0.2639
203361.0,2.3032,10.3022,-29.2093,-4.3346,-1.0977,0.8397
203371.0,-0.6416,12.1865,-39.7198,-2.1503,0.8407,1.6176
203381.0,-3.5075,13.1921,-51.0061,0.7423,4.1473,2.5291
203391.0,-11.1666,4.4604,-44.4005,2.3652,8.9006,3.3081
203401.0,-25.017,-5.1787,-23.0562,3.0277,13.5061,3.4252
203411.0,-33.2579,-13.2423,4.525,3.1123,16.073,2.833
203421.0,-39.6647,-12.1649,29.8174,3.3199,16.429,1.6208
203431.0,-39.9832,-1.8555,41.3957,2.7978,14.0627,0.3858
203441.0,-34.4358,4.0342,47.1993,1.3872,11.3899,-0.3251
203451.0,-32.4606,3.3686,57.4632,-0.1618,9.6775,-0.629
203461.0,-31.7926,1.6735,68.3976,-1.4532,7.2953,-0.8445
203471.0,-28.5892,-2.5402,71.0288,-1.8714,3.7439,-0.9035
203481.0,-25.6251,-0.8308,62.0457,-0.9094,0.5396,-0.8886
203491.0,-22.8143,2.4157,50.0508,0.3959,-1.1701,-0.7226
203501.0,-21.4161,4.8818,42.3103,1.0807,-1.6698,-0.4512
203511.0,-20.9469,5.6958,41.2689,1.0823,-1.6857,-0.1341
203521.0,-21.5742,4.197,44.0964,0.6827,-2.1742,0.1751
203531.0,-21.2246,1.0989,43.2177,0.0037,-3.8701,0.3491
203541.0,-20.219,-1.0104,36.344,-0.8796,-6.2422,0.2522
203551.0,-18.8184,-1.3695,23.9636,-1.6245,-8.327,-0.0415
203561.0,-16.4721,-0.2394,10.9702,-2.2492,-9.553,-0.4129
203571.0,-13.9654,1.9345,-0.3998,-2.3924,-9.6089,-0.6891
203581.0,-10.6757,2.8683,-8.6335,-2.1923,-8.7719,-0.7758
203591.0,-7.2449,2.4397,-12.8904,-1.615,-7.274,-0.7146
203601.0,-4.9368,1.7454,-11.9064,-0.8386,-5.4573,-0.5949
203611.0,-3.2465,0.9792,-7.9416,-0.1282,-3.9733,-0.4699
203621.0,-2.466,0.905,-3.7996,0.1591,-3.2831,-0.4225
203631.0,-1.9609,1.7645,-3.1699,-0.1426,-3.4774,-0.4672
203641.0,-0.4645,1.5586,-5.679,-0.9232,-4.0712,-0.5534
203651.0,1.3144,1.0965,-9.0381,-1.4452,-4.1691,-0.6534
203661.0,2.3415,1.0894,-11.6382,-1.416,-3.5683,-0.7125
203671.0,3.4979,0.431,-11.552,-1.1206,-2.6137,-0.7029
203681.0,3.9624,-0.0311,-9.1842,-0.4965,-1.4053,-0.6391
203691.0,3.7972,-0.0048,-4.6352,0.2139,-0.2847,-0.5428
203701.0,3.0119,0.0072,0.3879,0.8051,0.4486,-0.4246
203711.0,2.624,-0.0838,4.3167,1.0839,0.6242,-0.3241
203721.0,2.9209,-1.482,8.0876,1.151,0.5475,-0.2671
203731.0,2.49,-1.8747,10.3669,1.21,0.3443,-0.315
203741.0,2.0877,-1.3216,11.1474,0.8844,-0.2416,-0.456
203751.0,2.2673,-0.2753,9.9814,0.3948,-0.9562,-0.5965
203761.0,2.7222,1.3934,7.2664,0.0128,-1.408,-0.6715
203771.0,2.9664,2.5426,5.7245,-0.2703,-1.4005,-0.6412
203781.0,2.6767,2.8347,6.5074,-0.3682,-1.1568,-0.514
203791.0,2.3894,2.9592,7.0366,-0.1517,-1.0344,-0.3182
203801.0,2.4852,2.5881,6.6535,0.2841,-1.011,-0.0835
203811.0,2.897,1.901,5.849,0.8945,-0.8908,0.141
203821.0,3.0837,1.8723,4.853,1.574,-0.6263,0.307
203831.0,2.8084,2.6193,4.1252,1.9725,-0.3916,0.4119
203841.0,2.5929,2.9185,3.0933,2.0029,-0.3044,0.5002
203851.0,3.2274,2.2122,1.5443,1.6762,-0.3155,0.5444
203861.0,3.2657,1.731,0.6105,1.1855,-0.2107,0.4954
203871.0,3.0694,2.0231,-1.2139,0.638,-0.1841,0.3975
203881.0,3.0885,2.7581,-4.2593,-0.0394,-0.3161,0.3038
203891.0,2.9042,4.7262,-10.3118,-0.7466,-0.4049,0.2602
203901.0,5.1404,5.4013,-15.6724,-1.6315,-0.2959,0.3326
203911.0,2.0734,7.1898,-21.8423,-1.9906,0.281,0.5523
203921.0,1.834,7.2257,-29.0991,-1.8028,1.0807,0.994
203931.0,-3.3088,7.6782,-35.439,-0.7652,2.9389,1.5415
203941.0,-7.0461,6.4859,-43.8666,0.6167,5.2488,2.08
203951.0,-14.3724,0.2418,-45.0756,1.3223,8.6617,2.4334
203961.0,-28.0146,-7.0366,-32.2307,1.5016,12.8537,2.3471
203971.0,-40.8163,-12.6534,-9.9024,1.607,16.214,1.8289
203981.0,-50.0939,-16.8001,23.8558,2.3812,17.4357,0.9078
203991.0,-49.2248,-11.4395,50.5607,3.4055,17.4357,-0.3709
204001.0,-45.2983,-4.5179,76.2122,2.2413,15.1663,-1.7368
204011.0,-40.6033,3.2394,78.4508,0.1602,9.5786,-2.6042
204021.0,-35.5276,8.0134,78.4508,-2.1902,3.5034,-2.8793
204031.0,-30.8637,9.153,67.9618,-3.0772,-1.0616,-2.4493
204041.0,-25.4743,8.023,50.374,-2.2758,-3.3363,-1.5719
204051.0,-21.1911,5.1787,37.7685,-0.7918,-3.554,-0.6667
204061.0,-18.5048,3.6847,31.3784,0.621,-2.7569,0.0027
204071.0,-17.8081,2.3655,33.2626,1.2526,-1.9555,0.3783
204081.0,-18.5622,0.6057,38.0558,1.2372,-2.1151,0.522
204091.0,-19.5247,-1.0942,39.5211,0.6311,-3.8121,0.4337
204101.0,-18.9142,-2.3679,32.2834,-0.1341,-6.3774,0.1862
204111.0,-17.1712,-2.6001,19.6181,-0.8136,-8.4026,-0.1772
204121.0,-14.6429,-1.7166,6.8354,-1.3601,-9.1566,-0.5832
204131.0,-11.8872,-0.6369,-1.506,-1.8124,-8.7485,-0.9466
204141.0,-9.2033,0.6105,-5.9233,-1.8826,-7.6693,-1.1717
204151.0,-7.1802,1.3192,-7.0437,-1.6373,-6.346,-1.2345
204161.0,-5.4588,1.0846,-5.8299,-1.2095,-5.1998,-1.1706
204171.0,-3.6057,0.498,-4.6471,-0.514,-4.2484,-1.0328
204181.0,-2.4157,0.5028,-3.1795,0.1751,-3.4555,-0.9131
204191.0,-1.4222,1.2689,-2.9975,0.5763,-2.9852,-0.829
204201.0,-0.5674,1.3934,-2.6743,0.456,-2.7313,-0.7843
204211.0,0.0479,1.3862,-2.3727,0.0798,-2.5196,-0.7934
204221.0,0.2418,1.0798,-0.917,-0.397,-2.3083,-0.8386
204231.0,0.5531,0.7973,0.2394,-0.6928,-2.1987,-0.8764
204241.0,0.7997,0.6967,0.6895,-0.7444,-2.1567,-0.8892
204251.0,1.5107,0.5531,-0.4142,-0.5279,-2.1136,-0.853
204261.0,2.4828,0.9433,-1.7621,-0.0511,-1.757,-0.779
204271.0,2.8826,1.9082,-1.3982,0.5034,-1.0408,-0.6742
204281.0,2.569,2.162,1.142,0.9237,-0.4374,-0.5076
204291.0,2.4062,2.3296,2.9832,1.3026,-0.1426,-0.3124
204301.0,2.1165,2.1524,4.1228,1.4197,-0.1352,-0.1442
204311.0,2.3224,1.4269,3.869,1.2861,-0.3374,-0.0213
204321.0,2.6911,0.4741,2.7533,0.9817,-0.5231,0.0234
204331.0,3.1244,-0.905,2.1093,0.6401,-0.5481,-0.008
204341.0,3.6966,-1.9896,1.7502,0.5268,-0.3698,-0.0926
204351.0,3.7709,-2.6217,3.0837,0.671,0.025,-0.2059
204361.0,3.2106,-2.083,6.0645,1.1563,0.5108,-0.2953
204371.0,2.4852,-1.47,8.5665,1.7315,0.6646,-0.3326
204381.0,2.4229,-0.8284,9.4308,1.9864,0.2857,-0.3954
204391.0,2.1093,1.0511,7.9009,1.9587,-0.3102,-0.4943
204401.0,2.0949,2.9233,4.5729,1.6985,-0.9307,-0.5438
204411.0,1.7741,6.0621,-2.2194,1.2185,-1.3638,-0.5263
204421.0,1.1851,7.6351,-10.6781,-0.3682,-1.8821,-0.4667
204431.0,2.5666,5.2601,-18.2271,-2.5834,-2.2359,-0.3805
204441.0,0.7661,4.9704,-28.0337,-4.06,-2.0103,-0.2836
204451.0,2.3343,4.9632,-35.5371,-4.1037,-0.638,-0.0431
204461.0,-1.8196,5.8179,-39.4373,-2.4392,2.0556,0.3549
204471.0,-6.8378,6.7205,-41.2569,-0.1399,4.69,0.8019
204481.0,-14.1378,8.5928,-44.2305,2.4754,7.9003,1.218
204491.0,-24.5238,8.7508,-37.6225,4.0398,11.7666,1.525
204501.0,-37.8116,4.9201,-16.7474,4.5639,15.3137,1.6315
204511.0,-45.7604,3.0335,0.9266,4.755,17.0468,1.35
204521.0,-50.9438,1.3096,23.3842,3.6881,17.0664,0.6933
204531.0,-45.1115,-3.2968,44.0749,2.7829,15.6808,0.0357
204541.0,-40.6655,-2.5809,62.12,2.6095,13.9036,-0.7913
204551.0,-37.6584,0.9409,74.656,1.2787,10.0814,-1.8044
204561.0,-32.0799,6.7325,74.2705,-0.182,4.7241,-2.3865
204571.0,-27.1072,12.4427,58.9883,-0.4927,0.2639,-2.2913
204581.0,-23.1591,16.0627,40.2585,-0.1894,-1.9066,-1.6958
204591.0,-18.6556,13.7331,28.8358,0.191,-1.9725,-0.8567
204601.0,-17.1138,10.9415,26.5613,0.8562,-0.6641,-0.1176
204661.0,-13.0915,5.0398,16.0148,-1.367,-5.601,0.1229
204671.0,-11.8633,5.5067,10.0987,-1.7932,-5.7548,0.0447
204681.0,-10.5321,4.8339,5.7628,-1.9459,-5.5308,0.074
204691.0,-8.5665,3.1603,2.8419,-1.8432,-5.096,0.1559
204701.0,-6.9288,1.5036,1.3862,-1.4521,-4.3404,0.2187
204711.0,-6.3159,-0.1413,2.8276,-1.0115,-3.4827,0.2128
204721.0,-6.0789,-1.1109,4.7716,-0.5795,-2.9745,0.1352
204731.0,-5.4061,-1.6927,6.8905,-0.2256,-2.7957,-0.0069
204741.0,-5.3678,0.1101,6.6104,0.0702,-2.8,-0.1942
204751.0,-5.0422,1.7142,6.9264,-0.1963,-3.0176,-0.364
204761.0,-4.9488,3.565,6.1028,-0.6524,-3.2821,-0.4677
204771.0,-4.9129,4.5107,5.5282,-1.2334,-3.5662,-0.4858
204781.0,-4.3048,4.4341,3.7685,-1.5011,-3.7865,-0.3879
204791.0,-3.2178,3.6296,1.4485,-1.3372,-3.6577,-0.2112
204801.0,-2.4541,3.1795,0.0599,-0.9243,-3.1544,-0.0362
204811.0,-1.8435,2.818,-0.2969,-0.4443,-2.5499,0.1405
204821.0,-1.1325,1.6017,0.0048,-0.0298,-2.005,0.2985
204831.0,-0.4094,0.395,0.0024,0.2331,-1.5766,0.3672
204841.0,0.4549,-1.3336,0.5124,0.2288,-1.1903,0.3182
204851.0,0.7422,-2.6121,3.225,0.132,-0.7269,0.1378
204861.0,0.3687,-2.3487,7.3598,0.1729,-0.3411,-0.1054
204871.0,-0.5315,-0.2777,10.1921,0.2267,-0.4044,-0.3225
204881.0,-0.8523,2.1931,10.9966,0.025,-0.945,-0.4422
204891.0,-0.644,4.0606,9.5768,-0.2554,-1.5607,-0.4103
204901.0,-0.2442,4.9656,6.9623,-0.4895,-1.9624,-0.2549
204911.0,0.4453,4.5801,3.6368,-0.679,-2.0939,-0.0442
204921.0,1.4581,2.7102,2.6169,-0.8631,-1.8714,0.133
204931.0,1.561,1.4293,3.0957,-0.7199,-1.3351,0.2347
204941.0,1.1803,0.8284,4.6304,-0.5646,-0.9786,0.2581
204951.0,1.0894,0.8428,6.0837,-0.3693,-0.9009,0.2623
204961.0,1.2474,1.5371,6.0238,0.1043,-0.9083,0.3161
204971.0,1.6783,2.1596,4.5011,0.7306,-0.8668,0.4342
204981.0,2.2098,3.1699,2.0135,1.2212,-0.6949,0.5614
204991.0,2.3966,4.2976,-0.984,1.1249,-0.5459,0.6518
205001.0,3.5913,4.3167,-4.1755,0.2059,-0.5944,0.6816
205011.0,2.8922,4.549,-6.5577,-1.2936,-0.6694,0.6098
205021.0,3.1173,5.9304,-13.5632,-3.0596,-1.0637,0.5518
205031.0,2.5163,4.5873,-17.3987,-4.8944,-1.1057,0.654
205041.0,2.49,1.7597,-21.6867,-5.0322,-0.3618,1.0057
205051.0,0.6297,0.2658,-28.2827,-3.3677,1.2521,1.4
205061.0,-1.6568,-0.4621,-31.4,-1.0786,3.563,1.6708
205071.0,-7.6327,1.0487,-33.1118,1.3276,6.322,1.798
205081.0,-14.9231,1.8052,-29.9634,2.9809,9.1587,1.8081
205091.0,-24.7393,1.9417,-20.4082,3.7844,11.889,1.7097
205101.0,-33.447,0.0024,-5.8682,4.0143,13.9456,1.4825
205111.0,-39.8682,-2.4445,11.8369,3.7312,15.0226,1.0323
205121.0,-40.9887,-6.4548,32.9299,3.4758,15.1141,0.4241
205131.0,-37.6129,-7.0868,54.1568,3.355,13.9116,-0.4289
205141.0,-37.656,-4.1228,73.4278,2.8282,10.9376,-1.3532
205151.0,-33.2052,4.1132,74.0574,2.402,5.948,-1.9608
205161.0,-30.1693,10.5704,65.7544,1.1126,0.8764,-2.1471
205171.0,-25.7784,14.437,47.4842,0.216,-2.8314,-1.8001
205181.0,-23.2405,13.228,33.526,-0.6582,-4.5708,-1.2116
205191.0,-20.0059,9.9168,22.867,-0.7508,-4.88,-0.5646
205201.0,-17.7482,6.2848,19.5463,-0.2969,-4.1739,-0.0596
205211.0,-16.9869,4.0677,21.5813,0.6226,-3.2012,0.282
205221.0,-17.6716,4.5921,24.9572,1.2696,-3.0618,0.4512
205231.0,-17.911,5.8538,25.8574,1.1403,-4.142,0.5369
205241.0,-17.0132,6.0669,21.8327,0.5667,-5.7596,0.6183
205251.0,-15.9286,5.138,15.6341,-0.0681,-7.0728,0.6822
205261.0,-14.3245,4.3503,8.1523,-0.5018,-7.7577,0.7189
205271.0,-12.706,2.9401,2.0159,-0.9126,-7.9343,0.7104
205281.0,-9.5409,0.4286,-3.6607,-1.2531,-7.805,0.6343
205291.0,-6.3829,-1.4485,-6.8043,-1.492,-7.2234,0.4081
205301.0,-4.1348,-1.6712,-7.0797,-1.3957,-6.1906,0.1
205311.0,-3.0335,0.4812,-5.7197,-1.2494,-5.2349,-0.1963
205321.0,-2.0207,1.9537,-3.0694,-1.2398,-4.5639,-0.3448
205331.0,-1.8268,1.6089,1.2809,-0.9722,-4.0276,-0.3108
205341.0,-1.5897,0.7805,1.7765,-0.0633,-3.7929,-0.1394
205351.0,-0.7685,-0.3663,-0.2155,0.7684,-3.7695,0.0032
205361.0,0.9649,-0.6153,-3.7493,1.4809,-3.4949,0.0569
205371.0,2.1715,0.7542,-6.3087,1.823,-2.8335,0.0138
205381.0,2.7485,2.2146,-6.5218,1.5782,-2.1322,-0.0532
205391.0,3.5051,2.4565,-5.4085,1.019,-1.549,-0.0851
205401.0,3.9648,1.8699,-2.636,0.447,-0.9796,-0.1203
205411.0,3.7134,1.1827,1.9896,0.1538,-0.4156,-0.157
205421.0,2.5259,0.2897,6.8546,0.2176,-0.1357,-0.1671
205431.0,2.0973,0.146,8.7149,0.5082,-0.4443,-0.1756
205441.0,2.5259,1.1061,6.754,0.9754,-0.8998,-0.1618
205451.0,3.3232,2.387,3.3088,1.4585,-0.9402,-0.1043
205461.0,3.5721,3.9911,0.984,1.6346,-0.5976,-0.0287
205471.0,3.6727,4.5514,0.0551,1.3729,-0.1916,0.0734
205481.0,3.565,3.7613,0.0263,0.7375,0.1139,0.1501
205491.0,4.2329,1.3408,0.3208,-0.0213,0.3767,0.1575
205501.0,4.3096,-1.0343,2.988,-0.5949,0.8945,0.0436
205511.0,3.1388,-1.1301,7.6567,-0.7322,1.5139,-0.1442
205521.0,1.4198,-1.6448,13.2495,-0.5417,1.6586,-0.2549
205531.0,0.7542,-2.0063,14.6429,0.1735,1.2675,-0.2889
205541.0,0.6201,-1.8364,11.2216,0.9355,0.5374,-0.3586
205551.0,1.7885,-0.3711,2.0877,1.3909,-0.2533,-0.4991
205561.0,4.5179,3.2657,-11.0205,1.1999,-0.4252,-0.7045
205571.0,4.4748,5.0661,-18.2654,-0.0926,0.3709,-0.8748
205581.0,2.9592,7.2544,-23.6834,-1.4958,1.7863,-0.8987
205591.0,-1.4964,9.1339,-25.9005,-3.2879,3.1368,-0.6912
205601.0,-5.1691,7.0677,-24.7489,-4.3341,4.921,-0.0681
205611.0,-11.9758,0.0479,-16.5272,-3.886,7.855,0.7529
205621.0,-18.4641,-10.2496,3.9696,-2.3269,10.7018,1.2467
205631.0,-23.0897,-12.7156,25.5246,0.7748,12.3264,1.1121
205641.0,-24.8829,-7.2042,38.4509,3.7067,11.5112,0.5422
205651.0,-19.4984,1.0606,38.3551,5.3211,9.0294,-0.1197
205661.0,-18.3061,10.975,33.3057,5.0944,6.6791,-0.6747
205671.0,-16.7642,16.4003,27.9092,3.1895,4.8124,-0.8897
205681.0,-15.7634,13.0245,29.7336,0.4661,3.7423,-0.8125
205691.0,-15.3181,4.6711,38.9225,-1.4952,2.941,-0.7247
205701.0,-16.01,1.2115,46.3326,-1.5293,1.7565,-0.7513
205711.0,-16.271,3.2561,45.327,-0.5417,-0.2102,-0.7503
205721.0,-14.7196,6.4572,36.4924,0.1229,-2.5254,-0.6215
205731.0,-12.4403,8.3462,25.6898,0.3507,-3.9664,-0.3613
205741.0,-10.3813,8.1283,17.3532,0.2618,-4.3133,-0.0511
205751.0,-8.9783,5.8993,13.7427,-0.0883,-4.0739,0.1932
205761.0,-8.0589,3.1915,12.73,-0.4071,-3.8488,0.3054
205771.0,-7.2784,1.6951,11.3365,-0.5428,-3.8259,0.274
205781.0,-5.7389,0.656,8.9735,-0.6907,-3.8727,0.1543
205791.0,-4.7166,-0.0694,8.1163,-0.8764,-3.6668,-0.0442
205801.0,-4.3862,0.9936,7.8147,-1.0403,-3.4236,-0.2927
205811.0,-4.2545,2.6169,7.8362,-1.359,-3.389,-0.489
205821.0,-3.8738,3.9337,7.4723,-1.6102,-3.4247,-0.5555
205831.0,-3.45,5.0135,6.6248,-1.6171,-3.3805,-0.4858
205841.0,-2.648,5.3103,5.3151,-1.4585,-3.2571,-0.3017
205851.0,-2.1715,5.114,4.1587,-1.184,-3.032,-0.0585
205861.0,-1.4389,4.1539,2.6911,-0.7471,-2.6882,0.2176
205871.0,-0.3519,2.2146,2.1213,-0.3017,-2.1646,0.4427
205881.0,0.34,0.4166,2.964,0.0506,-1.5288,0.5289
205891.0,0.0407,-0.9625,6.3829,0.2517,-0.9243,0.4688
205901.0,-0.5291,-1.0534,9.3996,0.3182,-0.7849,0.2975
205911.0,-0.6416,-0.079,9.9383,0.1389,-1.1808,0.0846
205921.0,-0.1987,1.0415,8.1834,-0.2421,-1.7107,-0.1032
205931.0,0.0766,2.4565,5.7365,-0.6311,-1.9427,-0.2309
205941.0,0.2322,3.6727,3.7924,-1.0131,-1.8762,-0.2698
205951.0,0.4142,4.3144,3.055,-1.3675,-1.6559,-0.2235
205961.0,0.5195,3.8427,3.2298,-1.5575,-1.3393,-0.0947
205971.0,1.008,1.8483,4.6639,-1.5437,-0.9541,0.0527
205981.0,0.8715,0.4908,6.8187,-1.3005,-0.5901,0.1203
205991.0,0.7973,-0.0407,8.2624,-0.9748,-0.5039,0.1277
206001.0,1.0151,-0.2634,8.1187,-0.5933,-0.6157,0.132
206011.0,1.5514,-0.5267,6.9863,-0.1133,-0.6529,0.1538
206021.0,2.1691,-0.8667,4.956,0.5614,-0.4986,0.1969
206031.0,2.7222,-0.9553,2.66,1.1967,-0.1298,0.2134
206041.0,2.7438,-0.8356,1.7957,1.5208,0.3741,0.1671
206051.0,2.3822,-0.0096,1.7382,1.5655,0.8461,0.0766
206061.0,1.7478,0.68,2.4325,1.2925,1.1589,-0.0176
206071.0,1.5251,0.6919,2.9736,0.8939,1.3489,-0.0926
206081.0,1.0223,1.1205,3.4333,0.4347,1.4899,-0.19
206091.0,0.9026,2.0159,2.4588,-0.1346,1.4442,-0.2831
206101.0,1.3336,3.1388,-0.0144,-0.7641,1.3255,-0.3225
206111.0,1.6089,4.2138,-4.6256,-1.301,1.4042,-0.2575
206121.0,0.8212,5.8347,-9.0908,-1.6815,1.9885,-0.0596
206131.0,-1.1803,7.2329,-11.315,-1.7709,3.1943,0.331
206141.0,-4.7405,7.2137,-10.3094,-1.6049,4.789,0.8902
206151.0,-8.2432,2.6049,-4.7477,-1.3904,6.3662,1.4862
206161.0,-11.2671,-3.9217,5.3032,-1.0701,7.6018,1.798
206171.0,-12.7372,-8.9423,15.6629,-0.4204,8.0785,1.674
206181.0,-11.5736,-13.0221,25.4647,0.4087,7.7508,1.2015
206191.0,-10.7356,-12.5696,33.5452,1.6373,6.9356,0.4597
206201.0,-12.7156,-5.3103,36.0615,2.9564,5.5819,-0.3241
206211.0,-13.4363,2.7294,34.2347,3.2007,3.5753,-0.8344
206221.0,-13.4482,9.098,29.3601,2.4562,1.6416,-0.9812
206231.0,-13.3405,10.9271,26.5852,1.0435,0.3464,-0.8551
206241.0,-13.8217,9.2368,26.9611,-0.3278,-0.538,-0.6375
206251.0,-13.9606,6.3542,26.6618,-1.1818,-1.5761,-0.4502
206261.0,-12.7563,2.5498,24.9476,-1.4154,-2.6372,-0.3262
206271.0,-11.078,0.7207,20.7697,-0.9424,-3.4055,-0.3209
206281.0,-9.7037,1.6807,16.2279,-0.2315,-3.7189,-0.3852
206291.0,-8.4204,3.3016,13.0963,0.4443,-3.6577,-0.3549
206301.0,-7.5776,5.1044,10.3837,0.9605,-3.4949,-0.199
206311.0,-6.5745,5.2194,8.9376,1.061,-3.4061,0.0372
206321.0,-5.7102,4.0582,7.9703,0.9727,-3.3284,0.2666
206331.0,-4.956,2.8395,6.7947,0.7205,-3.3332,0.4012
206341.0,-3.9983,1.3647,5.205,0.3139,-3.4119,0.431
206351.0,-2.818,-0.0335,3.7397,-0.1368,-3.3842,0.3544
206361.0,-1.6305,-0.8954,2.6049,-0.4879,-3.1788,0.1942
206371.0,-1.0223,-1.2689,2.9497,-0.6949,-2.7771,-0.0037
206381.0,-0.6728,-1.0798,4.3862,-0.7407,-2.3738,-0.1878
206391.0,-0.6632,-0.5962,5.9711,-0.5933,-2.1178,-0.3113
206401.0,-0.5387,0.0168,6.4236,-0.3012,-2.0204,-0.3565
206411.0,-0.2849,0.735,6.2896,-0.0154,-1.9757,-0.3475
206421.0,-0.0646,1.5155,5.8059,0.2485,-1.8794,-0.2953
206431.0,0.0742,2.3176,5.2864,0.3656,-1.7592,-0.2144
206441.0,0.1724,2.5187,4.2018,0.2336,-1.7464,-0.1197
206451.0,1.0918,1.4533,2.2865,-0.1745,-1.8454,-0.0607
206461.0,2.2745,0.565,-0.146,-0.5944,-1.7363,-0.091
206471.0,2.9113,-0.0575,-1.1133,-0.9216,-1.2239,-0.1846
206481.0,2.9544,-0.2346,-0.419,-1.1084,-0.5305,-0.3054
206491.0,2.5474,0.2011,1.8387,-1.2004,0.1086,-0.4161
206501.0,1.5371,0.8595,5.0949,-1.1052,0.655,-0.456
206511.0,0.5746,1.573,8.521,-0.8163,0.9488,-0.4076
206521.0,-0.2035,2.0016,11.734,-0.2826,1.0334,-0.2634
206531.0,-0.7302,2.0997,12.8425,0.4975,0.8226,-0.0362
206541.0,-0.1676,1.3168,10.0413,1.309,0.4576,0.207
206551.0,0.7709,-0.5818,6.6487,1.7017,0.3278,0.2985
206561.0,1.3264,-0.9625,3.5745,1.6517,0.5523,0.1527
206571.0,0.68,-0.2466,4.6136,1.0562,1.0041,-0.1463
206581.0,-0.6847,1.7119,7.6878,0.3421,1.2941,-0.4182
206591.0,-1.8651,3.158,10.9846,-0.2331,1.2169,-0.5374
206601.0,-2.2817,4.3479,12.1841,-0.5018,0.8338,-0.5119
206611.0,-2.2793,5.7341,11.2288,-0.6135,0.3704,-0.3858
206621.0,-1.8411,6.1794,9.7707,-0.6279,0.0314,-0.1575
206631.0,-0.3352,6.3758,7.1658,-0.4305,-0.1336,0.1373
206641.0,-1.0415,6.9552,3.5171,-0.3033,-0.2075,0.4257
206651.0,0.5914,8.6646,-4.4819,-0.6055,-0.4816,0.705
206661.0,3.0215,8.1044,-11.6741,-1.6474,-0.4901,1.0041
206671.0,1.5203,8.667,-18.8807,-2.3801,0.3576,1.3399
206681.0,-1.549,10.2208,-28.005,-3.0889,1.6559,1.7804
206691.0,-7.1874,7.4867,-29.1159,-4.159,3.4635,2.4621
206701.0,-12.8688,3.1987,-27.1143,-3.8328,6.3018,3.3103
206711.0,-24.2557,-1.8842,-16.5918,-2.7808,9.4727,4.0116
206721.0,-30.2316,-17.6812,5.2648,-0.9988,12.5685,4.4777
206731.0,-31.1031,-31.9722,34.9242,2.1673,15.2764,3.8163
206741.0,-33.1549,-29.6426,66.5301,4.6709,14.4836,1.7379
206751.0,-28.898,-14.0827,73.3009,6.1555,9.5206,-0.3288
206761.0,-25.5605,3.4069,63.5349,5.6851,3.5806,-1.7161
206771.0,-22.3164,18.2079,40.8259,3.3592,-1.4851,-2.204
206781.0,-17.5615,20.7673,23.2908,0.0037,-4.0648,-1.8693
206791.0,-13.1944,16.1465,12.4235,-2.2897,-4.1728,-1.118
206801.0,-11.4012,7.8673,12.4762,-3.4066,-3.0889,-0.4033
206811.0,-10.0724,0.8116,14.9159,-2.8931,-2.0987,0.125
206821.0,-8.5497,-3.3136,16.7905,-1.6458,-1.6559,0.3799
206831.0,-7.0629,-4.4173,16.3332,-0.415,-1.6261,0.4092
206841.0,-6.0454,-4.1061,14.8441,0.2618,-1.7411,0.2815
206851.0,-5.521,-3.1436,14.7291,0.3033,-1.898,0.0484
206861.0,-5.6336,-1.1037,14.2862,0.1352,-2.1247,-0.182
206871.0,-5.9496,0.3735,13.9941,-0.2581,-2.5398,-0.3187
206881.0,-5.5617,1.1301,11.6933,-0.555,-3.0964,-0.3283
206891.0,-4.6352,0.8092,8.1139,-0.6678,-3.4619,-0.2517
206901.0,-3.2441,-0.1293,4.4029,-0.5518,-3.3709,-0.1602
206911.0,-2.1452,-1.2689,2.5809,-0.3719,-2.8362,-0.1272
206921.0,-1.8507,-1.8387,3.0813,-0.2591,-2.1758,-0.1889
206931.0,-2.3032,-1.7741,4.8866,-0.2139,-1.6809,-0.3076
206941.0,-2.3607,-2.0159,6.924,-0.1825,-1.4282,-0.4294
206951.0,-2.9209,-1.6975,9.4164,-0.0335,-1.2404,-0.5683
206961.0,-3.5626,-0.2035,11.1354,0.2017,-1.2765,-0.6864
206971.0,-4.0797,1.3886,11.8561,0.4225,-1.5559,-0.7114
206981.0,-3.9073,2.8491,9.3996,0.6295,-2.0098,-0.6247
206991.0,-3.0358,3.0981,6.0525,0.6103,-2.2764,-0.4826
207001.0,-2.2697,3.0382,3.699,0.464,-2.1151,-0.365
207011.0,-2.2051,2.6647,4.0773,0.2426,-1.6591,-0.2783
207021.0,-2.478,2.3631,5.2122,0.0617,-1.3462,-0.2054
207031.0,-2.1979,0.8164,6.8738,-0.1171,-1.2377,-0.1501
207041.0,-2.1811,-0.067,7.7644,-0.1442,-1.2137,-0.1735
207051.0,-2.0279,-0.4094,8.1858,-0.1506,-1.3164,-0.2538
207061.0,-1.7861,-0.182,7.5705,-0.067,-1.4117,-0.3331
207071.0,-1.5419,0.2945,6.6726,0.0676,-1.4117,-0.3842
207081.0,-1.4006,0.6512,5.6934,0.2107,-1.2904,-0.3948
207091.0,-1.2761,0.7039,5.4324,0.2863,-1.0924,-0.39
207101.0,-1.2833,0.2394,6.5505,0.3927,-0.7822,-0.3789
207111.0,-1.7142,-0.012,8.2384,0.5385,-0.5433,-0.3932
207121.0,-1.8986,-0.5842,10.3142,0.6518,-0.5321,-0.4278
207131.0,-2.0423,-0.3065,10.6614,0.8136,-0.7269,-0.4895
207141.0,-1.9273,0.2825,10.1466,0.8583,-1.0424,-0.5593
207151.0,-1.4365,1.2594,8.4132,0.9567,-1.259,-0.5853
207161.0,-1.1827,2.6959,6.1483,1.0233,-1.3138,-0.5608
207171.0,0.1053,3.474,4.3694,0.9498,-1.2675,-0.4768
207181.0,-0.6823,4.956,2.3655,0.8163,-1.1116,-0.3421
207191.0,0.316,5.2529,0.1389,0.4284,-1.028,-0.157
207201.0,0.7135,4.9943,-1.2306,-0.0628,-0.7928,0.0287
207211.0,0.5291,5.0757,-2.3631,-0.5225,-0.5683,0.2256
207221.0,1.9609,3.4429,-5.6216,-0.9621,-0.638,0.4832
207231.0,3.3615,0.6632,-11.9159,-1.1802,-0.6173,0.6912
207241.0,3.1723,-1.1851,-22.2038,-1.301,-0.1602,0.7785
207251.0,3.9624,-1.245,-33.9354,-1.5495,0.8775,0.7673
207261.0,-2.9521,0.486,-40.6368,-1.5383,3.5678,0.829
207271.0,-7.9033,-2.9951,-36.4493,-1.2537,7.4123,1.16
207281.0,-21.5574,-12.3445,-15.3684,-0.4597,11.9502,1.3287
207291.0,-31.0743,-21.0762,18.3468,0.5566,14.756,0.804
207301.0,-34.3855,-19.1345,48.4108,3.3241,15.5345,-0.3916
207311.0,-36.8204,-8.2049,74.1915,4.69,12.2029,-1.8267
207321.0,-29.3074,8.4683,67.325,5.6489,5.8064,-2.4988
207331.0,-26.092,20.7146,49.4044,4.7172,0.299,-2.4706
207341.0,-19.3571,28.0984,26.1902,2.9607,-2.734,-1.8816
207351.0,-15.3037,26.9827,15.8568,0.6726,-2.8681,-0.9376
207361.0,-13.0077,19.3835,15.105,-1.0951,-1.988,0.083
207371.0,-12.457,10.568,19.5941,-1.9082,-1.4596,0.8626
207381.0,-11.0421,3.4237,21.0307,-1.6985,-1.7544,1.3335
207391.0,-8.6024,-1.5538,18.4282,-0.9163,-2.3573,1.5123
207401.0,-6.0908,-3.1077,12.4858,0.042,-2.6568,1.425
207411.0,-4.2593,-2.2865,7.2161,0.571,-2.4121,1.1589
207421.0,-3.4189,-0.9194,5.6168,0.5188,-1.7783,0.854
207431.0,-3.5219,0.7973,7.1491,0.1586,-1.1547,0.6018
207441.0,-4.0199,1.743,10.3142,-0.2102,-0.8051,0.4821
207451.0,-4.2832,2.1189,12.8736,-0.4299,-0.8301,0.4757
207461.0,-4.5514,2.0375,13.7762,-0.5976,-1.1605,0.5108
207471.0,-4.3981,0.9481,13.4027,-0.7982,-1.6224,0.5401
207481.0,-3.6799,-0.9792,11.995,-0.9557,-2.005,0.5007
207491.0,-3.1795,-2.5642,10.7524,-1.044,-2.1747,0.3347
207501.0,-2.7845,-3.6129,9.8521,-1.0328,-2.1763,0.0665
207511.0,-2.6719,-4.0845,10.4291,-0.9083,-2.0204,-0.2671
207521.0,-3.0646,-2.9951,11.0875,-0.6114,-1.8954,-0.6119
207531.0,-3.723,-0.6823,11.5712,-0.3182,-1.9028,-0.8849
207541.0,-4.3191,1.9249,11.7555,-0.0846,-2.013,-1.0057
207551.0,-4.6352,4.5346,11.3246,0.108,-2.2077,-0.9472
207561.0,-4.6663,6.4763,9.6199,0.2448,-2.4435,-0.7125
207571.0,-4.1875,6.7876,7.5944,0.215,-2.6191,-0.3634
207581.0,-3.2489,5.3726,5.0494,0.0649,-2.6505,-0.0213
207591.0,-2.0327,3.3351,3.1915,-0.2724,-2.4903,0.1799
207601.0,-1.3336,1.1396,2.9497,-0.7231,-2.096,0.2065
207611.0,-1.1181,-0.4501,5.0589,-1.2036,-1.6911,0.0724
207621.0,-1.6113,-0.7757,8.2576,-1.4032,-1.4463,-0.132
207631.0,-2.1572,0.3017,9.9958,-1.2132,-1.4771,-0.2735
207641.0,-2.3367,1.3336,10.1035,-0.8684,-1.7496,-0.2996
207651.0,-1.901,2.0231,7.8697,-0.3714,-2.0188,-0.2176
207661.0,-1.1516,1.9632,5.2385,0.0798,-2.0066,-0.0947
207671.0,-0.5267,1.47,3.5937,0.3868,-1.7187,0.0027
207681.0,-0.1844,0.7518,3.1556,0.5066,-1.367,0.0394
207691.0,0.0646,-0.0622,3.2441,0.4411,-1.086,-0.0037
207701.0,0.2083,-0.2466,3.6751,0.2203,-0.9035,-0.1346
207711.0,0.1101,0.3879,4.4269,-0.0165,-0.7662,-0.2852
207721.0,-0.2346,1.2809,4.9344,-0.166,-0.6875,-0.3746
207731.0,-0.2011,1.992,5.0398,-0.2655,-0.6875,-0.3858
207741.0,-0.091,2.6025,4.7908,-0.3629,-0.7561,-0.3406
207751.0,0.0527,2.9257,3.9169,-0.4012,-0.837,-0.2288
207761.0,-0.091,2.8347,2.715,-0.4039,-0.9232,-0.074
207771.0,-0.1772,2.7581,1.063,-0.3012,-0.9887,0.1027
207781.0,1.4724,2.5211,-2.4134,-0.1942,-1.1345,0.2714
207791.0,0.5291,2.1332,-7.9224,-0.4299,-1.4011,0.3954
207801.0,3.1603,1.7071,-17.7578,-0.8594,-1.6591,0.4922
207811.0,2.885,1.0391,-30.4758,-1.5612,-1.2297,0.5843
207821.0,1.403,4.0749,-42.205,-2.1306,0.7822,0.7742
207831.0,2.0111,5.0398,-40.8331,-2.602,3.8764,1.1355
207841.0,-13.1537,4.0534,-32.0895,-1.8379,8.0184,1.7964
207851.0,-23.4895,-11.7412,-22.2685,-0.6513,10.8897,2.4589
207861.0,-37.7278,-26.6906,1.6424,0.2261,14.7725,2.054
207871.0,-41.2234,-27.768,39.0662,1.4543,17.4357,0.3299
207881.0,-50.0652,-12.4594,78.4125,3.6157,17.1952,-1.4415
207891.0,-41.7142,4.5155,78.4508,5.1386,11.0009,-2.096
207901.0,-35.7335,15.0619,78.4508,4.8821,3.272,-1.9199
207911.0,-27.7225,27.3705,53.0004,4.8523,-2.7489,-1.1393
207921.0,-20.3794,26.1279,28.4311,2.8026,-5.518,-0.1101
207931.0,-13.8313,20.7697,11.7292,0.2682,-5.6633,0.7311
207941.0,-11.0397,12.4953,10.7428,-2.1311,-4.3745,1.2393
207951.0,-9.4332,5.4085,14.042,-3.1592,-3.4396,1.5112
207961.0,-7.8817,0.9673,16.2662,-3.1113,-3.3981,1.6134
207971.0,-5.6288,-1.6017,13.1633,-2.1567,-3.7812,1.6868
207981.0,-3.1316,-2.7725,6.7229,-0.9323,-3.8211,1.6948
207991.0,-0.9194,-2.49,0.4621,-0.0144,-3.1921,1.5665
208001.0,-0.2873,-1.4868,-1.5993,0.2097,-2.0422,1.3734
208011.0,-0.4501,-1.2354,0.5722,-0.1777,-0.9535,1.1776
208021.0,-1.4437,-1.312,5.0206,-0.7652,-0.281,0.9775
208031.0,-2.2793,-1.743,8.9519,-1.2851,-0.1469,0.8104
208041.0,-2.4349,-2.9137,12.0524,-1.5942,-0.3698,0.6582
208051.0,-2.3942,-3.8906,13.2351,-1.533,-0.8003,0.4869
208061.0,-2.2769,-4.7429,12.6653,-1.1052,-1.1669,0.3113
208071.0,-1.9704,-5.5617,11.5831,-0.5577,-1.3798,0.0968
208081.0,-2.1284,-5.782,10.4507,-0.0341,-1.4692,-0.1873
208091.0,-2.4612,-5.2816,9.3015,0.2756,-1.5484,-0.5247
208101.0,-2.7294,-4.6064,9.0549,0.34,-1.5713,-0.8652
208111.0,-3.3088,-3.2753,9.9431,0.3789,-1.5421,-1.1781
208121.0,-3.9097,-1.2617,10.7045,0.4608,-1.7001,-1.4106
208131.0,-4.1899,1.3072,10.149,0.654,-2.0098,-1.4926
208141.0,-4.2928,3.8618,8.248,0.9078,-2.2716,-1.3947
208151.0,-2.7031,4.9273,5.1882,1.003,-2.4802,-1.1398
208161.0,-3.2417,4.9536,4.9177,0.9738,-2.3801,-0.8647
208171.0,-2.5546,5.612,1.2809,1.1361,-2.2508,-0.5385
208181.0,-2.1021,4.5514,1.1684,0.8838,-1.9592,-0.2586
208191.0,-1.4844,4.197,-0.1197,0.6912,-1.5942,-0.0474
208201.0,-0.6393,2.9904,0.0,0.1948,-1.2728,0.0596
208211.0,-0.4286,2.2075,0.8092,-0.2788,-0.9051,0.0639
208221.0,-0.4477,1.798,2.2051,-0.6726,-0.5965,0.0261
208231.0,-0.589,1.1684,4.1827,-0.8961,-0.373,-0.009
208241.0,-0.7374,0.6249,5.6096,-0.8572,-0.2943,-0.0314
208251.0,-0.9457,0.1221,6.0669,-0.5358,-0.2719,-0.0266
208261.0,-0.7446,-0.8811,6.5577,0.0447,-0.0947,-0.0053
208271.0,-0.759,-0.838,6.6439,0.7641,0.1538,-0.0346
208281.0,-0.747,0.4908,5.8945,1.2233,0.2097,-0.1107
208291.0,-0.6728,1.8699,4.0893,1.3138,0.1857,-0.1596
208301.0,0.0742,2.7438,2.4517,1.1313,0.2857,-0.1735
208311.0,-0.2059,3.3615,1.8723,0.6843,0.5231,-0.1884
208321.0,-0.0599,4.6711,0.2179,0.0186,0.6093,-0.1761
208331.0,-0.4046,4.6878,-0.5962,-1.1031,0.4566,-0.116
208341.0,-0.1389,4.3814,-2.6815,-1.8539,0.3762,0.0628
208351.0,0.3591,4.1084,-5.2457,-1.8949,0.6518,0.3645
208361.0,-0.644,3.1364,-8.667,-1.0781,1.2686,0.7923
208371.0,-0.6823,0.3519,-14.8297,0.6369,2.4009,1.251
208381.0,-1.257,-1.6927,-22.5773,2.594,4.8162,1.4271
208391.0,-7.4005,-6.3231,-18.1576,3.0421,7.8178,1.1265
208401.0,-14.8776,-9.7612,-2.4469,2.2955,10.099,0.3246
208411.0,-20.7936,-4.379,10.4004,1.8342,10.8886,-0.6806
208421.0,-23.1447,2.5714,18.8639,0.9041,9.6919,-1.3388
208431.0,-22.4241,9.3087,17.2742,0.3549,7.9216,-1.3409
208441.0,-22.1871,11.7603,11.2527,0.2841,7.0404,-0.8141
208451.0,-21.9788,6.3997,13.2112,0.1963,7.4799,-0.199
208461.0,-22.0171,3.1101,25.2493,0.8152,8.8102,0.0745
208471.0,-25.8502,2.466,45.9208,1.6464,9.1401,0.0452
208481.0,-23.9085,6.2177,54.073,2.1535,6.429,-0.0889
208491.0,-22.0003,8.1618,53.4506,1.3255,2.1332,-0.2112
208501.0,-18.8711,11.9973,38.2713,0.6779,-1.5963,-0.1548
208511.0,-16.5798,11.3653,25.9316,-0.4842,-3.629,0.0266
208521.0,-14.2096,10.2783,15.0021,-1.2835,-4.3516,0.2618
208531.0,-12.1338,7.8243,9.1842,-1.7906,-4.1441,0.5108
208541.0,-10.1706,5.114,6.9815,-1.7666,-3.4582,0.737
208551.0,-8.9232,2.9281,7.3813,-1.3143,-2.6467,0.9078
208561.0,-8.0972,1.0511,8.8873,-0.6854,-2.0119,1.0243
208571.0,-7.0653,-1.4916,11.5688,-0.1144,-1.6001,1.0552
208581.0,-6.8378,-2.0614,13.5991,0.3863,-1.5011,0.9269
208591.0,-6.9336,-1.2426,14.4203,0.5566,-1.8299,0.7173
208601.0,-6.8905,-0.3663,13.3022,0.3986,-2.4158,0.5252
208611.0,-6.6224,-0.6991,12.0213,0.0335,-2.9298,0.3549
208621.0,-6.4212,-0.7901,10.7787,-0.2293,-3.2246,0.165
208631.0,-6.7445,0.577,9.2344,-0.4225,-3.4167,-0.041
208641.0,-6.7971,1.6975,7.7835,-0.7295,-3.6088,-0.182
208651.0,-6.5218,2.2697,6.6367,-1.094,-3.729,-0.2613
208661.0,-6.3015,2.4062,5.9903,-1.3888,-3.7344,-0.3038
208671.0,-5.9879,1.8986,5.3439,-1.5889,-3.7014,-0.3235
208681.0,-6.0621,0.6129,6.0047,-1.7028,-3.6093,-0.3602
208691.0,-5.6623,0.3017,5.8012,-1.5383,-3.4965,-0.4268
208701.0,-5.4157,0.6105,6.4189,-1.384,-3.4396,-0.5172
208711.0,-5.2122,1.7621,5.7724,-1.0908,-3.4172,-0.5582
208721.0,-4.9943,2.5786,5.102,-0.8785,-3.4247,-0.5321
208731.0,-4.8985,3.7924,3.2034,-0.7354,-3.4257,-0.4464
208741.0,-4.0007,4.1204,1.8076,-0.7583,-3.3172,-0.3017
208751.0,-3.6368,3.8571,0.7374,-0.7274,-3.0277,-0.1277
208761.0,-2.3535,3.3136,-0.9912,-0.7418,-2.7079,0.05
208771.0,-1.8052,1.9297,-0.4453,-0.861,-2.2397,0.1767
208781.0,-1.2186,1.0846,-0.1149,-0.7572,-1.7262,0.249
208791.0,-0.8188,0.0934,0.984,-0.6721,-1.3053,0.265
208801.0,-0.6081,-0.3998,1.9609,-0.4443,-0.9195,0.2352
208811.0,-0.4381,-0.3089,2.4852,-0.1772,-0.6385,0.1772
208821.0,-0.2227,0.0886,2.2075,0.0724,-0.4017,0.125
208831.0,0.0024,0.2227,1.7214,0.2416,-0.1341,0.0915
208841.0,0.3065,0.0527,1.2091,0.3193,0.1799,0.0575
208851.0,0.3472,0.1221,1.2282,0.3336,0.5694,0.0005
208861.0,-0.012,0.419,1.403,0.3054,0.936,-0.0612
208871.0,-0.3304,0.6201,1.7693,0.2065,1.2643,-0.1107
208881.0,-0.7446,0.6464,2.5402,0.0665,1.6187,-0.149
208891.0,-1.3862,0.5411,4.4341,-0.1293,1.9475,-0.19
208901.0,-1.9106,0.3376,6.5625,-0.2799,2.0955,-0.2208
208911.0,-2.2889,0.5459,7.7285,-0.2469,2.104,-0.2304
208921.0,-2.3703,0.7422,8.102,-0.0431,2.0641,-0.1953
208931.0,-2.411,1.4365,7.3095,0.3411,2.1183,-0.1309
208941.0,-2.8802,2.4301,6.1316,0.6635,2.2955,-0.0516
208951.0,-3.1436,2.083,5.5857,0.7077,2.5653,0.0474
208961.0,-3.6129,1.4293,6.5553,0.4699,2.883,0.0617
208971.0,-4.4221,1.2186,8.4922,0.0809,3.0102,0.0005
208981.0,-5.0087,1.1923,9.5361,-0.1208,2.9415,-0.0346
208991.0,-5.2816,1.5395,9.4379,-0.0612,2.8154,-0.016
209001.0,-5.5115,2.0087,7.7692,0.2756,2.7963,0.0793
209011.0,-5.6695,2.1572,5.4564,0.7066,3.0703,0.2054
209021.0,-6.4907,2.162,4.3167,0.8695,3.5965,0.2634
209031.0,-7.6255,2.0111,5.4851,0.6449,4.1574,0.2315
209041.0,-9.3877,1.6855,8.4683,0.1804,4.5687,0.1517
209051.0,-10.6398,0.5602,13.0867,-0.306,4.6805,0.0851
209061.0,-10.3046,-1.0558,17.9302,-0.4507,4.4506,0.033
209071.0,-10.149,-1.8507,21.3252,-0.058,3.9632,-0.0404
209081.0,-9.8545,-0.8356,21.792,0.679,3.3347,-0.1437
209091.0,-10.058,1.2474,21.1863,1.1419,2.6888,-0.2698
209101.0,-10.5273,3.8738,20.4465,1.1557,2.0731,-0.3565
209111.0,-10.9942,5.4851,20.2502,0.679,1.4096,-0.3517
209121.0,-11.0445,5.2481,21.3204,-0.017,0.7577,-0.2762
209131.0,-11.4682,4.4915,22.3834,-0.5305,0.0702,-0.1953
209141.0,-11.5975,3.7038,21.962,-0.8413,-0.8179,-0.132
209151.0,-11.0492,2.8036,20.1041,-0.8929,-1.6629,-0.0628
209161.0,-10.3382,2.66,16.9342,-0.6151,-2.1976,0.0096
209171.0,-9.651,2.9401,13.805,-0.2905,-2.4131,0.0846
209181.0,-8.9519,3.1556,11.6167,-0.0915,-2.4296,0.1703
209191.0,-8.351,3.0574,10.6039,-0.0197,-2.3376,0.265
209202.0,-7.9535,2.4565,10.9607,0.0372,-2.1689,0.3528
209211.0,-7.8578,1.8747,11.5089,0.1027,-2.1157,0.4113
209221.0,-7.6734,0.9385,12.141,0.116,-2.2594,0.4278
209231.0,-7.2712,0.5411,11.327,0.2139,-2.4945,0.3954
209241.0,-6.7014,0.158,10.2759,0.2464,-2.6739,0.3134
209251.0,-6.1818,0.2562,9.0094,0.2506,-2.7542,0.1995
209261.0,-5.794,0.4357,8.5114,0.1937,-2.7356,0.0793
209271.0,-5.7533,1.1037,8.509,0.165,-2.6574,-0.0234
209281.0,-6.0071,1.9968,8.6191,0.1293,-2.6505,-0.0793
209291.0,-5.8131,2.2075,8.7915,0.0686,-2.7239,-0.0761
209301.0,-5.6455,2.4397,8.1092,0.0612,-2.8239,-0.0474
209311.0,-4.9129,1.9537,7.5681,-0.0426,-2.9421,-0.0245
209321.0,-4.9991,2.0686,6.5529,-0.1043,-3.0091,-0.0282
209331.0,-4.2808,2.0111,4.9895,-0.1852,-3.0485,-0.0277
209341.0,-3.7445,1.6113,4.2593,-0.2634,-2.9176,-0.0255
209351.0,-3.1795,1.6975,3.2274,-0.249,-2.6925,-0.033
209361.0,-2.5163,1.6592,2.8946,-0.3134,-2.4424,-0.0436
209371.0,-2.3798,1.8196,3.7613,-0.3054,-2.0428,-0.0399
209381.0,-2.4756,2.2386,4.8914,-0.3092,-1.8001,-0.033
209391.0,-2.1572,2.2458,5.1643,-0.364,-1.8017,0.0016
209401.0,-1.7023,1.9201,4.8435,-0.414,-1.8193,0.0463
209411.0,-0.9313,1.7214,3.9576,-0.4198,-1.7751,0.0756
209421.0,-0.8763,1.561,3.1508,-0.4438,-1.657,0.0947
209431.0,-0.3831,1.4485,2.0327,-0.4326,-1.4979,0.1155
209441.0,0.1077,1.1396,0.8045,-0.415,-1.2356,0.1336
209451.0,0.1963,0.8332,0.0,-0.4156,-0.8328,0.132
209461.0,0.6464,0.2155,0.0168,-0.4464,-0.3613,0.1054
209471.0,0.6656,-0.407,0.9936,-0.448,0.1788,0.041
209481.0,0.3448,-0.3615,2.4828,-0.4284,0.6018,-0.0654
209491.0,-0.0503,0.2777,3.4907,-0.3304,0.8535,-0.1527
209501.0,-0.34,0.9409,3.7733,-0.108,1.0626,-0.1666
209511.0,-0.4741,1.2522,3.7613,0.1841,1.3308,-0.1181
209521.0,-0.759,1.2929,4.1372,0.4943,1.6932,-0.05
209531.0,-1.2713,1.3096,4.8387,0.7396,2.0332,0.0021
209541.0,-1.8914,1.4198,5.7748,0.8397,2.279,0.016
209551.0,-2.32,1.2713,6.9504,0.7886,2.4243,0.0037
209561.0,-2.8299,1.1564,8.3151,0.6433,2.4695,-0.042
209571.0,-3.1125,1.2713,8.6838,0.4741,2.3759,-0.1032
209581.0,-3.1532,0.9673,8.8514,0.2246,2.2157,-0.1607
209591.0,-3.1795,0.9194,8.2097,0.0745,2.1274,-0.2182
209601.0,-3.2609,0.7494,8.3151,-0.0064,2.221,-0.2692
209611.0,-3.8235,0.9146,9.9958,0.074,2.518,-0.3092
209621.0,-4.7094,1.7693,11.8776,0.2001,2.6079,-0.3379
209631.0,-5.0206,2.5881,12.7946,0.2645,2.3945,-0.3214
209641.0,-5.0182,3.3375,12.4834,0.3044,2.1157,-0.2559
209651.0,-4.8459,3.6176,11.4227,0.2799,1.864,-0.1511
209661.0,-4.7405,3.5985,9.7683,0.2506,1.7443,-0.0341
209671.0,-4.8243,2.8252,8.2959,0.2144,1.8379,0.0745
209681.0,-4.8028,1.403,8.2217,0.1756,2.137,0.1235
209691.0,-5.3534,0.6728,10.0341,0.1548,2.5648,0.0644
