time_ms,ax,ay,az,gx,gy,gz
116181.0,1.9201,-0.9146,9.2153,0.3257,-0.1985,0.2719
116191.0,2.2003,-2.0111,9.6199,0.1916,-0.1942,0.2889
116201.0,1.8723,-1.652,10.0269,0.2112,-0.1591,0.2283
116211.0,1.3312,-1.3001,10.8888,0.2905,-0.1985,0.2267
116221.0,1.4078,-1.1061,10.8505,0.3368,-0.3964,0.2623
116231.0,1.8579,-1.2258,10.0868,0.3358,-0.5875,0.299
116241.0,2.4517,-1.3336,9.1506,0.3086,-0.6715,0.3155
116251.0,2.6025,-1.3862,8.7077,0.3033,-0.5843,0.3235
116261.0,2.4325,-1.0534,8.6167,0.2826,-0.4374,0.3358
116271.0,1.8148,-1.142,8.7963,0.1708,-0.3432,0.3629
116281.0,1.6855,-1.7502,8.7388,0.0788,-0.3033,0.3852
116291.0,1.494,-2.1931,9.1746,0.0963,-0.2001,0.3805
116301.0,1.4748,-1.9441,9.9359,0.1873,-0.1431,0.3549
116311.0,1.5874,-0.9744,10.343,0.3475,-0.1336,0.3379
116321.0,1.9537,-0.6057,11.0109,0.447,-0.1932,0.3624
116331.0,1.9992,0.0072,10.8362,0.4826,-0.3235,0.3799
116341.0,2.0734,-0.3352,10.7236,0.4773,-0.3427,0.3757
116351.0,1.719,-0.656,10.6638,0.3959,-0.2804,0.3139
116361.0,1.4964,-0.7422,10.2807,0.1916,-0.2597,0.2309
116371.0,1.4868,-1.2354,10.1754,-0.0208,-0.1963,0.1825
116381.0,1.6448,-1.5155,10.0293,-0.1676,-0.1256,0.1447
116391.0,1.7286,-1.8387,10.0676,-0.2581,-0.0878,0.083
116401.0,1.6185,-1.9561,10.1562,-0.2618,-0.0277,-0.0335
116411.0,2.0423,-1.7549,10.3406,-0.2517,-0.0346,-0.1697
116421.0,2.7078,-1.4509,11.248,-0.2128,-0.0479,-0.2549
116431.0,3.0933,-0.2251,11.406,-0.1431,-0.1245,-0.2794
116441.0,3.6655,0.0407,10.4004,-0.1623,-0.2788,-0.2352
116451.0,3.7757,-0.2155,9.5433,-0.165,-0.2469,-0.1644
116461.0,3.4261,-0.2969,9.1818,-0.1064,-0.0521,-0.0883
116471.0,2.4373,-0.7518,9.8402,-0.041,0.1469,0.0096
116481.0,2.2051,-1.4461,10.2855,0.0138,0.1474,0.0702
116491.0,1.968,-1.64,10.2999,0.0894,0.074,0.0468
116501.0,1.901,-1.6233,10.7284,0.2059,0.016,0.0154
116511.0,1.8986,-1.4437,11.066,0.3257,-0.0601,0.0016
116521.0,1.8651,-1.2953,10.7093,0.3964,-0.1559,0.0016
116531.0,1.98,-1.3096,10.2161,0.3852,-0.2001,0.0005
116541.0,1.9944,-1.312,10.3046,0.3219,-0.1586,-0.0128
116551.0,2.2458,-1.0894,10.7164,0.2597,-0.1091,-0.0335
116561.0,2.5498,-0.7111,10.9822,0.207,-0.1219,-0.0649
116571.0,2.5929,-0.4046,11.0157,0.1304,-0.1793,-0.1006
116581.0,2.7294,-0.3903,10.7643,0.0372,-0.298,-0.1219
116591.0,2.8539,-0.5698,10.5105,-0.0239,-0.3847,-0.1373
116601.0,2.9999,-0.7111,9.9264,-0.0192,-0.4012,-0.1548
116611.0,3.0502,-0.8978,9.3374,0.0064,-0.348,-0.1729
116621.0,2.9688,-0.8667,8.8178,0.058,-0.2426,-0.1889
116631.0,2.4205,-0.8164,8.8633,0.149,0.0027,-0.1745
116641.0,1.9369,-0.917,9.9,0.2128,0.2549,-0.1394
116651.0,1.8723,-0.7925,10.6638,0.1761,0.2953,-0.116
116661.0,2.1356,-0.2897,10.8649,0.0702,0.1777,-0.1022
116671.0,2.4181,0.182,10.8026,-0.0388,0.0676,-0.067
116681.0,2.794,0.0838,10.4124,-0.1383,-0.0037,-0.0112
116691.0,2.8659,-0.2466,10.094,-0.241,-0.0218,0.017
116701.0,2.8563,-0.3376,9.8019,-0.331,-0.0106,0.0112
116711.0,2.715,-0.5339,9.8785,-0.3863,0.0314,-0.0011
116721.0,2.5929,-0.5722,9.9096,-0.3762,0.0724,-0.0096
116731.0,2.4612,-0.6823,10.0389,-0.3139,0.1091,-0.0048
116741.0,2.5426,-0.5267,9.9671,-0.2166,0.1261,0.0197
116751.0,2.3152,-0.4262,10.1849,-0.1453,0.1548,0.0484
116761.0,2.3296,-0.5411,10.4651,-0.1022,0.1229,0.0851
116771.0,2.3367,-0.68,10.4339,-0.0889,0.0516,0.116
116781.0,2.4636,-0.8428,10.0892,-0.1075,-0.0436,0.1336
116791.0,2.739,-0.9529,9.5241,-0.1096,-0.0585,0.1368
116801.0,2.9592,-0.9792,9.5098,-0.1059,0.0447,0.1171
116811.0,2.9904,-0.7757,10.1155,-0.1389,0.1405,0.0756
116821.0,2.8898,-0.7015,10.6805,-0.1905,0.1,0.0144
116831.0,2.3391,-0.7853,10.5824,-0.2017,-0.0271,-0.0372
116841.0,2.4325,-1.3886,10.1825,-0.108,-0.1261,-0.033
116851.0,2.909,-1.5897,9.7037,0.0479,-0.1128,-0.0548
116861.0,2.8754,-0.9122,9.3422,0.1639,-0.033,-0.116
116871.0,2.8132,-0.9481,9.5409,0.1809,0.0255,-0.1431
116881.0,2.6959,-1.0558,9.5577,0.2246,0.0447,-0.1644
116891.0,2.7581,-0.9266,9.572,0.3006,0.1,-0.183
116901.0,2.4134,-0.814,9.6534,0.2948,0.1421,-0.1969
116911.0,2.4636,-0.7254,9.8952,0.2325,0.1799,-0.1873
116921.0,2.5546,-0.7063,10.6326,0.1884,0.232,-0.183
116931.0,2.5881,-0.5818,11.0492,0.1697,0.2011,-0.1804
116941.0,2.8898,-0.5076,11.0492,0.1745,0.0777,-0.182
116951.0,2.7773,-0.3017,11.2695,0.249,-0.0197,-0.1793
116961.0,2.49,-0.2705,11.4371,0.3597,-0.0825,-0.1554
116971.0,2.5594,-0.4836,11.2551,0.406,-0.1591,-0.1266
116981.0,2.4924,-0.2682,11.0349,0.3815,-0.1948,-0.1112
116991.0,2.6671,-0.1269,10.999,0.2889,-0.232,-0.1117
117001.0,2.9784,-0.0048,10.7164,0.1756,-0.2746,-0.116
117011.0,2.8467,-0.091,10.8146,0.1,-0.282,-0.124
117021.0,2.6767,0.0383,10.8338,0.0628,-0.3416,-0.1293
117031.0,2.7892,0.0431,10.4004,0.0553,-0.4172,-0.1176
117041.0,2.9568,0.067,9.8114,0.0596,-0.4055,-0.1016
117051.0,3.0287,0.0599,9.1267,0.0229,-0.3358,-0.083
117061.0,3.0742,-0.3376,8.9711,-0.0208,-0.1825,-0.0623
117071.0,3.1436,-0.6009,9.2368,-0.0644,-0.0452,-0.0575
117081.0,3.158,-0.5339,9.1722,-0.0814,0.05,-0.0761
117091.0,3.1795,-0.3807,9.2488,-0.0686,0.1362,-0.1022
117101.0,2.964,-0.2466,9.7779,-0.0458,0.199,-0.1203
117111.0,3.0023,0.0646,9.8809,-0.0154,0.1926,-0.1261
117121.0,3.0311,0.1293,9.7659,-0.0138,0.1676,-0.1149
117131.0,2.9425,0.1484,9.7707,-0.0186,0.183,-0.0937
117141.0,2.9449,0.0168,9.675,-0.0298,0.1969,-0.0681
117151.0,2.9712,-0.1772,9.5002,-0.0399,0.2267,-0.0516
117161.0,2.9712,-0.3208,9.5672,-0.0474,0.2762,-0.0458
117171.0,2.9544,-0.4046,9.7899,-0.0197,0.2969,-0.0511
117181.0,2.9425,-0.1149,9.9862,0.0282,0.3017,-0.067
117191.0,2.8467,0.0742,10.161,0.0734,0.3182,-0.0777
117201.0,2.794,0.0575,10.2927,0.0665,0.3145,-0.0857
117211.0,2.6671,0.1197,10.3549,0.0452,0.3139,-0.0862
117221.0,2.5786,0.0766,10.2807,0.0128,0.2964,-0.0729
117231.0,2.648,-0.1269,10.0078,0.0,0.3065,-0.0436
117241.0,2.3966,-0.4573,10.3693,0.0176,0.3443,-0.0197
117251.0,2.4924,-0.1532,10.2544,0.0718,0.3033,-0.0138
117261.0,2.5307,-0.1676,9.9958,0.1213,0.2836,0.0
117271.0,2.5929,-0.1796,10.3597,0.1171,0.3038,-0.008
117281.0,2.6983,-0.1652,10.4842,0.0713,0.3054,-0.0293
117291.0,2.5786,0.0383,10.7524,0.0181,0.3118,-0.0569
117301.0,2.4876,0.0646,10.8673,-0.0543,0.2698,-0.0718
117311.0,2.3607,0.2394,10.5536,-0.1027,0.2112,-0.0702
117321.0,2.3415,0.0838,10.635,-0.1086,0.2091,-0.0479
117331.0,2.3176,0.0742,10.7691,-0.0851,0.182,-0.0298
117341.0,2.4421,0.1867,10.8457,-0.0628,0.1485,-0.0186
117351.0,2.308,0.1963,10.9128,-0.0553,0.1272,-0.0043
117361.0,2.4229,0.0,10.6901,-0.0303,0.1011,0.009
117371.0,2.6193,-0.249,10.3525,0.0106,0.1171,0.0138
117381.0,2.5809,-0.419,10.2927,0.0069,0.1644,-0.0096
117391.0,2.6552,-0.6632,10.1323,-0.0404,0.1793,-0.0506
117401.0,2.7533,-0.8236,9.9718,-0.0686,0.223,-0.099
117411.0,2.4948,-0.6273,9.9096,-0.0718,0.2778,-0.149
117421.0,2.5283,-0.5411,9.8067,-0.0937,0.2884,-0.1846
117431.0,2.3966,-0.5028,9.5936,-0.1176,0.3544,-0.2006
117441.0,2.3415,-0.4477,9.6343,-0.1447,0.4262,-0.2027
117451.0,2.4349,-0.4525,9.3996,-0.1793,0.4757,-0.2043
117461.0,2.5259,-0.498,9.2368,-0.1979,0.5656,-0.2123
117471.0,2.399,-0.5626,9.5074,-0.1783,0.6753,-0.2246
117481.0,2.3463,-0.5459,10.0197,-0.0644,0.7721,-0.232
117491.0,2.1811,-0.4477,10.4291,0.1203,0.8498,-0.2256
117501.0,1.889,-0.3735,10.5058,0.257,0.8945,-0.2059
117511.0,1.7597,-0.3496,10.6087,0.3102,0.9062,-0.174
117521.0,1.7526,-0.2179,10.4387,0.3948,0.8987,-0.133
117531.0,1.6209,0.0263,10.2879,0.4337,0.9014,-0.0926
117541.0,1.4988,0.2083,10.4363,0.4188,0.9078,-0.0506
117551.0,1.5012,0.2322,10.6279,0.3741,0.8918,-0.0133
117561.0,1.5754,-0.1077,10.8769,0.3602,0.8913,0.0154
117571.0,1.3982,-0.2825,11.3078,0.3805,0.9057,0.0138
117581.0,1.2833,-0.2035,11.4539,0.4124,0.8679,0.0059
117591.0,1.1109,-0.2083,11.5401,0.4395,0.8141,0.0048
117601.0,0.929,0.1006,11.2982,0.4246,0.7652,0.0074
117611.0,0.7063,0.5363,11.6598,0.3613,0.7253,0.0213
117621.0,0.9146,-0.4573,13.2399,0.39,0.6997,0.0548
117631.0,0.68,-0.9457,13.4746,0.5098,0.5555,0.0415
117641.0,0.8811,-1.063,13.6398,0.5023,0.3363,-0.0218
117651.0,0.826,-0.5483,13.0173,0.5859,0.2011,-0.0777
117661.0,0.7709,-0.2466,12.4977,0.5683,0.0633,-0.1213
117671.0,0.9266,-0.0455,11.6622,0.4991,-0.067,-0.1548
117681.0,0.9361,0.0599,11.0085,0.4353,-0.0841,-0.1788
117691.0,1.1349,0.1221,10.5656,0.3762,-0.0452,-0.2022
117701.0,1.1396,0.3424,10.2496,0.3044,0.0357,-0.232
117711.0,1.1085,0.3687,10.5441,0.1793,0.1261,-0.2602
117721.0,1.142,0.3639,11.0085,0.0937,0.1878,-0.2852
117731.0,0.9673,0.4453,11.576,0.0686,0.2176,-0.3017
117741.0,1.0511,0.3567,12.1266,0.1282,0.2022,-0.2969
117751.0,1.1085,0.3089,12.2607,0.3001,0.1804,-0.2836
117761.0,1.1636,0.5938,11.983,0.4922,0.132,-0.2772
117771.0,1.0989,1.0918,11.6622,0.6236,0.0788,-0.273
117781.0,1.0798,1.5395,11.4156,0.7439,0.0548,-0.2501
117791.0,1.1851,1.8651,11.0014,0.8147,0.0027,-0.2144
117801.0,1.233,1.9968,10.5345,0.8375,-0.0431,-0.182
117811.0,1.2546,2.2122,9.8569,0.8354,-0.0559,-0.157
117821.0,1.3767,2.3176,9.1099,0.7407,-0.049,-0.1479
117831.0,1.4341,2.4756,8.5377,0.5289,-0.0016,-0.1596
117841.0,1.2761,2.4325,8.7556,0.2081,0.0692,-0.1894
117851.0,1.2617,2.2338,9.4403,-0.0724,0.1128,-0.2187
117861.0,1.1205,2.1332,9.809,-0.2613,0.1,-0.2506
117871.0,0.9122,2.083,10.2759,-0.3778,0.0617,-0.2815
117881.0,0.7661,2.2122,10.5321,-0.3432,0.0165,-0.2911
117891.0,0.6009,2.3655,10.5417,-0.1772,-0.0266,-0.274
117901.0,0.668,2.7342,9.7396,0.0724,-0.0639,-0.2347
117911.0,0.6632,3.0023,8.916,0.2538,-0.0458,-0.191
117921.0,0.7446,3.2154,8.2361,0.3682,0.0282,-0.1405
117931.0,0.8547,3.2585,7.7261,0.3805,0.1266,-0.1006
117941.0,0.6943,3.2322,7.7476,0.2884,0.2474,-0.083
117951.0,0.5746,3.1891,8.2145,0.1836,0.3645,-0.0766
117961.0,0.3735,3.2872,8.679,0.1107,0.4305,-0.0676
117971.0,0.1867,3.3854,9.0812,0.0383,0.448,-0.0511
117981.0,0.0814,3.4477,9.4619,-0.0234,0.4337,-0.0202
117991.0,-0.0168,3.4812,9.7588,-0.0426,0.4076,0.0266
118001.0,-0.0455,3.2872,9.8809,-0.0154,0.3757,0.0878
118011.0,0.0934,3.0287,9.7612,-0.0059,0.3384,0.1373
118021.0,0.1053,2.7031,9.8282,-0.0612,0.3081,0.1607
118031.0,0.1197,2.3224,10.0724,-0.1357,0.2682,0.1623
118041.0,0.2131,2.0949,10.0844,-0.1932,0.1963,0.1463
118051.0,0.3089,1.9776,9.8857,-0.2336,0.1272,0.1235
118061.0,0.4669,2.0231,9.5696,-0.273,0.0793,0.0952
118071.0,0.4956,2.0662,9.3565,-0.3283,0.0633,0.0718
118081.0,0.5267,2.1548,9.1961,-0.3682,0.0724,0.0633
118091.0,0.4046,2.1428,9.2249,-0.3858,0.0979,0.0702
118101.0,0.4764,1.9561,9.4978,-0.357,0.1357,0.0905
118111.0,0.5578,1.6544,9.7085,-0.2905,0.1612,0.1117
118121.0,0.5962,1.4126,9.8809,-0.2368,0.1453,0.1133
118131.0,0.6847,1.2737,9.8665,-0.1724,0.1181,0.1038
118141.0,0.7446,1.2498,9.6941,-0.0995,0.0963,0.0867
118151.0,0.7661,1.3527,9.4715,-0.058,0.0846,0.0617
118161.0,0.7494,1.5251,9.2105,-0.0372,0.0931,0.0404
118171.0,0.7518,1.5969,9.153,-0.0341,0.1293,0.0287
118181.0,0.759,1.5538,9.1961,-0.0229,0.182,0.0234
118191.0,0.7207,1.5203,9.3709,-0.0293,0.2251,0.0144
118201.0,0.6919,1.3982,9.6343,-0.0351,0.2464,-0.0011
118211.0,0.6943,1.403,9.8761,-0.0059,0.257,-0.0165
118221.0,0.6129,1.4245,9.9958,0.0569,0.2623,-0.0282
118231.0,0.6009,1.4413,10.1682,0.1426,0.2655,-0.0362
118241.0,0.5698,1.6424,10.0963,0.2357,0.2639,-0.0452
118251.0,0.5459,1.8866,10.0078,0.3049,0.2618,-0.0506
118261.0,0.5028,2.1787,9.7875,0.3246,0.2634,-0.0511
118271.0,0.4429,2.3272,9.7492,0.2916,0.2613,-0.0495
118281.0,0.4214,2.32,9.8881,0.2586,0.265,-0.0362
118291.0,0.3567,2.2338,9.9383,0.2496,0.2778,-0.0176
118301.0,0.3424,2.0087,10.0149,0.2719,0.3028,-0.0032
118311.0,0.2945,1.9824,10.0365,0.3012,0.3283,-0.0037
118321.0,0.2083,2.0255,10.1849,0.3044,0.3427,-0.017
118331.0,0.2107,2.1715,10.3118,0.3076,0.3437,-0.0293
118341.0,0.0575,2.3655,10.3573,0.307,0.3411,-0.0357
118351.0,-0.012,2.4948,10.4794,0.2959,0.3326,-0.033
118361.0,-0.0455,2.5426,10.5417,0.2841,0.3177,-0.0271
118371.0,-0.1101,2.6504,10.556,0.2772,0.2996,-0.0186
118381.0,-0.1939,2.6911,10.6638,0.2591,0.2857,-0.0096
118391.0,-0.2322,2.7509,10.647,0.24,0.2613,0.0032
118401.0,-0.1891,2.7414,10.6734,0.2107,0.2379,0.0149
118411.0,-0.1748,2.7749,10.6231,0.183,0.2347,0.0234
118421.0,-0.2203,2.7126,10.7667,0.1224,0.2246,0.0282
118431.0,-0.249,2.6217,10.805,0.0511,0.1777,0.0303
118441.0,-0.1628,2.4804,10.7955,-0.0298,0.1165,0.0245
118451.0,-0.1413,2.332,10.7763,-0.0857,0.0766,0.0144
118461.0,-0.0934,2.308,10.7188,-0.091,0.0596,0.0005
118471.0,-0.1365,2.3966,10.6374,-0.0793,0.05,-0.0128
118481.0,-0.1413,2.49,10.6279,-0.0713,0.0426,-0.0181
118491.0,-0.1915,2.5594,10.6159,-0.0559,0.0325,-0.0154
118501.0,-0.1676,2.6145,10.5584,-0.049,0.0128,-0.0106
118511.0,-0.1437,2.6145,10.4459,-0.05,-0.0053,0.0
118521.0,-0.0718,2.5833,10.3597,-0.0559,-0.0186,0.0069
118531.0,-0.0503,2.545,10.1323,-0.0724,-0.0314,0.0106
118541.0,0.0,2.49,10.0221,-0.1027,-0.033,0.0128
118551.0,0.0072,2.4277,9.9407,-0.107,-0.0074,0.0154
118561.0,0.0407,2.4157,9.9671,-0.0931,0.0303,0.0186
118571.0,0.0335,2.3727,10.0676,-0.0782,0.0686,0.0197
118581.0,0.0407,2.3655,10.2185,-0.0617,0.0883,0.0197
118591.0,0.0694,2.3008,10.3932,-0.0527,0.0803,0.016
118601.0,0.0479,2.3056,10.3358,-0.0484,0.0516,0.0101
118611.0,0.0168,2.3535,10.228,-0.0612,0.0181,0.0027
118621.0,0.1221,2.3727,10.0748,-0.0729,-0.0027,-0.0005
118631.0,0.1389,2.3224,9.912,-0.0921,-0.0027,-0.0032
118641.0,0.1149,2.2434,9.9,-0.1032,0.0144,-0.0122
118651.0,0.1053,2.15,10.0173,-0.1043,0.0378,-0.0213
118661.0,0.1149,2.1189,10.1203,-0.0942,0.0436,-0.0357
118671.0,0.1125,2.2434,10.1323,-0.0835,0.0351,-0.0516
118681.0,0.0766,2.3343,10.07,-0.067,0.0266,-0.0601
118691.0,0.0766,2.3966,10.003,-0.0628,0.0192,-0.0628
118701.0,0.0599,2.4612,9.8809,-0.0585,0.0234,-0.0607
118711.0,0.0048,2.5594,9.8497,-0.0314,0.0537,-0.0495
118721.0,0.0407,2.5426,9.8234,-0.0016,0.0984,-0.0319
118731.0,0.0622,2.5235,9.9599,0.009,0.1362,-0.0186
118741.0,0.0239,2.49,10.2137,-0.0037,0.1511,-0.0096
118751.0,0.0215,2.3894,10.4124,-0.0085,0.141,-0.0037
118761.0,0.0431,2.3032,10.4148,-0.0223,0.1075,-0.0043
118771.0,0.0646,2.2577,10.2448,-0.0527,0.0676,-0.0133
118781.0,0.0838,2.2529,10.1275,-0.0713,0.0527,-0.0245
118791.0,0.0335,2.2218,9.9359,-0.0814,0.0612,-0.0367
118801.0,0.0527,2.2266,9.9192,-0.0899,0.0809,-0.0495
118811.0,-0.0024,2.2218,9.9647,-0.0952,0.1096,-0.0612
118821.0,0.0263,2.1476,10.094,-0.0905,0.1341,-0.0724
118831.0,0.0168,2.2122,10.161,-0.0702,0.1405,-0.0857
118841.0,-0.0072,2.332,10.2352,-0.0697,0.1277,-0.1011
118851.0,-0.0479,2.4924,10.1969,-0.0649,0.1128,-0.108
118861.0,-0.0168,2.5953,10.1586,-0.0665,0.1038,-0.1059
118871.0,-0.0239,2.7102,10.0676,-0.0772,0.1032,-0.1006
118881.0,-0.0718,2.7054,10.094,-0.0862,0.116,-0.0867
118891.0,-0.0742,2.6504,10.2017,-0.0921,0.1256,-0.0734
118901.0,-0.0359,2.5666,10.2711,-0.0883,0.1224,-0.0628
118911.0,-0.0407,2.5474,10.3094,-0.0724,0.1171,-0.0521
118921.0,-0.0263,2.5091,10.3597,-0.058,0.107,-0.0452
118931.0,-0.0383,2.49,10.2975,-0.0431,0.091,-0.0415
118941.0,-0.0215,2.4995,10.2232,-0.0261,0.0873,-0.0394
118951.0,-0.0024,2.5618,10.1538,-0.0186,0.0889,-0.0383
118961.0,-0.0527,2.5809,10.1586,-0.033,0.0931,-0.0362
118971.0,-0.0096,2.6456,10.1586,-0.0463,0.0979,-0.0314
118981.0,-0.0766,2.6288,10.3022,-0.0654,0.0968,-0.0255
118991.0,-0.1173,2.5977,10.2999,-0.0766,0.0851,-0.0176
119001.0,-0.0144,2.4995,10.3453,-0.0841,0.0708,-0.0085
119011.0,-0.0239,2.3918,10.41,-0.0803,0.0649,-0.0053
119021.0,-0.0407,2.3439,10.3453,-0.0708,0.0623,-0.0101
119031.0,-0.0168,2.4038,10.3262,-0.0654,0.0543,-0.017
119041.0,-0.0168,2.478,10.3022,-0.0575,0.0569,-0.0213
119051.0,-0.0622,2.5426,10.2831,-0.0591,0.0591,-0.0218
119061.0,-0.0096,2.624,10.3286,-0.0724,0.0447,-0.0176
119071.0,-0.0599,2.6911,10.3549,-0.0814,0.0303,-0.0069
119081.0,-0.0383,2.6001,10.2855,-0.0968,0.0197,0.0096
119091.0,0.0407,2.4445,10.2304,-0.1123,-0.0016,0.0186
119101.0,0.0742,2.2721,10.0892,-0.1277,-0.017,0.0181
119111.0,0.1173,2.1213,9.9551,-0.1282,-0.0112,0.008
119121.0,0.079,2.0542,9.9192,-0.1133,0.0106,-0.0085
119131.0,0.1101,2.0686,9.8521,-0.0899,0.0362,-0.0293
119141.0,0.0455,2.2673,9.8186,-0.067,0.0639,-0.05
119151.0,-0.0192,2.4493,9.9599,-0.0564,0.0958,-0.0591
119161.0,-0.0527,2.6001,10.0796,-0.0442,0.1133,-0.0543
119171.0,-0.0622,2.6839,10.1993,-0.0479,0.1107,-0.0463
119181.0,-0.1221,2.7581,10.1873,-0.066,0.0942,-0.0346
119191.0,-0.146,2.739,10.1347,-0.0979,0.0697,-0.0229
119201.0,-0.1053,2.7222,10.1442,-0.1235,0.0474,-0.0122
119211.0,-0.17,2.7126,10.0556,-0.1229,0.0442,0.0005
119221.0,-0.1341,2.5905,10.1011,-0.1086,0.0564,0.0176
119231.0,-0.1077,2.5307,10.0197,-0.0857,0.0617,0.0293
119241.0,-0.1245,2.4517,10.0197,-0.0633,0.067,0.0372
119251.0,-0.091,2.3774,10.0054,-0.0372,0.0841,0.0404
119261.0,-0.0766,2.3391,9.9455,-0.0378,0.0921,0.0362
119271.0,-0.079,2.3296,10.0413,-0.0654,0.0867,0.0229
119281.0,-0.0934,2.3655,10.0437,-0.0883,0.0825,0.0117
119291.0,-0.0982,2.4469,10.1059,-0.0942,0.0814,0.0069
119301.0,-0.1676,2.5067,10.0796,-0.0915,0.0841,0.009
119311.0,-0.2011,2.5163,10.1538,-0.0878,0.0867,0.0192
119321.0,-0.1652,2.478,10.1538,-0.0734,0.0835,0.0341
119331.0,-0.1293,2.3032,10.1778,-0.0436,0.0894,0.0479
119341.0,-0.0287,2.2098,10.1275,-0.0101,0.0937,0.0511
119351.0,-0.0479,2.1859,10.0365,-0.0112,0.0878,0.0378
119361.0,-0.0694,2.2146,9.9934,-0.0426,0.0798,0.0197
119371.0,-0.0766,2.1596,10.1179,-0.0692,0.0814,0.0048
119381.0,-0.0934,2.2458,10.1873,-0.0681,0.0798,-0.0117
119391.0,-0.1389,2.4301,10.137,-0.0463,0.0772,-0.0197
119401.0,-0.1389,2.5881,10.0437,-0.0282,0.0745,-0.0122
119411.0,-0.1053,2.6432,10.0078,-0.0341,0.0724,0.0011
119421.0,-0.1245,2.6217,10.0126,-0.0436,0.0793,0.016
119431.0,-0.1173,2.4995,10.0963,-0.0484,0.0883,0.0319
119441.0,-0.1053,2.375,10.094,-0.0399,0.0889,0.0426
119451.0,-0.103,2.308,10.07,-0.025,0.0862,0.0452
119461.0,-0.0694,2.2194,10.082,-0.0037,0.0937,0.0388
119471.0,-0.0575,2.2673,9.9958,0.0192,0.1038,0.025
119481.0,-0.0838,2.4086,10.0628,0.0245,0.1112,0.0096
119491.0,-0.1365,2.5498,10.1778,0.0335,0.1208,0.0027
119501.0,-0.1772,2.6767,10.4004,0.0676,0.1277,0.0101
119511.0,-0.2155,2.7988,10.5967,0.1293,0.1266,0.0293
119521.0,-0.2897,2.9161,10.6039,0.2107,0.1133,0.0607
119531.0,-0.3065,2.9473,10.556,0.2815,0.0809,0.0974
119541.0,-0.2203,2.8467,10.2951,0.3331,0.0447,0.1282
119551.0,-0.146,2.7605,9.9934,0.3448,0.0239,0.1405
119561.0,-0.158,2.727,9.8282,0.3225,0.0341,0.1389
119571.0,-0.17,2.7054,9.7971,0.2927,0.0569,0.1277
119581.0,-0.1341,2.7007,9.7205,0.2538,0.0644,0.1123
119591.0,-0.1341,2.7007,9.7205,0.2538,0.0644,0.1123
119601.0,-0.0766,2.66,9.572,0.1836,0.074,0.0915
119611.0,-0.0527,2.6959,9.5768,0.0841,0.0952,0.0617
119621.0,-0.1341,2.6576,9.821,-0.0064,0.1341,0.0367
119631.0,-0.1508,2.66,10.1131,-0.0601,0.1522,0.0165
119641.0,-0.1915,2.6719,10.3717,-0.0814,0.1543,0.0037
119651.0,-0.2394,2.6767,10.5536,-0.075,0.1304,-0.0005
119661.0,-0.2825,2.6935,10.6255,-0.0479,0.0921,0.0048
119671.0,-0.2059,2.6983,10.4483,-0.017,0.058,0.0112
119681.0,-0.1556,2.6839,10.2472,-0.0144,0.0388,0.0122
119691.0,-0.1676,2.648,10.1993,-0.0362,0.0303,0.0064
119701.0,-0.1437,2.5786,10.1634,-0.067,0.0186,-0.0027
119711.0,-0.0694,2.5546,10.1418,-0.0835,0.0154,-0.0128
119721.0,-0.1437,2.5163,10.1107,-0.0878,0.0186,-0.0239
119731.0,-0.1269,2.5235,10.0724,-0.0841,0.0229,-0.0341
119741.0,-0.1221,2.5115,10.1586,-0.0724,0.0255,-0.0436
119751.0,-0.146,2.5259,10.082,-0.0607,0.0261,-0.0532
119761.0,-0.1245,2.5594,10.1227,-0.0527,0.0234,-0.0654
119771.0,-0.103,2.6983,10.1035,-0.0442,0.0176,-0.0724
119781.0,-0.0934,2.7318,10.058,-0.0468,0.008,-0.0756
119791.0,-0.0958,2.7126,10.0054,-0.0585,-0.0085,-0.0793
119801.0,-0.0694,2.7845,9.8282,-0.0686,-0.0223,-0.0851
119811.0,-0.0982,2.8515,9.7468,-0.0937,-0.0271,-0.0905
119821.0,0.0024,2.9018,9.6319,-0.0995,-0.0096,-0.0915
119831.0,-0.0335,2.9449,9.6175,-0.0841,0.0277,-0.0873
119841.0,-0.0982,2.964,9.6582,-0.0676,0.0623,-0.0798
119851.0,-0.1389,2.8802,9.8043,-0.0447,0.0947,-0.0702
119861.0,-0.1317,2.7845,9.9216,-0.0117,0.1155,-0.0639
119871.0,-0.1317,2.7964,9.9479,0.0117,0.1261,-0.0702
119881.0,-0.1652,2.897,9.9766,0.0096,0.133,-0.0809
119891.0,-0.1676,3.0502,10.0317,-0.0122,0.1346,-0.0899
119901.0,-0.2179,3.1196,10.1442,-0.0548,0.1272,-0.0899
119911.0,-0.1867,3.2178,10.2113,-0.0814,0.1112,-0.0798
119921.0,-0.2203,3.2465,10.3453,-0.0931,0.0942,-0.0633
119931.0,-0.2107,3.201,10.3262,-0.0968,0.074,-0.0404
119941.0,-0.1724,3.0957,10.2352,-0.0921,0.0553,-0.0186
119951.0,-0.1341,2.9257,10.2089,-0.0968,0.0474,-0.0053
119961.0,-0.158,2.8036,10.1394,-0.0963,0.0484,-0.0005
119971.0,-0.17,2.6743,10.1538,-0.0984,0.0527,-0.0059
119981.0,-0.1077,2.66,10.1299,-0.0867,0.0553,-0.017
119991.0,-0.1101,2.7438,10.149,-0.075,0.0628,-0.0293
120001.0,-0.0934,2.8299,10.0916,-0.0761,0.0649,-0.0362
120011.0,-0.1293,2.8826,10.0078,-0.1011,0.0569,-0.0394
120021.0,-0.1053,2.8754,9.9886,-0.1458,0.0468,-0.0415
120031.0,-0.103,2.8132,10.0197,-0.1745,0.0506,-0.0399
120041.0,-0.0862,2.7533,10.0461,-0.1862,0.0575,-0.042
120051.0,-0.0958,2.7007,10.1203,-0.183,0.0644,-0.0458
120061.0,-0.103,2.6791,10.1155,-0.1628,0.0718,-0.0463
120071.0,-0.0742,2.5738,10.1514,-0.1501,0.0676,-0.0495
120081.0,-0.0766,2.5642,10.0772,-0.149,0.05,-0.0628
120091.0,-0.0982,2.6169,10.0173,-0.1676,0.0303,-0.0782
120101.0,-0.1173,2.6145,9.9072,-0.1889,0.0144,-0.0883
120111.0,-0.0503,2.6791,9.8186,-0.1979,0.0085,-0.0979
120121.0,-0.0958,2.7773,9.6367,-0.1852,0.0282,-0.1011
120131.0,-0.1125,2.8204,9.6151,-0.1767,0.0665,-0.099
120141.0,-0.182,2.8299,9.7588,-0.1692,0.1032,-0.0947
120151.0,-0.2059,2.8587,9.8402,-0.1453,0.1325,-0.0894
120161.0,-0.261,2.8108,9.9742,-0.1288,0.1501,-0.0819
120171.0,-0.261,2.7557,10.1179,-0.1272,0.1538,-0.0782
120181.0,-0.2729,2.7318,10.2065,-0.1266,0.1373,-0.0756
120191.0,-0.2705,2.6815,10.2256,-0.1346,0.1101,-0.0782
120201.0,-0.2322,2.6504,10.2137,-0.1463,0.0894,-0.0835
120211.0,-0.2777,2.6983,10.2185,-0.1538,0.0766,-0.0878
120221.0,-0.3328,2.7509,10.2352,-0.1543,0.0644,-0.0867
120231.0,-0.3184,2.7701,10.3286,-0.1479,0.0532,-0.0814
120241.0,-0.3184,2.8084,10.3166,-0.1229,0.0468,-0.0734
120251.0,-0.3663,2.806,10.3717,-0.0979,0.0404,-0.0623
120261.0,-0.3519,2.7869,10.3645,-0.0819,0.0176,-0.0527
120271.0,-0.2945,2.8276,10.2807,-0.0724,-0.0027,-0.0431
120281.0,-0.316,2.9018,10.2975,-0.0633,-0.0144,-0.033
120291.0,-0.2921,2.9185,10.2208,-0.0569,-0.0346,-0.0197
120301.0,-0.2873,2.8587,10.2879,-0.0607,-0.0601,-0.008
120311.0,-0.2466,2.7366,10.2568,-0.0468,-0.0772,0.0027
120321.0,-0.2227,2.6863,10.2137,-0.0367,-0.1022,0.0043
120331.0,-0.2179,2.7342,10.1107,-0.041,-0.1336,0.0016
120341.0,-0.2155,2.7988,9.9838,-0.0335,-0.1506,0.0037
120351.0,-0.1365,2.8539,9.7444,-0.0223,-0.1522,0.017
120361.0,-0.1341,2.8419,9.5744,-0.0213,-0.1378,0.0335
120371.0,-0.0718,2.7773,9.4164,-0.0197,-0.1043,0.0532
120381.0,-0.0263,2.6624,9.3374,-0.025,-0.058,0.0702
120391.0,-0.0144,2.5139,9.4188,-0.0287,-0.0021,0.0809
120401.0,-0.0479,2.3846,9.5337,-0.009,0.0553,0.0867
120411.0,-0.0455,2.2242,9.742,0.0277,0.1006,0.0867
120421.0,0.0192,2.1332,9.8474,0.0511,0.1288,0.0745
120431.0,0.0,2.1572,9.9695,0.0575,0.1421,0.0516
120441.0,0.0359,2.2051,10.1418,0.0569,0.1442,0.0282
120451.0,0.0335,2.3942,10.0676,0.0495,0.1357,0.0101
120461.0,-0.0096,2.4972,10.0748,0.0122,0.1256,-0.0037
120471.0,0.0048,2.6264,10.0389,-0.0186,0.1203,-0.009
120481.0,-0.0814,2.6695,10.1418,-0.0458,0.1261,-0.008
120491.0,-0.079,2.5905,10.2352,-0.0452,0.1447,-0.0011
120501.0,-0.0503,2.6264,10.2663,-0.0357,0.1532,-0.0016
120511.0,-0.1197,2.7174,10.3477,-0.0378,0.1538,-0.0048
120521.0,-0.1556,2.727,10.4196,-0.0623,0.1426,-0.0069
120531.0,-0.1389,2.7031,10.4651,-0.099,0.1086,-0.0096
120541.0,-0.1604,2.6671,10.501,-0.1149,0.0761,-0.0144
120551.0,-0.1508,2.6695,10.4579,-0.099,0.05,-0.0197
120561.0,-0.1532,2.8108,10.2448,-0.0772,0.025,-0.025
120571.0,-0.146,2.9353,10.0724,-0.0654,0.0239,-0.0266
120581.0,-0.2179,2.9999,9.9647,-0.074,0.0452,-0.025
120591.0,-0.2993,3.0837,10.0389,-0.0788,0.0617,-0.0202
120601.0,-0.2658,3.0718,10.161,-0.0793,0.0676,-0.0069
120611.0,-0.249,2.9856,10.1682,-0.0734,0.0692,0.0064
120621.0,-0.1915,2.8802,10.2185,-0.0825,0.0559,0.016
120631.0,-0.2131,2.7821,10.1825,-0.0942,0.0351,0.0197
120641.0,-0.1652,2.6839,10.161,-0.108,0.009,0.0149
120651.0,-0.0934,2.6647,10.1059,-0.1048,0.0064,0.008
120661.0,-0.1197,2.727,10.0245,-0.0894,0.0197,0.0043
120671.0,-0.146,2.7629,9.9575,-0.0814,0.0293,0.0032
120681.0,-0.1556,2.727,10.0006,-0.0846,0.0378,0.0037
120691.0,-0.1628,2.7174,10.0078,-0.0899,0.042,0.0043
120701.0,-0.1221,2.6576,10.0772,-0.0984,0.0404,0.0048
120711.0,-0.1413,2.5929,10.1586,-0.0915,0.0367,0.0059
120721.0,-0.1365,2.5067,10.0868,-0.074,0.0303,0.0032
120731.0,-0.1173,2.5355,10.0054,-0.0537,0.0277,-0.0032
120741.0,-0.0862,2.5977,9.8976,-0.0383,0.0399,-0.0096
120751.0,-0.1293,2.648,9.9072,-0.0436,0.0564,-0.0149
120761.0,-0.1341,2.7031,9.9479,-0.0537,0.0708,-0.017
120771.0,-0.1724,2.6911,9.9311,-0.075,0.0734,-0.0149
120781.0,-0.1844,2.6312,10.0604,-0.0878,0.0729,-0.0133
120791.0,-0.1652,2.5259,10.1203,-0.0798,0.074,-0.009
120801.0,-0.1556,2.375,10.1658,-0.0601,0.0745,-0.0096
120811.0,-0.1341,2.2601,10.1299,-0.0404,0.0708,-0.0213
120821.0,-0.1365,2.229,10.1418,-0.0261,0.0596,-0.0431
120831.0,-0.1053,2.3272,10.1083,-0.0176,0.0474,-0.0654
120841.0,-0.158,2.4828,10.0341,-0.0229,0.0378,-0.0862
120851.0,-0.1365,2.648,9.9766,-0.0314,0.0335,-0.0952
120861.0,-0.1437,2.7653,9.9814,-0.0521,0.0325,-0.0968
120871.0,-0.1149,2.7414,10.0293,-0.0553,0.0372,-0.0899
120881.0,-0.1365,2.6719,10.0868,-0.0415,0.0447,-0.0782
120891.0,-0.0862,2.569,10.07,-0.0192,0.0474,-0.0708
120901.0,-0.0838,2.5426,10.0485,-0.0085,0.0447,-0.0734
120911.0,-0.0383,2.4828,10.0676,-0.0064,0.0463,-0.0819
120921.0,-0.0718,2.49,10.1035,0.0016,0.0506,-0.0937
120931.0,-0.079,2.5546,10.1035,-0.0005,0.0426,-0.1086
120941.0,-0.0694,2.6288,10.0963,-0.0154,0.0298,-0.1208
120951.0,-0.0575,2.739,10.0461,-0.0192,0.0186,-0.1282
120961.0,-0.1006,2.8419,9.9527,-0.0223,0.016,-0.1309
120971.0,-0.0622,2.8922,9.8474,-0.0181,0.0271,-0.1272
120981.0,-0.0814,2.9425,9.8809,-0.0154,0.0532,-0.1208
120991.0,-0.0814,3.0023,9.9862,-0.016,0.0766,-0.1128
121001.0,-0.1149,3.0526,10.1035,-0.009,0.091,-0.1016
121011.0,-0.1484,3.0813,10.2424,-0.0064,0.0873,-0.0883
121021.0,-0.1125,3.0837,10.2328,-0.0144,0.0654,-0.0782
121031.0,-0.1556,3.1005,10.2017,-0.0351,0.0351,-0.0729
121041.0,-0.1317,3.134,10.094,-0.0591,0.0096,-0.0654
121051.0,-0.1413,3.1005,9.9742,-0.0708,0.0016,-0.0537
121061.0,-0.1197,3.0143,9.8641,-0.0745,0.0059,-0.0436
121071.0,-0.0431,2.9401,9.8138,-0.0649,0.0277,-0.0383
121081.0,-0.0814,2.9018,9.8785,-0.0548,0.0564,-0.0378
121091.0,-0.0958,2.8252,9.9958,-0.0426,0.0756,-0.0399
121101.0,-0.0694,2.8204,10.0556,-0.0303,0.075,-0.0436
121111.0,-0.0575,2.9233,10.094,-0.0229,0.0697,-0.0474
121121.0,-0.0694,3.0167,10.1035,-0.0181,0.067,-0.0479
121131.0,-0.0503,3.0454,10.1131,-0.0282,0.0564,-0.0436
121141.0,-0.0766,3.0526,10.0389,-0.041,0.0357,-0.0362
121151.0,-0.0742,3.0526,10.0269,-0.049,0.0298,-0.0282
121161.0,-0.0886,3.0023,10.1011,-0.0399,0.0399,-0.0165
121171.0,-0.1077,2.9329,10.0844,-0.0266,0.0404,-0.0064
121181.0,-0.067,2.8252,10.1227,-0.0027,0.0362,0.0005
121191.0,-0.0479,2.7725,10.1323,0.0325,0.0357,0.0021
121201.0,-0.067,2.8419,10.1658,0.0617,0.0266,-0.0011
121211.0,-0.0622,2.9233,10.0652,0.1043,0.0165,0.0011
121221.0,-0.0694,3.0718,9.8857,0.1511,0.0186,0.0112
121231.0,-0.0431,3.158,9.7396,0.1703,0.0314,0.0213
121241.0,-0.0479,3.2729,9.6654,0.1554,0.0463,0.0335
121251.0,-0.103,3.3208,9.6869,0.1165,0.0575,0.0463
121261.0,-0.091,3.2513,9.6486,0.0756,0.0601,0.0612
121271.0,-0.0862,3.1508,9.6462,0.0309,0.0628,0.0681
121281.0,-0.0599,2.9497,9.6726,-0.0064,0.0713,0.0681
121291.0,-0.0239,2.7988,9.7181,-0.0255,0.0851,0.0601
121301.0,-0.0527,2.7342,9.73,-0.0335,0.0926,0.0399
121311.0,-0.079,2.7653,9.7588,-0.0287,0.1086,0.0208
121321.0,-0.0766,2.8323,9.7252,-0.0197,0.1277,0.0032
121331.0,-0.0838,2.9377,9.8497,-0.0176,0.1447,-0.0112
121341.0,-0.1484,3.0478,9.8833,-0.0064,0.1628,-0.017
121351.0,-0.1844,3.1268,10.003,-0.0064,0.1745,-0.0165
121361.0,-0.2131,3.1699,10.0724,-0.0128,0.1751,-0.0106
121371.0,-0.2251,3.1101,10.1299,-0.0394,0.1602,-0.0048
121381.0,-0.2179,3.0382,10.2376,-0.074,0.1368,-0.0037
121391.0,-0.2777,2.9999,10.2352,-0.0968,0.1123,-0.0074
121401.0,-0.249,2.9592,10.2328,-0.1043,0.0889,-0.0106
121411.0,-0.2322,2.9856,10.1251,-0.0894,0.0819,-0.0112
121421.0,-0.2227,2.9904,10.0724,-0.0729,0.0857,-0.0106
121431.0,-0.2274,2.9832,10.0963,-0.0665,0.0921,-0.0112
121441.0,-0.2346,2.9928,10.0365,-0.0623,0.0937,-0.0112
121451.0,-0.2538,2.9664,10.0652,-0.0686,0.0926,-0.0106
121461.0,-0.2562,2.9137,10.0844,-0.0697,0.0905,-0.0117
121471.0,-0.2634,2.8946,10.1011,-0.0633,0.0894,-0.016
121481.0,-0.2729,2.8946,10.1945,-0.05,0.0867,-0.0223
121491.0,-0.2777,2.9233,10.1538,-0.0362,0.0819,-0.0282
121501.0,-0.2993,2.9497,10.1682,-0.0325,0.0718,-0.0341
121511.0,-0.316,3.0167,10.1538,-0.0303,0.0612,-0.0372
121521.0,-0.2921,3.0718,10.1203,-0.0266,0.0474,-0.0399
121531.0,-0.261,3.0694,10.0317,-0.0346,0.0346,-0.0383
121541.0,-0.2418,3.0335,10.0269,-0.0511,0.0176,-0.0357
121551.0,-0.2346,2.9808,10.0102,-0.0623,0.0069,-0.0357
121561.0,-0.2083,2.873,9.9096,-0.0506,0.0037,-0.0319
121571.0,-0.1437,2.8371,9.8857,-0.0223,0.0101,-0.0325
121581.0,-0.1532,2.8012,9.924,0.0154,0.0213,-0.0367
121591.0,-0.1269,2.8156,9.8737,0.0585,0.0367,-0.0394
121601.0,-0.1389,2.8611,9.8881,0.1022,0.0484,-0.0399
121611.0,-0.1317,2.8659,9.912,0.1501,0.0575,-0.0383
121621.0,-0.1389,2.8587,9.821,0.1836,0.0564,-0.0404
121631.0,-0.0886,2.8754,9.6774,0.1724,0.0436,-0.0527
121641.0,-0.0718,2.964,9.5457,0.1357,0.0357,-0.0745
121651.0,-0.103,3.0909,9.4858,0.0825,0.0415,-0.0952
121661.0,-0.0958,3.2609,9.5217,0.0277,0.0585,-0.1101
121671.0,-0.1389,3.3974,9.5481,-0.0112,0.0841,-0.1123
121681.0,-0.1532,3.4357,9.7348,-0.0388,0.1091,-0.1048
121691.0,-0.182,3.4285,9.8928,-0.0468,0.1165,-0.091
121701.0,-0.2251,3.383,9.9742,-0.033,0.1128,-0.075
121711.0,-0.1796,3.304,9.9718,-0.0021,0.108,-0.0601
121721.0,-0.1341,3.2633,9.9216,0.0271,0.1091,-0.0537
121731.0,-0.1245,3.2609,9.8665,0.041,0.1107,-0.0553
121741.0,-0.1532,3.292,9.8857,0.0447,0.116,-0.0623
121751.0,-0.1867,3.316,9.8426,0.0521,0.1272,-0.0681
121761.0,-0.2131,3.3639,9.8593,0.0607,0.1325,-0.0756
121771.0,-0.2849,3.4788,9.7612,0.0537,0.1362,-0.083
121781.0,-0.2825,3.6392,9.7492,0.0202,0.1378,-0.0873
121791.0,-0.3352,3.7804,9.8928,-0.0399,0.1266,-0.0878
121801.0,-0.3687,3.8188,9.9718,-0.099,0.1086,-0.0761
121811.0,-0.4118,3.7661,10.1107,-0.1288,0.0862,-0.0569
121821.0,-0.4501,3.6943,10.1227,-0.1203,0.058,-0.0341
121831.0,-0.4956,3.6966,9.9958,-0.0974,0.0319,-0.0101
121841.0,-0.5363,3.699,9.9192,-0.0729,0.0122,0.0122
121851.0,-0.5555,3.6224,9.7683,-0.0543,-0.0005,0.0362
121861.0,-0.565,3.5051,9.6438,-0.0596,-0.0176,0.0575
121871.0,-0.5387,3.2848,9.5265,-0.0713,-0.0293,0.0734
121881.0,-0.4453,3.043,9.4236,-0.0676,-0.0255,0.0772
121891.0,-0.3759,2.8706,9.3326,-0.049,-0.0037,0.0697
121901.0,-0.3232,2.7701,9.3398,-0.0309,0.0298,0.0516
121911.0,-0.237,2.7174,9.4547,-0.0037,0.0644,0.0335
121921.0,-0.2322,2.6839,9.5146,0.0293,0.0947,0.0154
121931.0,-0.1867,2.6025,9.6199,0.0628,0.1266,-0.0005
121941.0,-0.1724,2.5714,9.7636,0.0963,0.1532,-0.0218
121951.0,-0.17,2.6049,9.8689,0.1101,0.1586,-0.0516
121961.0,-0.1796,2.7461,9.9,0.1176,0.1495,-0.0841
121971.0,-0.2011,2.9209,9.9575,0.1144,0.1517,-0.1112
121981.0,-0.237,3.1196,9.9144,0.0984,0.1501,-0.1298
121991.0,-0.2682,3.2465,9.9766,0.0585,0.1405,-0.1426
122001.0,-0.3112,3.3495,9.9359,0.0165,0.1304,-0.1532
122011.0,-0.2801,3.4213,10.0533,-0.0223,0.1282,-0.1575
122021.0,-0.3017,3.45,10.058,-0.0559,0.1235,-0.1596
122031.0,-0.3089,3.4812,10.1754,-0.0819,0.1187,-0.1618
122041.0,-0.3232,3.5147,10.173,-0.0835,0.1187,-0.1591
122051.0,-0.3831,3.541,10.2232,-0.074,0.1192,-0.1564
122061.0,-0.4429,3.6392,10.2376,-0.058,0.116,-0.1522
122071.0,-0.4573,3.7278,10.149,-0.0506,0.107,-0.1447
122081.0,-0.4549,3.8331,10.1059,-0.0665,0.0947,-0.1362
122091.0,-0.4717,3.8595,10.003,-0.1117,0.0905,-0.1304
122101.0,-0.4717,3.8475,10.0293,-0.1761,0.0851,-0.1261
122111.0,-0.5148,3.802,10.07,-0.2485,0.0702,-0.1266
122121.0,-0.5076,3.7397,10.1514,-0.3134,0.0404,-0.1272
122131.0,-0.4477,3.7278,10.0221,-0.3767,0.0064,-0.132
122141.0,-0.4405,3.699,9.9072,-0.4603,-0.0213,-0.1394
122151.0,-0.4836,3.723,9.8737,-0.5486,-0.042,-0.1463
122161.0,-0.4741,3.6966,9.9623,-0.6173,-0.0575,-0.1463
122171.0,-0.4812,3.6416,10.0197,-0.6316,-0.0585,-0.1304
122181.0,-0.4764,3.4572,10.1347,-0.6066,-0.0548,-0.1086
122191.0,-0.4405,3.3399,10.2089,-0.5454,-0.0511,-0.083
122201.0,-0.407,3.201,10.149,-0.4613,-0.0537,-0.058
122211.0,-0.34,3.0478,10.0341,-0.3778,-0.0575,-0.0399
122221.0,-0.2801,3.0071,9.9383,-0.3081,-0.0495,-0.0293
122231.0,-0.2322,3.0646,9.742,-0.2586,-0.0351,-0.0245
122241.0,-0.2897,3.0646,9.6438,-0.24,-0.0208,-0.0192
122251.0,-0.2466,3.067,9.5361,-0.2347,0.0021,-0.017
122261.0,-0.2083,3.0957,9.56,-0.2538,0.0303,-0.0144
122271.0,-0.2634,3.1005,9.6606,-0.2868,0.0506,-0.009
122281.0,-0.3089,3.0957,9.8378,-0.299,0.0654,0.0005
122291.0,-0.3017,2.9832,9.9311,-0.2751,0.075,0.0192
122301.0,-0.34,2.9018,10.0006,-0.232,0.0803,0.0357
122311.0,-0.3567,2.7892,10.0149,-0.1799,0.0814,0.0495
122321.0,-0.3208,2.739,9.9527,-0.1272,0.0772,0.0569
122331.0,-0.3089,2.727,9.8043,-0.0857,0.0745,0.0591
122341.0,-0.3232,2.7031,9.6462,-0.0654,0.0835,0.0548
122351.0,-0.2897,2.7414,9.6055,-0.0745,0.1048,0.0468
122361.0,-0.3424,2.8132,9.6486,-0.1059,0.1288,0.0388
122371.0,-0.4262,2.8706,9.8593,-0.1245,0.1474,0.0362
122381.0,-0.4238,2.9137,9.9335,-0.1139,0.1575,0.0442
122391.0,-0.4453,2.8898,9.9671,-0.0974,0.1586,0.058
122401.0,-0.4573,2.8276,9.9838,-0.0926,0.1527,0.0692
122411.0,-0.4597,2.7485,9.9503,-0.0974,0.1495,0.0702
122421.0,-0.4788,2.6288,10.0413,-0.116,0.1495,0.0665
122431.0,-0.4836,2.4924,10.1801,-0.1304,0.1506,0.058
122441.0,-0.5076,2.4301,10.2855,-0.1341,0.1368,0.0399
122451.0,-0.5459,2.5139,10.2304,-0.1298,0.1123,0.0192
122461.0,-0.5267,2.6384,10.1538,-0.1272,0.0931,0.0043
122471.0,-0.5387,2.7174,10.0844,-0.1378,0.0809,-0.0037
122481.0,-0.5387,2.7557,10.0221,-0.1602,0.074,-0.0074
122491.0,-0.5171,2.7892,9.9982,-0.1921,0.0708,-0.0064
122501.0,-0.4908,2.7438,9.9168,-0.241,0.0724,-0.0059
122511.0,-0.5339,2.624,10.0221,-0.3054,0.075,-0.009
122521.0,-0.5363,2.4756,10.1778,-0.3544,0.0734,-0.0165
122531.0,-0.5483,2.3655,10.3382,-0.3698,0.0596,-0.0261
122541.0,-0.5124,2.2721,10.4172,-0.3576,0.0404,-0.0367
122551.0,-0.4764,2.2601,10.3382,-0.3214,0.0271,-0.0452
122561.0,-0.4477,2.308,10.2592,-0.2826,0.0192,-0.0543
122571.0,-0.4764,2.4205,10.1801,-0.257,0.016,-0.0596
122581.0,-0.4669,2.4924,10.0197,-0.2496,0.0122,-0.0612
122591.0,-0.4693,2.5762,9.8641,-0.2602,0.0144,-0.0607
122601.0,-0.4884,2.6408,9.8857,-0.29,0.0261,-0.0585
122611.0,-0.5052,2.6504,9.9168,-0.3092,0.0415,-0.0495
122621.0,-0.4908,2.5618,10.0293,-0.3044,0.0596,-0.033
122631.0,-0.4621,2.4325,10.137,-0.2746,0.0841,-0.0154
122641.0,-0.4501,2.2649,10.2592,-0.2453,0.0947,-0.008
122651.0,-0.4094,2.2027,10.331,-0.2176,0.0873,-0.009
122661.0,-0.4238,2.1907,10.3789,-0.199,0.0702,-0.016
122671.0,-0.4286,2.2194,10.2879,-0.1804,0.0516,-0.0223
122681.0,-0.3926,2.2529,10.1945,-0.1639,0.0319,-0.0271
122691.0,-0.3879,2.332,10.0293,-0.1612,0.0208,-0.0303
122701.0,-0.3687,2.4277,9.8617,-0.1868,0.0202,-0.0325
122711.0,-0.3855,2.4636,9.8521,-0.2208,0.0362,-0.0309
122721.0,-0.3567,2.4205,9.8881,-0.2607,0.0548,-0.0266
122731.0,-0.3352,2.3128,9.9958,-0.2863,0.0686,-0.0218
122741.0,-0.3543,2.1835,10.1011,-0.2895,0.0782,-0.0208
122751.0,-0.34,2.1237,10.2328,-0.2703,0.0782,-0.0208
122761.0,-0.3687,2.1045,10.2663,-0.2368,0.0745,-0.0223
122771.0,-0.3926,2.0877,10.2735,-0.1841,0.0761,-0.0208
122781.0,-0.3974,2.1021,10.2687,-0.116,0.0841,-0.0149
122791.0,-0.3687,2.138,10.173,-0.0442,0.0894,-0.0069
122801.0,-0.4238,2.1979,10.0413,-0.0048,0.0968,-0.0037
122811.0,-0.3807,2.2434,10.0317,-0.0138,0.1048,-0.0064
122821.0,-0.3998,2.2625,10.0604,-0.0585,0.1123,-0.0117
122831.0,-0.4405,2.3104,10.1993,-0.1075,0.1086,-0.0181
122841.0,-0.4693,2.2649,10.3118,-0.1415,0.0952,-0.0192
122851.0,-0.4621,2.2673,10.331,-0.1405,0.0788,-0.0154
122861.0,-0.4956,2.3032,10.3214,-0.124,0.0697,-0.0096
122871.0,-0.4908,2.3272,10.2185,-0.099,0.0708,-0.0011
122881.0,-0.486,2.32,10.2041,-0.0819,0.0756,0.0069
122891.0,-0.5004,2.2936,10.1849,-0.0756,0.083,0.0144
122901.0,-0.5076,2.2505,10.2065,-0.0809,0.0867,0.0165
122911.0,-0.5171,2.2458,10.252,-0.0942,0.0814,0.0144
122921.0,-0.5267,2.2793,10.2759,-0.1011,0.0761,0.0106
122931.0,-0.5267,2.3128,10.2615,-0.1038,0.074,0.0112
122941.0,-0.4956,2.3559,10.2065,-0.1155,0.0697,0.0144
122951.0,-0.5219,2.4014,10.2185,-0.1197,0.0724,0.0234
122961.0,-0.5459,2.3703,10.2137,-0.1181,0.0835,0.0362
122971.0,-0.5339,2.2817,10.3094,-0.125,0.083,0.0484
122981.0,-0.4836,2.1787,10.3334,-0.1309,0.0761,0.0553
122991.0,-0.4836,2.0662,10.422,-0.1447,0.0639,0.0559
123001.0,-0.4621,1.9561,10.4028,-0.1548,0.041,0.0506
123011.0,-0.4429,1.901,10.2975,-0.1596,0.016,0.0394
123021.0,-0.4286,1.8747,10.2544,-0.1538,0.0037,0.0255
123031.0,-0.4357,1.9393,10.1035,-0.1325,0.0074,0.017
123041.0,-0.4286,2.0207,10.0676,-0.1123,0.0213,0.0128
123051.0,-0.4094,2.0375,10.0197,-0.0931,0.0404,0.0154
123061.0,-0.4094,2.0087,9.991,-0.0835,0.0591,0.0176
123071.0,-0.3687,1.9273,10.0413,-0.0835,0.0756,0.0165
123081.0,-0.4142,1.9154,10.1323,-0.0899,0.0798,0.0096
123091.0,-0.4429,1.901,10.2208,-0.0937,0.0729,0.0005
123101.0,-0.4501,1.9201,10.2639,-0.0803,0.0665,-0.0059
123111.0,-0.4717,1.9776,10.1873,-0.0676,0.0596,-0.0106
123121.0,-0.4717,2.0183,10.1227,-0.0612,0.0575,-0.0144
123131.0,-0.4429,1.9848,10.1347,-0.0564,0.0639,-0.0138
123141.0,-0.4621,1.9872,10.1011,-0.0559,0.0644,-0.016
123151.0,-0.4597,1.9345,10.1203,-0.066,0.0607,-0.0239
123161.0,-0.5004,1.9465,10.1155,-0.083,0.0559,-0.0325
123171.0,-0.4932,1.9656,10.1873,-0.083,0.0511,-0.041
123181.0,-0.4908,2.0446,10.094,-0.0623,0.0575,-0.0436
123191.0,-0.5148,2.0686,10.1275,-0.0521,0.0654,-0.0426
123201.0,-0.4717,2.0542,10.0963,-0.0447,0.0692,-0.0426
123211.0,-0.5076,2.0853,10.094,-0.0521,0.0644,-0.0463
123221.0,-0.4908,2.0686,10.1107,-0.0564,0.067,-0.049
123231.0,-0.486,2.1237,10.1131,-0.0436,0.0777,-0.0484
123241.0,-0.4956,2.1668,10.1107,-0.0399,0.0835,-0.0479
123251.0,-0.5315,2.1979,10.1514,-0.0463,0.0883,-0.0452
123261.0,-0.5148,2.2314,10.2208,-0.0639,0.0889,-0.0415
123271.0,-0.5219,2.2314,10.24,-0.0676,0.0867,-0.0372
123281.0,-0.5339,2.2434,10.307,-0.0537,0.0873,-0.0287
123291.0,-0.5052,2.2266,10.2999,-0.0404,0.0814,-0.0181
123301.0,-0.4812,2.1715,10.3118,-0.0415,0.075,-0.0101
123311.0,-0.4621,2.1045,10.2496,-0.0463,0.0713,-0.0074
123321.0,-0.4549,2.0111,10.2711,-0.0601,0.0686,-0.0122
123331.0,-0.486,2.0111,10.331,-0.0718,0.0623,-0.0218
123341.0,-0.5291,2.0351,10.3549,-0.0772,0.0516,-0.0335
123351.0,-0.5052,2.0853,10.2855,-0.0788,0.0388,-0.042
123361.0,-0.5195,2.2027,10.1754,-0.0761,0.0383,-0.0463
123371.0,-0.4884,2.2122,10.1466,-0.0697,0.0484,-0.042
123381.0,-0.4812,2.2625,10.1299,-0.0575,0.0596,-0.0346
123391.0,-0.4908,2.2625,10.1179,-0.0537,0.074,-0.0255
123401.0,-0.4788,2.2434,10.1945,-0.0527,0.0803,-0.016
123411.0,-0.4956,2.2098,10.2113,-0.0639,0.0766,-0.0106
123421.0,-0.5195,2.1548,10.2232,-0.0766,0.0697,-0.0085
123431.0,-0.5028,2.1524,10.2065,-0.0963,0.0591,-0.0117
123441.0,-0.5148,2.1739,10.24,-0.1075,0.0543,-0.0128
123451.0,-0.5171,2.1668,10.137,-0.1006,0.0548,-0.0101
123461.0,-0.5195,2.1811,10.1538,-0.0979,0.0564,-0.0043
123471.0,-0.4908,2.1045,10.1083,-0.0873,0.0623,0.0027
123481.0,-0.4645,2.0039,10.0796,-0.0782,0.0686,0.0048
123491.0,-0.4262,1.9417,10.0916,-0.067,0.0718,0.0
123501.0,-0.5004,1.9273,10.1227,-0.0601,0.0814,-0.0117
123511.0,-0.5339,2.0016,10.1538,-0.0527,0.0873,-0.0245
123521.0,-0.5483,2.0877,10.1754,-0.0458,0.0915,-0.0335
123531.0,-0.5578,2.2098,10.2113,-0.0415,0.0921,-0.0372
123541.0,-0.6009,2.296,10.2256,-0.0367,0.0899,-0.0325
123551.0,-0.589,2.32,10.2161,-0.042,0.0851,-0.0223
123561.0,-0.589,2.2865,10.2735,-0.0553,0.0756,-0.0122
123571.0,-0.5698,2.2266,10.2687,-0.0644,0.0633,-0.0053
123581.0,-0.5842,2.1524,10.2065,-0.0649,0.0506,0.0
123591.0,-0.5315,2.0925,10.094,-0.0623,0.041,0.0005
123601.0,-0.5602,2.0853,10.0509,-0.0591,0.0426,-0.0021
123611.0,-0.5531,2.0662,10.0221,-0.0537,0.0569,-0.0053
123621.0,-0.5483,2.0662,10.058,-0.0548,0.0697,-0.0112
123631.0,-0.5674,2.0853,10.137,-0.058,0.0777,-0.0165
123641.0,-0.5818,2.0806,10.2161,-0.0601,0.083,-0.0197
123651.0,-0.5363,2.0518,10.2376,-0.0532,0.0814,-0.0234
123661.0,-0.5818,2.0949,10.24,-0.0415,0.0761,-0.0261
123671.0,-0.5674,2.162,10.2328,-0.0341,0.0724,-0.0234
123681.0,-0.5626,2.2146,10.2185,-0.0357,0.0686,-0.0197
123691.0,-0.5698,2.2338,10.2089,-0.0341,0.0676,-0.0138
123701.0,-0.6129,2.2505,10.1969,-0.0255,0.075,-0.0016
123711.0,-0.6536,2.2362,10.2304,-0.0096,0.0814,0.0128
123721.0,-0.6776,2.1452,10.4028,0.0239,0.0905,0.0319
123731.0,-0.6393,2.0039,10.4651,0.0926,0.0963,0.0527
123741.0,-0.589,1.8866,10.4124,0.1602,0.099,0.0644
123751.0,-0.5267,1.81,10.3046,0.1937,0.1043,0.0617
123761.0,-0.5339,1.7933,10.386,0.1873,0.1128,0.0468
123771.0,-0.5698,1.7741,10.422,0.1628,0.1086,0.0239
123781.0,-0.5291,1.7933,10.489,0.1266,0.0889,-0.0037
123791.0,-0.5339,1.8699,10.4052,0.0697,0.0607,-0.0399
123801.0,-0.5363,2.0446,10.3262,-0.0218,0.0255,-0.0809
123811.0,-0.5842,2.162,10.3549,-0.1219,0.0021,-0.1117
123821.0,-0.5962,2.2673,10.5177,-0.1862,-0.0149,-0.1277
123831.0,-0.6249,2.3703,10.6159,-0.1974,-0.0468,-0.1298
123841.0,-0.656,2.466,10.5201,-0.1543,-0.0734,-0.1171
123851.0,-0.5531,2.4541,10.3573,-0.0761,-0.0761,-0.0926
123861.0,-0.4788,2.4229,10.0796,-0.0106,-0.066,-0.0718
123871.0,-0.3998,2.3894,9.9072,0.0064,-0.049,-0.0633
123881.0,-0.3855,2.3942,9.8186,-0.0149,-0.0314,-0.0649
123891.0,-0.3855,2.4373,9.8474,-0.0724,-0.0309,-0.074
123901.0,-0.3783,2.4325,9.8426,-0.1362,-0.0527,-0.0814
123911.0,-0.3089,2.4588,9.6654,-0.1777,-0.0899,-0.0809
123921.0,-0.3041,2.5307,9.4092,-0.2017,-0.1149,-0.0692
123931.0,-0.1437,2.4684,9.2392,-0.1724,-0.1022,-0.0378
123941.0,-0.1053,2.4445,9.2512,-0.0458,-0.033,0.0176
123951.0,-0.0048,2.3583,9.6462,0.2341,0.075,0.099
123961.0,0.1556,2.2936,9.7205,0.7035,0.1995,0.2112
123971.0,0.2394,2.241,9.1842,1.2467,0.3347,0.3288
123981.0,0.5124,2.0614,8.3366,1.6687,0.4901,0.4166
123991.0,0.6967,1.9154,7.58,1.8214,0.6768,0.4337
124001.0,0.8404,1.9321,7.3909,1.6613,0.8695,0.3719
124011.0,0.5578,1.9872,7.841,1.2968,1.06,0.2677
124021.0,0.0551,2.0159,8.983,0.8838,1.2286,0.1458
124031.0,-0.2873,2.1069,10.331,0.5497,1.3324,0.0229
124041.0,-0.8619,2.399,11.7651,0.3155,1.3744,-0.0894
124051.0,-1.3336,2.9425,13.1083,0.1751,1.3324,-0.1767
124061.0,-1.7573,3.6631,14.121,0.1272,1.2052,-0.2208
124071.0,-2.0063,4.458,14.6741,0.1511,1.0222,-0.216
124081.0,-2.1476,5.1691,14.631,0.2118,0.828,-0.1602
124091.0,-2.2673,5.5043,14.5184,0.2421,0.6486,-0.0708
124101.0,-2.2482,5.5713,14.303,0.2629,0.4917,0.0388
124111.0,-2.3559,5.2648,14.0037,0.29,0.3704,0.1463
124121.0,-2.4373,4.8123,13.6278,0.3139,0.2756,0.2214
124131.0,-2.5331,4.4005,13.5057,0.3661,0.2235,0.248
124141.0,-2.5283,4.4269,13.2639,0.4651,0.2006,0.2288
124151.0,-2.7485,4.8459,12.9598,0.53,0.1841,0.1809
124161.0,-2.9449,5.4995,12.7874,0.4768,0.1437,0.1277
124171.0,-3.1029,6.0454,13.0077,0.3124,0.0851,0.083
124181.0,-3.213,6.7325,13.4243,0.1298,0.0218,0.058
124191.0,-3.3878,7.3813,14.1162,-0.0633,-0.0607,0.066
124201.0,-3.5099,7.9799,14.7339,-0.248,-0.1841,0.1123
124211.0,-3.7421,8.3606,15.2774,-0.4943,-0.3762,0.1894
124221.0,-3.9624,8.2384,15.9597,-0.8455,-0.6779,0.2873
124231.0,-4.1372,7.4771,16.5918,-1.2143,-1.0717,0.39
124241.0,-4.1013,6.2752,16.769,-1.5288,-1.5484,0.4645
124251.0,-4.0821,5.2912,15.9717,-1.79,-2.1183,0.4821
124261.0,-3.9456,4.537,14.4466,-1.9832,-2.6654,0.4581
124271.0,-3.5314,3.9361,12.2775,-2.0077,-3.0107,0.4273
124281.0,-2.9544,3.5674,10.1801,-1.9624,-3.14,0.3847
124291.0,-2.5402,3.3806,8.5569,-1.9433,-3.1198,0.3336
124301.0,-2.1308,3.0861,7.6255,-1.9672,-3.016,0.2847
124311.0,-1.549,2.6911,7.2161,-1.9598,-2.875,0.2474
124321.0,-1.2234,2.4541,7.1826,-1.8651,-2.7085,0.2187
124331.0,-0.9529,2.1739,7.4436,-1.7145,-2.5419,0.2107
124341.0,-0.5842,1.8938,7.6423,-1.5213,-2.4371,0.2246
124351.0,-0.3472,1.6065,7.6375,-1.358,-2.3993,0.24
124361.0,-0.0718,1.2737,7.4436,-1.2451,-2.4009,0.2501
124371.0,0.3304,0.8882,7.2568,-1.1675,-2.3988,0.2448
124381.0,0.7973,0.5914,7.1323,-1.0456,-2.3541,0.2256
124391.0,1.2139,0.5435,7.0533,-0.8562,-2.2578,0.1985
124401.0,1.6041,0.8308,6.8331,-0.7056,-2.1668,0.166
124411.0,1.7262,1.3144,6.3997,-0.729,-2.1609,0.1304
124421.0,2.1093,1.5036,5.7868,-0.8908,-2.2077,0.1155
124431.0,2.7222,1.3862,5.2241,-1.0264,-2.171,0.1192
124441.0,3.0382,1.2354,4.8866,-1.0472,-1.9944,0.133
124451.0,3.2465,0.9529,4.9105,-1.0546,-1.7852,0.1527
124461.0,3.6248,0.4357,5.3534,-1.0983,-1.6384,0.1596
124471.0,3.9169,0.0096,5.6599,-1.0743,-1.5346,0.1538
124481.0,4.2952,-0.5195,6.2249,-0.928,-1.4138,0.1506
124491.0,4.6974,-0.7997,6.3925,-0.5385,-1.2169,0.157
124501.0,4.8866,-0.4238,6.0789,-0.0958,-0.9674,0.1586
124511.0,4.8195,0.146,6.1603,0.1203,-0.762,0.1543
124521.0,4.944,0.5698,6.2752,0.116,-0.655,0.1602
124531.0,4.8171,0.7805,6.5936,-0.0181,-0.5944,0.174
124541.0,4.853,0.5794,6.8642,-0.1548,-0.5481,0.2059
124551.0,5.1547,-0.0311,7.2784,-0.2772,-0.513,0.2272
124561.0,5.2601,-0.3639,7.5058,-0.3235,-0.4539,0.2219
124571.0,5.2433,-0.8116,7.9966,-0.3608,-0.3821,0.2006
124581.0,5.3654,-1.1851,8.5904,-0.3916,-0.3576,0.1532
124591.0,5.284,-1.0223,9.177,-0.3741,-0.3618,0.091
124601.0,4.9967,-0.6632,9.5265,-0.3001,-0.4268,0.049
124611.0,5.0254,-0.4214,9.1794,-0.2038,-0.5694,0.0367
124621.0,5.3008,-0.1963,8.3558,-0.1341,-0.6737,0.0314
124631.0,5.4037,0.1245,7.6591,-0.0559,-0.638,0.0341
124641.0,5.3678,0.4357,7.1802,-0.0303,-0.539,0.041
124651.0,5.3893,0.4573,7.2664,-0.1048,-0.4566,0.0468
124661.0,5.3989,0.7254,7.4723,-0.1836,-0.3868,0.0463
124671.0,5.0949,0.9816,8.2121,-0.2453,-0.3336,0.0644
124681.0,4.9009,1.0415,8.7364,-0.2006,-0.3634,0.1197
124691.0,4.8818,1.0989,8.5473,-0.107,-0.4869,0.1868
124701.0,5.0877,1.0295,7.75,-0.0873,-0.6529,0.2448
124711.0,5.2816,0.8859,7.0844,-0.1336,-0.8003,0.2794
124721.0,5.6288,1.1516,5.9568,-0.0798,-0.8365,0.3161
124731.0,5.7772,1.3096,5.3008,0.016,-0.7348,0.3714
124741.0,5.8107,1.5778,4.9225,0.1532,-0.5843,0.4443
124751.0,5.8969,1.6352,4.276,0.2639,-0.4667,0.5385
124761.0,6.1028,1.1923,3.6823,0.2767,-0.4097,0.6258
124771.0,6.2465,1.0247,2.7438,0.3528,-0.3001,0.6949
124781.0,6.043,1.0894,1.8603,0.4837,-0.0905,0.7593
124791.0,5.375,1.3838,0.5531,0.4986,0.1011,0.8173
124801.0,5.0829,1.0271,-1.8483,0.066,0.0777,0.8572
124811.0,5.3319,-0.9002,-4.3527,-0.9764,-0.1447,0.8093
124821.0,5.7676,-1.901,-8.1786,-2.1561,-0.3166,0.6359
124831.0,6.0166,-0.2993,-10.0772,-3.1443,-0.1602,0.4262
124841.0,0.8619,1.312,-14.8273,-3.439,0.1948,0.4959
124851.0,2.9209,1.0008,-18.9094,-3.5864,0.448,0.6699
124861.0,-0.4453,3.5937,-25.0481,-2.5797,1.4649,0.9035
124871.0,-2.988,4.3814,-33.265,-1.0483,2.8564,1.3558
124881.0,-5.4612,3.5219,-40.6009,0.4012,4.888,1.7549
124891.0,-12.9215,0.8356,-38.5802,1.9858,8.5042,2.0135
124901.0,-22.7784,-5.6455,-24.2652,3.3199,12.4866,2.0188
124911.0,-30.8589,-12.1937,-0.5626,4.3804,15.3424,1.5144
124921.0,-36.2027,-10.9152,25.436,6.0235,16.8185,0.5593
124931.0,-38.0654,0.0407,43.2129,7.4283,15.9267,-0.3799
124941.0,-34.838,8.4228,55.8902,6.8345,12.5664,-0.961
124951.0,-28.9124,13.8576,56.6755,5.2637,8.086,-1.0977
124961.0,-23.1208,14.0611,50.8145,3.7227,4.4325,-0.8998
124971.0,-19.4289,11.485,41.4724,2.6936,2.2476,-0.6375
124981.0,-16.2925,8.8083,35.4701,1.8017,1.1275,-0.538
124991.0,-14.5089,8.1283,30.8708,1.5437,0.8024,-0.5146
125001.0,-12.8928,8.3366,27.6339,1.4857,0.7854,-0.5204
125011.0,-12.0476,9.6534,26.1974,1.2489,0.7758,-0.5726
125021.0,-11.5664,10.0461,27.0545,0.9615,0.7019,-0.5401
125031.0,-11.1354,10.4531,26.8486,0.8769,0.3475,-0.415
125041.0,-10.2615,9.8043,25.5964,0.7348,-0.2826,-0.2522
125051.0,-9.0549,9.1243,22.1583,0.5076,-0.9562,-0.1282
125061.0,-8.0565,7.9272,19.4409,-0.0229,-1.408,-0.0942
125071.0,-7.6806,6.1603,18.3875,-0.6391,-1.6506,-0.124
125081.0,-7.367,4.5131,18.4904,-1.0908,-1.906,-0.2065
125091.0,-7.0509,3.62,17.6213,-1.2494,-2.304,-0.3006
125101.0,-6.213,2.9544,15.8329,-1.2797,-2.7111,-0.3815
125111.0,-5.8227,3.2896,13.4458,-1.3925,-3.0639,-0.4794
125121.0,-5.3486,3.4716,10.9798,-1.6942,-3.405,-0.5534
125131.0,-4.7477,3.2801,8.5401,-2.0407,-3.6423,-0.589
125141.0,-3.984,2.8347,6.9743,-2.1433,-3.5673,-0.588
125151.0,-3.6655,2.6456,6.3255,-1.9082,-3.2134,-0.5438
125161.0,-3.4668,2.2649,6.7229,-1.5053,-2.8181,-0.4597
125171.0,-3.0981,1.9537,7.2784,-1.0291,-2.5015,-0.356
125181.0,-2.7701,1.7885,7.8578,-0.6928,-2.3429,-0.2751
125191.0,-2.4253,1.7741,8.078,-0.6268,-2.3791,-0.2325
125201.0,-2.1117,1.3671,8.5593,-0.8322,-2.5584,-0.2304
125211.0,-1.8723,1.2594,8.4827,-1.0866,-2.8223,-0.265
125221.0,-1.6951,1.4078,7.8506,-1.2968,-3.0831,-0.3006
125231.0,-1.4988,1.6712,6.9599,-1.3686,-3.247,-0.3044
125241.0,-0.9984,1.494,6.0693,-1.2584,-3.2571,-0.2602
125251.0,-0.3304,1.336,5.466,-0.9637,-3.0644,-0.1937
125261.0,-0.17,1.7358,5.4588,-0.68,-2.7957,-0.1346
125271.0,-0.0383,2.0183,5.8993,-0.5603,-2.6627,-0.0537
125281.0,0.3926,1.9872,5.5067,-0.564,-2.7069,0.0479
125291.0,0.8787,1.4533,3.802,-0.7343,-2.8372,0.1362
125301.0,1.9776,0.0646,2.1931,-1.0993,-2.8915,0.1719
125311.0,2.7773,-1.0582,1.3886,-1.3755,-2.6925,0.124
125321.0,2.9999,-1.6209,1.4078,-1.4378,-2.3062,0.0394
125331.0,3.3016,-2.2841,2.3798,-1.376,-1.9736,-0.0463
125341.0,3.5602,-2.217,3.4524,-1.0211,-1.6511,-0.1149
125351.0,3.3782,-1.5993,3.9768,-0.4518,-1.3127,-0.1261
125361.0,3.474,-1.0439,4.5131,0.0064,-1.0983,-0.1
125371.0,3.6248,-0.431,4.6591,0.3219,-0.9589,-0.0474
125381.0,3.6416,-0.0886,4.956,0.4683,-0.8498,0.0234
125391.0,3.5937,-0.2514,4.8674,0.4379,-0.8445,0.0937
125401.0,3.8858,-1.0391,4.4341,0.19,-0.9732,0.1165
125411.0,4.1156,-1.6161,4.027,-0.075,-1.0743,0.0724
125421.0,4.0989,-1.6903,3.644,-0.1235,-1.0217,0.0112
125431.0,3.8523,-1.4629,3.1388,0.0043,-0.9477,-0.0325
125441.0,3.9696,-1.0008,1.087,0.2155,-0.9402,-0.0431
125451.0,4.4436,-0.8164,-2.1524,0.3171,-0.8663,-0.0442
125461.0,4.8746,-0.4908,-5.7269,0.2437,-0.5997,-0.0825
125471.0,4.1851,1.1061,-10.7763,-0.1857,-0.2629,-0.1554
125481.0,3.6751,2.7102,-15.2726,-1.2851,-0.0378,-0.2139
125491.0,2.3559,4.604,-20.0275,-2.3275,0.3884,-0.1368
125501.0,1.3048,5.0135,-24.0186,-2.7606,1.1983,0.1389
125511.0,-0.51,4.7669,-28.9387,-2.0412,2.6669,0.5864
125521.0,-4.8004,2.3176,-29.2571,-0.7694,4.7853,1.035
125531.0,-8.8945,-1.8387,-26.2596,0.9285,7.0031,1.318
125541.0,-13.9797,-5.5043,-20.0299,3.1283,9.4743,1.2632
125551.0,-22.0602,-5.442,-9.9383,5.0338,11.7842,0.7891
125561.0,-27.0425,-2.8515,3.4309,6.115,13.3039,0.0857
125571.0,-30.9642,4.3,15.761,6.4066,13.8812,-0.6178
125581.0,-33.7151,10.9128,33.21,5.2658,13.3901,-1.0807
125591.0,-32.6928,15.2056,47.5201,3.9866,11.4697,-1.0743
125601.0,-29.6498,16.757,54.6357,3.0426,8.7384,-0.754
125611.0,-25.8909,15.2247,56.4649,2.2439,5.8873,-0.3443
125621.0,-22.1655,12.9071,52.3875,1.6597,3.2358,-0.0165
125631.0,-19.6588,10.4674,46.1698,1.0328,1.0653,0.1352
125641.0,-16.9581,10.2999,37.431,0.5518,-0.5353,0.1628
125651.0,-15.0978,10.5297,29.7001,0.0085,-1.3729,0.1783
125661.0,-13.5296,8.9783,25.2493,-0.5076,-1.5969,0.2485
125671.0,-11.8896,6.8091,22.8981,-0.6758,-1.4271,0.3235
125681.0,-11.2863,5.3463,22.7569,-0.7705,-1.2393,0.3076
125691.0,-10.726,4.5681,23.2046,-0.9317,-1.4106,0.232
125701.0,-10.6446,4.3215,23.547,-1.143,-1.9076,0.1415
125711.0,-10.5129,4.5969,22.3906,-1.3468,-2.6723,0.0873
125721.0,-10.1849,4.7645,19.417,-1.5575,-3.5173,0.0835
125731.0,-9.6774,4.1683,15.919,-1.831,-4.1978,0.1006
125741.0,-8.9711,3.3639,12.5241,-1.9598,-4.582,0.1165
125751.0,-8.0709,2.5139,9.481,-1.8278,-4.6022,0.1368
125761.0,-6.9288,1.6137,6.8307,-1.6171,-4.3835,0.1389
125771.0,-5.9927,0.565,5.8107,-1.6017,-4.1132,0.0676
125781.0,-5.1308,0.1987,5.2816,-1.6091,-3.8807,-0.0644
125791.0,-4.7142,0.4573,5.3271,-1.6171,-3.6934,-0.2118
125801.0,-4.4388,1.2905,5.2696,-1.5484,-3.5785,-0.3155
125811.0,-4.0965,1.9441,4.6711,-1.4356,-3.5391,-0.3432
125821.0,-3.3998,2.0614,3.8044,-1.3207,-3.4704,-0.3155
125831.0,-2.6839,1.7406,3.3806,-1.1882,-3.2576,-0.2698
125841.0,-2.1931,1.1109,3.8714,-1.0435,-2.9734,-0.2309
125851.0,-1.4653,0.5483,4.616,-0.845,-2.7585,-0.2139
125861.0,-1.1061,0.9002,4.5705,-0.7322,-2.701,-0.2288
125871.0,-0.8499,1.0702,4.5083,-0.8328,-2.7861,-0.2331
125881.0,-0.1628,1.3791,3.1939,-0.8977,-2.8825,-0.2059
125891.0,0.51,1.4844,1.9872,-0.9317,-2.7931,-0.1559
125901.0,0.972,1.2857,0.9481,-0.886,-2.5286,-0.083
125911.0,1.5419,0.6584,0.6704,-0.8556,-2.1614,-0.0165
125921.0,1.9585,-0.0694,1.4676,-0.7811,-1.7044,0.0229
125931.0,1.8818,-0.4717,3.1125,-0.6566,-1.2866,0.0303
125941.0,1.8938,-0.7518,4.865,-0.514,-1.0616,0.0277
125951.0,1.9896,-0.7254,5.9161,-0.4177,-1.0451,0.017
125961.0,2.1117,-0.4693,6.1723,-0.4486,-1.2223,-0.0005
125971.0,2.2529,-0.2801,5.7892,-0.4885,-1.4388,0.0074
125981.0,2.4756,-0.1939,4.4652,-0.4294,-1.615,0.0474
125991.0,2.7725,-0.0168,2.5331,-0.3533,-1.6889,0.1016
126001.0,2.8443,0.1293,0.4501,-0.3602,-1.6533,0.158
126011.0,3.3423,-0.2921,-1.6951,-0.4741,-1.5495,0.2155
126021.0,4.1348,-1.3288,-2.9497,-0.4879,-1.2084,0.2618
126031.0,4.6783,-2.2745,-3.4907,-0.116,-0.5454,0.2794
126041.0,4.4891,-2.7916,-3.1316,0.4651,0.2405,0.2543
126051.0,4.4532,-2.411,-2.9161,1.077,0.9621,0.1846
126061.0,4.0199,-1.6664,-2.2266,1.4165,1.5399,0.0878
126071.0,3.565,-0.3926,-1.6927,1.4101,1.8869,-0.0154
126081.0,2.8012,0.8188,-2.1763,0.9562,1.9278,-0.0867
126091.0,2.1691,1.494,-4.5801,-0.0032,1.6299,-0.1091
126101.0,1.5897,0.6393,-8.09,-1.3282,1.1988,-0.0835
126111.0,0.8523,-0.4764,-12.6797,-2.2801,1.0685,-0.0208
126121.0,-0.2059,-1.3671,-17.8655,-2.3126,1.5724,0.0931
126131.0,-1.4485,-1.6041,-23.9612,-1.1047,2.9687,0.2581
126141.0,-6.3853,-0.4357,-28.1678,0.8168,5.5169,0.4182
126151.0,-12.864,-1.5323,-24.045,2.2125,8.4712,0.4917
126161.0,-20.0897,-3.237,-13.3956,3.1948,11.193,0.357
126171.0,-28.3545,-3.6966,2.545,4.0504,13.3119,-0.0186
126181.0,-34.1389,-1.0822,19.3595,5.0631,14.4442,-0.4853
126191.0,-36.4326,4.7238,36.593,5.4595,14.2681,-0.9817
126201.0,-37.3783,12.2631,52.1313,5.0109,12.6701,-1.3015
126211.0,-34.0168,16.3596,62.4958,3.4641,9.3748,-1.3329
126221.0,-31.1725,17.4705,66.815,1.7342,5.6542,-1.1217
126231.0,-27.6746,15.8807,63.0489,0.3288,1.8315,-0.754
126241.0,-23.9013,12.3349,53.1824,-0.7338,-1.5745,-0.3842
126251.0,-20.82,9.7396,40.0263,-1.1228,-3.8121,-0.0793
126261.0,-17.7147,7.0006,27.4735,-1.1903,-4.8742,0.1469
126271.0,-14.1186,3.4189,18.0714,-1.1126,-4.9556,0.2485
126281.0,-11.2288,2.0303,11.6765,-0.9966,-4.3548,0.1421
126291.0,-9.5122,2.1332,9.517,-1.0099,-3.4667,-0.0596
126301.0,-8.5569,3.0023,9.493,-1.1063,-2.7276,-0.2214
126311.0,-8.1283,3.6248,11.5065,-1.3212,-2.3535,-0.3038
126321.0,-8.0206,4.2066,12.8712,-1.3239,-2.3668,-0.2581
126331.0,-7.5753,3.7493,12.5025,-1.1903,-2.7148,-0.1091
126341.0,-6.4907,2.3894,10.2448,-0.9881,-3.1267,0.0479
126351.0,-5.1882,1.0127,7.762,-0.7806,-3.2629,0.116
126361.0,-4.3048,0.2993,5.7245,-0.5699,-3.073,0.0857
126371.0,-3.9097,0.0168,4.8961,-0.4922,-2.7276,-0.0096
126381.0,-3.5267,0.51,4.8866,-0.5491,-2.4094,-0.1373
126391.0,-3.4237,1.2115,5.5952,-0.6651,-2.129,-0.2315
126401.0,-3.5602,1.9441,6.1316,-0.7274,-1.9321,-0.2533
126411.0,-3.0358,1.5347,6.6056,-0.8578,-1.8635,-0.2155
126421.0,-2.6264,0.5028,7.6591,-0.9988,-1.7948,-0.2017
126431.0,-2.7414,-0.1748,9.1602,-0.9583,-1.7209,-0.2288
126441.0,-2.7605,-0.5531,9.9503,-0.7779,-1.789,-0.2772
126451.0,-2.4636,-0.3496,9.9623,-0.5986,-1.9603,-0.3485
126461.0,-2.2505,0.4214,9.4451,-0.4832,-2.0875,-0.4182
126471.0,-2.1261,1.3144,9.0429,-0.5156,-2.1801,-0.4576
126481.0,-2.047,2.0039,8.9998,-0.6673,-2.2918,-0.4544
126491.0,-1.9752,2.5594,8.6119,-0.7859,-2.4083,-0.3954
126501.0,-1.6664,2.5594,8.0589,-0.8546,-2.4887,-0.2895
126511.0,-1.5874,2.4181,7.5489,-0.8455,-2.4871,-0.1666
126521.0,-1.3455,1.7119,7.1611,-0.7636,-2.4296,-0.0378
126531.0,-0.9218,0.8452,6.7253,-0.5901,-2.3189,0.067
126541.0,-0.5602,0.1867,6.6679,-0.3911,-2.1258,0.1213
126551.0,-0.2514,-0.1652,6.9695,-0.2474,-1.9273,0.1293
126561.0,-0.0192,-0.1197,7.331,-0.2506,-1.8283,0.1011
126571.0,0.1437,0.1437,7.7644,-0.4225,-1.8693,0.0596
126581.0,0.2466,0.5076,7.6567,-0.6082,-1.9853,0.0404
126591.0,0.5578,0.6033,7.2616,-0.6976,-2.0678,0.0628
126601.0,0.8284,0.5219,6.4739,-0.6321,-2.0268,0.1192
126611.0,1.2163,0.0239,6.0118,-0.5082,-1.8651,0.1804
126621.0,1.6137,-0.4908,6.0238,-0.3714,-1.6203,0.2155
126631.0,1.7238,-0.7111,6.505,-0.2905,-1.3803,0.2155
126641.0,1.8052,-0.8164,7.2832,-0.2996,-1.2531,0.2001
126651.0,1.8723,-0.5818,7.6998,-0.3427,-1.2398,0.1873
126661.0,1.992,-0.2729,8.09,-0.3938,-1.2664,0.1963
126671.0,2.0255,-0.1053,8.0062,-0.3464,-1.2771,0.2506
126681.0,2.2865,-0.3807,7.8985,-0.2895,-1.2733,0.3187
126691.0,2.6312,-1.1803,7.592,-0.2517,-1.2356,0.3677
126701.0,3.0215,-2.32,7.6088,-0.3219,-1.1792,0.3469
126711.0,3.1771,-3.1771,8.5401,-0.4683,-1.1536,0.2368
126721.0,3.055,-3.0215,9.1004,-0.4901,-1.2084,0.0862
126731.0,2.7749,-1.8818,8.7963,-0.4363,-1.3611,-0.0346
126741.0,2.8012,-0.6009,8.0086,-0.3735,-1.5064,-0.0729
126751.0,2.7988,0.3376,7.1132,-0.2799,-1.5229,-0.0223
126761.0,2.8802,0.6656,6.6439,-0.1942,-1.4479,0.0878
126771.0,3.0095,0.249,6.3039,-0.1421,-1.3659,0.215
126781.0,3.395,-0.9768,6.4404,-0.1692,-1.3042,0.306
126791.0,3.8642,-2.0351,6.8857,-0.1799,-1.2616,0.3182
126801.0,3.814,-2.7557,7.082,-0.1192,-1.2771,0.2783
126811.0,4.0725,-3.0598,6.5769,-0.0388,-1.4016,0.2033
126821.0,4.2617,-2.7031,5.4372,0.0623,-1.4963,0.1224
126831.0,4.3215,-2.0183,4.1492,0.1405,-1.492,0.0745
126841.0,4.5059,-1.1923,2.7509,0.1368,-1.4447,0.0692
126851.0,4.3886,-0.6632,1.2043,0.0229,-1.3904,0.1261
126861.0,4.719,-1.245,-0.7326,-0.2432,-1.3872,0.2198
126871.0,5.1212,-2.5355,-3.4333,-0.6433,-1.4128,0.2708
126881.0,5.6072,-3.5291,-7.6112,-1.1925,-1.4734,0.2102
126891.0,5.3654,-3.6248,-12.8138,-1.9236,-1.4819,0.0341
126901.0,4.6112,-1.9297,-18.5958,-2.5605,-1.3095,-0.1857
126911.0,4.9799,0.2777,-28.06,-2.7968,-1.0451,-0.3294
126921.0,0.5291,4.2928,-41.0821,-2.2993,-0.0692,-0.3134
126931.0,-1.0439,9.0597,-55.7873,-1.3085,1.8363,-0.0788
126941.0,-9.2057,12.4187,-63.0465,-0.4001,5.327,0.3868
126951.0,-22.6539,12.6055,-57.3723,0.4619,9.7244,1.0222
126961.0,-36.1381,7.2472,-40.1747,1.5351,13.8977,1.6852
126971.0,-50.4674,-0.2107,-14.789,3.5944,17.4357,2.03
126981.0,-59.029,-4.3814,10.307,6.2284,17.4357,1.7012
126991.0,-60.6356,3.4668,31.7543,7.5911,17.4357,0.7333
127001.0,-59.302,16.0124,54.4154,6.587,17.4357,-0.1203
127011.0,-52.4522,20.6045,72.4581,3.7365,14.4852,-0.3219
127021.0,-43.6319,16.2375,78.4508,1.5245,8.8959,0.0958
127031.0,-36.6696,12.311,74.3591,-0.1123,3.6913,0.7444
127041.0,-29.1949,5.2529,59.2589,-0.1368,-0.1038,1.4048
127051.0,-22.8143,-1.2234,44.1587,0.8003,-1.7161,1.7671
127061.0,-19.3164,-4.312,35.4845,1.2542,-2.0816,1.5761
127071.0,-16.4242,-2.4397,25.5389,1.4436,-2.2003,1.119
127081.0,-14.3341,-0.9577,23.523,0.4959,-2.2641,0.5401
127091.0,-13.216,3.8164,18.1911,0.1857,-2.3062,0.1852
127101.0,-11.9566,5.5186,16.8695,-0.456,-2.4169,0.0841
127111.0,-10.6063,6.8474,13.2806,-0.5342,-2.5674,0.2128
127121.0,-8.9399,6.3015,10.5321,-0.381,-2.4541,0.4619
127131.0,-7.2496,3.7397,8.3486,0.0718,-1.8406,0.7338
127141.0,-6.2441,0.2705,9.347,0.3241,-0.9599,0.8216
127151.0,-6.4667,-2.6576,13.0197,0.2283,-0.3613,0.6561
127161.0,-7.0318,-4.2832,17.3005,0.0112,-0.2804,0.2948
127171.0,-7.4388,-3.158,20.2238,-0.223,-0.7205,-0.1751
127181.0,-8.2576,-0.8452,21.5311,-0.5236,-1.5027,-0.5811
127191.0,-8.588,1.7071,20.5518,-0.8785,-2.4999,-0.8429
127201.0,-8.6957,4.0773,18.2462,-1.2861,-3.4603,-0.9583
127211.0,-8.667,5.7102,15.2702,-1.5266,-4.1143,-0.8961
127221.0,-8.1762,6.2393,12.1697,-1.5814,-4.4517,-0.696
127231.0,-7.4603,5.9831,9.4355,-1.5133,-4.5198,-0.4417
127241.0,-6.9168,5.023,7.8578,-1.3713,-4.3804,-0.1788
127251.0,-6.3111,3.5434,6.4093,-1.144,-4.2037,0.0532
127261.0,-5.1739,2.0638,5.0781,-0.9653,-4.0105,0.1958
127271.0,-4.4317,0.8284,4.3862,-0.8892,-3.7344,0.2432
127281.0,-3.5674,-0.103,3.9576,-0.9418,-3.4901,0.2054
127291.0,-2.8802,-0.8308,4.2425,-1.1605,-3.3411,0.0894
127301.0,-2.5331,-0.9888,4.9057,-1.3202,-3.2342,-0.0559
127311.0,-2.3296,-0.6632,5.5545,-1.2654,-3.1576,-0.1697
127321.0,-1.9321,0.2442,5.2289,-1.0057,-3.1075,-0.2182
127331.0,-1.5131,1.0032,4.7908,-0.7726,-3.0245,-0.191
127341.0,-0.9194,1.4485,4.1348,-0.6455,-2.9378,-0.1139
127351.0,-0.2251,1.3431,3.4979,-0.6614,-2.8516,-0.016
127361.0,0.4022,0.8882,2.9975,-0.7737,-2.7361,0.0649
127371.0,0.826,0.0934,3.0119,-0.9147,-2.5823,0.116
127381.0,1.4317,-0.8116,3.1149,-0.9663,-2.4243,0.141
127391.0,1.9656,-1.7526,3.4596,-0.8445,-2.1966,0.1399
127401.0,2.2697,-2.1644,3.5386,-0.6039,-1.931,0.1043
127411.0,2.5139,-2.387,3.9265,-0.439,-1.699,0.0319
127421.0,2.8659,-2.1428,4.3766,-0.2937,-1.4883,-0.0521
127431.0,2.8084,-1.4509,5.4396,-0.223,-1.2856,-0.1235
127441.0,2.7126,-0.68,6.1316,-0.1825,-1.235,-0.1447
127451.0,2.9137,-0.1652,6.043,-0.2421,-1.3516,-0.1229
127461.0,3.1915,0.0694,5.4444,-0.3693,-1.4708,-0.0803
127471.0,3.6296,-0.0742,4.6304,-0.4534,-1.4596,-0.0202
127481.0,3.9002,-0.3735,4.2593,-0.4933,-1.3037,0.0314
127491.0,3.8451,-1.0008,4.6759,-0.5263,-1.0802,0.0686
127501.0,3.9073,-1.6065,5.217,-0.5268,-0.9424,0.083
127511.0,3.8092,-1.8244,5.6072,-0.4943,-0.8966,0.0676
127521.0,3.7565,-1.6041,5.7221,-0.3704,-0.8828,0.0585
127531.0,3.6536,-1.1803,5.0039,-0.2112,-0.9195,0.0788
127541.0,3.7517,-0.8045,3.9002,-0.133,-0.9605,0.124
127551.0,3.8834,-0.6129,3.0382,-0.1155,-0.8865,0.1852
127561.0,3.9193,-0.5507,2.715,-0.1043,-0.7348,0.249
127571.0,3.6823,-0.431,2.2266,-0.1277,-0.6332,0.3033
127581.0,3.5841,-0.8068,1.482,-0.3044,-0.679,0.3358
127591.0,3.7062,-1.1588,-0.8045,-0.5875,-0.8695,0.3267
127601.0,4.0366,-1.5347,-4.3574,-1.0254,-1.0818,0.2602
127611.0,4.0821,-1.0104,-9.821,-1.5484,-1.1893,0.1485
127621.0,4.81,0.984,-16.1944,-2.13,-1.118,0.0319
127631.0,3.4812,4.6926,-24.4663,-2.5621,-0.7125,0.0479
127641.0,2.8156,8.2791,-32.2834,-2.5302,0.2352,0.3134
127651.0,-0.9218,12.3756,-40.8786,-1.6751,1.9917,0.8966
127661.0,-6.4045,12.2056,-42.873,-0.6274,4.3309,1.7224
127671.0,-13.7499,9.1961,-43.189,1.3925,7.2814,2.5765
127681.0,-22.6084,2.5762,-36.9545,3.5391,10.7183,3.0602
127691.0,-31.9578,-4.276,-24.8279,5.1067,13.8418,2.875
127701.0,-38.7765,-9.3948,-8.3175,5.833,16.1948,1.9922
127711.0,-46.7612,-6.8642,13.3309,6.0906,17.4357,0.6455
127721.0,-50.6517,4.0701,33.3081,5.8218,17.4357,-0.5279
127731.0,-50.9462,13.8648,56.642,4.3575,15.9469,-1.0477
127741.0,-48.8752,20.9493,78.4508,2.6254,11.0174,-0.7279
127751.0,-35.0559,15.1385,75.6616,1.6038,6.4944,0.1554
127761.0,-33.344,13.3477,61.1264,2.5818,2.8558,1.202
127771.0,-25.7041,2.557,52.8496,1.7054,-1.044,1.6634
127781.0,-20.1711,-1.5371,34.8859,2.5877,-2.5893,1.7278
127791.0,-16.0483,-4.1132,24.3275,2.6558,-2.4073,1.2409
127801.0,-14.3532,-1.9656,18.2366,1.8049,-1.7922,0.3491
127811.0,-13.7714,3.5721,17.9254,0.4938,-1.0621,-0.5114
127821.0,-14.8464,8.2097,22.302,-0.3618,-0.3241,-0.8982
127831.0,-15.7826,11.7962,25.8837,-0.4401,-0.1815,-0.7604
127901.0,-7.3694,-0.8547,3.79,-1.4628,-5.5505,-0.1075
127911.0,-6.347,1.4748,0.8212,-2.005,-5.1237,-0.506
127921.0,-5.6503,3.6559,-0.1173,-2.3546,-4.4101,-0.6981
127931.0,-5.0829,4.5155,2.2386,-2.2844,-3.5226,-0.6492
127941.0,-4.8004,4.9033,4.2856,-1.6474,-2.808,-0.4001
127951.0,-4.2401,3.6895,5.4181,-1.0387,-2.5025,-0.0745
127961.0,-3.2825,1.7334,5.533,-0.7125,-2.4999,0.1655
127971.0,-2.4134,-0.1293,5.1834,-0.6508,-2.5265,0.2474
127981.0,-1.8364,-1.4988,5.2696,-0.7726,-2.4839,0.1713
127991.0,-1.4581,-1.9992,5.8706,-0.8929,-2.4041,-0.0032
128001.0,-1.3479,-1.4581,6.3087,-0.8769,-2.3072,-0.1932
128011.0,-1.5012,-0.2227,6.6176,-0.8274,-2.2141,-0.3326
128021.0,-1.3743,0.7829,7.1299,-0.8253,-2.1614,-0.3799
128031.0,-1.3479,1.4748,7.1635,-0.8828,-2.2045,-0.3464
128041.0,-1.142,1.4892,7.3717,-0.9722,-2.3099,-0.2597
128051.0,-0.7853,1.3024,6.7493,-0.8572,-2.3684,-0.1373
128061.0,-0.3639,0.838,5.8107,-0.6087,-2.2657,-0.0106
128071.0,0.0383,0.3711,4.9752,-0.4097,-2.0577,0.0803
128081.0,0.5124,-0.0742,4.7525,-0.356,-1.8108,0.1117
128091.0,0.7685,-0.3328,5.1619,-0.3741,-1.525,0.0974
128101.0,0.8787,-0.5076,6.3494,-0.4363,-1.2749,0.0601
128111.0,0.7422,-0.4836,7.6758,-0.4885,-1.1552,0.0186
128121.0,0.6225,-0.6033,8.9543,-0.5018,-1.1659,-0.0048
128131.0,0.656,-0.2825,9.323,-0.4097,-1.2606,-0.0138
128141.0,0.668,0.3017,8.9088,-0.3682,-1.4117,-0.0085
128151.0,0.893,0.5004,8.4013,-0.4422,-1.5522,0.0202
128161.0,1.1971,0.3831,7.9703,-0.4661,-1.5782,0.0686
128171.0,1.5131,0.2897,7.8554,-0.3576,-1.4575,0.1235
128181.0,1.6712,0.3376,7.6734,-0.2267,-1.3234,0.1777
128191.0,1.8962,0.1197,7.7117,-0.2655,-1.2957,0.2155
128201.0,2.3846,-0.2682,7.7572,-0.3475,-1.2861,0.2405
128211.0,2.3272,-0.4046,8.1499,-0.4182,-1.243,0.2506
128221.0,2.411,-0.7278,8.5138,-0.4273,-1.2659,0.2746
128231.0,2.569,-1.1444,8.4874,-0.3379,-1.3127,0.3081
128241.0,2.7222,-1.5371,8.1044,-0.1958,-1.35,0.3304
128251.0,3.1029,-1.8651,7.3789,-0.0793,-1.3697,0.3257
128261.0,3.2896,-1.9082,6.7612,-0.058,-1.3601,0.2852
128271.0,3.4189,-1.968,6.4572,-0.0968,-1.3595,0.2283
128281.0,3.7278,-1.6616,5.7604,-0.0729,-1.3532,0.1697
128291.0,3.6488,-0.8404,5.0901,-0.0357,-1.2893,0.1378
128301.0,3.6559,-0.5219,4.7405,-0.0415,-1.2451,0.1591
128311.0,3.9002,-0.6656,4.1468,-0.0266,-1.2627,0.2097
128321.0,4.3551,-1.0487,3.316,0.0564,-1.2584,0.2543
128331.0,4.6807,-1.4198,1.743,0.2224,-1.209,0.2799
128341.0,5.0182,-1.221,-1.3408,0.2724,-1.1664,0.2512
128351.0,5.3582,-1.0391,-5.4851,-0.0947,-1.1222,0.1612
128361.0,5.8059,-0.9266,-8.5617,-0.6827,-0.8519,0.0266
128371.0,5.1787,1.0558,-12.5217,-0.9871,-0.2884,-0.0835
128381.0,4.3742,3.9768,-16.2087,-1.3532,0.3108,-0.0782
128391.0,3.2154,7.5753,-21.318,-1.7576,0.9376,0.1655
128401.0,0.7518,9.1842,-26.0585,-2.3897,1.5218,0.6742
128411.0,-2.2625,8.6766,-31.3928,-2.452,2.3168,1.4096
128421.0,-6.7588,4.063,-35.2426,-1.3909,3.8461,2.2264
128431.0,-9.742,-4.2665,-39.3846,0.4608,5.9293,2.7297
128441.0,-15.6461,-11.0612,-37.474,2.3727,8.9161,2.4828
128451.0,-26.0513,-13.2926,-27.2221,4.1138,12.5078,1.5777
128461.0,-36.344,-10.3238,-11.2647,5.2706,15.3568,0.2964
128471.0,-48.3892,0.0239,8.2624,5.9272,17.4357,-0.9732
128481.0,-53.5104,12.3134,28.661,5.2775,17.4357,-1.7421
128491.0,-55.6891,19.2733,57.1185,3.339,16.843,-1.815
128501.0,-46.596,19.7234,78.4508,0.9296,11.7347,-1.209
128511.0,-40.711,14.303,78.4508,0.4736,8.0727,-0.1564
128521.0,-34.6321,9.5146,76.2912,1.1456,3.5354,0.8599
128531.0,-28.333,-0.2729,69.1829,0.3475,-1.5394,1.2749
128541.0,-23.3363,-2.1715,48.1402,1.1456,-4.6634,1.3973
128551.0,-19.9844,-5.0302,33.708,0.6737,-6.4758,1.0445
128561.0,-16.6828,-2.964,15.4665,0.132,-7.5432,0.4794
128571.0,-12.05,-0.182,5.3079,-0.9104,-7.3378,-0.1107
128581.0,-7.5944,2.7007,-2.5402,-0.812,-5.501,-0.3395
128591.0,-7.7141,4.0462,-1.1349,-0.4544,-2.7952,-0.3304
128601.0,-7.2425,3.8666,4.2856,-0.3762,-1.1802,-0.2336
128611.0,-6.5625,2.2649,11.0373,-0.2868,-0.3986,-0.125
128621.0,-7.1754,1.8292,16.5224,-0.0112,-0.2442,-0.0686
128631.0,-7.1467,1.1779,19.1273,0.0229,-0.9871,-0.0623
128641.0,-6.7181,0.0646,19.0195,-0.1575,-2.1364,-0.1298
128651.0,-6.6918,0.5171,15.4522,-0.1671,-3.0815,-0.2629
128661.0,-5.8347,2.2051,10.6446,-0.3129,-3.6359,-0.422
128671.0,-5.0853,3.6966,7.3574,-0.6449,-3.6083,-0.5114
128681.0,-5.0494,4.5993,6.3877,-0.9706,-3.2081,-0.5066
128691.0,-4.6902,4.798,6.5745,-1.1845,-2.8149,-0.4065
128701.0,-4.4245,4.2353,7.5106,-1.2627,-2.5084,-0.2506
128711.0,-4.1707,3.043,8.4491,-1.185,-2.303,-0.0798
128721.0,-3.6248,1.3288,8.9687,-1.0382,-2.2391,0.0521
128731.0,-2.9449,-0.3615,9.0142,-0.903,-2.2434,0.0878
128741.0,-2.7174,-1.5419,8.8562,-0.8077,-2.2072,0.016
128751.0,-2.3798,-1.494,8.5449,-0.8535,-2.2423,-0.1607
128761.0,-2.1787,-0.2897,8.1451,-1.0062,-2.3072,-0.3485
128771.0,-2.2098,1.0582,7.9775,-1.1424,-2.2535,-0.4395
128781.0,-2.2027,2.0231,8.1211,-1.284,-2.2019,-0.4262
128791.0,-2.0925,2.2482,8.4013,-1.4351,-2.2375,-0.331
128801.0,-1.8364,1.6544,8.9184,-1.4367,-2.2838,-0.1767
128811.0,-1.4126,0.7207,8.5138,-1.1829,-2.3083,-0.0053
128821.0,-0.8045,-0.4405,7.6231,-0.9243,-2.3195,0.1187
128831.0,-0.1915,-1.3551,6.778,-0.7737,-2.2806,0.1559
128841.0,0.2753,-1.8196,6.1028,-0.696,-2.1636,0.1197
128851.0,0.5004,-2.0327,5.9328,-0.7173,-2.0178,0.0415
128861.0,0.6464,-1.7717,6.0238,-0.7769,-1.8959,-0.0543
128871.0,0.7494,-1.3216,6.3686,-0.8253,-1.7884,-0.1261
128881.0,0.917,-0.8092,6.6224,-0.8099,-1.6879,-0.1474
128891.0,0.9792,-0.5219,6.9145,-0.787,-1.6219,-0.1219
128901.0,1.2689,-0.6369,6.9312,-0.771,-1.6283,-0.0665
128911.0,1.6113,-0.9481,6.7301,-0.7237,-1.6325,-0.0074
128921.0,1.8579,-1.0798,6.3829,-0.5965,-1.5676,0.0468
128931.0,2.0111,-1.3431,6.1316,-0.5044,-1.4931,0.0905
128941.0,2.3631,-1.4245,5.6647,-0.4794,-1.442,0.1128
128951.0,2.5522,-1.4341,5.4684,-0.5513,-1.3957,0.1144
128961.0,2.9377,-1.6544,5.3319,-0.5938,-1.3164,0.1235
128971.0,2.964,-1.6807,5.4923,-0.571,-1.1765,0.1368
128981.0,2.9975,-1.7478,5.77,-0.4938,-1.0722,0.1671
128991.0,3.0694,-1.8459,5.6527,-0.3794,-1.0238,0.215
129001.0,3.3064,-1.98,5.7221,-0.2442,-0.9535,0.2618
129011.0,3.1532,-2.0518,5.9951,-0.0644,-0.8588,0.3076
129021.0,3.0287,-2.3631,6.2704,0.1054,-0.8413,0.3485
129031.0,3.1603,-2.648,6.3039,0.2485,-0.9073,0.365
129041.0,3.3543,-2.7222,6.1938,0.3938,-0.969,0.3597
129051.0,3.4979,-2.7294,6.0525,0.539,-1.0089,0.3421
129061.0,3.4093,-2.5977,6.2417,0.6534,-1.0669,0.3092
129071.0,3.2441,-2.3942,6.3638,0.7881,-1.202,0.2778
129081.0,3.201,-2.0087,5.6288,0.9589,-1.4532,0.2464
129091.0,3.1125,-1.075,3.3112,1.0632,-1.8001,0.2091
129101.0,3.6512,0.2969,-1.2186,0.8966,-2.2556,0.1719
129111.0,4.0749,2.6528,-9.8569,0.1437,-2.8021,0.1293
129121.0,4.3335,4.9919,-20.231,-1.4777,-3.2321,0.1006
129131.0,4.1468,7.683,-31.9794,-3.3172,-3.2603,0.1979
129141.0,2.3727,7.7476,-43.4308,-4.0691,-2.6031,0.5651
129151.0,2.7054,4.8219,-54.334,-2.8282,-0.5438,1.1222
129161.0,-6.1675,3.984,-60.5374,-0.1272,2.9809,1.5197
129171.0,-12.4786,2.138,-63.6044,3.2161,6.8467,1.6714
129181.0,-26.1926,4.1228,-60.468,6.0996,11.873,1.4436
129191.0,-46.4834,7.4939,-40.7469,7.5033,17.0122,0.9727
129201.0,-59.5582,6.8546,-17.5447,7.5799,17.4357,0.4768
129211.0,-72.7239,6.8307,8.6215,6.4013,17.4357,-0.2623
129221.0,-75.7047,6.7086,43.9958,4.6629,17.4357,-0.9844
129231.0,-60.1639,17.322,78.4508,2.1795,17.4357,-1.474
129241.0,-59.8479,3.6416,78.4508,0.2666,14.051,-1.2255
129251.0,-47.6015,20.8415,78.0629,4.3633,7.8753,-0.0968
129261.0,-40.8355,5.296,78.4508,1.1925,1.4553,0.3826
129271.0,-30.72,10.094,52.2271,3.6242,-3.8892,1.2058
129281.0,-26.8917,-0.2921,47.228,1.2079,-6.3156,0.9642
129291.0,-19.8838,2.6312,19.2973,1.5373,-7.7821,0.6125
129301.0,-14.9183,1.8124,10.4579,0.4092,-6.8941,0.1378
129311.0,-11.0397,5.2529,2.1261,0.232,-5.1434,-0.216
129321.0,-8.9088,8.3031,-0.0527,0.1548,-2.8995,-0.2932
129331.0,-8.825,8.193,5.0805,0.1389,-0.853,-0.1282
129341.0,-8.8562,9.2249,7.1204,0.6061,0.3129,0.1554
129351.0,-8.849,7.434,11.7603,0.4081,0.7482,0.4273
129361.0,-7.9416,4.2641,14.7076,0.3416,0.7992,0.6561
129371.0,-7.5178,0.0575,18.5838,0.1666,0.629,0.679
129381.0,-7.0653,-3.699,21.8782,0.1548,0.2363,0.473
129391.0,-7.0988,-4.5059,22.9748,-0.0144,-0.5859,-0.0011
129401.0,-7.5106,-3.1053,22.5079,-0.7348,-1.9332,-0.6439
129411.0,-7.75,-0.1269,19.6971,-1.4926,-3.239,-1.1898
129421.0,-8.3031,3.0598,16.2614,-1.9938,-4.0004,-1.4926
129431.0,-8.4779,5.8347,13.0915,-2.2886,-4.3724,-1.5447
129441.0,-8.2624,7.2712,10.8553,-2.3961,-4.4958,-1.3611
129451.0,-7.7309,7.3598,9.0237,-2.1641,-4.3889,-1.011
129461.0,-7.3358,6.2441,7.6974,-1.724,-4.1574,-0.6008
129471.0,-6.5194,4.6495,6.0621,-1.2457,-3.936,-0.2352
129481.0,-5.5713,2.8946,4.7645,-0.9461,-3.7141,0.0069
129491.0,-4.6017,1.7142,3.8188,-0.8062,-3.4561,0.1096
129501.0,-3.7852,1.2306,3.2226,-0.8083,-3.1698,0.1117
129511.0,-3.1939,1.1253,3.2178,-0.9567,-2.9064,0.0639
129521.0,-2.7294,0.7973,3.8116,-1.1824,-2.6952,0.016
129531.0,-2.1548,0.2155,4.6136,-1.3478,-2.5632,-0.0303
129541.0,-1.7286,-0.1556,5.4971,-1.3239,-2.4578,-0.0798
129551.0,-1.47,-0.1125,5.873,-1.0914,-2.37,-0.1107
129561.0,-1.1899,0.3759,5.4803,-0.8258,-2.3503,-0.1192
129571.0,-0.7326,0.759,4.7764,-0.6614,-2.3397,-0.0942
129581.0,-0.2322,0.9266,4.0462,-0.572,-2.2354,-0.0426
129591.0,0.316,0.8906,3.7709,-0.5593,-2.0348,0.009
129601.0,0.589,0.7087,4.051,-0.6146,-1.8071,0.0559
129611.0,0.7542,0.5602,4.7884,-0.7029,-1.6261,0.0958
129621.0,1.0271,0.2298,5.624,-0.7471,-1.5139,0.1474
129631.0,1.2067,-0.1604,6.4691,-0.7253,-1.4548,0.2011
129641.0,1.2594,-0.3424,7.0246,-0.6332,-1.4633,0.2543
129651.0,1.2163,-0.7039,7.2281,-0.5103,-1.5665,0.3166
129661.0,1.4006,-1.1133,6.8283,-0.29,-1.6698,0.3821
129671.0,1.6903,-1.1085,6.0621,0.0266,-1.6362,0.4358
129681.0,2.2458,-1.0295,5.3486,0.3065,-1.4697,0.4933
129691.0,2.6719,-1.3408,5.1906,0.3219,-1.3074,0.5284
129701.0,3.1795,-1.8244,5.7389,0.0532,-1.2781,0.4986
129711.0,3.1891,-2.1668,6.5122,-0.2597,-1.3803,0.4268
129721.0,3.4596,-2.6001,6.4452,-0.3991,-1.5532,0.3586
129731.0,3.8618,-2.7054,5.9041,-0.3304,-1.6538,0.282
129741.0,3.9169,-2.1883,5.2002,-0.0718,-1.599,0.2208
129751.0,3.9935,-1.3288,4.0294,0.2762,-1.4362,0.2086
129761.0,4.4365,-0.7326,2.9784,0.5231,-1.184,0.2448
129771.0,4.8626,-0.5578,2.6312,0.5869,-0.8546,0.3049
129781.0,4.9009,-0.723,2.9377,0.4693,-0.5518,0.3597
129791.0,4.9608,-1.7813,3.9959,0.2347,-0.3629,0.3948
129801.0,5.023,-2.7773,4.6591,0.0436,-0.3336,0.3746
129811.0,4.9416,-3.4069,5.351,-0.0734,-0.3938,0.2975
129821.0,4.604,-3.2992,4.9344,0.0245,-0.4576,0.2102
129831.0,4.7477,-3.2274,3.9361,0.1543,-0.5571,0.1304
129841.0,5.1164,-3.158,1.4437,0.3102,-0.6268,0.0479
129851.0,5.8634,-3.213,-1.5921,0.5428,-0.3507,-0.0426
129861.0,5.6312,-3.5171,-3.0406,0.7913,0.3533,-0.1591
129871.0,5.2648,-2.7725,-3.96,0.977,1.0397,-0.3491
129881.0,4.4173,-0.8571,-5.3582,0.8727,1.5431,-0.5523
129891.0,3.2896,0.5674,-5.363,0.4284,1.9348,-0.6683
129901.0,2.1165,2.2194,-6.213,0.1586,2.2583,-0.6609
129911.0,0.8499,3.0454,-7.7285,-0.0506,2.5355,-0.5316
129921.0,-0.1939,1.6496,-10.0628,-0.2426,2.808,-0.3352
129991.0,-20.0419,4.5035,23.4919,3.3991,9.9707,-0.5704
130001.0,-20.7984,7.3095,31.7351,2.7627,9.1172,-0.7875
130011.0,-20.2813,10.0485,38.1444,1.7746,7.6374,-0.879
130021.0,-19.405,11.1354,43.1746,0.5635,5.7697,-0.787
130031.0,-18.1528,10.8984,45.4467,-0.3858,3.6748,-0.522
130041.0,-16.3548,9.4212,44.3382,-0.8594,1.6038,-0.141
130051.0,-14.9183,7.2927,40.7397,-0.8184,-0.1437,0.273
130061.0,-13.362,5.0566,34.6704,-0.4874,-1.5947,0.6353
130071.0,-11.3198,2.5115,26.942,-0.2554,-2.6856,0.8551
130081.0,-9.1051,0.1628,19.6037,-0.34,-3.3257,0.8519
130091.0,-6.8474,-1.2498,13.623,-0.5624,-3.3922,0.6662
130101.0,-5.5426,-1.5131,10.3765,-0.7466,-2.8931,0.3874
130111.0,-5.2146,-0.6632,9.2608,-0.8141,-2.1306,0.1219
130121.0,-5.1523,-0.0551,10.1873,-0.9296,-1.4809,-0.0617
130131.0,-5.2026,-0.3256,13.0747,-1.0382,-1.0594,-0.1767
130141.0,-5.4612,-0.0359,15.5144,-0.9365,-0.9679,-0.2506
130151.0,-5.5976,0.1748,17.2598,-0.7891,-1.276,-0.2841
130161.0,-5.1523,0.7278,16.6205,-0.5539,-1.8193,-0.282
130171.0,-4.8483,1.2785,14.8871,-0.4087,-2.3126,-0.2629
130181.0,-4.4556,1.6161,12.2559,-0.3789,-2.6962,-0.232
130191.0,-3.6631,1.731,9.347,-0.4778,-2.8952,-0.2107
130201.0,-2.7749,1.4437,7.5633,-0.6071,-2.7633,-0.2086
130211.0,-2.4469,1.3527,6.778,-0.6337,-2.3732,-0.2208
130221.0,-2.332,1.4317,7.0844,-0.7045,-1.9986,-0.2543
130231.0,-2.3343,1.3024,7.616,-0.8242,-1.7804,-0.2778
130241.0,-2.15,0.4357,8.8083,-0.97,-1.7373,-0.3054
130251.0,-1.7526,0.3065,8.9256,-0.7913,-1.7129,-0.3358
130261.0,-1.6376,0.8116,8.2528,-0.5119,-1.6346,-0.3597
130271.0,-1.4317,1.1899,7.7405,-0.4693,-1.615,-0.3767
130281.0,-0.9242,1.3599,7.3095,-0.5912,-1.6182,-0.3964
130291.0,-0.723,1.4988,7.3981,-0.7199,-1.5186,-0.4103
130301.0,-0.6488,1.7382,7.7117,-0.8248,-1.4229,-0.4119
130311.0,-0.4908,1.8914,8.1092,-0.9434,-1.4149,-0.3954
130321.0,-0.498,1.9776,8.5521,-1.0206,-1.4521,-0.3517
130331.0,-0.2993,1.5993,8.9184,-0.9381,-1.4904,-0.2639
130341.0,-0.1221,1.5179,8.2672,-0.7508,-1.5431,-0.1719
130351.0,0.2777,0.9697,7.4292,-0.7152,-1.6293,-0.0952
130361.0,0.8068,0.3112,6.517,-0.7327,-1.6437,-0.0569
130371.0,1.1851,-0.1891,6.3135,-0.7061,-1.4936,-0.0575
130381.0,1.3767,-0.6895,6.6343,-0.6268,-1.2797,-0.0745
130391.0,1.4581,-0.7685,7.2257,-0.5928,-1.1738,-0.1187
130401.0,1.5371,-0.814,7.9799,-0.5608,-1.1765,-0.1538
130411.0,1.7478,-0.7494,7.9847,-0.4198,-1.2164,-0.1618
130421.0,1.8076,-0.6919,7.8051,-0.2868,-1.2563,-0.1548
130431.0,2.0231,-0.3256,6.9983,-0.2049,-1.3127,-0.1431
130441.0,2.2745,-0.3424,6.4045,-0.2054,-1.3021,-0.1117
130451.0,2.6097,-0.4214,6.2489,-0.199,-1.1967,-0.0734
130461.0,2.5833,-0.5674,6.3805,-0.174,-1.093,-0.0351
130471.0,2.9568,-0.972,6.2608,-0.1011,-1.0291,0.0064
130481.0,3.2537,-1.3048,5.6695,-0.0825,-0.9951,0.016
130491.0,3.5602,-1.7669,5.1044,-0.1666,-0.9743,-0.0101
130501.0,3.8355,-2.0518,4.2856,-0.2038,-0.8626,-0.0559
130511.0,4.0965,-2.3798,4.3287,-0.1963,-0.6093,-0.1128
130521.0,4.0199,-2.3774,4.9799,-0.0383,-0.2826,-0.1692
130531.0,3.9241,-1.7478,5.1308,0.1841,-0.0404,-0.2139
130541.0,3.7733,-1.3168,5.6767,0.2927,0.1389,-0.2315
130551.0,3.6344,-0.9625,6.1459,0.4268,0.2921,-0.2214
130561.0,3.4979,-0.4501,6.0669,0.5396,0.3656,-0.2043
130571.0,3.3184,-0.091,5.8227,0.5401,0.373,-0.1777
130581.0,3.1915,0.0622,5.0135,0.5007,0.3288,-0.1389
130591.0,2.9712,0.0503,2.7629,0.3725,0.223,-0.1016
130601.0,3.7302,-1.0223,0.5459,0.0623,0.108,-0.1022
130611.0,4.3048,-0.9577,-2.3894,0.2192,0.4491,-0.1548
130621.0,3.5554,0.7638,-5.521,0.6417,1.3058,-0.2006
130631.0,2.4157,1.7669,-5.4492,0.7599,2.2338,-0.2017
130641.0,0.6823,3.9169,-6.3805,0.911,3.0682,-0.1298
130651.0,-1.3312,3.6296,-5.1116,0.7295,3.7509,0.0436
130661.0,-2.5331,1.7957,-4.0725,0.879,4.4942,0.2623
130671.0,-4.1108,0.0622,-2.569,1.135,5.2653,0.3384
130681.0,-5.8347,-1.5419,0.2466,1.4415,6.089,0.2629
130691.0,-8.1211,-2.1093,4.1707,1.9119,7.0558,0.0692
130701.0,-10.7236,-1.5706,10.5417,2.1343,7.8141,-0.2379
130711.0,-13.2591,0.8332,17.7434,2.3317,8.2563,-0.5348
130721.0,-15.3229,4.1779,26.0417,2.2482,8.1168,-0.7333
130731.0,-16.2758,7.2664,33.1956,1.8028,7.1399,-0.7561
130741.0,-16.0292,8.4587,38.8004,1.176,5.5797,-0.5885
130751.0,-15.0739,8.193,41.4939,0.7966,3.8807,-0.2969
130761.0,-14.1928,6.8211,41.6974,0.5412,2.1934,-0.0154
130771.0,-13.0939,4.9105,39.8778,0.1479,0.4124,0.1421
130781.0,-12.0333,3.3136,35.7478,-0.2272,-1.2457,0.1761
130791.0,-11.0828,2.2673,30.9283,-0.4746,-2.5105,0.1219
130801.0,-10.2711,2.1668,25.4288,-0.563,-3.355,0.0314
130811.0,-9.4403,2.3607,20.3771,-0.7269,-3.8988,-0.0708
130821.0,-8.3246,2.6863,16.1321,-0.9599,-4.2021,-0.1607
130831.0,-7.2736,2.8778,12.8473,-1.0813,-4.2058,-0.1974
130841.0,-6.2106,3.0023,10.6326,-1.102,-4.002,-0.1926
130851.0,-5.4468,2.8036,9.4164,-1.1164,-3.7509,-0.1538
130861.0,-4.6184,2.059,9.0333,-1.11,-3.5705,-0.0979
130871.0,-3.8331,1.47,8.6095,-1.0201,-3.4907,-0.0617
130881.0,-3.1556,1.166,7.6064,-0.903,-3.5103,-0.0357
130891.0,-2.3535,0.5818,6.0262,-0.8769,-3.612,-0.0197
130901.0,-1.561,-0.0096,4.0917,-0.8908,-3.7003,-0.0298
130911.0,-0.6416,-0.3041,1.5586,-0.8317,-3.6684,-0.0623
130921.0,0.4381,-0.3926,-1.2641,-0.7035,-3.4076,-0.1048
130931.0,1.1372,-0.1915,-3.7517,-0.6337,-2.9064,-0.1548
130941.0,1.9632,-0.237,-5.4803,-0.7333,-2.3386,-0.2091
130951.0,2.6336,-0.3496,-6.6224,-0.8413,-1.7049,-0.2639
130961.0,3.0837,-0.1844,-7.4819,-0.8737,-1.0147,-0.3108
130971.0,3.1316,-0.0479,-7.6495,-0.8338,-0.2975,-0.3374
130981.0,2.9305,0.0814,-7.7333,-0.6646,0.4214,-0.3272
130991.0,2.4565,0.2634,-7.4316,-0.3661,1.1914,-0.2889
131001.0,1.6592,0.2179,-6.4452,-0.017,1.9709,-0.2416
131011.0,0.8499,0.1508,-4.8483,0.3757,2.7728,-0.2054
131021.0,-0.5171,0.4429,-2.0566,0.7412,3.5918,-0.1995
131031.0,-2.1668,1.0104,1.7214,0.9445,4.2037,-0.2123
131041.0,-3.3878,1.5227,5.849,1.0823,4.5714,-0.2049
131051.0,-4.9608,2.0662,9.8378,1.2489,4.7784,-0.1713
131061.0,-5.7724,2.6743,13.4626,1.3335,4.7645,-0.1362
131071.0,-6.5793,3.5961,16.6373,1.3143,4.6017,-0.1027
131081.0,-7.5417,4.446,20.0634,1.1111,4.3016,-0.0591
131091.0,-8.1954,4.9536,23.1735,0.8232,3.7801,0.0208
131101.0,-8.667,5.0254,25.8502,0.5832,3.1554,0.1405
131111.0,-8.8657,4.2473,28.3904,0.4619,2.4706,0.2916
131121.0,-8.7915,3.553,29.1877,0.4363,1.5947,0.4135
131131.0,-8.2384,2.7294,28.8645,0.3054,0.6024,0.473
131141.0,-7.8266,2.2673,27.3466,0.2102,-0.2863,0.4949
131151.0,-7.3263,1.6328,24.847,-0.0043,-1.1573,0.4784
131161.0,-6.438,0.9936,21.737,-0.348,-1.9693,0.4081
131171.0,-5.6862,0.4118,18.8256,-0.5901,-2.4738,0.3187
131181.0,-5.0901,0.0168,16.4146,-0.687,-2.7281,0.2261
131191.0,-4.6328,-0.2394,14.6429,-0.7029,-2.8825,0.1352
131201.0,-3.9911,-0.2083,12.967,-0.5816,-2.9899,0.0708
131211.0,-3.3615,-0.012,11.3198,-0.3735,-3.0128,0.0309
131221.0,-2.8683,0.589,9.8354,-0.2022,-2.9921,0.0133
131231.0,-2.4565,1.1636,8.4683,-0.132,-2.9942,0.0293
131241.0,-1.7238,0.9433,6.8474,-0.191,-3.0426,0.0788
131251.0,-0.7757,0.4573,5.363,-0.3076,-3.041,0.1054
131261.0,-0.1389,0.1221,3.9025,-0.3395,-2.9133,0.1101
131271.0,0.5507,-0.2969,2.478,-0.3475,-2.7292,0.107
131281.0,1.0582,-0.7757,0.8499,-0.3943,-2.5366,0.0883
131291.0,1.7119,-1.5467,-1.1325,-0.4848,-2.3365,0.0495
131301.0,2.6791,-2.4852,-3.7685,-0.5811,-2.0396,-0.033
131311.0,3.7493,-3.2441,-5.7892,-0.63,-1.4734,-0.1894
131321.0,3.5793,-2.9113,-7.4867,-0.6141,-0.688,-0.3916
131331.0,3.5219,-2.624,-8.2744,-0.7412,0.058,-0.5827
131341.0,3.1053,-2.217,-7.9942,-0.7162,0.9371,-0.7295
131351.0,1.8459,-1.1492,-7.1299,-0.3528,1.9837,-0.8067
131361.0,0.2969,-0.7159,-4.8794,0.1192,3.0368,-0.8056
131371.0,-1.2354,-0.668,-1.6927,0.7221,4.0701,-0.7678
131381.0,-2.9856,-0.6632,2.8635,1.1792,4.888,-0.7849
131391.0,-4.6926,0.2777,7.58,1.4628,5.3461,-0.8636
131401.0,-6.1746,1.6209,12.6893,1.5389,5.5239,-0.9514
131411.0,-7.5346,3.2226,17.5806,1.3909,5.344,-1.0158
131421.0,-8.406,4.9584,21.7872,0.9722,4.7374,-1.0483
131431.0,-9.0956,6.1818,25.2612,0.4656,3.9116,-1.002
131441.0,-9.4762,6.8091,27.7799,0.1011,3.0171,-0.8642
131451.0,-9.7037,6.6726,29.3481,-0.1171,2.0752,-0.6705
131461.0,-9.4116,6.3207,29.9156,-0.2091,1.0594,-0.4794
131471.0,-9.4619,6.3446,28.6179,-0.157,0.0447,-0.2916
131481.0,-9.0932,5.9903,26.0968,-0.1298,-0.9094,-0.1027
131491.0,-8.3294,5.4396,22.6061,-0.1091,-1.6554,0.0676
131501.0,-7.5322,4.7788,19.0985,-0.19,-2.1274,0.19
131511.0,-6.7062,3.8116,16.4769,-0.4342,-2.4174,0.2538
131521.0,-5.7892,2.7557,14.6142,-0.671,-2.5446,0.273
131531.0,-5.0422,2.0423,13.6565,-0.8365,-2.5855,0.2559
131541.0,-4.4819,1.5778,12.9861,-0.9227,-2.6654,0.2336
131551.0,-3.8571,1.0846,12.1985,-0.9386,-2.8271,0.2325
131561.0,-3.1053,0.5411,10.9559,-0.854,-3.0219,0.2501
131571.0,-2.4541,0.079,9.0261,-0.721,-3.2086,0.274
131581.0,-1.5179,-0.6584,6.4548,-0.6194,-3.3587,0.2959
131591.0,-0.2897,-1.494,3.4668,-0.5928,-3.3981,0.2762
131601.0,1.0175,-1.9824,0.0766,-0.6518,-3.2608,0.2017
131611.0,2.1237,-2.478,-2.6312,-0.8642,-2.9266,0.0782
131621.0,3.1627,-2.7318,-4.8626,-1.0876,-2.4126,-0.0692
131631.0,3.5913,-2.6719,-6.3039,-1.2547,-1.7448,-0.2155
131641.0,3.8259,-2.7102,-7.039,-1.3595,-1.028,-0.3161
131651.0,3.7086,-3.4285,-6.9647,-1.3117,-0.2895,-0.3698
131681.0,3.1915,-6.5625,-4.707,0.3118,2.3434,-0.7418
131691.0,1.0654,-5.6096,-1.8459,0.9695,3.3619,-1.0664
131701.0,-1.0008,-3.2226,1.5131,1.3893,4.1255,-1.3883
131711.0,-2.9449,-0.4717,5.5186,1.4287,4.5559,-1.6272
131721.0,-4.6783,1.9393,9.7037,1.2106,4.7374,-1.7358
131731.0,-6.3111,4.4197,14.054,0.903,4.6954,-1.7214
131741.0,-7.9344,6.5457,18.0331,0.6811,4.4969,-1.5591
131751.0,-9.0788,7.4675,22.2972,0.5944,4.1989,-1.2686
131761.0,-9.9647,7.7045,25.9651,0.6822,3.7764,-0.9264
131771.0,-10.6111,8.8825,28.9842,0.5002,2.9979,-0.629
131781.0,-9.8545,7.5681,29.4223,0.1086,1.8241,-0.3778
131791.0,-9.6007,8.6838,25.8933,-0.1681,0.8205,-0.1921
131801.0,-8.4587,6.1387,24.5645,-1.0312,-0.1399,-0.0782
131811.0,-8.1427,5.375,21.5885,-1.6352,-0.9365,-0.0484
131821.0,-8.1834,5.0757,18.6987,-1.9177,-1.3558,0.0011
131831.0,-7.5082,4.3694,16.441,-1.9789,-1.5905,0.1043
131841.0,-6.8809,3.9911,13.7523,-1.7698,-1.6219,0.2405
131851.0,-6.1938,3.711,11.9231,-1.5947,-1.5181,0.3581
131861.0,-5.6814,3.4955,10.307,-1.4638,-1.3622,0.4778
131871.0,-5.0159,2.8228,9.596,-1.4431,-1.1792,0.5917
131881.0,-4.3455,1.6855,9.6438,-1.4761,-1.0014,0.6806
131891.0,-3.9624,0.2753,10.6015,-1.4447,-0.8317,0.7311
131901.0,-3.881,-0.6776,11.1618,-1.3819,-0.8338,0.7221
131911.0,-3.3686,-2.1452,11.9566,-1.3356,-0.9679,0.6678
131921.0,-2.9042,-3.1412,11.9997,-1.1249,-1.0493,0.5582
131931.0,-2.8395,-3.486,12.4882,-0.9966,-1.1201,0.3645
131941.0,-2.8922,-3.0382,13.0101,-0.9445,-1.2898,0.1405
131951.0,-3.0287,-2.1165,13.2351,-0.9216,-1.5426,-0.0506
131961.0,-3.0646,-1.1157,13.2663,-0.8732,-1.8028,-0.1602
131971.0,-3.237,-0.2466,13.2495,-0.7721,-2.0332,-0.1799
131981.0,-3.3255,0.2155,13.362,-0.63,-2.2583,-0.1235
131991.0,-3.4572,0.407,13.2639,-0.4353,-2.4834,-0.0154
132001.0,-3.5841,0.2035,12.979,-0.298,-2.7798,0.1075
132011.0,-3.486,-0.6009,12.3517,-0.2219,-3.1373,0.2251
132021.0,-3.2058,-1.324,10.9942,-0.165,-3.5125,0.2927
132031.0,-2.8515,-1.6544,9.0046,-0.2011,-3.8653,0.2879
132041.0,-2.32,-1.5658,6.4667,-0.3166,-4.1052,0.2501
132051.0,-1.6879,-1.4293,4.2856,-0.4901,-4.1452,0.2011
132061.0,-0.6776,-1.6281,3.292,-0.5944,-3.9472,0.1618
132071.0,-0.0311,-1.549,2.6767,-0.5571,-3.6061,0.1336
132081.0,0.3759,-1.6999,2.3535,-0.5986,-3.3539,0.1101
132091.0,1.233,-2.4804,2.0327,-0.7354,-3.2283,0.0857
132101.0,2.0949,-3.2322,2.0399,-0.7396,-3.0176,0.0282
132111.0,2.5714,-3.1364,2.1644,-0.4954,-2.6952,-0.05
132121.0,2.6456,-2.2601,1.9417,-0.1378,-2.4137,-0.1016
132131.0,3.0574,-1.1372,1.3096,0.1644,-2.188,-0.0926
132141.0,3.5051,-0.1437,0.4022,0.3246,-1.956,-0.0192
132151.0,3.8595,0.1197,0.0982,0.3512,-1.6597,0.1117
132161.0,4.1468,-0.3974,0.2801,0.3294,-1.3191,0.2602
132171.0,4.7118,-1.3791,1.0343,0.2426,-1.0211,0.3634
132181.0,4.8243,-2.2027,1.743,0.1304,-0.8099,0.3932
132191.0,4.853,-2.8706,2.6121,0.0261,-0.6917,0.3709
132201.0,4.9632,-3.043,3.1364,0.0931,-0.5944,0.3203
132211.0,4.9392,-2.6336,3.3734,0.356,-0.4539,0.2831
132221.0,4.7956,-2.1404,3.3639,0.6811,-0.2708,0.2841
132231.0,4.8363,-1.9417,3.2394,0.9019,-0.1336,0.3044
132241.0,4.9991,-2.0231,2.8539,0.994,-0.0372,0.3124
132251.0,5.1715,-2.3128,2.1931,0.9924,0.0984,0.2826
132261.0,5.3678,-2.5594,1.482,0.9041,0.273,0.2065
132271.0,5.4588,-2.5307,1.4772,0.8498,0.6337,0.1016
132281.0,4.7669,-1.6328,2.2984,0.895,1.1334,0.0011
132291.0,3.8618,-0.5435,3.6464,0.9035,1.4777,-0.0463
132301.0,3.4836,0.486,4.6855,0.9349,1.6666,-0.0037
132311.0,2.9592,1.2522,5.8634,0.9833,1.8395,0.1155
132321.0,2.4205,1.5419,6.7205,0.903,1.798,0.2708
132331.0,2.557,1.2378,6.3805,0.6582,1.45,0.4193
132341.0,2.7414,0.5363,4.7214,0.5917,1.2148,0.5465
132351.0,2.9329,-0.4381,2.3008,0.795,1.3739,0.6417
132361.0,2.8276,-1.3264,0.1915,0.9509,1.74,0.6247
132371.0,2.5355,-1.1851,-2.0087,0.912,2.1338,0.4826
132381.0,1.5874,0.0096,-3.1173,0.812,2.7356,0.3161
132391.0,0.0,2.4181,-3.8211,0.8514,3.5737,0.2597
132401.0,-1.7765,4.1515,-3.7804,0.5859,4.2346,0.356
132411.0,-3.0239,4.9392,-4.3383,0.0697,4.6044,0.5726
132421.0,-5.6431,5.1547,-6.1699,-0.2932,5.1216,0.8684
132431.0,-8.655,3.7158,-6.3303,-0.1362,6.3258,1.2271
132441.0,-12.5839,0.7614,-2.4756,0.5188,8.1642,1.5186
132451.0,-17.2598,-1.968,4.5969,1.1935,9.7781,1.5591
132461.0,-20.0443,-4.4149,13.8289,1.6868,10.738,1.3452
132471.0,-21.7513,-5.636,24.2461,2.154,11.152,0.9424
132481.0,-22.3834,-4.0175,33.2172,2.113,10.5401,0.3528
132491.0,-21.227,-2.4157,39.715,0.9887,8.6271,-0.2714
132501.0,-19.9293,0.1125,41.3718,-0.5811,6.197,-0.7939
132511.0,-20.1496,2.4852,41.9775,-2.054,3.9807,-1.0754
132521.0,-20.2478,1.3838,43.189,-2.3413,2.3902,-0.8876
132531.0,-19.5439,-0.7973,40.7278,-1.3234,1.1345,-0.4885
132541.0,-17.0347,-2.6145,37.1365,-0.2442,-0.1463,-0.3033
132551.0,-15.7179,-1.1205,30.325,0.5545,-1.0733,-0.331
132561.0,-15.0069,-0.972,27.5956,0.281,-1.7964,-0.4816
132571.0,-13.8361,0.2083,23.3937,-0.2171,-2.5509,-0.6747
132581.0,-13.1514,0.5171,21.7465,-0.9631,-3.1246,-0.8679
132591.0,-12.6797,1.3695,19.9317,-1.3393,-3.6024,-0.9807
132601.0,-12.572,2.296,18.7155,-1.3899,-4.018,-0.9855
132611.0,-12.2679,3.2058,16.8288,-1.0813,-4.4144,-0.8567
132621.0,-11.3461,3.6966,14.2263,-0.6173,-4.7518,-0.6327
132631.0,-10.1993,3.7565,11.5257,-0.2373,-4.9651,-0.3794
132641.0,-9.3422,3.2489,9.6486,-0.0298,-5.0146,-0.1336
132651.0,-8.6239,2.8994,7.7285,-0.0564,-5.1083,0.0559
132661.0,-7.7979,2.3248,6.1028,-0.3225,-5.2791,0.1868
132671.0,-6.9552,1.3647,4.7836,-0.5412,-5.2903,0.2879
132681.0,-6.031,0.3089,3.9193,-0.6848,-5.1876,0.3374
132691.0,-5.0973,-0.8906,3.3591,-0.7891,-5.0992,0.3294
132701.0,-3.9217,-1.9225,2.9305,-0.7859,-4.9449,0.2671
132711.0,-3.0023,-3.3567,3.3184,-0.704,-4.6608,0.1788
132721.0,-2.569,-4.5849,3.5817,-0.6465,-4.4878,0.0064
132731.0,-1.8411,-4.3072,3.0454,-0.7444,-4.5969,-0.2857
132741.0,-1.1349,-3.3399,1.81,-0.7657,-4.5916,-0.5417
132751.0,-0.6416,-2.3176,1.1085,-0.6566,-4.3138,-0.6933
132761.0,-0.2729,-1.4293,0.7877,-0.5082,-3.9807,-0.7636
132771.0,0.3376,-1.0104,0.6129,-0.3906,-3.7083,-0.7748
132781.0,1.2522,-1.0558,0.3687,-0.2772,-3.438,-0.7652
132791.0,2.1069,-0.7518,0.2945,-0.1447,-3.0996,-0.7785
132801.0,2.4924,-0.1437,0.5866,-0.0043,-2.7138,-0.8003
132811.0,2.9425,0.6871,0.9313,0.1916,-2.3237,-0.7886
132821.0,3.1029,1.834,0.9385,0.3347,-1.9571,-0.7253
132831.0,3.4548,2.6145,1.312,0.3331,-1.6171,-0.6061
132841.0,4.0989,3.201,2.0231,0.3177,-1.2425,-0.4198
132851.0,3.8762,3.4716,3.3662,0.2895,-0.8711,-0.1809
132861.0,3.565,3.0933,4.9392,0.2416,-0.6556,0.091
132871.0,3.8906,2.1189,6.3159,0.2613,-0.5678,0.3523
132881.0,4.0893,1.2258,6.9264,0.3384,-0.572,0.5566
132891.0,3.9863,0.3112,7.276,0.2964,-0.6928,0.6854
132901.0,3.8714,-0.3472,7.6207,0.2847,-0.828,0.7556
132911.0,3.6871,-0.5626,7.3334,0.3661,-0.9727,0.8056
132921.0,3.5913,-0.7733,6.6894,0.423,-1.1701,0.8466
132931.0,4.1492,-1.0678,5.5091,0.5608,-1.2957,0.9025
132941.0,4.5011,-1.6688,4.2258,0.7359,-1.2787,0.9567
132951.0,4.4317,-2.4373,2.8299,0.837,-1.2239,0.9663
132961.0,4.5131,-3.158,0.091,0.7343,-1.235,0.9003
132971.0,5.2457,-4.2904,-3.1939,0.0894,-1.3814,0.7072
132981.0,6.2441,-5.3343,-6.0885,-0.7434,-1.4021,0.3783
132991.0,5.5593,-4.7908,-9.6486,-1.2606,-1.1579,-0.0059
133001.0,4.1899,-2.4301,-14.6645,-1.4479,-0.8333,-0.3081
133011.0,4.5873,0.3639,-20.4082,-1.0988,-0.1868,-0.3602
133021.0,4.5035,3.8092,-27.4974,-0.0011,1.0605,-0.1309
133031.0,0.1077,5.7748,-35.9298,1.1573,2.5983,0.273
133041.0,-2.6169,6.0549,-42.4372,1.814,4.2516,0.6135
133051.0,-10.1299,5.691,-47.319,2.5376,6.8036,0.8865
133061.0,-18.998,3.8211,-44.2808,2.9138,9.868,0.9546
133071.0,-30.0089,2.1141,-33.4805,3.0112,12.8324,0.8067
133081.0,-39.794,-1.5706,-15.7922,3.3316,15.2477,0.5843
133091.0,-46.3541,-5.2218,1.3336,4.6294,17.2133,0.1346
133101.0,-52.773,-2.4517,20.0347,6.1613,17.4357,-0.7263
133111.0,-56.982,6.5769,43.9097,6.1847,17.4357,-1.7804
133121.0,-54.3819,16.9509,54.9541,4.8119,15.6101,-2.4413
133131.0,-50.5153,20.3435,77.2441,3.1102,12.9969,-2.4791
133141.0,-49.639,23.468,78.4508,1.6357,7.8274,-1.8869
133151.0,-34.0767,24.6866,73.3655,1.4745,1.2978,-0.8253
133161.0,-30.8469,15.445,69.4414,0.7529,-2.5408,0.1266
133171.0,-26.9731,12.1266,45.1906,1.2318,-6.3039,0.8285
133181.0,-21.6963,6.3662,29.3409,0.4981,-8.0514,0.9546
133191.0,-15.6485,7.0653,12.0189,0.1575,-8.0104,0.7439
133201.0,-11.3964,7.2425,4.8171,-0.8168,-6.6009,0.4768
133211.0,-9.505,6.9576,3.9121,-1.5053,-4.8678,0.339
133221.0,-8.4659,6.1172,4.9632,-1.5431,-3.4795,0.3565
133231.0,-7.604,4.5562,7.6088,-1.2239,-2.6201,0.4576
133241.0,-6.6272,3.7876,7.9176,-0.6024,-2.1519,0.5832
133251.0,-5.5115,3.1412,8.1427,-0.5917,-2.1279,0.6045
133261.0,-4.5442,3.0023,7.5537,-0.9317,-2.278,0.5497
133271.0,-4.0414,2.6695,6.9073,-1.4484,-2.3972,0.4656
133281.0,-3.4141,1.6305,6.5434,-1.9587,-2.4616,0.3884
133291.0,-2.9664,0.3448,6.529,-2.212,-2.4078,0.3097
133301.0,-3.1173,-0.6393,6.8881,-2.0657,-2.2487,0.232
133311.0,-2.8946,-1.075,6.2465,-1.5107,-2.0476,0.1804
133321.0,-1.9992,-0.9481,4.8483,-0.9642,-1.8374,0.1096
133331.0,-1.3791,-0.6464,3.9935,-0.6455,-1.474,0.0282
133341.0,-1.3408,-0.0862,4.221,-0.5896,-1.0291,-0.0585
133351.0,-1.3503,0.1987,5.5929,-0.8179,-0.787,-0.1474
133361.0,-1.3192,0.5866,6.5841,-1.0541,-0.746,-0.2208
133371.0,-1.4389,0.9792,7.5202,-1.2026,-0.7402,-0.2581
133381.0,-1.834,1.3288,8.1307,-1.1744,-0.7077,-0.2315
133391.0,-2.0782,1.0989,8.8155,-1.0584,-0.6694,-0.1517
133401.0,-2.1548,0.5052,9.8881,-0.8179,-0.597,-0.0511
133411.0,-2.071,-0.0024,10.8194,-0.4566,-0.5465,0.0357
133421.0,-2.0566,-0.237,11.303,-0.1921,-0.6619,0.0692
133431.0,-1.913,-0.1437,10.908,-0.1096,-0.9259,0.0649
133441.0,-1.6448,-0.0072,10.3118,-0.2006,-1.1738,0.0415
133451.0,-1.5347,0.1748,9.6031,-0.3262,-1.3026,0.0229
133461.0,-1.5467,0.1101,9.3853,-0.4108,-1.2781,0.0266
133471.0,-1.4581,-0.1939,9.5098,-0.3954,-1.1552,0.0516
133481.0,-1.4174,-0.8116,10.1658,-0.3555,-1.0238,0.0607
133491.0,-1.4317,-1.2378,11.2791,-0.323,-0.9642,0.0266
133501.0,-1.5227,-1.3384,12.8712,-0.2469,-0.9738,-0.0346
133511.0,-1.8028,-0.7829,13.793,-0.1155,-1.1494,-0.0905
133521.0,-1.834,-0.0479,13.9965,-0.1101,-1.5527,-0.132
133531.0,-1.6592,0.7757,12.9598,-0.1543,-2.0311,-0.1277
133541.0,-1.2809,1.2522,11.3413,-0.1799,-2.3769,-0.0692
133551.0,-0.929,1.573,9.3805,-0.1501,-2.5025,0.0208
133561.0,-0.4621,1.549,7.8195,-0.149,-2.4467,0.1245
133571.0,0.3304,0.9242,6.8809,-0.1783,-2.2381,0.2219
133581.0,0.668,0.3472,6.4117,-0.2799,-1.9928,0.2618
133591.0,0.9122,-0.3496,6.8426,-0.4576,-1.8055,0.2474
133601.0,1.2785,-0.6512,6.9599,-0.4688,-1.6485,0.2171
133611.0,1.5897,-0.6656,7.1108,-0.3778,-1.4702,0.1772
133621.0,1.6568,-0.3472,7.3239,-0.2373,-1.2797,0.157
133631.0,1.5012,0.0814,7.4675,-0.1453,-1.1701,0.1602
133641.0,1.5658,0.3783,7.3095,-0.1485,-1.1935,0.1846
133651.0,1.7406,0.3041,6.9959,-0.1703,-1.2265,0.2336
133661.0,1.9776,-0.1077,6.1196,-0.1825,-1.1973,0.2911
133671.0,2.138,-0.9649,5.5952,-0.3347,-1.1722,0.307
133681.0,2.4924,-1.8028,5.2265,-0.4842,-1.1334,0.2687
133691.0,2.8563,-2.308,4.6783,-0.5013,-1.0014,0.2038
133701.0,3.0526,-2.8347,4.4819,-0.4246,-0.7806,0.1336
133711.0,3.3136,-3.0813,4.5633,-0.2645,-0.5087,0.0521
133721.0,3.292,-3.1316,5.3367,-0.0724,-0.2496,-0.0378
133731.0,3.1029,-2.8467,5.8826,0.1783,-0.1038,-0.1107
133741.0,3.1484,-2.5857,6.0908,0.4001,-0.0958,-0.1655
133751.0,3.2753,-2.1404,5.6312,0.5917,-0.1554,-0.2011
133761.0,3.0335,-1.8555,4.6567,0.6774,-0.2421,-0.2139
133771.0,2.8587,-1.4676,2.6025,0.5875,-0.4305,-0.2171
133781.0,3.3064,-1.3886,-1.4245,0.1107,-0.7913,-0.2347
133791.0,4.0175,-2.047,-7.4579,-0.7263,-1.0738,-0.274
133801.0,4.5753,-2.5091,-14.6334,-1.8087,-1.0472,-0.3884
133811.0,4.877,-2.5091,-22.1248,-2.8601,-0.6306,-0.5316
133821.0,2.6959,-1.3001,-29.0584,-3.4061,0.5204,-0.5843
133831.0,0.249,-0.4741,-33.6505,-2.9548,2.2391,-0.4432
133841.0,-5.0589,0.9026,-37.6895,-1.1627,4.7938,-0.1256
133851.0,-12.8281,0.1413,-36.7845,0.8679,7.7933,0.1979
133861.0,-22.3666,-0.9601,-30.9498,3.2054,11.3553,0.3038
133871.0,-35.1277,-1.6831,-17.5878,4.8848,14.6235,-0.008
133881.0,-42.8945,-0.9864,-1.6568,6.0624,16.9238,-0.6619
133891.0,-49.3421,5.0709,16.4889,6.6158,17.4357,-1.5123
133901.0,-52.2127,11.4227,42.4157,5.3286,17.4357,-2.3062
133911.0,-39.9209,19.6061,74.8715,2.9059,14.2031,-2.6451
133921.0,-41.2832,17.4896,71.4023,0.9658,11.1132,-2.4403
133931.0,-37.0527,13.0173,77.0215,-1.0515,4.988,-1.9906
133941.0,-32.5683,11.9327,67.6601,-1.0451,-0.4459,-1.2755
133951.0,-29.0441,9.7875,56.3643,-0.0037,-3.8685,-0.4603
133961.0,-24.2916,9.6845,35.7023,1.5543,-6.0065,0.3187
133971.0,-19.5151,6.5505,22.6755,1.5543,-6.7765,0.7019
133981.0,-14.5208,5.7844,10.2951,1.4144,-6.3976,0.7918
133991.0,-11.5544,4.2401,4.9297,0.456,-5.2711,0.6327
134001.0,-10.003,4.2306,2.5977,-0.6965,-4.1893,0.3544
134011.0,-8.8322,2.8491,4.6256,-1.6277,-3.1836,0.1314
134021.0,-7.9296,2.2218,7.0749,-1.8145,-2.3785,0.0074
134031.0,-7.6543,0.929,11.0253,-1.4053,-1.7528,-0.0074
134041.0,-7.3526,0.8547,12.5935,-0.6886,-1.6735,0.0027
134051.0,-6.8378,0.9744,13.1106,-0.306,-2.0641,-0.016
134061.0,-6.2991,1.3264,11.9303,-0.1469,-2.5839,-0.0223
134071.0,-5.7892,1.3527,10.1682,-0.2384,-3.033,-0.0266
134081.0,-5.2577,1.4317,8.0565,-0.5236,-3.3912,-0.0569
134091.0,-4.7166,1.6041,5.9879,-0.8604,-3.579,-0.0915
134101.0,-4.0534,1.4844,4.4221,-1.0924,-3.537,-0.0937
134111.0,-3.4477,1.1277,3.2992,-1.1398,-3.2491,-0.0676
134121.0,-3.0143,0.1006,3.2968,-1.0972,-2.7904,-0.0298
134131.0,-2.715,-1.2234,4.3287,-1.0126,-2.3631,-0.0309
134141.0,-2.4708,-1.9992,5.6431,-0.9009,-2.1199,-0.1192
134151.0,-2.3583,-2.1308,6.6343,-0.6907,-1.9991,-0.248
134161.0,-2.2721,-1.5682,7.1084,-0.3911,-1.9417,-0.365
134171.0,-2.1308,-0.656,7.3287,-0.1107,-1.9119,-0.4401
134181.0,-1.834,0.2777,7.3909,0.0623,-1.9012,-0.456
134191.0,-1.8603,0.8571,7.7141,0.1054,-1.8645,-0.4135
134201.0,-1.7214,1.1516,8.023,-0.033,-1.9662,-0.3629
134211.0,-1.4222,0.9146,8.1499,-0.2575,-2.1582,-0.3182
134221.0,-0.9361,0.3783,7.9799,-0.3815,-2.2583,-0.2873
134231.0,-0.8859,0.0479,8.1092,-0.4933,-2.2923,-0.2975
134241.0,-0.8667,-0.1006,8.6694,-0.5337,-2.3503,-0.3198
134251.0,-0.723,0.1245,8.418,-0.3847,-2.4339,-0.3209
134261.0,-0.5602,0.6512,7.8578,-0.1676,-2.4961,-0.298
134271.0,-0.0622,1.2498,7.0701,0.0708,-2.4924,-0.2246
134281.0,0.4669,1.4605,6.2968,0.3012,-2.3871,-0.1027
134291.0,0.9697,1.3001,5.1739,0.4097,-2.2503,0.0229
134301.0,1.7238,0.486,4.6064,0.2996,-2.1109,0.1011
134311.0,2.4277,-0.3639,4.4532,0.1219,-1.9252,0.0958
134321.0,2.7821,-0.8164,4.7501,-0.0149,-1.6788,0.0202
134331.0,2.8228,-0.8332,5.4253,-0.0846,-1.4628,-0.0835
134341.0,2.8419,-0.5267,5.9783,-0.0692,-1.3638,-0.1719
134351.0,3.213,-0.1844,6.1411,0.0734,-1.3085,-0.2017
134361.0,3.6272,-0.0503,5.8538,0.3193,-1.1951,-0.1846
134371.0,3.9361,0.2394,5.4564,0.5507,-1.0578,-0.1644
134381.0,3.9983,0.7135,4.7214,0.7019,-0.9232,-0.1442
134391.0,4.2713,0.9002,4.64,0.7742,-0.7061,-0.1144
134401.0,4.2713,0.9002,4.64,0.7742,-0.7061,-0.1144
134411.0,4.1492,1.3408,4.8483,0.8599,-0.39,-0.0772
134421.0,3.7996,1.5467,6.3446,0.8642,-0.1208,-0.033
134431.0,3.6296,1.889,7.2042,0.8801,-0.049,0.0293
134441.0,3.3902,2.0159,7.525,0.7279,-0.2043,0.0889
134451.0,3.5985,1.7765,7.2042,0.4794,-0.4853,0.1421
134461.0,4.0366,1.3791,6.2321,0.3432,-0.6662,0.1783
134471.0,4.2306,1.4389,4.1683,0.3017,-0.712,0.1905
134481.0,4.3311,1.8435,0.1796,-0.0708,-0.8578,0.1735
134491.0,4.9416,1.5826,-5.4827,-1.0903,-1.144,0.1176
134501.0,5.0996,1.0798,-11.0947,-2.2013,-1.0275,0.0644
134511.0,4.2018,1.664,-18.2295,-2.9665,-0.5007,0.075
134521.0,4.0223,2.6001,-26.2692,-3.2246,0.4363,0.2043
134531.0,1.5538,3.1603,-32.3528,-2.3636,2.3402,0.4895
134541.0,-3.0047,4.8722,-38.2474,-0.3757,5.2599,0.8663
134551.0,-14.0659,4.853,-35.0008,1.5884,9.2369,1.2281
134561.0,-25.7305,1.8364,-22.6228,3.0847,12.9862,1.3713
134571.0,-33.4422,-2.241,-4.7549,3.8067,15.617,1.0403
134581.0,-40.4022,-0.9505,15.1888,4.3085,17.4357,0.29
134591.0,-42.4636,2.806,38.3671,3.5513,17.2745,-0.6423
134601.0,-27.1048,6.9719,45.3294,1.4638,14.1345,-1.3808
134611.0,-41.0318,8.4659,72.2426,-0.5044,12.6478,-1.789
134621.0,-36.8396,12.3253,73.4637,-1.441,6.4588,-1.632
134631.0,-31.6609,9.924,76.3942,-2.7053,0.8902,-1.1691
134641.0,-28.1367,12.9718,59.6994,-0.804,-2.709,-0.1229
134651.0,-26.1112,9.3541,46.426,-0.3235,-5.4052,0.8115
134661.0,-23.0897,4.367,31.9027,-0.2198,-7.5448,1.4346
134671.0,-18.2295,0.5698,16.5368,0.1905,-8.2126,1.7608
134681.0,-14.0372,-2.2817,6.687,0.2192,-7.5517,1.723
134691.0,-10.1993,-2.4229,-1.719,-0.0702,-6.3332,1.4431
134701.0,-7.1323,-3.2489,-3.2537,-1.1137,-4.9566,0.9903
134711.0,-5.5138,-3.5003,-2.0351,-1.6889,-3.5135,0.5593
134721.0,-4.9608,-3.4716,1.7645,-1.8454,-2.304,0.1884
134731.0,-4.7621,-2.6671,6.4069,-1.6682,-1.6767,-0.0963
134741.0,-4.549,-1.3527,9.098,-1.0536,-1.5112,-0.2214
134751.0,-4.0821,-0.4549,9.9695,-0.3837,-1.5958,-0.2277
134761.0,-3.5721,0.1389,9.596,0.0511,-1.798,-0.2001
134771.0,-2.9904,0.0718,9.4044,0.1596,-1.98,-0.1974
134781.0,-2.5953,0.5004,8.6143,0.0782,-2.1151,-0.2533
134791.0,-2.6432,1.2785,8.4324,-0.282,-2.2471,-0.3517
134801.0,-2.3056,2.2913,8.2576,-0.6886,-2.3871,-0.415
134811.0,-2.2793,2.9664,8.5353,-0.9951,-2.4568,-0.3991
134821.0,-2.3798,3.2848,8.4946,-1.1196,-2.519,-0.2969
134831.0,-2.308,2.8826,8.3055,-1.1861,-2.6568,-0.149
134841.0,-1.6903,1.8196,7.9392,-1.0855,-2.7702,0.0085
134851.0,-1.1516,0.7853,6.9528,-0.7758,-2.742,0.1394
134861.0,-0.407,-0.328,6.1818,-0.4853,-2.6228,0.1953
134871.0,0.0144,-0.8667,5.3582,-0.3044,-2.4743,0.1612
134881.0,0.4214,-0.8691,5.3486,-0.3235,-2.3259,0.0585
134891.0,0.8116,-0.0599,5.0757,-0.4017,-2.1987,-0.0511
134901.0,0.7805,0.8547,5.3678,-0.5901,-2.0885,-0.116
134911.0,0.8954,1.4102,5.8826,-0.7471,-2.0045,-0.0963
134921.0,0.9074,1.4724,6.3686,-0.7987,-1.9699,-0.0048
134931.0,1.154,0.9505,6.2513,-0.7455,-1.996,0.124
134941.0,1.7166,-0.0622,6.0023,-0.5779,-1.9433,0.2426
134951.0,2.229,-1.0894,5.794,-0.3272,-1.7485,0.3102
134961.0,2.4852,-1.8579,6.1986,-0.1469,-1.5245,0.2959
134971.0,2.6863,-1.7909,6.8714,-0.0591,-1.4085,0.2128
134981.0,2.7461,-1.2043,7.3574,-0.0186,-1.3915,0.1352
134991.0,2.7892,-0.5195,7.6902,0.0585,-1.3787,0.1197
135001.0,2.7054,0.1149,7.7093,0.1022,-1.4096,0.1596
135011.0,2.727,0.2921,7.6183,0.0234,-1.549,0.2288
135021.0,2.9712,0.1077,6.9456,-0.0825,-1.7251,0.3113
135031.0,3.3064,-0.3496,6.031,-0.1884,-1.8464,0.3778
135041.0,3.6344,-1.0367,5.1356,-0.2081,-1.8528,0.4236
135111.0,4.4628,-2.3296,5.023,0.6699,-0.7673,0.2214
135121.0,4.4365,-2.3343,5.1811,0.6593,-0.6949,0.1352
135131.0,4.3144,-2.2649,5.1499,0.6625,-0.6981,0.0351
135141.0,4.3622,-2.0494,4.5035,0.7652,-0.7226,-0.0521
135151.0,4.5298,-1.7238,3.5123,1.0073,-0.6481,-0.1117
135161.0,4.8411,-1.2857,2.3607,1.3319,-0.4459,-0.1479
135171.0,4.9321,-0.328,1.3168,1.6049,-0.199,-0.1745
135181.0,4.6471,0.8332,-0.3448,1.6017,-0.0633,-0.1735
135191.0,4.4652,1.3886,-2.5929,1.1951,-0.0575,-0.1383
135201.0,4.4772,1.7214,-6.4332,0.4986,-0.0873,-0.0963
135211.0,4.5777,1.403,-11.6047,-0.5513,-0.0686,-0.0724
135221.0,4.1372,0.9385,-16.0747,-1.5463,0.3602,-0.0623
135231.0,2.387,2.1859,-20.3028,-1.806,1.4314,0.0021
135241.0,0.1053,3.371,-22.8407,-1.6203,2.6989,0.199
135251.0,-2.5929,4.9273,-26.8438,-0.4353,4.3394,0.572
135261.0,-7.7931,5.2553,-29.6187,1.2893,6.6397,1.0248
135271.0,-15.7969,3.1125,-27.7727,2.8175,9.3838,1.3622
135281.0,-24.4017,-0.8882,-19.3763,3.8674,12.3067,1.3377
135291.0,-30.7463,-6.3973,-4.1539,4.2122,14.5533,0.7843
135301.0,-36.6456,-6.4572,11.5975,4.4266,16.0123,-0.2618
135311.0,-39.5043,-1.6951,31.2252,3.5806,15.7122,-1.5245
135321.0,-38.5682,7.4388,45.2001,2.4818,13.3709,-2.386
135331.0,-29.4367,13.374,44.8769,1.1563,9.6552,-2.5116
135341.0,-32.9658,15.4809,53.1609,0.5667,7.8625,-2.0465
135351.0,-28.4551,18.0068,46.4667,0.9355,4.7837,-1.1845
135361.0,-25.12,11.9638,48.9758,0.588,2.8207,-0.3246
135371.0,-21.974,9.323,42.8538,1.9795,1.7304,0.4879
135381.0,-20.0419,4.774,39.9975,2.0518,0.4629,0.8328
135391.0,-17.4058,1.4006,35.4869,1.4537,-1.2404,0.7551
135401.0,-15.184,0.9337,29.9682,0.8966,-2.5004,0.4299
135411.0,-14.0396,1.1899,25.618,0.3863,-3.2517,0.0803
135421.0,-13.1825,2.5091,19.9964,-0.0745,-3.9467,-0.1921
135431.0,-11.6238,2.4876,16.5104,-0.6886,-4.5496,-0.3783
135441.0,-9.8138,2.9928,11.6358,-0.5859,-4.6602,-0.4198
135451.0,-8.3653,3.3734,7.6279,-0.2618,-4.2644,-0.3757
135461.0,-7.0797,3.1149,5.5426,-0.0697,-3.6774,-0.3044
135471.0,-6.2321,2.7438,4.8866,0.0447,-3.0714,-0.2543
135481.0,-5.8299,2.8299,5.217,0.108,-2.5568,-0.2421
135491.0,-5.5522,3.3255,5.5905,0.0862,-2.2535,-0.2453
135501.0,-5.2864,3.9313,5.8778,-0.0713,-2.1561,-0.2474
135511.0,-4.6735,4.13,6.0693,-0.2857,-2.1136,-0.2187
135521.0,-4.0965,3.8164,6.3973,-0.5108,-2.0561,-0.1809
135531.0,-3.8068,3.3591,7.0054,-0.7519,-2.0438,-0.166
135541.0,-3.6105,2.7246,8.1139,-0.9174,-2.0997,-0.166
135551.0,-3.371,2.1548,8.6862,-0.8594,-2.2178,-0.1602
135561.0,-3.0287,1.9656,8.2791,-0.671,-2.411,-0.1666
135571.0,-2.6073,2.2027,6.7828,-0.4768,-2.5839,-0.1793
135581.0,-2.296,2.6049,5.636,-0.3539,-2.5674,-0.182
135591.0,-2.0087,3.0526,4.7573,-0.2022,-2.3509,-0.1517
135601.0,-1.8292,3.2417,4.5873,-0.116,-2.0348,-0.0968
135611.0,-1.2617,3.0861,5.6455,-0.0607,-1.6336,-0.0335
135621.0,-1.5275,3.213,7.3047,-0.0245,-1.259,0.0165
135631.0,-1.8172,3.0837,9.6414,-0.1506,-1.1696,0.0601
135641.0,-1.6568,2.8204,11.0349,-0.2528,-1.3361,0.1128
135651.0,-1.7741,2.6528,11.5903,-0.4012,-1.6362,0.1485
135661.0,-1.9082,2.2482,12.0093,-0.5837,-2.0156,0.1783
135671.0,-1.652,1.7478,11.5329,-0.5247,-2.3333,0.2299
135681.0,-1.4341,1.6017,10.228,-0.2847,-2.5004,0.2815
135691.0,-0.8332,1.2067,9.4308,-0.066,-2.4903,0.3267
135701.0,-0.3879,1.2641,8.3582,0.0537,-2.4115,0.3379
135711.0,-0.0551,1.2833,7.8769,-0.1368,-2.4238,0.2937
135721.0,0.5435,1.3312,6.7612,-0.4374,-2.5004,0.2426
135731.0,1.1301,0.8643,6.098,-0.8157,-2.4812,0.1857
135741.0,1.6161,0.3041,6.1675,-1.0525,-2.336,0.1176
135751.0,1.6496,0.2538,6.3446,-1.019,-2.1412,0.0559
135761.0,1.7621,0.1125,6.8426,-0.7955,-1.9651,0.0325
135771.0,2.1213,-0.1006,7.0485,-0.3645,-1.8065,0.0511
135781.0,2.4948,-0.0479,6.2872,0.0426,-1.7459,0.0639
135791.0,2.9856,-0.0024,5.1044,0.1958,-1.7879,0.0404
135801.0,3.6847,0.079,3.5458,0.191,-1.7778,-0.008
135811.0,4.2641,0.1341,2.1811,0.1277,-1.5798,-0.0665
135821.0,4.2545,0.1915,1.2977,0.0213,-1.2409,-0.133
135831.0,4.5203,-0.2203,1.4245,-0.1538,-0.886,-0.2033
135841.0,4.6615,-0.5435,1.6209,-0.2549,-0.5667,-0.2927
135851.0,4.8052,-0.3424,1.6328,-0.274,-0.307,-0.4065
135861.0,4.6232,0.4381,1.4293,-0.2517,-0.0591,-0.5119
135871.0,4.4293,1.5802,1.0319,-0.1586,0.2384,-0.5534
135881.0,4.1396,2.7294,0.3089,-0.0756,0.5358,-0.5193
135891.0,3.6464,3.7469,-1.2546,-0.1884,0.705,-0.4326
135901.0,3.4405,4.5131,-3.9361,-0.506,0.8062,-0.3092
135911.0,2.7366,4.7214,-7.5585,-0.9711,1.0445,-0.1362
135921.0,2.1931,3.5985,-10.6422,-1.4415,1.5766,0.0915
135931.0,1.4413,2.2458,-13.4698,-1.7065,2.403,0.2873
135941.0,-0.2825,1.0104,-16.3213,-1.7251,3.4108,0.422
135951.0,-3.5865,-0.091,-17.5351,-1.3223,4.9827,0.5204
135961.0,-7.3765,-1.5107,-14.8752,-0.4768,7.2293,0.5683
135971.0,-13.2782,-3.2274,-5.9903,0.3086,9.4136,0.4523
135981.0,-18.2175,-2.7102,4.4628,1.1377,10.9009,0.1788
135991.0,-21.9309,-0.4238,17.0874,1.8039,11.549,-0.1458
136001.0,-22.4265,3.1388,27.5333,2.3291,11.2196,-0.364
136011.0,-22.7593,6.2153,36.8252,2.2844,10.0984,-0.4491
136021.0,-20.9134,6.8402,44.3262,1.4761,7.9237,-0.4464
136031.0,-19.0698,6.5769,46.4164,0.8088,5.4877,-0.348
136041.0,-18.1385,5.7628,45.9543,0.2293,3.2619,-0.2623
136051.0,-17.4944,5.1188,43.8785,-0.1197,1.1068,-0.1681
136061.0,-16.2207,3.9217,38.8052,-0.5055,-1.2505,-0.0777
136071.0,-14.6262,2.7294,32.0296,-0.4959,-2.8825,0.0277
136081.0,-13.0316,2.4277,23.3219,-0.2128,-3.7072,0.1171
136091.0,-10.9918,1.5945,16.9725,-0.4225,-4.059,0.0958
136101.0,-9.1195,1.494,11.5903,-0.745,-3.9775,0.0043
136111.0,-7.6686,1.1708,9.2081,-1.0977,-3.5045,-0.1022
136121.0,-6.7804,1.3216,8.1954,-1.2457,-2.9272,-0.1788
136131.0,-6.3255,1.0511,9.1363,-1.2574,-2.4573,-0.2027
136141.0,-5.7461,1.1636,9.584,-0.9535,-2.1556,-0.1708
136151.0,-5.442,1.4461,9.8928,-0.5864,-1.9991,-0.1054
136161.0,-5.0542,1.6735,9.3398,-0.34,-2.0428,-0.0165
136171.0,-4.5346,1.4653,8.1738,-0.3709,-2.229,0.0511
136181.0,-3.8379,1.0798,7.0198,-0.5497,-2.3881,0.0734
136191.0,-3.2633,0.5411,5.8083,-0.6178,-2.3322,0.0857
136201.0,-2.5546,-0.6704,5.5929,-0.5821,-2.0603,0.0814
136211.0,-2.2505,-1.4605,5.6312,-0.4965,-1.773,0.0037
136221.0,-1.8507,-2.1213,6.1962,-0.4864,-1.5708,-0.1485
136231.0,-1.5131,-2.0446,6.6248,-0.4427,-1.3936,-0.3464
136241.0,-1.6664,-1.3527,7.5298,-0.3895,-1.201,-0.5438
136251.0,-1.8459,-0.2921,8.497,-0.3108,-1.0509,-0.6848
136261.0,-2.0327,0.759,9.8857,-0.2799,-0.9786,-0.7588
136271.0,-2.0806,1.6065,11.4658,-0.2469,-0.9844,-0.7604
136281.0,-2.6001,2.5833,12.5815,-0.2921,-1.1792,-0.7162
136291.0,-2.8443,3.043,13.5823,-0.5412,-1.6448,-0.6375
136301.0,-2.7869,3.1987,13.6398,-0.646,-2.1588,-0.4997
136311.0,-2.6528,2.9664,13.113,-0.5156,-2.527,-0.3097
136321.0,-2.5738,2.6025,11.8872,-0.2708,-2.817,-0.1054
136331.0,-2.0327,1.9896,10.6087,-0.042,-3.0378,0.0819
136341.0,-1.2881,1.4461,8.995,0.1628,-3.1134,0.2325
136351.0,-1.0343,1.2139,7.4986,0.157,-3.1395,0.3166
136361.0,-0.5866,1.0127,6.0358,-0.1059,-3.2539,0.3448
136371.0,0.182,0.2945,4.1659,-0.4683,-3.3385,0.3528
136381.0,1.2067,-0.9385,2.6767,-0.7311,-3.2124,0.3299
136391.0,2.3296,-1.9776,1.3695,-0.7199,-2.8101,0.2629
136401.0,2.9904,-2.6647,0.589,-0.6087,-2.2535,0.1389
136411.0,3.4668,-2.9233,0.6608,-0.505,-1.7044,-0.033
136421.0,3.7373,-2.387,0.8643,-0.3586,-1.1919,-0.2059
136431.0,3.7709,-1.561,1.5706,-0.2139,-0.7263,-0.331
136441.0,3.7014,-0.6632,1.9345,-0.0607,-0.3576,-0.3815
136451.0,3.7828,-0.1724,2.2865,-0.0043,-0.0867,-0.3794
136461.0,3.9528,-0.0144,2.1668,-0.0096,0.1325,-0.3453
136471.0,4.1683,-0.1365,2.569,-0.0154,0.4252,-0.3171
136481.0,3.9648,-0.0024,3.2034,0.0841,0.8216,-0.2889
136491.0,3.5027,0.1389,4.7022,0.1687,1.1749,-0.2613
136501.0,3.0335,0.4932,6.0621,0.24,1.3564,-0.2293
136511.0,2.794,0.8332,6.8738,0.2921,1.3957,-0.1825
136521.0,2.5379,0.9673,7.4101,0.3437,1.4037,-0.124
136531.0,2.3894,0.9912,7.5896,0.3847,1.4,-0.0681
136541.0,2.1931,0.9912,7.6614,0.389,1.3643,-0.0335
136551.0,2.1835,1.1157,7.4891,0.4688,1.3617,-0.0053
136561.0,1.8938,1.7166,6.8594,0.6502,1.4676,0.025
136571.0,1.6305,2.6911,6.2489,0.7928,1.64,0.0692
136581.0,1.1349,3.9361,5.6479,0.7811,1.8326,0.1442
136591.0,0.5267,5.0182,5.3271,0.5321,1.9965,0.2698
136601.0,-0.2107,5.8299,4.3527,0.0037,2.0018,0.4502
136611.0,-0.6895,5.3798,1.6137,-0.9349,1.7411,0.68
136621.0,-1.2378,3.5243,-1.008,-1.9481,1.6176,0.9216
136631.0,-2.0494,1.1061,-2.7438,-2.0231,2.3972,1.21
136641.0,-4.5179,-1.5179,-0.8595,-1.1377,4.0047,1.4644
136651.0,-5.4636,-4.9991,4.4125,0.2613,5.6255,1.566
136661.0,-6.9145,-6.2991,8.327,1.6256,6.7163,1.3292
136671.0,-8.4827,-6.0525,13.1897,2.0556,7.1308,0.7482
136681.0,-10.0221,-3.8738,17.3651,1.8789,7.009,0.0623
136691.0,-11.0325,-1.6879,21.8806,1.2568,6.6019,-0.538
136701.0,-11.5808,-0.5483,28.2037,0.4805,6.0783,-0.9892
136711.0,-12.8138,1.4892,34.6872,-0.2347,5.1035,-1.3297
136721.0,-12.8784,2.9257,39.3296,-0.8285,3.4444,-1.483
136731.0,-13.2735,4.3527,40.7709,-0.911,1.5793,-1.4037
136741.0,-13.4363,5.6527,39.0542,-0.6662,-0.3794,-1.1408
136751.0,-13.0532,6.0406,34.4574,-0.2751,-2.2673,-0.7556
136761.0,-12.4163,6.1052,27.2747,0.232,-3.6758,-0.3251
136771.0,-11.0516,5.8514,19.8407,0.5704,-4.4777,0.0527
136781.0,-9.3063,5.6982,12.967,0.6173,-4.7252,0.3326
136791.0,-7.5537,4.9321,8.157,0.3219,-4.5373,0.5295
136801.0,-5.9352,3.5626,5.4348,-0.0511,-4.0451,0.6518
136811.0,-4.4317,1.5514,4.4029,-0.3241,-3.3975,0.7061
136821.0,-3.2609,-0.3041,4.8602,-0.4246,-2.7484,0.6534
136831.0,-2.5498,-1.1995,5.7892,-0.2879,-2.1912,0.5167
136841.0,-2.0039,-1.64,7.0701,-0.066,-1.7927,0.3437
136851.0,-1.5682,-1.47,7.9009,0.1793,-1.5522,0.1628
136861.0,-1.3024,-0.3448,8.1307,0.2277,-1.4883,-0.0319
136871.0,-1.1468,0.6297,8.5497,0.0192,-1.5548,-0.1884
136881.0,-0.7805,1.64,8.2696,-0.249,-1.6533,-0.2815
136891.0,-0.7374,2.2553,8.3414,-0.6008,-1.715,-0.3304
136901.0,-0.3903,2.2242,8.758,-0.8743,-1.7006,-0.3209
136911.0,-0.2346,1.5993,9.8378,-0.9716,-1.5644,-0.2804
136921.0,-0.7446,1.324,11.6286,-1.0014,-1.5096,-0.2586
136931.0,-0.8188,0.5219,14.1282,-0.8482,-1.6219,-0.2091
136941.0,-0.9864,0.8188,14.0492,-0.4512,-1.9326,-0.149
136951.0,-1.3312,1.0894,13.4794,-0.3645,-2.452,-0.1155
136961.0,-0.9912,2.1213,11.0205,-0.4268,-3.033,-0.0772
136971.0,-0.8092,2.5546,8.1858,-0.638,-3.3975,0.0074
136981.0,0.0383,1.8866,5.8419,-0.7785,-3.4225,0.1378
136991.0,0.814,0.8236,4.4053,-0.7333,-3.0783,0.2549
137001.0,1.2905,-0.2203,4.2521,-0.6455,-2.6127,0.3081
137011.0,1.6472,-1.0319,4.7333,-0.5481,-2.2434,0.3001
137021.0,1.9465,-1.2426,4.9823,-0.4369,-1.9938,0.2517
137031.0,2.0686,-0.9385,5.3367,-0.3767,-1.8156,0.1884
137041.0,2.0423,-0.3184,5.2936,-0.3507,-1.7198,0.1559
137051.0,2.3439,-0.2849,5.2936,-0.3368,-1.6341,0.1772
137061.0,2.4636,-0.6369,5.2792,-0.2474,-1.4686,0.2261
137071.0,2.9928,-1.6233,6.1292,-0.0947,-1.1994,0.2671
137081.0,3.0837,-2.1284,7.0725,0.0921,-0.9653,0.2474
137091.0,2.9233,-2.0255,8.2648,0.1096,-0.9599,0.1724
137101.0,2.9521,-1.9321,8.8609,0.1091,-1.1222,0.1117
137111.0,2.7701,-1.4724,8.7197,0.1596,-1.3037,0.075
137121.0,2.7701,-1.063,8.351,0.2331,-1.4654,0.0772
137131.0,2.8778,-0.486,6.8785,0.3022,-1.6182,0.1128
137141.0,3.4309,-1.1013,5.9831,0.2464,-1.6644,0.1655
137151.0,3.9696,-1.7645,5.4277,0.2384,-1.5293,0.1777
137161.0,3.9648,-1.7837,5.5138,0.1942,-1.3899,0.1219
137171.0,3.9696,-1.4126,5.4157,0.1628,-1.3516,0.0617
137181.0,4.1635,-1.1708,5.2218,0.1942,-1.2936,0.0399
137191.0,4.1899,-0.6871,4.9416,0.3155,-1.1653,0.049
137201.0,4.4388,-0.1365,4.6902,0.4981,-0.9951,0.0873
137211.0,4.3024,0.6009,4.1922,0.6332,-0.8413,0.1543
137221.0,4.1946,0.7829,4.0869,0.63,-0.7322,0.248
137231.0,3.9456,0.6177,3.4884,0.5273,-0.713,0.3437
137241.0,3.9935,-0.3352,2.4229,0.2528,-0.8423,0.4049
137251.0,5.0566,-1.9656,0.5674,-0.0122,-0.9972,0.3938
137261.0,5.9376,-2.8587,-1.6544,0.1091,-0.7215,0.2932
137271.0,5.7006,-2.6504,-4.1396,0.3757,-0.1394,0.141
137281.0,5.7844,-2.9521,-5.0422,0.4603,0.4374,-0.0335
137291.0,5.5665,-1.9201,-6.6774,0.7641,1.201,-0.2006
137301.0,4.2808,-1.1061,-7.1611,0.7694,1.9188,-0.3272
137311.0,3.2274,-0.2897,-8.3725,0.5555,2.3934,-0.4007
137321.0,2.0063,-0.1269,-10.2137,0.2277,2.7893,-0.4156
137331.0,1.7142,-0.7853,-13.0939,0.0601,3.2943,-0.3847
137341.0,-0.3065,-0.1748,-16.3835,0.6242,4.4868,-0.3618
137351.0,-6.3877,0.5291,-16.5798,1.5602,6.3215,-0.3129
137361.0,-10.1778,-0.8547,-14.2311,2.5914,8.2781,-0.2538
137371.0,-15.342,-2.2745,-8.8131,3.3986,10.058,-0.4252
137381.0,-18.931,-3.5937,-0.1269,3.7705,11.3579,-0.8184
137391.0,-21.5071,-3.0071,9.6223,3.6109,11.6527,-1.4064
137401.0,-22.7306,-0.9888,16.9007,2.8686,10.6183,-2.0412
137411.0,-22.6683,2.5738,20.4513,2.3573,9.2524,-2.5073
137421.0,-22.8311,7.7476,22.1464,2.427,8.5159,-2.709
137431.0,-23.4728,12.9885,26.0681,2.411,8.1844,-2.6595
137441.0,-23.9516,17.741,30.4902,1.9039,7.4283,-2.3844
137451.0,-23.5566,18.7825,36.8492,1.1291,6.2736,-1.8416
137461.0,-22.2709,18.2654,40.4022,1.0546,5.0162,-1.1031
137471.0,-20.796,16.5487,41.0079,1.1079,3.5364,-0.4097
137481.0,-18.5551,13.058,38.5921,0.7146,1.6825,0.0942
137491.0,-16.0819,9.8043,33.1908,0.0591,-0.0947,0.3076
137501.0,-14.0444,7.9631,26.985,-0.6891,-1.3122,0.2586
137511.0,-12.9885,7.6279,22.0578,-1.3877,-1.9092,0.0979
137521.0,-12.1027,7.3574,18.8711,-1.8411,-2.0289,0.0096
137531.0,-10.9774,5.6767,18.4258,-1.9172,-1.7815,0.0388
137541.0,-10.4914,4.8339,18.2869,-1.6911,-1.6245,0.0686
137551.0,-9.8809,4.0582,18.1169,-1.6293,-1.906,0.0697
137561.0,-8.8969,3.3926,16.9007,-1.5628,-2.3658,0.0686
137571.0,-8.4252,3.3088,14.9973,-1.442,-2.6909,0.067
137581.0,-7.8458,2.7653,13.5392,-1.5006,-2.9692,0.0543
137591.0,-7.2688,2.2314,11.8992,-1.6517,-3.2555,0.0074
137601.0,-6.5122,1.7142,10.8912,-1.7964,-3.4108,-0.066
137611.0,-6.3255,1.6616,10.1394,-1.7741,-3.4236,-0.133
137621.0,-6.0382,1.8268,9.1674,-1.7358,-3.4939,-0.1761
137631.0,-5.6623,1.5562,8.655,-1.7496,-3.6045,-0.1953
137641.0,-5.3367,1.4988,7.9631,-1.6219,-3.6418,-0.1868
137651.0,-4.944,1.1708,7.4148,-1.4378,-3.6317,-0.1591
137661.0,-4.5179,1.1037,6.4548,-1.1925,-3.5987,-0.1282
137671.0,-4.0821,0.9242,6.0525,-0.9759,-3.4923,-0.1
137681.0,-3.486,1.1468,5.4109,-0.7168,-3.3406,-0.0692
137691.0,-3.043,1.6927,4.4388,-0.5981,-3.1985,-0.0415
137701.0,-2.5187,1.5227,4.2401,-0.7093,-3.0671,0.0005
137711.0,-1.8579,0.723,4.6184,-0.7998,-2.8676,0.0378
137721.0,-1.6328,0.3663,5.5641,-0.7386,-2.5999,0.0415
137731.0,-1.6233,0.4405,6.6319,-0.6061,-2.4158,0.0367
137741.0,-1.5155,0.6057,7.3382,-0.5444,-2.4318,0.0415
137751.0,-1.573,0.6345,7.5705,-0.5736,-2.6095,0.0537
137761.0,-1.1396,0.3831,7.1204,-0.5199,-2.8138,0.0867
137771.0,-0.6776,0.3903,5.8275,-0.3272,-2.8723,0.1229
137781.0,-0.1867,0.5315,4.118,-0.207,-2.8298,0.1532
137791.0,0.6225,0.0934,3.0191,-0.2831,-2.7228,0.1676
137801.0,1.4054,-0.249,2.2027,-0.299,-2.452,0.1618
137811.0,1.834,-0.431,2.0183,-0.2512,-2.0763,0.1421
137821.0,2.1213,-0.5219,2.1979,-0.1767,-1.7283,0.1219
137831.0,2.3415,-0.5435,2.375,-0.0867,-1.4207,0.1123
137841.0,2.5091,-0.5602,2.6576,-0.0325,-1.1765,0.1016
137851.0,2.7725,-0.5195,2.964,0.0261,-0.977,0.0926
137861.0,2.9137,-0.4357,3.2968,0.1373,-0.7934,0.0947
137871.0,3.201,-0.1963,2.8491,0.2841,-0.6619,0.1038
137881.0,3.4572,-0.079,2.2338,0.3704,-0.5236,0.1155
137891.0,3.7445,-0.1365,1.8268,0.4789,-0.2629,0.1346
137901.0,3.7541,-0.0599,1.6568,0.6619,0.1197,0.149
137911.0,3.541,0.012,2.0159,0.7955,0.5225,0.1538
137921.0,3.4261,-0.1652,3.1316,0.862,0.9147,0.149
137931.0,3.0957,-0.0215,4.2617,0.8439,1.1797,0.1133
137941.0,2.8802,0.1197,5.5354,0.7311,1.2776,0.0623
137951.0,2.8228,0.5746,6.4165,0.7583,1.3729,0.0372
137961.0,2.478,1.063,7.1802,0.9349,1.5139,0.0532
137971.0,2.3248,1.6233,7.4148,1.152,1.6054,0.0947
137981.0,2.1548,2.2098,7.5585,1.2819,1.6852,0.1437
137991.0,1.7549,2.7869,7.8123,1.3526,1.7927,0.2112
138001.0,1.4198,3.146,8.3677,1.2792,1.8342,0.2857
138011.0,1.0175,3.3351,8.6694,1.0371,1.6905,0.3555
138021.0,0.9744,2.5905,8.1403,0.6582,1.3409,0.4299
138031.0,1.5993,1.0223,6.6846,0.3916,1.011,0.4709
138041.0,2.1644,0.3663,4.1683,0.5332,1.1031,0.4518
138051.0,1.9369,0.2131,2.0949,0.8051,1.5942,0.3874
138061.0,1.5227,0.7302,-0.3472,0.895,2.0923,0.2852
138071.0,1.0463,1.5131,-2.1404,0.5656,2.5509,0.1548
138081.0,-0.6536,2.6504,-3.3854,0.2528,3.1884,0.0963
138091.0,-2.806,3.9983,-6.3422,-0.0623,3.7514,0.1426
138101.0,-5.0973,3.1915,-9.1435,-0.6151,4.2851,0.2692
138111.0,-8.3965,1.5778,-11.0061,-0.4656,5.7378,0.4401
138121.0,-14.3293,-1.6448,-8.0756,-0.0681,7.8545,0.5119
138131.0,-18.354,-6.7804,1.0151,0.3161,9.7488,0.3459
138141.0,-22.12,-9.2871,13.5967,1.2127,11.2467,-0.1985
138151.0,-25.1415,-6.0837,26.0729,2.3067,11.7326,-1.0259
138161.0,-25.1678,1.0343,35.4797,2.8745,10.7928,-1.7725
138171.0,-23.6715,7.197,39.648,2.0806,8.5186,-2.2955
138181.0,-26.2261,11.1139,40.8618,0.4528,6.0565,-2.5073
138191.0,-23.5087,11.7914,42.9017,-1.1148,4.0462,-2.4238
138201.0,-23.5422,10.0844,47.2328,-2.0885,2.1577,-2.1386
138211.0,-22.7617,8.1834,45.8154,-2.378,-0.5699,-1.798
138221.0,-22.1344,6.3949,42.138,-1.889,-2.8383,-1.4032
138231.0,-21.0402,7.5346,31.941,-0.6412,-4.3601,-0.9812
138241.0,-19.2159,8.0756,23.8846,-0.4943,-5.4095,-0.7258
138251.0,-17.9326,8.679,17.8464,-0.9243,-5.9847,-0.5699
138261.0,-17.267,8.9088,14.2431,-1.3537,-6.0512,-0.3714
138271.0,-16.7307,7.2927,13.3261,-1.5511,-5.9091,-0.0968
138281.0,-15.5168,5.3343,12.7084,-1.334,-5.758,0.1916
