time_ms,ax,ay,az,gx,gy,gz
1225061.0,3.0358,-4.2713,45.8059,-0.1639,-0.3948,-0.2208
1225071.0,2.1165,-3.7924,46.9359,-0.0452,-0.4124,-0.3922
1225081.0,2.6049,-5.3343,48.7747,0.3581,-0.3092,-0.506
1225091.0,3.4764,-6.4548,49.0811,1.0227,-0.364,-0.6965
1225101.0,4.0223,-8.1977,48.8704,1.3462,-0.555,-0.9668
1225111.0,4.6064,-8.3701,48.0564,2.08,-0.5667,-1.3526
1225121.0,2.4804,-4.6448,45.0493,2.0939,-0.6561,-1.549
1225131.0,1.2163,-0.996,40.9696,1.6809,-0.3704,-1.4218
1225141.0,-0.3831,0.5938,42.8083,1.1334,0.3267,-1.0594
1225151.0,0.3065,-0.498,44.695,0.4353,0.464,-0.6955
1225161.0,2.0494,-4.2617,49.0716,0.1772,0.4182,-0.5917
1225171.0,3.8403,-7.1922,53.4482,0.8019,0.5193,-0.7609
1225181.0,4.4724,-8.2648,56.1488,1.4835,0.0798,-1.0988
1225191.0,4.4532,-7.8051,57.7003,2.0715,-0.779,-1.4399
1225201.0,5.5354,-6.2058,55.3444,2.3168,-1.7655,-1.7528
1225211.0,5.8323,-3.9935,52.4905,1.9188,-2.6994,-2.0215
1225221.0,5.43,-0.7757,47.5872,1.5548,-3.6652,-2.1817
1225231.0,7.1443,3.2465,40.2896,0.7141,-3.8493,-2.1822
1225241.0,5.679,6.8761,35.4438,-0.4619,-3.9312,-1.9241
1225251.0,4.7692,7.8817,32.3792,-1.3707,-3.5258,-1.4383
1225261.0,6.292,6.5218,32.542,-1.1323,-2.4573,-0.9136
1225271.0,7.4316,3.8403,32.5707,-0.8413,-1.5367,-0.638
1225281.0,7.5848,1.8004,34.0072,-0.8902,-0.9307,-0.5252
1225291.0,8.4851,-0.6129,38.6233,-0.1219,-0.431,-0.6135
1225301.0,9.0118,-1.0534,41.027,0.8051,-0.1453,-0.7748
1225311.0,8.7053,-0.6512,42.7413,2.0513,0.0213,-0.9035
1225321.0,9.1075,1.0056,42.1763,3.091,0.2001,-0.9823
1225331.0,9.4715,2.1835,40.1172,3.5673,0.2895,-1.0653
1225341.0,9.1554,3.6871,37.2346,3.2986,0.5486,-1.2111
1225351.0,8.5234,5.7174,36.1716,2.4259,0.8056,-1.3122
1225361.0,9.1171,7.1826,36.1429,1.0413,0.8636,-1.3585
1225371.0,9.232,7.6614,36.7271,-0.5284,0.8429,-1.4074
1225381.0,9.0405,7.9583,37.7326,-2.3328,0.7577,-1.4505
1225391.0,8.2839,8.734,40.2417,-3.8089,0.6024,-1.434
1225401.0,7.3071,9.3757,43.335,-4.8034,0.5028,-1.218
1225411.0,6.3877,7.6327,47.9415,-5.071,0.3549,-0.8801
1225421.0,6.4643,3.5338,52.433,-4.4112,0.1176,-0.6971
1225431.0,6.9336,-0.4501,55.4497,-3.5061,-0.555,-0.7678
1225441.0,7.6519,-3.4764,56.1967,-2.7686,-1.4633,-1.1009
1225451.0,8.4946,-5.4109,55.3444,-2.1199,-2.2673,-1.6565
1225461.0,8.5329,-4.8363,53.3524,-1.4378,-3.1453,-2.2375
1225471.0,7.4508,-2.5666,49.8856,-1.1675,-3.8291,-2.6994
1225481.0,6.7325,0.1053,45.7101,-0.7758,-4.2223,-2.958
1225491.0,6.8378,3.3902,40.5386,-0.9003,-4.2941,-3.0293
1225501.0,7.0964,5.6312,37.9816,-1.0828,-4.1042,-2.9793
1225511.0,6.4548,8.5042,35.3193,-1.3202,-3.7227,-2.7532
1225521.0,6.292,9.8928,35.6066,-1.3909,-3.1804,-2.32
1225531.0,6.924,10.8026,36.0663,-1.3468,-2.8,-1.8108
1225541.0,7.3358,10.4579,37.5124,-1.4606,-2.6877,-1.3345
1225551.0,7.5561,10.2185,39.3607,-1.4101,-2.8702,-0.9248
1225561.0,8.0828,10.41,39.4373,-1.2739,-3.1709,-0.4816
1225571.0,8.667,10.1514,38.4317,-1.0094,-3.5061,-0.066
1225581.0,9.1554,9.5577,36.4972,-0.8477,-3.7157,0.3076
1225591.0,9.5193,8.734,34.3233,-0.7944,-3.6668,0.621
1225601.0,9.6917,6.5697,33.5571,-0.5976,-3.5135,0.8429
1225611.0,10.6781,3.8595,32.2068,-0.3496,-3.2693,0.936
1225621.0,11.8944,1.0439,32.0057,-0.1846,-3.1065,0.8104
1225631.0,13.1681,-0.9002,31.297,-0.1799,-3.0123,0.4949
1225641.0,14.4035,-1.6376,30.2914,-0.3304,-2.949,0.0468
1225651.0,14.9111,-1.561,28.8836,-0.6646,-2.9181,-0.415
1225661.0,14.4514,-0.0479,28.2228,-0.9541,-2.7739,-0.8461
1225671.0,14.5855,2.2984,27.7919,-1.2356,-2.5839,-1.1281
1225681.0,13.5799,4.7597,28.7783,-0.8732,-2.3072,-1.2239
1225691.0,13.1681,7.2688,28.6155,-0.0096,-2.0055,-1.0738
1225701.0,13.6853,9.3948,27.3897,0.7093,-1.6362,-0.7604
1225711.0,13.8385,9.8737,26.6714,1.3223,-1.2861,-0.4241
1225721.0,14.7483,10.6877,24.6986,1.4601,-1.1217,-0.1144
1225731.0,16.7211,10.5249,22.3427,0.8737,-0.9025,0.1288
1225741.0,15.5432,10.2376,21.9405,-0.2336,-1.1132,0.2671
1225751.0,16.6062,10.4866,18.895,-1.3846,-1.1281,0.3778
1225761.0,16.2423,10.8218,17.0467,-2.4637,-0.7019,0.5241
1225771.0,14.7962,11.4251,16.2423,-3.5785,-0.4369,0.737
1225781.0,15.3229,10.7164,17.9661,-3.7658,-0.0835,0.9147
1225791.0,15.4857,11.9231,15.1601,-3.2959,0.7854,1.2414
1225801.0,14.2694,11.9997,14.71,-2.9277,1.724,1.6155
1225811.0,15.275,12.3445,14.8153,-2.3248,2.7132,1.9928
1225821.0,15.0069,12.651,14.9877,-1.4596,3.9547,2.4254
1225831.0,13.6182,13.0053,15.9358,-0.6582,5.1817,2.8692
1225841.0,12.3924,12.5073,17.7171,0.0362,6.4034,3.3129
1225851.0,11.1857,11.5975,20.82,0.796,7.5592,3.6572
1225861.0,9.1746,11.0038,25.0242,1.5676,8.3808,3.9749
1225871.0,7.4986,11.2815,28.2228,2.3466,9.0065,4.2745
1225881.0,5.9759,11.4634,32.1589,2.8543,9.627,4.6299
1225891.0,4.0989,11.1666,34.8117,3.0591,9.8659,4.9758
1225901.0,3.3615,10.2376,37.838,2.7963,9.9462,5.2397
1225911.0,1.5036,9.4427,41.276,2.6324,9.9553,5.493
1225921.0,0.0096,7.1539,45.0014,2.4717,9.5865,5.7069
1225931.0,-0.7949,4.549,46.5241,2.6994,9.2018,5.6979
1225941.0,-1.7142,3.3998,47.3477,3.1075,9.0459,5.5451
1225951.0,-2.9688,4.3574,46.6869,3.0894,8.7107,5.3977
1225961.0,-3.7541,6.8378,45.6909,2.6685,8.318,5.3057
1225971.0,-5.1906,9.5481,44.1778,1.9715,7.9343,5.4084
1225981.0,-7.4603,10.3717,42.7509,1.4782,7.8093,5.6878
1225991.0,-7.4029,7.3071,43.5649,2.0444,8.7187,6.0065
1226001.0,-7.4699,3.2274,45.9878,2.983,9.6999,6.0443
1226011.0,-7.7955,-0.0575,49.8185,3.2773,9.9234,5.7537
1226021.0,-9.1363,-0.9673,53.7163,3.2773,9.3386,5.3014
1226031.0,-9.3374,-0.4693,53.3428,2.3796,8.4829,4.8481
1226041.0,-10.2568,-0.5459,53.7546,1.7017,7.6624,4.3772
1226051.0,-10.9367,1.9441,51.121,0.7822,7.3687,3.9307
1226061.0,-13.532,3.2657,52.5384,0.0676,7.5491,3.6764
1226071.0,-14.71,3.8595,55.6987,-0.0325,7.7422,3.5306
1226081.0,-15.8305,3.6966,62.0673,-0.0122,7.4948,3.4534
1226091.0,-16.4817,3.6583,67.1334,0.2799,6.8254,3.4582
1226101.0,-16.6828,2.873,71.6154,0.4246,5.5952,3.4986
1226111.0,-15.7155,2.8252,71.6441,0.1607,4.1058,3.4827
1226121.0,-16.4051,2.3655,71.7303,-0.182,2.4429,3.4321
1226131.0,-15.7347,3.0071,68.4071,-1.086,1.0009,3.4162
1226141.0,-15.6964,2.2889,66.2523,-2.1146,-0.1692,3.4257
1226151.0,-15.84,1.4269,64.5189,-2.7622,-1.1382,3.4555
1226161.0,-15.3708,-0.1437,62.8239,-2.7707,-1.7975,3.4577
1226171.0,-15.6389,-1.6089,61.5406,-2.4498,-2.2993,3.4502
1226181.0,-15.1026,-3.5913,59.9987,-1.9853,-2.6781,3.4486
1226191.0,-13.8098,-6.2249,58.1025,-1.5357,-3.0783,3.2869
1226201.0,-13.149,-7.6998,56.2542,-1.2978,-3.439,2.9969
1226211.0,-12.1625,-7.6806,53.2566,-1.4372,-3.7897,2.6568
1226221.0,-11.0038,-7.422,52.184,-1.616,-4.0174,2.3668
1226231.0,-10.9176,-7.4029,50.9295,-1.6873,-4.2926,2.1529
1226241.0,-9.9503,-7.4699,49.0045,-1.8214,-4.4969,1.9167
1226251.0,-9.7492,-7.6806,48.5353,-1.8379,-4.4336,1.706
1226261.0,-8.7724,-8.2169,48.6693,-1.416,-4.3745,1.5112
1226271.0,-8.0924,-8.1499,48.7268,-1.1068,-4.4607,1.3106
1226281.0,-7.2688,-8.0254,49.2918,-0.9466,-4.7858,1.1116
1226291.0,-6.7325,-7.4795,48.6502,-0.837,-5.327,0.977
1226301.0,-6.0813,-7.3454,46.6199,-0.8429,-5.7766,0.8418
1226311.0,-5.5162,-7.4508,43.584,-0.9658,-6.0969,0.6577
1226321.0,-4.4532,-7.4316,40.5674,-1.1882,-6.1629,0.4656
1226331.0,-4.367,-7.3263,37.8954,-1.3127,-5.9772,0.2692
1226341.0,-3.6105,-7.6136,36.6696,-1.2914,-5.6191,0.0835
1226351.0,-1.9824,-8.1594,36.1908,-1.2026,-5.203,-0.1825
1226361.0,-1.1875,-8.4851,36.7462,-1.1313,-4.98,-0.4901
1226371.0,-0.2586,-7.9392,36.842,-0.9748,-4.897,-0.7795
1226381.0,0.6512,-7.0964,36.3057,-0.8195,-4.8513,-1.0339
1226391.0,1.6664,-5.8514,35.4629,-0.795,-4.8891,-1.2015
1226401.0,2.2122,-5.2289,34.8404,-0.8743,-4.8821,-1.3345
1226411.0,2.8539,-4.7405,33.3369,-0.9684,-4.8577,-1.4346
1226421.0,3.237,-4.6448,31.9387,-1.0887,-4.7512,-1.5687
1226431.0,4.1659,-4.549,30.2914,-1.0605,-4.5304,-1.6746
1226441.0,4.5298,-4.4628,28.6347,-1.1148,-4.1521,-1.781
1226451.0,5.3439,-4.6448,28.242,-1.0876,-3.8158,-1.9129
1226461.0,6.1483,-4.2425,26.8342,-1.1957,-3.4231,-2.0689
1226471.0,6.7421,-4.0893,26.2213,-1.3431,-3.0123,-2.2019
1226481.0,7.3071,-3.2944,25.12,-1.5782,-2.5925,-2.2998
1226491.0,7.9487,-3.0071,24.9572,-1.9481,-2.1582,-2.3652
1226501.0,7.9296,-3.1699,26.3075,-2.1274,-1.8821,-2.4004
1226511.0,7.8338,-3.4572,27.1311,-2.0683,-1.8725,-2.3929
1226521.0,8.0062,-4.5107,27.0257,-1.5836,-1.6772,-2.4083
1226531.0,8.7053,-5.8993,25.5701,-0.9605,-1.251,-2.452
1226541.0,8.7724,-6.857,23.5111,-0.5954,-0.8014,-2.634
1226551.0,9.2991,-7.0677,21.8064,-0.5188,-0.216,-2.9075
1226561.0,9.2703,-6.8953,20.8583,-0.6082,0.4017,-3.2097
1226571.0,9.4523,-6.2153,20.5135,-0.8381,1.1217,-3.472
1226581.0,8.7915,-5.4109,21.3371,-0.9253,1.9725,-3.6758
1226591.0,7.7093,-4.0989,22.5246,-0.8572,2.7771,-3.7988
1226601.0,7.0102,-3.486,25.6467,-0.5933,3.3991,-3.8339
1226611.0,6.5314,-3.1316,27.5812,-0.2448,3.8823,-3.8137
1226621.0,5.6599,-3.0358,29.1326,-0.1314,4.2101,-3.8179
1226631.0,5.1715,-3.6583,31.613,-0.0474,4.3825,-3.8961
1226641.0,4.4819,-3.8307,33.3273,0.1043,4.5368,-4.0254
1226651.0,4.6543,-3.4764,34.4765,0.4342,4.6922,-4.1563
1226661.0,3.7541,-2.5091,35.4438,0.5481,4.913,-4.2755
1226671.0,3.0454,-1.8483,37.9337,0.8019,4.9497,-4.3059
1226681.0,2.6145,-1.3599,38.3264,0.9014,4.9843,-4.3372
1226691.0,2.0877,-1.5323,39.7629,0.8046,4.838,-4.407
1226701.0,2.1069,-1.561,39.9544,0.6087,4.7347,-4.5368
1226711.0,1.8483,-0.9577,40.2417,0.3491,4.7895,-4.6794
1226721.0,1.2546,-0.2969,41.0366,0.0351,4.8922,-4.7784
1226731.0,0.4405,0.7183,42.6551,-0.2363,5.0247,-4.838
1226741.0,-0.6129,1.8771,46.1027,-0.4193,4.8683,-4.8209
1226751.0,-0.7661,2.9592,47.7308,-0.3938,4.4852,-4.7071
1226761.0,-1.3408,2.5857,49.5121,-0.1091,4.35,-4.5336
1226771.0,-1.5897,1.6759,50.3165,0.4933,4.2612,-4.4213
1226781.0,-1.7717,1.3599,50.9007,0.8184,4.0621,-4.4224
1226791.0,-2.2122,1.3216,51.0731,0.787,3.7557,-4.4836
1226801.0,-2.1931,2.3942,50.9582,0.4938,3.2938,-4.5203
1226811.0,-2.3846,4.0127,49.3589,-0.3054,2.7856,-4.4948
1226821.0,-2.8443,5.3822,48.0373,-1.5511,2.187,-4.4139
1226831.0,-3.0454,5.6312,46.5912,-2.9564,1.7757,-4.3341
1226841.0,-4.1946,5.5929,46.6007,-3.6668,1.8629,-4.2042
1226851.0,-4.3479,3.8499,49.5983,-3.007,2.4855,-3.9658
1226861.0,-4.0989,2.5379,52.5671,-1.7491,2.9724,-3.7748
1226871.0,-4.9895,1.6089,55.1337,-0.5039,2.9463,-3.703
1226881.0,-5.3534,1.9441,56.1297,0.4528,2.6941,-3.6737
1226891.0,-5.3439,2.1069,56.168,1.1871,2.286,-3.6487
1226901.0,-5.3534,2.806,54.6548,1.2861,1.8959,-3.6992
1226911.0,-5.7748,3.2944,53.0172,0.6433,1.5075,-3.787
1226921.0,-5.794,3.7637,52.1553,-0.3246,1.1914,-3.8812
1226931.0,-6.0908,2.8826,53.1896,-1.0775,0.9775,-3.9759
1226941.0,-6.0238,1.9441,54.8176,-1.6166,0.7168,-4.1249
1226951.0,-6.6463,1.0918,57.8822,-1.4926,0.389,-4.2926
1226961.0,-6.7229,1.6089,59.223,-1.0637,-0.0617,-4.4362
1226971.0,-6.7421,2.2601,60.4392,-0.4805,-0.6284,-4.4751
1226981.0,-6.924,3.9073,58.4185,-0.1623,-1.3473,-4.5123
1226991.0,-6.5027,5.7269,55.6029,-0.2868,-1.8858,-4.4399
1227001.0,-5.8993,7.3358,53.3045,-0.6407,-2.2226,-4.291
1227011.0,-5.9951,8.1307,51.6956,-1.1738,-2.486,-4.085
1227021.0,-5.612,8.2648,50.3261,-1.6394,-2.6026,-3.827
1227031.0,-5.3151,7.604,50.5368,-1.9513,-2.7074,-3.6136
1227041.0,-5.1811,6.5122,50.7283,-2.1136,-2.8159,-3.4646
1227051.0,-4.3766,5.612,50.6996,-2.1976,-2.9421,-3.3853
1227061.0,-3.2561,4.9321,50.556,-2.2216,-2.8692,-3.3433
1227071.0,-3.0071,4.6064,53.4577,-1.8565,-2.9293,-3.3619
1227081.0,-2.5091,5.6312,54.6931,-1.3047,-3.2336,-3.3481
1227091.0,-1.8771,6.9432,55.4689,-0.6279,-3.7094,-3.2528
1227101.0,-1.7717,8.6383,54.4346,-0.1692,-4.3059,-3.0639
1227111.0,-1.5419,9.9886,52.2702,-0.1607,-4.9353,-2.8303
1227121.0,-0.8523,11.2527,48.9854,-0.5417,-5.5329,-2.5478
1227131.0,-0.431,11.5305,45.9687,-1.475,-6.024,-2.286
1227141.0,-0.3639,10.9463,43.3063,-2.6201,-6.429,-2.0657
1227151.0,0.7757,9.7971,41.2186,-3.9605,-6.7126,-1.9635
1227161.0,1.3024,8.2169,43.45,-4.5171,-6.7722,-1.9449
1227171.0,1.1588,8.6287,46.6295,-3.4715,-7.0643,-1.7927
1227181.0,1.3024,10.2185,45.7676,-1.8943,-7.3767,-1.4399
1227191.0,1.7334,11.9614,43.5649,0.1187,-7.581,-0.9051
1227201.0,1.5993,13.5608,38.3168,1.7134,-7.7295,-0.2107
1227211.0,3.1125,14.0204,30.9522,2.1189,-7.7273,0.5241
1227221.0,4.051,12.9766,25.0146,1.7533,-7.3857,1.1254
1227231.0,5.3726,11.7316,20.5901,0.8913,-6.678,1.5969
1227241.0,6.4165,9.6343,19.8144,-0.3565,-5.9416,1.9231
1227251.0,7.7285,8.418,19.259,-1.5149,-5.4105,2.0971
1227261.0,7.853,6.6655,21.6819,-2.6318,-4.9753,2.2088
1227271.0,8.8777,5.4779,25.503,-2.3227,-4.4799,2.3221
1227281.0,7.9775,5.9568,26.2117,-1.8411,-4.2181,2.5813
1227291.0,7.5178,4.2521,27.0257,-1.0813,-4.2521,2.8979
1227301.0,8.4084,2.6911,23.3195,-0.6364,-4.1207,3.1224
1227311.0,8.8585,0.6033,18.9908,-0.8796,-4.0999,3.173
1227321.0,10.8409,-1.5323,13.7619,-1.483,-3.795,3.0522
1227331.0,13.3692,-2.4134,8.5329,-1.9997,-2.7728,2.8229
1227341.0,13.6948,-2.0686,6.7229,-2.2748,-1.0552,2.6047
1227351.0,12.9191,-0.6512,8.2456,-1.7906,0.77,2.5148
1227361.0,11.1378,1.4174,10.6111,-1.3361,2.3067,2.6558
1227371.0,9.8067,2.2122,15.1697,-0.8429,3.2081,2.9069
1227381.0,9.0788,3.122,18.397,-0.0101,3.7221,3.2097
1227391.0,9.1267,2.9592,19.7857,0.8402,4.4107,3.5779
1227401.0,8.6287,2.7485,21.2414,1.4436,5.037,3.8083
1227411.0,8.6479,3.9361,21.4808,1.6309,5.4696,4.0222
1227421.0,7.6614,5.612,21.9883,1.4128,6.0847,4.3607
1227431.0,6.5793,6.7038,24.2389,1.1068,6.744,4.806
1227441.0,5.3534,6.5314,27.6865,0.9887,7.1473,5.336
1227451.0,4.4724,4.5011,31.2683,0.8689,7.3453,5.8304
1227461.0,3.6679,0.7949,35.3288,1.1217,7.3756,6.1305
1227471.0,3.9361,-2.8826,38.1827,1.5554,7.3304,6.1704
1227481.0,3.4381,-6.9049,40.3279,2.3152,7.3064,5.932
1227491.0,3.6871,-7.7285,39.6097,2.2572,6.9297,5.4047
1227501.0,3.6105,-7.3071,39.9832,1.8789,6.6839,4.8034
1227511.0,3.4189,-3.2178,38.8531,1.442,6.7158,4.4016
1227521.0,1.9537,0.2394,40.0885,0.7897,6.7413,4.2904
1227531.0,1.1396,2.6528,40.6631,0.1123,6.8222,4.3947
1227541.0,-0.565,2.8347,43.8905,-0.4331,6.5264,4.6613
1227551.0,-1.0151,1.3024,45.5281,-0.3395,6.3571,4.9433
1227561.0,-1.3791,-0.8428,46.2656,0.1378,6.5274,5.1237
1227571.0,-2.2027,-2.739,48.0947,0.9152,6.6519,5.1067
1227581.0,-2.9784,-3.2178,48.0564,1.6086,6.8057,5.0061
1227591.0,-3.7445,-2.5379,47.6446,1.9342,7.0085,4.8795
1227601.0,-4.6064,-0.9098,47.2615,1.9241,7.0601,4.7571
1227611.0,-6.0908,0.8523,47.0317,1.4058,7.2202,4.781
1227621.0,-7.5178,0.7183,49.311,1.1339,7.2841,4.8805
1227631.0,-8.5329,0.1053,50.9869,0.9269,7.3048,4.9385
1227641.0,-10.1227,-0.6991,53.4865,0.8141,7.224,4.9524
1227651.0,-11.1187,-1.312,56.1201,0.8764,7.1122,4.9215
1227661.0,-12.2009,-2.0111,58.8974,0.9573,6.6743,4.813
1227671.0,-13.1011,-2.0111,61.4161,1.1706,6.0171,4.6911
1227681.0,-14.2886,-0.2394,61.5118,1.1738,5.2663,4.5841
1227691.0,-15.5527,0.7853,62.1726,1.0557,4.5671,4.5804
1227701.0,-15.5144,1.3791,60.6403,0.8322,4.0621,4.6166
1227711.0,-16.2135,1.9058,60.1711,0.2703,3.6205,4.7044
1227721.0,-16.2135,1.7238,61.1096,-0.3565,3.0469,4.7672
1227731.0,-16.3476,1.5036,62.6323,-1.035,2.2609,4.8752
1227741.0,-16.4913,0.6991,63.7432,-1.624,1.1834,4.9737
1227751.0,-16.7115,-1.0822,62.4791,-2.1247,0.0926,5.0178
1227761.0,-16.6062,-3.3519,61.349,-2.4642,-0.7338,4.929
1227771.0,-16.2327,-5.1619,59.6635,-2.2567,-1.4122,4.7305
1227781.0,-16.1656,-5.4205,57.0395,-1.9332,-1.8294,4.5389
1227791.0,-15.7922,-5.8419,55.0571,-1.6293,-2.0013,4.3388
1227801.0,-15.2846,-5.5737,52.5671,-1.5564,-2.1002,4.1707
1227811.0,-14.7196,-5.0661,51.0827,-1.9502,-2.2152,4.0174
1227821.0,-14.6142,-4.8459,51.2455,-2.3418,-2.4243,3.9238
1227831.0,-14.5089,-4.5107,50.9678,-2.8005,-2.7606,3.8679
1227841.0,-14.8824,-5.1523,52.0021,-2.9027,-3.1842,3.8403
1227851.0,-14.6525,-5.8227,51.1497,-2.7164,-3.5072,3.8333
1227861.0,-14.212,-6.5793,50.0675,-2.568,-3.7509,3.8333
1227871.0,-12.8425,-7.6519,48.6119,-2.5712,-3.8376,3.7269
1227881.0,-11.7795,-8.734,48.1905,-2.6813,-3.9547,3.6237
1227891.0,-10.7452,-9.9599,49.0332,-2.5515,-4.2037,3.4747
1227901.0,-9.6726,-10.8601,48.1522,-2.3887,-4.5469,3.2869
1227911.0,-9.8737,-11.8082,47.7117,-2.0987,-4.9721,3.0767
1227921.0,-8.9639,-12.469,44.4651,-1.8768,-5.1344,2.833
1227931.0,-8.1977,-13.1106,41.3048,-1.9396,-5.0934,2.5222
1227941.0,-7.039,-13.4937,39.8012,-2.2104,-4.8358,2.1173
1227951.0,-5.7269,-13.6278,40.644,-2.2636,-4.4559,1.7549
1227961.0,-5.8131,-13.8768,43.4212,-1.898,-4.2069,1.4277
1227971.0,-4.4436,-13.7331,45.5569,-1.21,-4.291,1.1552
1227981.0,-4.118,-13.1394,46.4092,-0.8572,-4.7182,0.8876
1227991.0,-3.9073,-12.5839,45.2791,-0.7082,-5.4558,0.6364
1228001.0,-3.0167,-11.6454,41.8315,-0.8088,-5.9352,0.3794
1228011.0,-2.9784,-10.8314,39.4277,-0.9567,-6.0592,0.1905
1228021.0,-2.5379,-9.912,37.4357,-0.9227,-6.1257,0.0516
1228031.0,-2.0399,-9.6534,36.411,-0.5332,-5.9607,-0.0426
1228041.0,-1.2833,-8.8298,34.4765,0.0282,-5.8155,-0.0873
1228051.0,-0.1532,-8.4563,32.226,0.3288,-5.6106,-0.0867
1228061.0,1.1109,-8.3414,29.8892,0.6093,-5.2817,-0.1288
1228071.0,2.059,-7.4603,27.2173,0.3379,-4.954,-0.1538
1228081.0,2.059,-7.106,25.5126,-0.3432,-4.6837,-0.2011
1228091.0,2.9784,-7.4795,24.7944,-0.7928,-4.3037,-0.2261
1228101.0,3.5721,-9.1267,24.9476,-1.135,-3.9121,-0.3166
1228111.0,4.6831,-10.9559,25.5605,-0.9317,-3.5566,-0.5284
1228121.0,6.0047,-11.2144,24.9763,-0.6061,-3.0384,-0.7987
1228131.0,6.5122,-11.0708,23.7601,-0.4991,-2.6387,-1.0717
1228141.0,7.1347,-10.5345,22.563,-0.6018,-2.228,-1.3
1228151.0,7.7476,-10.1706,22.0267,-0.7992,-1.7618,-1.5256
1228161.0,7.4603,-9.7109,21.95,-0.8764,-1.2388,-1.6549
1228171.0,7.9392,-10.3142,23.1567,-0.6678,-0.6194,-1.7416
1228181.0,7.7955,-11.0038,23.8462,-0.0793,-0.0952,-1.9023
1228191.0,7.8817,-11.0325,23.7792,0.448,0.3597,-2.0971
1228201.0,8.5138,-10.1993,23.3195,0.7561,0.9935,-2.2913
1228211.0,8.5617,-9.4715,22.3714,0.622,1.6437,-2.4286
1228221.0,8.2265,-8.8585,22.7449,0.058,2.17,-2.5972
1228231.0,7.8721,-8.3797,24.6986,-0.5055,2.6696,-2.7574
1228241.0,7.2401,-7.9392,27.4663,-0.5305,3.0559,-2.8245
1228251.0,6.3494,-8.5425,29.8796,-0.2932,3.3619,-2.8511
1228261.0,5.8897,-8.5808,30.3393,0.0117,3.5848,-2.9426
1228271.0,5.9185,-9.0405,31.3545,0.2884,3.8701,-3.0772
1228281.0,5.9855,-9.3182,31.5077,0.3139,4.2212,-3.2794
1228291.0,5.0087,-8.6766,32.9729,0.3054,4.5666,-3.5226
1228301.0,3.8978,-7.4316,35.032,0.4289,4.7284,-3.6843
1228311.0,3.2465,-6.5122,37.3112,0.7301,4.9013,-3.7615
1228321.0,2.3846,-6.1196,38.9297,1.1041,5.0604,-3.7924
1228331.0,1.9154,-6.359,40.5865,1.3521,4.9721,-3.8748
1228341.0,2.1452,-6.3207,40.9408,1.2914,4.5804,-4.0047
1228351.0,1.9728,-5.8323,40.2992,0.8189,4.2729,-4.1936
1228361.0,1.4461,-5.4588,39.2074,0.1373,4.0824,-4.3921
1228371.0,0.6129,-5.114,39.3319,-0.4922,4.0031,-4.6193
1228381.0,-1.0343,-4.3287,40.4716,-0.6886,4.201,-4.7677
1228391.0,-1.6664,-3.122,41.9751,-0.2943,4.466,-4.7821
1228401.0,-1.9537,-2.5379,44.0533,0.2214,4.6459,-4.7193
1228411.0,-2.8635,-1.9154,46.4092,0.804,4.5075,-4.5932
1228421.0,-3.3998,-1.4557,46.1794,1.2185,3.977,-4.4681
1228431.0,-3.0837,-1.9154,44.0437,1.3431,3.7956,-4.3851
1228441.0,-3.7733,-2.4708,41.9464,1.2313,4.0707,-4.3835
1228451.0,-3.7828,-2.8252,41.6591,0.9684,4.4916,-4.4506
1228461.0,-4.4341,-2.8826,43.1627,0.5593,4.8135,-4.598
1228471.0,-6.0525,-2.0399,46.5912,0.34,4.7528,-4.7113
1228481.0,-7.1347,-0.8715,48.1235,-0.0798,4.3484,-4.6762
1228491.0,-7.9487,-1.2163,49.9239,-0.2783,3.6184,-4.5804
1228501.0,-7.7764,-1.6568,48.4874,-0.3427,3.1171,-4.5607
1228511.0,-7.9296,-2.1548,46.9455,-0.1399,3.1948,-4.5634
1228521.0,-8.8969,-1.9441,46.2272,0.0245,3.571,-4.5964
1228531.0,-9.2991,-2.0399,47.5393,0.2692,3.7892,-4.6246
1228541.0,-9.3661,-1.743,48.9854,0.5561,3.7583,-4.5996
1228551.0,-9.6247,-1.3791,50.0963,0.4965,3.4029,-4.6076
1228561.0,-10.228,-1.1492,50.3165,0.2379,2.7484,-4.598
1228571.0,-9.9886,-0.747,48.2288,-0.0777,2.2764,-4.6017
1228581.0,-9.8258,-0.8715,46.9359,-0.3028,2.42,-4.5889
1228591.0,-9.9886,-1.4557,46.9647,-0.1676,2.9442,-4.5698
1228601.0,-10.3334,-1.7334,48.8896,-0.091,3.3486,-4.5841
1228611.0,-10.9176,-1.6951,52.2319,0.2953,3.4146,-4.6097
1228621.0,-11.0516,-1.3599,56.0052,0.9142,3.2698,-4.5783
1228631.0,-11.1761,-0.6321,58.0354,1.4809,2.7388,-4.5086
1228641.0,-11.1282,-0.5267,58.8495,1.6027,1.8565,-4.4203
1228651.0,-10.2376,-1.2163,58.4281,1.4883,0.9126,-4.4634
1228661.0,-9.6438,-1.1492,55.5359,0.9951,0.2379,-4.5905
1228671.0,-9.6151,-1.1205,54.99,0.3719,-0.0841,-4.7518
1228681.0,-10.161,-0.431,56.1871,-0.0612,-0.3719,-4.896
1228691.0,-10.659,0.6033,57.049,-0.4033,-0.9014,-4.9721
1228701.0,-10.5058,1.1492,58.9644,-0.5624,-1.5484,-4.9646
1228711.0,-10.094,1.6472,59.606,-0.3469,-2.1849,-4.9141
1228721.0,-10.0365,2.241,58.6292,-0.1719,-2.8771,-4.8342
1228731.0,-9.5385,2.6624,57.0873,-0.083,-3.5433,-4.7635
1228741.0,-8.7628,2.9975,54.5495,-0.1932,-4.0707,-4.7017
1228751.0,-7.853,3.2848,52.1361,-0.5587,-4.4096,-4.6773
1228761.0,-7.3071,4.1468,50.4315,-1.0594,-4.6927,-4.6485
1228771.0,-7.0294,4.5107,50.2974,-1.4,-4.9316,-4.5948
1228781.0,-7.106,5.5354,52.2319,-1.1164,-5.2626,-4.4277
1228791.0,-6.7708,6.541,51.1401,-0.5002,-5.8165,-4.1489
1228801.0,-6.3877,7.3741,49.1865,0.0346,-6.2119,-3.7759
1228811.0,-5.6695,7.1539,45.6814,0.3858,-6.4944,-3.4199
1228821.0,-4.6926,6.9432,41.9847,0.2309,-6.6525,-3.148
1228831.0,-3.9073,6.6272,38.5945,-0.332,-6.6445,-2.9468
1228841.0,-3.3998,6.5601,37.2825,-0.7982,-6.3545,-2.8372
1228851.0,-2.9497,7.0102,36.162,-1.1116,-6.0288,-2.6669
1228861.0,-2.4421,7.2401,36.2482,-1.1047,-5.6287,-2.4552
1228871.0,-1.4078,8.7436,35.0607,-1.0004,-5.1125,-2.1444
1228881.0,-1.3503,9.3087,35.913,-1.0674,-4.6719,-1.7618
1228891.0,-0.4597,9.481,36.8611,-0.8881,-4.4277,-1.3117
1228901.0,0.7757,8.9447,36.9473,-0.497,-4.1739,-0.8338
1228911.0,2.0686,7.7764,36.7749,-0.2134,-3.9733,-0.4214
1228921.0,3.0837,6.3877,36.9377,0.0511,-3.8121,-0.1362
1228931.0,4.1851,5.43,36.0375,0.132,-3.7679,0.0532
1228941.0,4.5873,4.3383,36.6504,0.0745,-3.7897,0.1559
1228951.0,5.3534,3.7924,35.8747,0.1474,-3.8003,0.2128
1228961.0,5.6024,3.4285,35.7981,0.2799,-3.7626,0.2309
1228971.0,5.8131,4.1276,34.4957,0.5332,-3.7227,0.2778
1228981.0,6.5601,4.7597,33.1357,0.6529,-3.5955,0.3767
1228991.0,6.6942,5.2194,30.9714,0.5039,-3.4396,0.4837
1229001.0,7.4603,5.7557,29.4295,0.042,-3.2576,0.5944
1229011.0,8.734,5.8993,28.1654,-0.4363,-2.9357,0.6816
1229021.0,8.8107,6.3303,27.8685,-0.8125,-2.5302,0.7966
1229031.0,9.1459,6.7995,28.5293,-1.0057,-2.1785,0.953
1229041.0,9.0501,7.2496,28.558,-1.2185,-1.9316,1.1824
1229051.0,9.0501,7.3263,29.1997,-1.3995,-1.8518,1.4324
1229061.0,9.1746,7.3071,29.3529,-1.3718,-1.8145,1.7113
1229071.0,9.2991,7.3263,28.9986,-1.2829,-1.7554,2.0082
1229081.0,8.9256,6.9432,28.0696,-1.0951,-1.7086,2.3035
1229091.0,8.3893,7.1443,25.0434,-1.1957,-1.5687,2.6238
1229101.0,8.6957,6.3398,23.2908,-1.4899,-1.2228,2.9085
1229111.0,10.3046,6.5601,20.4082,-1.831,-0.7013,3.2044
1229121.0,9.6534,5.6503,20.1592,-2.4349,0.0192,3.5029
1229131.0,8.9735,4.5298,20.5806,-2.5818,0.5459,3.7972
1229141.0,8.8681,3.5051,21.0307,-2.519,1.2372,4.1047
1229151.0,8.5138,2.8922,21.0211,-2.1258,2.0215,4.3894
1229161.0,7.0485,1.743,22.199,-1.6394,2.825,4.6555
1229171.0,6.3782,0.5363,22.879,-0.9222,3.7157,4.8933
1229181.0,6.1866,-0.6512,23.0514,-0.3544,4.6246,5.0615
1229191.0,6.0525,-1.3503,24.9188,-0.1639,5.6101,5.1391
1229201.0,5.1715,-1.6759,27.3226,-0.1602,6.3002,5.2126
1229211.0,4.4628,-1.7047,30.4159,-0.6077,6.7126,5.2935
1229221.0,3.9073,-2.2027,34.9458,-0.9509,6.7632,5.4052
1229231.0,3.2753,-2.2122,38.3072,-1.2835,6.4811,5.5558
1229241.0,2.2601,-3.1125,41.0845,-1.4654,5.9708,5.6947
1229251.0,1.7238,-4.4053,42.2433,-1.4106,5.5095,5.8367
1229261.0,1.6281,-5.928,43.1722,-1.1079,5.3249,5.8586
1229271.0,1.0534,-7.5274,44.2927,-0.7354,5.0306,5.7819
1229281.0,0.747,-8.5234,44.0054,-0.133,4.8092,5.617
1229291.0,0.431,-8.8298,43.0765,-0.0069,4.6821,5.3765
1229301.0,-0.0096,-8.5425,43.268,0.1564,4.5682,5.1594
1229311.0,-0.3065,-7.7381,42.4636,0.066,4.515,5.0056
1229321.0,-1.3312,-7.2975,42.4348,-0.1027,4.5607,4.8742
1229331.0,-3.0454,-7.2496,43.4883,-0.0474,4.5027,4.7459
1229341.0,-4.2042,-6.5697,43.5074,0.0463,4.457,4.6544
1229351.0,-5.0661,-6.2441,43.6511,0.3847,4.6006,4.5522
1229361.0,-5.3534,-4.9512,42.9903,0.6965,4.8582,4.5097
1229371.0,-5.7844,-3.6009,43.517,0.6556,5.1461,4.5086
1229381.0,-7.2784,-2.4995,45.2504,0.6141,5.3472,4.6299
1229391.0,-8.0828,-1.743,47.1562,0.4039,5.3818,4.8545
1229401.0,-9.0692,-1.8196,49.1577,0.0176,5.2488,5.046
1229411.0,-10.1323,-2.0016,52.2989,-0.1453,4.813,5.2817
1229421.0,-10.9463,-2.7773,53.3045,-0.158,4.3681,5.5217
1229431.0,-11.655,-3.8978,54.2718,0.1548,3.927,5.7218
1229441.0,-11.7603,-5.1427,54.5495,0.605,3.6913,5.8453
1229451.0,-11.8178,-6.3686,54.2526,0.9237,3.4311,5.8474
1229461.0,-12.3924,-7.3837,55.0858,1.2137,3.0926,5.7575
1229471.0,-12.4882,-7.5465,54.8176,1.4564,2.7138,5.6186
1229481.0,-13.034,-7.7764,54.1185,1.5394,2.4445,5.5122
1229491.0,-12.8808,-8.102,52.6724,1.3787,2.3397,5.3648
1229501.0,-12.9383,-8.1882,52.9789,0.9094,2.1854,5.1833
1229511.0,-12.8617,-8.4755,53.8695,0.3544,1.9199,5.0066
1229521.0,-13.1394,-9.098,55.7274,-0.0947,1.4883,4.8018
1229531.0,-13.216,-9.6055,57.4417,-0.3565,0.8684,4.6086
1229541.0,-13.8959,-10.6207,58.6292,-0.3374,0.1293,4.4107
1229551.0,-14.0492,-11.0133,58.3706,-0.0867,-0.5146,4.1797
1229561.0,-13.6661,-11.3198,56.6468,-0.0777,-1.1169,3.9398
1229571.0,-13.7427,-11.7699,55.0762,-0.174,-1.6405,3.6407
1229581.0,-13.3022,-11.5113,52.8927,-0.6726,-2.1136,3.3699
1229591.0,-13.2064,-11.4634,52.2702,-1.1621,-2.5733,3.1059
1229601.0,-12.7563,-11.0038,51.2934,-1.5165,-2.9298,2.8457
1229611.0,-12.0955,-11.4347,50.69,-1.616,-3.1991,2.6111
1229621.0,-12.1051,-11.4443,49.0811,-1.6868,-3.4603,2.386
1229631.0,-12.402,-11.3677,48.2096,-1.9922,-3.6322,2.1588
1229641.0,-12.2583,-11.4634,49.4834,-1.7416,-3.6907,1.955
1229651.0,-12.3637,-10.7069,51.4945,-0.8987,-3.6934,1.8587
1229661.0,-11.655,-9.596,51.9638,0.3203,-3.8786,1.9273
1229671.0,-10.8314,-9.5098,50.9199,0.8051,-4.2063,2.0683
1229681.0,-10.2568,-10.4579,50.5751,0.8062,-4.8726,2.0944
1229691.0,-9.2799,-11.6837,48.0373,0.3916,-5.6713,1.9587
1229701.0,-8.1977,-12.8808,45.1355,-0.165,-6.2236,1.6985
1229711.0,-7.9104,-13.6182,42.4253,-0.6683,-6.5003,1.3654
1229721.0,-7.671,-14.4035,41.3622,-0.8466,-6.4987,0.9573
1229731.0,-6.6176,-14.0875,39.8491,-0.5103,-6.2619,0.5773
1229741.0,-5.9759,-13.0915,37.5219,-0.2629,-5.8469,0.2655
1229751.0,-4.5394,-11.9231,37.1101,0.0032,-5.3786,0.0298
1229761.0,-3.4285,-10.6398,36.6983,0.1245,-5.0269,-0.0952
1229771.0,-1.9154,-10.7643,37.723,0.1325,-4.8704,-0.2022
1229781.0,-0.6512,-10.9846,37.9337,0.1517,-4.9082,-0.3794
1229791.0,0.3639,-11.3198,37.7422,0.1256,-5.0593,-0.5752
1229801.0,1.3312,-10.7356,36.2099,0.1703,-5.1306,-0.7907
1229811.0,2.0494,-9.7205,34.8117,0.2075,-5.1046,-0.9759
1229821.0,2.7294,-8.4563,32.7623,0.2714,-4.9779,-1.0908
1229831.0,3.735,-7.4795,30.8182,0.2299,-4.7289,-1.1472
1229841.0,4.0893,-6.6272,29.238,0.1405,-4.4596,-1.1552
1229851.0,4.2042,-6.7325,28.2324,-0.0037,-4.2127,-1.1345
1229861.0,5.1811,-7.4124,27.0162,-0.0713,-3.8631,-1.1691
1229871.0,6.2058,-8.4851,25.9723,-0.0814,-3.4529,-1.2829
1229881.0,7.0773,-8.8298,25.4935,-0.0809,-3.1091,-1.5075
1229891.0,7.7764,-8.8202,23.4632,-0.0591,-2.6973,-1.7624
1229901.0,8.0924,-7.9775,21.1552,-0.2293,-2.0635,-1.9699
1229911.0,7.9871,-7.3071,20.0251,-0.4736,-1.3611,-2.1497
1229921.0,8.1786,-6.9911,19.8623,-0.9009,-0.6694,-2.2907
1229931.0,8.169,-7.4029,21.2031,-0.9461,0.0165,-2.436
1229941.0,8.2744,-7.9487,22.2182,-0.8168,0.7141,-2.5919
1229951.0,7.7764,-8.6862,23.7313,-0.4241,1.3212,-2.8005
1229961.0,7.2688,-8.5904,24.1144,-0.0192,1.8502,-3.0522
1229971.0,6.6176,-7.8338,23.9803,0.1149,2.3535,-3.3124
1229981.0,5.7269,-6.4069,24.7656,0.1761,2.9431,-3.4853
1229991.0,5.0566,-4.9991,24.9667,0.1149,3.5194,-3.5561
1230001.0,4.1659,-3.8116,27.1119,-0.0202,4.1867,-3.5614
1230011.0,2.4995,-2.873,27.8494,-0.1362,4.6225,-3.4486
1230021.0,3.1029,-2.4421,29.8318,-0.4326,5.0152,-3.2773
1230031.0,2.1931,-4.1755,34.1509,-0.5108,5.2844,-3.1735
1230041.0,1.1492,-5.1619,37.2921,0.0229,5.3483,-3.1804
1230051.0,0.1053,-5.3151,39.5235,0.4597,5.1056,-3.1772
1230061.0,-1.3312,-4.8076,39.1883,0.6598,4.7172,-3.1501
1230071.0,-1.9632,-4.8554,38.2019,0.737,4.6294,-3.0884
1230081.0,-2.1931,-5.0566,36.8132,0.812,4.8683,-3.0463
1230091.0,-1.8579,-6.043,36.9952,0.6396,5.3557,-3.065
1230101.0,-2.7007,-7.0964,39.1117,0.299,5.5563,-3.1879
1230111.0,-3.1891,-7.9966,41.8506,-0.216,5.3163,-3.3741
1230121.0,-3.4189,-8.7819,44.4843,-0.5704,4.6704,-3.5556
1230131.0,-3.3806,-10.0173,44.2736,-0.7971,3.9185,-3.7902
1230141.0,-3.2561,-11.0325,42.4923,-0.5422,3.6466,-4.1313
1230151.0,-3.0933,-10.7356,39.8204,-0.0074,4.1244,-4.4953
1230161.0,-4.0797,-9.9599,38.6233,0.4592,5.0189,-4.8337
1230171.0,-5.2002,-8.418,40.4429,0.8189,5.7362,-5.1413
1230181.0,-5.8514,-6.3877,43.2489,0.7854,5.9639,-5.4025
1230191.0,-7.5561,-4.3191,46.6582,0.5502,5.5851,-5.5148
1230201.0,-8.8298,-2.7007,48.0277,0.3177,4.7768,-5.501
1230211.0,-9.0597,-2.3559,46.256,0.2081,4.225,-5.4339
1230221.0,-8.9543,-2.6049,43.1148,0.3049,4.4165,-5.451
1230231.0,-9.1075,-2.6719,41.7453,0.4581,5.3259,-5.5441
1230241.0,-9.9695,-2.241,43.8426,0.5396,6.3944,-5.6654
1230251.0,-12.3158,-0.9864,49.7994,0.5082,6.7004,-5.7697
1230261.0,-13.0245,0.1532,55.6221,0.7423,6.1949,-5.7511
1230271.0,-14.5951,0.5842,59.3858,0.8354,5.3366,-5.6196
1230281.0,-15.6293,-0.8045,61.7034,1.6421,4.0632,-5.5872
1230291.0,-15.7634,-0.5267,58.1025,2.2982,3.5189,-5.7069
1230301.0,-16.2806,1.3886,55.0379,2.6361,3.5338,-5.8586
1230311.0,-16.4051,3.2848,54.3484,2.2205,3.7423,-5.9857
1230321.0,-17.5064,5.9472,56.0052,1.301,3.6806,-6.0464
1230331.0,-18.2821,8.6766,59.6539,0.4119,3.2544,-5.9347
1230341.0,-19.1345,10.659,63.5134,-0.3374,2.4679,-5.6255
1230351.0,-19.2111,10.9176,66.6929,-0.3991,1.442,-5.1689
1230361.0,-19.1536,10.8984,66.8078,-0.091,0.5704,-4.6986
1230371.0,-18.8567,10.2951,66.329,0.4741,-0.0176,-4.2463
1230381.0,-18.3396,10.0365,65.5149,1.044,-0.3326,-3.8466
1230391.0,-18.148,9.5385,65.7639,1.6852,-0.6428,-3.5332
1230401.0,-18.3587,10.2759,64.6147,1.8448,-1.1877,-3.2108
1230411.0,-16.8169,10.1514,64.5477,1.599,-1.8613,-2.9378
1230421.0,-17.6309,10.1035,64.6626,1.0291,-2.6393,-2.7723
1230431.0,-16.7881,10.4291,64.3466,0.4001,-3.5838,-2.5797
1230441.0,-16.3189,10.0173,63.5804,-0.3938,-4.5123,-2.4302
1230451.0,-16.2135,9.845,62.1152,-0.9546,-5.4403,-2.3115
1230461.0,-15.591,9.3374,61.3203,-1.2877,-6.1156,-2.137
1230471.0,-14.8441,8.3606,60.3147,-1.1999,-6.7004,-1.9582
1230481.0,-14.5567,7.7093,59.223,-1.1047,-7.3086,-1.8118
1230491.0,-13.7906,7.3837,57.298,-1.0243,-8.0461,-1.6543
1230501.0,-13.5799,7.3933,54.5495,-1.0461,-8.823,-1.5133
1230511.0,-12.7946,8.0158,51.2168,-0.944,-9.2832,-1.317
1230521.0,-11.2527,8.6766,47.0796,-0.8508,-9.3215,-1.0307
1230531.0,-11.4634,8.734,44.5992,-0.8131,-9.2758,-0.7391
1230541.0,-9.3565,8.6095,41.3143,-0.7269,-8.9581,-0.4496
1230551.0,-7.8817,7.7859,40.9983,-0.9908,-8.6378,-0.1708
1230561.0,-6.3207,6.4931,41.7645,-1.144,-8.584,0.0367
1230571.0,-5.6407,5.861,42.8754,-0.945,-8.7176,0.2267
1230581.0,-4.6256,5.3822,42.0709,-0.5789,-8.7485,0.4683
1230591.0,-4.9321,5.5067,41.4676,-0.2836,-8.8059,0.771
1230601.0,-3.9744,5.5067,42.4444,0.3475,-8.8629,1.1275
1230611.0,-3.7541,5.5929,43.8713,1.7288,-8.907,1.5687
1230621.0,-3.3232,6.7421,42.3486,2.9766,-9.3136,2.1274
1230631.0,-1.6281,6.6559,39.8682,3.7493,-9.8835,2.6542
1230641.0,0.2682,6.1483,33.6625,3.9504,-10.2985,3.0958
1230651.0,2.0207,5.0661,27.4376,2.7611,-10.3347,3.4225
1230661.0,4.1755,2.8635,25.5797,1.8906,-10.0883,3.6072
1230671.0,5.9376,1.1875,23.3961,1.2702,-9.5014,3.7482
1230681.0,6.9336,-1.3408,24.0378,0.9222,-8.8921,3.7913
1230691.0,7.0294,-3.4381,26.3649,1.6698,-8.2515,3.6992
1230701.0,6.5505,-2.8443,27.677,2.8596,-8.0514,3.5907
1230711.0,8.6095,-0.8045,26.6618,3.9594,-7.8721,3.6311
1230721.0,10.7164,0.68,25.7903,4.7087,-7.4528,3.8041
1230731.0,12.8904,1.6951,23.1854,4.549,-7.4671,3.952
1230741.0,14.5855,1.1205,20.3986,3.0181,-7.9083,4.0004
1230751.0,15.1505,-0.4022,17.9086,0.8562,-8.625,3.9254
1230761.0,16.6062,-4.1563,14.7004,-1.035,-9.5051,3.6902
1230771.0,18.8376,-5.6886,9.1363,-1.144,-9.2268,3.3294
1230781.0,19.5846,-3.2178,3.0837,0.0713,-7.4937,3.1756
1230791.0,20.3124,-1.5323,1.6855,1.8108,-5.5409,3.2837
1230801.0,21.8638,1.9058,1.0151,2.7734,-4.2995,3.596
1230811.0,20.3699,7.3263,-1.1396,1.3223,-4.8417,4.3841
1230821.0,22.314,4.2808,-3.3902,-1.9667,-7.1729,5.435
1230831.0,21.9405,-5.4588,-12.1242,-3.7572,-10.5571,6.18
1230841.0,12.967,-12.1721,-41.4101,-4.8028,-15.2833,6.3864
1230851.0,18.6077,-21.385,-78.4532,-4.4304,-16.1044,5.9597
1230861.0,16.8935,-27.7632,-78.4532,-2.3386,-12.5866,4.4841
1230871.0,6.6559,-28.922,-78.4532,1.9321,-3.0703,2.1088
1230881.0,-10.7643,-6.1866,-78.4532,1.6559,10.9754,-0.1368
1230891.0,-41.8123,5.6886,-78.4532,-0.3794,17.4357,-1.2084
1230901.0,-78.4532,14.7196,-78.4532,-3.2837,17.4357,-1.1387
1230911.0,-78.4532,17.9086,-78.4532,-3.3209,17.4357,-0.3645
1230921.0,-78.4532,17.8607,-72.324,3.214,17.4357,0.6215
1230931.0,-78.4532,14.6908,-9.232,12.2365,17.4357,1.7741
1230941.0,-78.4532,-2.8922,54.2239,16.2752,17.4357,0.9206
1230951.0,-78.4532,-13.963,78.4508,17.4357,17.4357,-1.7858
1230961.0,-78.4532,1.9441,78.4508,10.8982,17.4357,-4.9039
1230971.0,-78.4532,2.3559,78.4508,8.7602,17.4357,-7.0941
1230981.0,-78.4532,39.4469,78.4508,1.3196,17.4357,-6.9478
1230991.0,-78.4532,42.0039,78.4508,-1.8688,9.146,-4.6049
1231001.0,-78.4532,39.3032,78.4508,-2.5494,-10.5545,-1.9747
1231011.0,-78.4532,20.9636,78.4508,-3.5417,-17.4363,-0.0963
1231021.0,-78.4532,7.0102,78.4508,0.5337,-17.2649,0.9674
1231031.0,-70.7439,-3.4764,78.4508,0.0383,-10.9785,0.8817
1231041.0,-61.7225,-15.9071,78.4508,-0.0878,-5.1109,-0.1559
1231051.0,-57.7003,-16.6924,78.4508,1.3026,-0.3741,-1.6017
1231061.0,-56.7905,-4.6448,78.4508,1.9709,1.4468,-2.7835
1231071.0,-53.4673,13.1873,78.4508,-0.058,-0.0447,-2.9319
1231081.0,-52.1936,24.1719,78.4508,-3.1528,-4.8949,-2.0422
1231091.0,-49.7132,20.7817,78.4508,-5.7298,-12.742,-0.712
1231101.0,-48.2192,5.2289,78.4508,-6.0693,-17.4363,0.1261
1231111.0,-44.58,-11.0038,78.4508,-4.3718,-17.4363,0.1091
1231121.0,-39.3607,-23.6739,58.6005,-2.9905,-17.4363,-1.0477
1231131.0,-33.1645,-23.9229,27.2077,-3.3204,-17.4363,-2.9272
1231141.0,-28.6442,-15.4953,11.3389,-4.399,-17.4363,-4.6688
1231151.0,-27.8206,-2.2984,8.8298,-5.3344,-15.883,-5.7553
1231161.0,-26.8055,11.0804,15.8592,-5.1604,-12.4961,-5.9187
1231171.0,-26.2404,22.1607,26.6618,-3.5444,-9.8691,-5.1466
1231181.0,-25.5413,28.3378,35.664,-2.1082,-9.0113,-3.6923
1231191.0,-23.2333,25.3019,41.774,-2.1673,-9.86,-2.2886
1231201.0,-20.6476,17.1904,46.2943,-2.46,-11.1563,-1.3569
1231211.0,-18.6748,9.5385,47.0987,-2.3429,-12.6664,-1.0355
1231221.0,-17.5639,5.047,44.2736,-2.7345,-14.242,-1.1015
1231231.0,-16.6253,3.5051,39.6959,-3.4444,-15.8053,-1.3356
1231241.0,-15.3325,6.5505,32.7431,-4.167,-17.0361,-1.5133
1231251.0,-13.6661,11.8082,25.369,-5.1088,-17.423,-1.243
1231261.0,-12.3828,12.2104,21.701,-5.1689,-17.4363,-0.6098
1231271.0,-10.161,9.9982,17.4872,-4.2095,-17.2234,0.1112
1231281.0,-7.5753,5.1619,11.1761,-2.8995,-16.6455,0.7897
1231291.0,-3.9073,-0.68,5.7269,-1.1329,-15.8043,1.1419
1231301.0,-0.067,-1.6472,-3.7445,-0.0399,-14.5315,1.3175
1231311.0,3.6392,-2.2984,-8.8298,-0.0612,-12.5589,1.5447
1231321.0,6.359,-2.9209,-9.6343,-0.3491,-10.9248,1.7267
1231331.0,8.734,-4.865,-6.9528,-1.7123,-10.0596,1.8922
1231341.0,11.2719,-11.6933,0.3352,-1.5117,-9.8861,1.8773
1231351.0,15.6485,-16.9222,-1.5323,-0.2011,-9.5424,1.5351
1231361.0,17.6405,-20.1975,-0.5842,1.6086,-8.7368,0.9285
1231371.0,18.9046,-17.5639,-4.5586,3.9403,-8.3121,0.3677
1231381.0,20.5327,-11.157,-10.8601,4.2346,-7.7236,0.0399
1231391.0,21.9022,-5.9185,-12.7467,3.9685,-7.4022,-0.0282
1231401.0,25.7233,-0.3065,-15.3995,2.8942,-7.3187,0.2512
1231411.0,21.1073,4.0127,-19.757,0.754,-8.8288,0.6609
1231421.0,24.0378,5.6407,-33.2986,-2.1987,-10.5502,1.1967
1231431.0,23.4344,3.5434,-44.197,-2.344,-10.6151,1.4591
1231441.0,19.9676,5.7269,-71.0982,-1.8076,-9.7579,1.5921
1231451.0,20.9349,8.7436,-78.4532,-2.7377,-7.3596,1.4771
1231461.0,18.761,13.7714,-78.4532,-1.5841,-2.9596,1.4064
1231471.0,13.6086,19.3068,-78.4532,-0.1788,4.1393,1.6394
1231481.0,-0.1245,20.3507,-78.4532,0.763,9.5913,2.0933
1231491.0,-11.3102,16.338,-78.4532,-0.0974,15.0524,2.6446
1231501.0,-27.3035,4.7501,-78.4532,-0.0569,17.4357,2.6755
1231511.0,-53.8983,-3.1029,-78.4532,0.2426,17.4357,2.304
1231521.0,-78.4532,-18.0236,-78.4532,-0.7109,17.4357,1.3558
1231531.0,-78.4532,-19.7282,-65.2755,6.0943,17.4357,-0.29
1231541.0,-78.4532,-11.1282,-22.2661,15.0987,17.4357,-1.5351
1231551.0,-78.4532,-4.6352,26.183,17.4357,17.4357,-3.0926
1231561.0,-78.4532,4.0318,78.4508,14.9795,17.4357,-4.2824
1231571.0,-78.4532,9.8162,78.4508,11.2276,17.4357,-4.6421
1231581.0,-78.4532,19.4313,78.4508,10.804,17.4357,-4.3394
1231591.0,-78.4532,18.6939,78.4508,11.0578,17.4357,-3.9616
1231601.0,-78.4532,18.1959,78.4508,3.1107,17.4357,-3.9238
1231611.0,-78.4532,9.3565,78.4508,6.3577,17.4357,-3.1655
1231621.0,-78.4532,25.1008,78.4508,7.4102,3.4401,-1.8033
1231631.0,-78.4532,11.8848,78.4508,2.7909,-11.1435,-1.2733
1231641.0,-78.4532,2.1548,78.4508,-1.9353,-17.4363,-1.9082
1231651.0,-73.3105,-4.5394,78.4508,-6.7339,-17.4363,-2.9947
1231661.0,-62.5557,-4.4436,78.4508,-5.824,-17.308,-3.6902
1231671.0,-58.4185,-0.0862,74.9098,-6.3396,-11.4037,-3.8419
1231681.0,-54.1377,-8.8681,78.4508,-4.4384,-6.4891,-4.0015
1231691.0,-50.307,-8.1307,78.4508,-0.9115,-3.2714,-4.4352
1231701.0,-51.4658,-0.996,78.4508,-1.0456,-2.8793,-4.6315
1231711.0,-52.6054,4.1468,78.4508,-1.3718,-6.3119,-4.6203
1231721.0,-51.2838,11.4251,78.4508,-2.6478,-11.9475,-4.2659
1231731.0,-51.6094,10.3621,78.4508,-4.2713,-17.4363,-4.0004
1231741.0,-50.7667,10.6207,78.4508,-5.1615,-17.4363,-3.9403
1231751.0,-50.7858,13.3022,72.5156,-6.4971,-17.4363,-3.8089
1231761.0,-46.3709,11.9423,47.6542,-7.1324,-17.4363,-3.6407
1231771.0,-43.0094,8.8777,27.0162,-6.7163,-17.4363,-3.7051
1231781.0,-37.9912,8.8394,12.3445,-4.9678,-17.4363,-3.7019
1231791.0,-32.0823,12.153,0.5938,-4.1489,-17.4363,-3.4156
1231801.0,-27.2939,14.4706,-2.1644,-3.3358,-16.6328,-2.8952
1231811.0,-22.3618,14.212,-0.5938,-2.5494,-13.8392,-2.1274
1231821.0,-19.5367,9.4427,6.1675,-1.4612,-11.9901,-1.4904
1231831.0,-16.8648,7.1539,10.4291,-0.2293,-11.4367,-1.1313
1231841.0,-14.3269,9.1459,12.4115,0.2953,-11.1361,-0.6694
1231851.0,-13.1202,9.6726,13.9151,0.4661,-11.1829,-0.124
1231861.0,-10.7835,7.9679,15.6581,0.439,-11.2345,0.4491
1231871.0,-7.8817,2.5666,17.7362,0.3118,-11.5458,0.7588
1231881.0,-6.5122,0.4405,19.642,-0.3789,-12.7175,0.8067
1231891.0,-4.5777,-0.8619,21.3946,-0.3874,-14.25,0.969
1231901.0,-1.3791,-2.8635,16.6253,0.4587,-15.2865,1.1297
1231911.0,3.8978,-2.4708,5.8035,0.6178,-15.8804,1.3117
1231921.0,4.9512,-1.9728,-1.312,0.3432,-15.6697,1.4431
1231931.0,8.6957,0.4788,-11.4251,0.6449,-15.2871,1.7326
1231941.0,14.9207,0.9194,-16.8648,0.9142,-13.6476,2.1476
1231951.0,12.651,1.0151,-22.6013,0.9759,-13.7157,2.4392
1231961.0,10.0748,1.1971,-31.8237,-0.2889,-14.5751,2.6387
1231971.0,11.9231,3.3423,-45.7005,-0.0442,-14.4676,2.7845
1231981.0,13.1106,7.0006,-69.1062,-1.466,-13.96,2.8856
1231991.0,20.4561,9.4906,-78.4532,-2.9527,-12.3466,2.6536
1232001.0,22.7353,15.5144,-78.4532,-3.7115,-10.6289,2.4291
1232011.0,25.1583,22.2565,-78.4532,-4.1425,-6.3625,2.3248
1232021.0,15.7826,31.0001,-78.4532,-1.8858,-1.674,2.6531
1232031.0,6.0525,39.466,-78.4532,-0.4448,3.0756,3.8003
1232041.0,-0.929,37.3112,-78.4532,1.698,9.0017,5.2722
1232051.0,-17.3532,29.6306,-78.4532,2.594,17.4357,6.7036
1232061.0,-35.8651,9.6726,-78.4532,2.1865,17.4357,7.4171
1232071.0,-62.3067,-14.1545,-78.4532,2.1609,17.4357,6.6998
1232081.0,-78.4532,-28.0313,-78.4532,10.357,17.4357,5.0944
1232091.0,-78.4532,-46.6007,-9.0309,17.4357,17.4357,2.0891
1232101.0,-78.4532,-37.9242,62.9962,17.4357,17.4357,-2.4227
1232111.0,-78.4532,0.9385,78.4508,17.4357,17.4357,-5.5718
1232121.0,-78.4532,27.8877,78.4508,13.6253,17.4357,-5.6154
1232131.0,-78.4532,45.3749,78.4508,12.1832,17.4357,-4.4767
1232141.0,-78.4532,37.7422,78.4508,-4.2415,17.4357,-2.7239
1232151.0,-78.4532,9.8162,78.4508,-3.8168,17.4357,-1.1105
1232161.0,-78.4532,10.2663,78.4508,-0.0617,10.1022,0.737
1232171.0,-78.4532,-19.3451,78.4508,0.8264,0.2033,1.0781
1232181.0,-76.9592,-26.9779,78.4508,-2.0061,-9.6813,-0.6321
1232191.0,-68.953,-30.7511,78.4508,-5.7846,-14.8332,-2.8181
1232201.0,-64.6243,-22.9556,78.4508,-4.3367,-15.493,-4.7135
1232211.0,-57.4704,-0.6416,78.4508,-5.9501,-12.635,-5.4393
1232221.0,-51.686,9.8641,75.8292,-6.0746,-8.8544,-4.9332
1232231.0,-47.7308,14.5567,73.0902,-4.6453,-4.9917,-3.7982
1232241.0,-44.3023,11.6741,78.4508,-2.618,-2.4722,-2.4663
1232251.0,-42.9137,5.6599,78.4508,0.2251,-2.4578,-1.5373
1232261.0,-42.3391,3.2657,78.4508,0.4704,-5.079,-0.9706
1232271.0,-38.5275,-4.798,78.4508,-0.4225,-9.387,-1.0355
1232281.0,-36.3631,-6.3015,78.4508,-2.0178,-13.6311,-1.6666
1232291.0,-34.9745,-4.5681,78.4508,-4.5224,-17.1415,-2.3365
1232301.0,-33.7391,-1.5802,65.831,-5.9416,-17.4363,-2.8271
1232311.0,-31.4407,2.49,51.8584,-6.1283,-17.4363,-2.8771
1232321.0,-29.9179,2.8156,39.5235,-5.3169,-17.4363,-2.6244
1232331.0,-25.7616,1.9824,28.4048,-4.3011,-17.4363,-2.3376
1232341.0,-22.5342,-0.9385,24.4783,-2.8282,-15.4084,-2.17
1232351.0,-20.3028,-0.6704,20.389,-1.3133,-13.3778,-2.1231
1232361.0,-17.7554,-0.2011,19.508,-1.3393,-11.8783,-2.0752
1232371.0,-15.3325,-0.6129,22.7162,-1.7081,-11.3276,-2.2077
1232381.0,-13.7714,2.241,25.369,-2.3541,-11.325,-2.2109
1232391.0,-11.6167,2.9592,28.1079,-2.8362,-11.6096,-2.0955
1232401.0,-10.6398,3.869,29.1805,-3.2544,-11.9348,-1.822
1232411.0,-9.7492,2.5953,33.6337,-2.9804,-12.5275,-1.4191
1232421.0,-8.2648,0.8236,32.6282,-1.79,-13.5199,-0.9966
1232431.0,-7.671,-1.1492,29.5636,-0.8333,-14.0302,-0.4879
1232441.0,-6.1196,-5.8706,26.6523,0.7897,-14.2904,-0.2043
1232451.0,-4.9225,-6.2441,18.4162,1.3452,-14.6262,-0.1618
1232461.0,-2.6145,-4.9704,11.5688,0.4587,-14.9859,-0.1586
1232471.0,0.1341,-4.0893,5.1044,-0.9397,-15.0918,-0.1692
1232481.0,3.486,-2.6911,0.3543,-2.2157,-14.5512,-0.1751
1232491.0,6.5888,-2.5666,1.4174,-1.3399,-13.298,0.0138
1232501.0,8.4659,-1.1109,-1.8483,-0.0713,-12.1566,0.3858
1232511.0,10.7835,-3.0837,-2.3367,1.2521,-11.2265,0.7928
1232521.0,14.2407,-4.2042,-8.8107,2.3988,-10.5406,0.9865
1232531.0,17.0371,-4.4245,-13.9343,1.765,-9.503,1.0882
1232541.0,19.4888,-6.5888,-13.9917,2.1822,-8.6819,1.027
1232551.0,22.3331,-4.1372,-19.1249,2.0029,-7.7055,0.8546
1232561.0,22.5246,-1.8579,-19.6612,1.0296,-7.2543,0.7231
1232571.0,23.4728,2.7869,-22.4385,0.3959,-6.9834,0.7641
1232581.0,22.8886,7.3933,-24.4017,0.1091,-6.5269,1.1573
1232591.0,25.6658,9.6151,-29.5828,-0.1378,-6.3806,1.7783
1232601.0,26.2404,8.8011,-39.0351,-1.3697,-6.8302,2.345
1232611.0,25.2732,6.0142,-50.4985,-2.4451,-7.0824,2.5643
1232621.0,25.4456,5.4013,-66.1662,-1.9039,-5.3472,2.4802
1232631.0,20.6859,5.6695,-76.7294,0.5582,-1.6208,2.3823
1232641.0,18.3587,10.4579,-78.4532,2.5573,2.9612,2.2397
1232651.0,9.6726,15.1122,-78.4532,3.4891,7.1026,2.3402
1232661.0,4.1372,20.0538,-78.4532,3.853,11.2095,2.8037
1232671.0,-0.0287,19.0962,-78.4532,3.7232,16.0448,3.4635
1232681.0,-8.9064,16.9509,-78.4532,2.3535,17.4357,3.9775
1232691.0,-17.5064,11.1666,-68.5508,-0.3815,17.4357,4.4394
1232701.0,-27.9739,1.063,-48.9566,-1.3585,17.4357,4.6177
1232711.0,-41.1228,-7.92,-21.0211,0.7593,17.4357,4.4506
1232721.0,-54.4154,-15.4187,-2.4229,7.1702,17.4357,3.8881
1232731.0,-66.0512,-18.1385,-7.604,13.3464,17.4357,2.7372
1232741.0,-78.4532,-21.3659,-4.0127,17.4357,17.4357,1.1919
1232751.0,-78.4532,-21.2605,8.2169,17.4357,17.4357,-0.9035
1232761.0,-78.4532,-13.1585,40.7493,17.0351,17.4357,-2.7957
1232771.0,-78.4532,-6.8378,78.4508,12.4509,17.4357,-3.5976
1232781.0,-78.4532,-8.6574,78.4508,12.1157,17.4357,-3.4508
1232791.0,-78.4532,-0.498,78.4508,14.7129,17.4357,-3.439
1232801.0,-78.4532,0.9194,78.4508,11.5319,17.4357,-3.7173
1232811.0,-78.4532,1.0726,78.4508,0.0798,16.1619,-4.1691
1232821.0,-78.4532,-17.9374,78.4508,5.253,1.9587,-4.1143
1232831.0,-78.4532,-5.2577,78.4508,8.5133,-8.4494,-4.8172
1232841.0,-78.4532,0.6416,78.4508,1.0084,-15.8335,-6.4375
1232851.0,-78.4532,11.2144,78.4508,-1.641,-16.3593,-7.4751
1232861.0,-70.7056,24.8518,78.4508,-2.344,-10.8982,-7.2559
1232871.0,-67.6984,33.5188,78.4508,-1.1946,-5.7165,-6.0879
1232881.0,-64.2316,40.0311,78.4508,-0.9168,-3.2613,-4.2021
1232891.0,-62.3737,33.5954,78.4508,-0.638,-3.9791,-2.3078
1232901.0,-61.1383,26.1543,78.4508,1.1153,-8.1956,-0.9408
1232911.0,-60.286,20.1304,78.4508,0.281,-14.739,-0.3022
1232921.0,-60.6308,11.8465,78.4508,-1.1494,-17.4363,-0.5002
1232931.0,-61.282,9.7588,78.4508,-3.5396,-17.4363,-1.3138
1232941.0,-60.784,11.8657,78.4508,-7.5368,-17.4363,-2.3679
1232951.0,-59.5677,18.8759,55.67,-9.0672,-17.4363,-2.9958
1232961.0,-56.8767,26.997,30.7415,-8.641,-17.4363,-2.7031
1232971.0,-50.9582,29.2955,12.7755,-6.6025,-17.4363,-1.7735
1232981.0,-45.2121,28.5772,-1.245,-2.9479,-17.4363,-0.4459
1232991.0,-39.5809,25.6563,-16.2901,-1.0467,-17.4363,0.8748
1233001.0,-33.7199,19.8527,-20.9732,-2.1763,-17.4363,1.7326
1233011.0,-29.7934,12.2009,-13.2543,-1.6879,-17.4363,2.1487
1233021.0,-27.8206,9.4236,-10.0269,1.1664,-17.4363,2.4185
1233031.0,-22.5438,12.5839,-20.2741,2.6595,-17.3926,2.8963
1233041.0,-16.204,14.7483,-26.681,2.3312,-16.0022,3.5029
1233051.0,-9.0884,14.2599,-28.8358,1.1196,-14.3708,4.2149
1233061.0,-3.2465,6.9145,-21.0115,-0.5949,-14.2393,4.6948
1233071.0,3.3136,-1.8866,-18.2725,-1.3202,-15.891,4.8273
1233081.0,10.5153,-11.3485,-24.4496,-1.55,-16.6067,4.4559
1233091.0,14.8728,-17.1521,-34.3137,-0.1644,-15.7537,3.6833
1233101.0,19.1728,-15.1314,-45.9878,1.632,-13.3848,2.9208
1233111.0,23.444,-9.9503,-54.6453,3.2411,-9.9569,2.4616
1233121.0,24.3921,-4.7788,-56.8479,4.4964,-6.3247,2.3865
1233131.0,28.3282,-0.9577,-53.4003,5.3483,-2.8622,2.5456
1233141.0,27.8398,2.3463,-42.3678,6.6056,-0.2932,2.8138
1233151.0,27.2556,5.5737,-33.1741,6.1326,-1.1414,3.2858
1233161.0,28.5676,2.739,-37.589,3.024,-5.3046,3.2837
1233171.0,30.55,-1.9537,-64.2316,0.4113,-8.1089,2.6153
1233181.0,27.8685,-0.6512,-78.4532,-2.7893,-7.7422,1.4575
1233191.0,19.8048,8.9735,-78.4532,-4.2558,-4.8183,0.5161
1233201.0,5.7269,28.7975,-78.4532,-5.4057,2.8096,0.853
1233211.0,-10.8505,32.8293,-78.4532,-6.148,12.5722,2.2897
1233221.0,-36.2865,39.2266,-78.4532,-2.6372,17.4357,4.6464
1233231.0,-61.6938,21.0211,-78.4532,1.3553,17.4357,6.901
1233241.0,-78.4532,-12.6605,-78.4532,3.2235,17.4357,7.4996
1233251.0,-78.4532,-61.0617,-28.8836,9.9675,17.4357,5.2716
1233261.0,-78.4532,-78.4532,48.5353,17.4357,17.4357,-0.1165
1233271.0,-78.4532,-54.5974,78.4508,17.4357,17.4357,-5.509
1233281.0,-78.4532,-9.7396,78.4508,13.9951,17.4357,-7.8907
1233291.0,-78.4532,30.5692,78.4508,8.493,17.4357,-7.4549
1233301.0,-78.4532,30.0616,78.4508,-0.0825,17.4357,-6.2688
1233311.0,-78.4532,36.1429,78.4508,-8.5558,17.4357,-4.2
1233321.0,-78.4532,24.4304,78.4508,0.0575,8.1568,-0.3741
1233331.0,-78.1755,27.4759,78.4508,4.2574,-1.4633,2.204
1233341.0,-66.1662,4.4053,78.4508,-3.5114,-8.1067,2.8239
1233351.0,-55.6508,-20.3411,78.4508,-1.2925,-10.6337,2.0603
1233361.0,-44.6567,-22.6108,78.4508,-3.7785,-9.6568,0.439
1233371.0,-38.8244,-26.9108,72.3624,-5.9847,-8.426,-1.2148
1233381.0,-32.4079,-22.4959,53.113,-4.2878,-5.1705,-2.5025
1233391.0,-26.1734,-12.2487,45.0301,-1.3457,1.8821,-3.0894
1233401.0,-25.3881,-3.9456,46.0453,1.9225,9.0273,-3.0767
1233411.0,-32.2643,-0.5171,64.3944,0.3054,12.9947,-3.0687
1233421.0,-36.6696,-4.2234,78.4508,-0.6167,12.0465,-3.2156
1233431.0,-38.6616,-2.5762,78.4508,-0.4842,7.5704,-3.3741
1233441.0,-39.8778,-0.249,78.4508,-0.589,0.4544,-3.4114
1233451.0,-39.9353,3.5913,78.4508,-1.0674,-8.1956,-3.4252
1233461.0,-43.3446,9.2129,78.4508,-3.0591,-16.1954,-3.3071
1233471.0,-41.9368,4.8171,78.4508,-4.0744,-17.4363,-3.0437
1233481.0,-37.1293,-5.3151,78.4508,-2.0651,-17.4363,-3.5103
1233491.0,-37.4645,2.3846,55.986,-3.753,-17.4363,-4.1223
1233501.0,-35.4055,6.1196,50.1154,-6.0656,-17.4363,-4.3537
1233511.0,-32.5516,10.5632,44.5896,-5.2509,-17.4363,-4.0206
1233521.0,-32.0536,12.6797,40.0215,-3.2565,-17.4363,-3.2416
1233531.0,-28.8645,12.5935,34.2275,-1.2813,-16.5929,-2.3679
1233541.0,-25.8861,11.4347,27.3992,-1.3399,-15.7186,-1.5171
1233551.0,-22.1224,6.1292,29.1614,-0.8833,-14.6831,-0.9823
1233561.0,-19.757,3.1029,27.5525,0.2778,-13.5481,-0.5773
1233571.0,-17.1904,-3.3136,27.926,0.0011,-12.8558,-0.4629
1233581.0,-15.457,-9.4236,32.1876,-0.1187,-12.9346,-0.9179
1233591.0,-15.3516,-7.9296,34.5723,0.049,-13.0905,-1.3979
1233601.0,-15.3899,-2.8635,36.7845,0.3427,-13.5806,-1.533
1233611.0,-14.9973,4.1276,36.2578,0.1777,-14.6618,-1.2457
1233621.0,-14.3652,8.5521,34.7447,-0.5268,-16.0751,-0.5348
1233631.0,-12.5073,7.1251,31.5556,-0.7508,-17.4363,0.2464
1233641.0,-10.2568,5.1715,24.1048,-0.4512,-17.4363,0.8971
1233651.0,-7.0485,2.8826,11.7412,-0.4981,-17.4363,1.4298
1233661.0,-3.9361,-2.2793,-1.1875,-0.9849,-17.4363,1.6964
1233671.0,1.992,-6.1579,-13.149,-1.5713,-17.4363,1.5383
1233681.0,3.2657,-7.1922,-23.3674,-2.3493,-16.6557,1.2739
1233691.0,12.2775,-8.5808,-28.7687,-2.6643,-13.3108,1.0259
1233701.0,15.1026,-8.4276,-32.0631,-1.9507,-11.9103,0.7189
1233711.0,20.2645,-8.3797,-37.0239,-2.5914,-10.4358,0.3704
1233721.0,21.0786,-9.3948,-37.6464,-0.6854,-9.0709,-0.0819
1233731.0,23.7888,-4.2234,-49.6845,0.9562,-6.9265,-0.4103
1233741.0,23.9037,-1.4748,-54.923,1.9603,-4.2819,-0.5869
1233751.0,25.187,2.8539,-60.0466,2.685,-1.3319,-0.7391
1233761.0,24.3347,7.7476,-57.8918,2.4924,1.5016,-0.7263
1233771.0,23.2621,13.2639,-53.7163,2.5435,3.4763,-0.5156
1233781.0,22.5917,19.1632,-48.631,2.1678,5.2562,-0.0766
1233791.0,19.575,23.9612,-43.517,2.4392,5.3435,0.5928
1233801.0,17.6884,28.0888,-49.4355,2.1487,5.5361,1.3537
1233811.0,11.9327,32.3696,-57.8631,1.5985,6.1246,2.204
1233821.0,4.3383,37.5124,-73.5307,-0.0676,6.8861,3.3284
1233831.0,-1.7621,36.8707,-78.4532,-2.3035,9.5147,4.7337
1233841.0,-14.0109,31.7567,-78.4532,-3.977,13.414,6.098
1233851.0,-24.5932,20.4656,-78.4532,-3.3715,17.4357,7.275
1233861.0,-37.5794,4.5586,-78.4532,1.5846,17.4357,7.804
1233871.0,-55.2869,-7.0006,-62.278,5.5712,17.4357,7.1569
1233881.0,-77.371,-9.9024,-36.0567,8.2477,17.4357,6.2236
1233891.0,-78.4532,-12.2392,-3.3519,11.2212,17.4357,5.2126
1233901.0,-78.4532,-11.3868,21.2892,10.7668,17.4357,4.1084
1233911.0,-78.4532,-25.5318,53.927,9.4918,17.4357,2.5972
1233921.0,-78.4532,-32.5324,78.4508,10.9477,17.4357,-0.0133
1233931.0,-78.4532,-31.4502,78.4508,9.3561,17.4357,-2.3253
1233941.0,-78.4532,-16.4625,78.4508,5.0689,17.4357,-3.6045
1233951.0,-78.4532,-10.0461,78.4508,7.5209,17.4357,-4.6757
1233961.0,-78.4532,16.9031,78.4508,-4.0318,17.4357,-4.4352
1233971.0,-78.4532,3.9744,78.4508,-2.5307,11.8262,-1.9507
1233981.0,-78.4532,8.8681,78.4508,8.2382,-0.3379,1.0632
1233991.0,-78.4532,-4.6352,78.4508,1.2451,-11.1084,1.6671
1234001.0,-74.8906,-22.5917,78.4508,-2.6265,-17.4363,0.6726
1234011.0,-62.1822,-26.0585,78.4508,-5.626,-17.4363,-0.6337
1234021.0,-52.5384,-34.4861,78.4508,-5.8788,-14.2159,-2.1785
1234031.0,-47.1179,-31.297,68.0241,-5.4462,-9.9095,-3.646
1234041.0,-45.0014,-32.3792,72.0367,-5.592,-6.5923,-4.9359
1234051.0,-42.5785,-29.4295,78.4508,-1.5006,-4.2835,-6.0262
1234061.0,-41.4005,-18.2055,78.4508,1.4734,-2.5999,-6.6807
1234071.0,-41.7932,-8.8298,78.4508,1.7054,-2.8558,-7.1133
1234081.0,-42.8083,0.0192,78.4508,-0.2166,-5.7591,-7.4501
1234091.0,-45.2791,6.4931,78.4508,-2.627,-10.1064,-7.5895
1234101.0,-47.3477,11.7603,78.4508,-2.2264,-14.722,-7.2421
1234111.0,-50.9965,17.9852,78.4508,-1.0291,-17.4363,-6.5093
1234121.0,-54.0228,22.5342,78.4508,-0.7215,-17.4363,-5.4754
1234131.0,-55.5263,23.7122,78.4508,0.2884,-17.4363,-4.2968
1234141.0,-56.1009,23.1088,54.9804,0.5694,-17.4363,-3.1836
1234151.0,-54.3771,19.6037,29.5732,-0.1016,-17.4363,-2.3716
1234161.0,-50.7188,15.4187,11.1857,-0.0197,-17.4363,-1.963
1234171.0,-45.825,16.2135,0.6321,2.4105,-17.4363,-1.6666
1234181.0,-41.7166,28.8358,-5.8227,4.3745,-17.4363,-0.6534
1234191.0,-38.5179,38.6616,-1.1875,3.4119,-16.9153,1.3239
1234201.0,-32.3121,37.2825,14.5472,1.6618,-16.2465,3.5721
1234211.0,-29.5923,25.2062,31.4119,-0.8455,-17.4363,5.3946
1234221.0,-28.2707,7.0773,39.3128,-1.6373,-17.4363,6.2646
1234231.0,-30.6841,-9.1937,26.1351,-1.0717,-17.4363,6.2555
1234241.0,-27.8398,-20.9445,-2.2601,0.6486,-17.4363,5.4361
1234251.0,29.9371,-20.7434,-68.4933,-0.0064,-17.4363,4.3112
1234261.0,-21.8351,-28.9986,-63.0537,3.397,-17.4363,2.8558
1234271.0,-1.7238,-6.3686,-78.4532,2.7553,-17.4363,1.7767
1234281.0,15.0835,-10.5441,-75.0247,-1.118,-12.7792,1.5064
1234291.0,18.9621,-5.2289,-66.0991,7.2287,-8.4813,1.2196
1234301.0,22.5055,2.5187,-67.6506,3.6365,-5.0551,1.6533
1234311.0,25.0338,-6.3686,-50.8241,2.494,-6.2635,1.5644
1234321.0,30.6458,-2.739,-63.0633,1.1244,-3.7429,1.3042
1234331.0,28.2803,-5.2672,-52.3181,2.1157,-0.6635,1.0509
1234341.0,30.3202,-3.1029,-52.8161,3.4401,2.7553,0.8876
1234351.0,28.0888,-3.3423,-40.395,4.2665,5.7782,0.7678
1234361.0,26.8342,0.9768,-33.5571,6.0453,8.7979,0.8423
1234371.0,23.7026,3.553,-19.9676,6.7195,11.6852,1.1494
1234381.0,22.8694,7.5082,-4.3862,7.1867,12.5126,1.731
1234391.0,25.0529,7.8243,2.5953,4.9875,10.8801,2.5446
1234401.0,23.8462,-0.2298,-0.9864,-0.7827,6.6296,2.941
1234411.0,23.8271,-11.4826,-9.6151,-6.9909,2.974,2.676
1234421.0,17.9565,-18.9621,-18.1959,-8.964,1.6474,2.1487
1234431.0,7.0868,-20.2933,-40.7397,-8.4696,0.3028,1.557
1234441.0,4.7309,-18.9621,-78.4532,-8.5659,2.9442,1.2382
1234451.0,8.4467,-28.673,-78.4532,0.1277,14.9018,0.5843
1234461.0,-20.4178,-6.177,-78.4532,0.8721,17.4357,0.629
1234471.0,-39.399,-18.1289,-55.9573,7.2495,17.4357,0.713
1234481.0,-64.9307,-19.7378,-9.6917,12.2998,17.4357,0.2543
1234491.0,-78.4532,-38.4509,77.6392,16.76,17.4357,-1.2489
1234501.0,-78.4532,-29.1231,78.4508,16.7227,17.4357,-4.0446
1234511.0,-78.4532,-20.5231,78.4508,13.7631,17.4357,-5.6287
1234521.0,-59.4528,-7.0198,78.4508,15.1418,17.4357,-8.069
1234531.0,-55.0188,25.2157,78.4508,-0.8322,17.4357,-9.4679
1234541.0,-51.0444,28.2037,78.4508,-5.0487,8.4872,-8.2919
1234551.0,-52.1074,47.6638,78.4508,3.6109,-2.8771,-5.1147
1234561.0,-48.5831,50.9007,78.4508,0.1724,-13.4449,-2.2881
1234571.0,-45.509,31.7663,78.4508,-2.0742,-17.4363,-0.7263
1234581.0,-36.8037,21.6149,78.4508,-1.6911,-17.4363,0.033
1234591.0,-26.1255,15.0835,45.9591,-2.9213,-17.4363,0.1171
1234601.0,-17.5064,12.6893,13.3692,-4.4799,-17.1739,-0.0724
1234611.0,-10.0461,12.9766,-1.3024,-5.9224,-11.2909,-0.0442
1234621.0,-5.928,9.5385,0.68,-2.8175,-4.9337,0.1596
1234631.0,-2.8635,10.5728,-0.6129,0.68,1.467,0.5401
1234641.0,-2.4612,9.7492,7.7093,3.5146,6.6844,0.9626
1234651.0,-5.3726,9.2033,18.7993,3.9451,9.8861,1.2414
1234661.0,-5.7461,2.3559,40.7014,3.2124,10.7253,1.2499
1234671.0,-3.8116,-3.4477,61.3011,2.6249,9.2401,0.6497
1234681.0,-3.3998,-2.0207,73.9617,-0.1155,4.9774,-0.0654
1234691.0,-4.9608,-1.8292,78.4508,-2.4163,-1.1233,-0.5757
1234701.0,-5.3056,2.0494,78.4508,-2.8846,-6.578,-0.8014
1234711.0,-5.114,4.4436,60.8031,-3.1267,-9.552,-0.6316
1234721.0,-4.5203,4.3479,41.8698,-1.8704,-9.9356,-0.356
1234731.0,-0.8428,5.928,18.7035,-1.1451,-7.7736,-0.0825
1234741.0,0.9194,4.4245,8.1786,-0.9897,-3.9978,0.1054
1234751.0,2.4995,3.2657,5.9089,-0.0814,0.2006,0.182
1234761.0,1.7142,3.8403,10.726,0.0756,3.9142,0.2528
1234771.0,0.0958,3.371,23.195,0.1591,5.9384,0.3166
1234781.0,-1.312,3.8499,35.5108,-0.2485,6.2262,0.4177
1234791.0,-2.557,2.8635,47.7691,-0.5566,5.1844,0.505
1234801.0,-2.6145,2.3846,54.7889,-0.1639,3.6168,0.6141
1234811.0,-3.5721,1.6185,57.298,0.3863,2.0146,0.7285
1234821.0,-1.9537,-0.5938,57.1927,0.8125,0.77,0.7327
1234831.0,-0.6895,-1.6089,54.2622,0.7093,-0.2602,0.5199
1234841.0,-0.0096,-1.6568,50.6326,-0.6699,-1.6091,0.2602
1234851.0,0.0479,-1.7621,48.8896,-1.9672,-3.14,0.0596
1234861.0,-0.0958,-0.8811,42.8466,-2.5068,-4.1766,-0.0346
1234871.0,0.4118,-0.2873,35.348,-2.974,-4.1648,-0.0048
1234881.0,0.9864,-0.7949,31.3928,-2.03,-3.33,0.1341
1234891.0,1.4365,-0.9768,24.9859,-0.9381,-1.5463,0.2629
1234901.0,1.81,-4.0127,24.9572,0.5305,0.5864,0.2692
1234911.0,2.4229,-4.798,25.2253,1.5782,2.6047,0.0357
1234921.0,1.0918,-3.6583,30.4447,1.416,3.9568,-0.2496
1234931.0,0.2011,-2.2122,39.0351,1.1733,4.1191,-0.538
1234941.0,-1.2546,1.5419,45.6335,0.4858,3.2278,-0.6987
1234951.0,-2.375,4.616,52.3085,-0.0495,1.6836,-0.621
1234961.0,-2.3655,6.7804,54.358,0.3991,-0.0947,-0.2937
1234971.0,-1.7621,8.1786,49.1961,0.7364,-1.4803,0.1165
1234981.0,-0.7853,6.7516,43.7181,0.8562,-2.0683,0.4422
1234991.0,0.6608,5.3247,37.838,1.1988,-1.8422,0.6619
1235001.0,0.8428,4.4149,32.3409,0.9073,-1.2691,0.7545
1235011.0,1.2641,2.6336,30.2436,0.3618,-0.5002,0.7402
1235021.0,0.9481,1.8004,30.5021,0.1862,0.3586,0.6157
1235031.0,0.6129,1.8962,31.0001,-0.1522,1.168,0.5417
1235041.0,0.3735,1.1109,34.6202,-0.0559,1.8858,0.4778
1235051.0,0.1437,1.6472,37.1772,0.5151,2.4541,0.4709
1235061.0,-0.8045,2.5953,38.47,0.4619,2.8856,0.4816
1235071.0,-1.3216,2.0782,43.1435,0.6779,3.1198,0.5204
1235081.0,-1.8866,2.4038,45.3366,0.9876,3.1294,0.5539
1235091.0,-2.6719,3.3902,47.5967,0.3821,2.8723,0.5832
1235101.0,-3.0742,3.6679,50.9773,-0.2219,2.0321,0.6742
1235111.0,-3.9744,4.0223,51.5328,-0.9413,1.0238,0.812
1235121.0,-3.6871,2.3846,52.3085,-1.1244,0.1756,0.9418
1235131.0,-3.2753,0.5267,49.5408,-0.7157,-0.2506,1.0328
1235141.0,-2.375,-2.2314,46.9264,-0.357,-0.2506,0.9908
1235151.0,-1.6472,-4.3479,44.8865,0.2011,0.0623,0.7418
1235161.0,-1.2354,-4.1468,42.7987,0.3927,0.4071,0.4252
1235171.0,-1.3886,-2.9018,41.9081,-0.1729,0.5374,0.0952
1235181.0,-2.1356,-0.6129,42.6647,-0.7875,0.5209,-0.099
1235191.0,-2.1069,2.0877,42.5593,-1.4154,0.5161,-0.132
1235201.0,-2.4134,1.8771,45.0685,-1.7294,0.4369,-0.0447
1235211.0,-2.557,1.5131,47.2711,-1.0387,0.2708,0.0452
1235221.0,-2.6719,1.6089,46.4954,-0.2331,0.125,0.1352
1235231.0,-2.1165,0.7757,45.6048,0.1043,0.0138,0.1985
1235241.0,-1.9728,0.0287,44.4651,0.3512,-0.2038,0.0952
1235251.0,-1.7142,1.6089,41.1132,-0.2448,-0.3704,-0.025
1235261.0,-1.5897,2.0494,40.9887,-0.9158,-0.398,-0.0516
1235271.0,-1.561,2.8826,40.395,-1.2717,-0.2772,-0.033
1235281.0,-1.8196,3.5626,40.7685,-1.5059,-0.1453,0.0506
1235291.0,-1.6472,3.2082,42.2146,-1.3372,-0.0404,0.2176
1235301.0,-1.3503,2.0877,42.77,-0.7721,0.1027,0.3262
1235311.0,-1.3503,0.0192,43.3734,-0.1399,0.2581,0.3884
1235321.0,-1.2546,-1.8962,43.8618,0.3251,0.3352,0.2943
1235331.0,-1.2929,-2.1931,43.7756,0.2698,0.0931,0.0756
1235341.0,-1.6089,-1.1971,43.8905,-0.1527,-0.3001,-0.108
1235351.0,-1.6185,1.0056,43.019,-0.4906,-0.6465,-0.1543
1235361.0,-1.3886,2.8922,42.1571,-0.8822,-0.8141,-0.083
1235371.0,-1.5227,3.2274,42.0901,-0.9589,-0.9131,0.0564
1235381.0,-0.9385,2.8252,41.0462,-0.7513,-0.8365,0.2379
1235391.0,-0.6991,0.4118,41.2665,-0.1745,-0.5981,0.331
1235401.0,-0.2394,-2.0016,40.1556,0.4337,-0.2937,0.2315
1235411.0,-0.565,-3.3136,39.8299,0.6513,-0.1479,-0.0426
1235421.0,-0.498,-2.2889,39.4756,0.4667,-0.157,-0.3826
1235431.0,-1.1588,1.1875,38.8435,-0.0697,-0.1799,-0.5944
1235441.0,-1.81,3.6105,39.4852,-0.5853,-0.1671,-0.5326
1235451.0,-1.6568,5.3822,39.8395,-0.8705,-0.1208,-0.3661
1235461.0,-1.743,5.4684,40.4716,-0.9418,-0.0351,-0.0958
1235471.0,-1.81,4.9129,41.5442,-0.7215,0.0878,0.1336
1235481.0,-1.7813,3.2753,42.5306,-0.1905,0.216,0.3507
1235491.0,-1.4461,1.0534,41.8794,0.1756,0.2309,0.4624
1235501.0,-0.5842,-1.7717,42.1475,0.1777,0.1884,0.34
1235511.0,-0.3352,-2.49,41.8506,0.1501,0.0814,0.0905
1235521.0,0.0287,-1.9154,41.7549,-0.157,0.0665,-0.1878
1235531.0,-0.0383,-0.4788,42.4348,-0.3762,-0.0165,-0.3432
1235541.0,-0.3352,1.5514,41.9081,-0.6087,-0.1942,-0.397
1235551.0,-0.4693,2.5474,42.1284,-1.0025,-0.3331,-0.3384
1235561.0,-0.8715,2.7294,42.454,-0.7035,-0.5316,-0.2027
1235571.0,-0.5459,3.3615,40.7302,-0.448,-0.513,-0.016
1235581.0,-0.5363,2.3176,39.964,0.0218,-0.3246,0.1591
1235591.0,-0.1341,1.1875,38.0582,0.1697,-0.0271,0.207
1235601.0,0.1532,0.6129,37.8188,-0.033,0.298,0.1932
1235611.0,0.2394,0.4597,38.7286,-0.0532,0.5236,0.1357
1235621.0,0.2011,1.0247,39.8491,-0.1905,0.5848,0.1373
1235631.0,0.7949,1.1205,41.1611,-0.1724,0.4432,0.1681
1235641.0,0.3926,1.4269,40.8547,-0.0144,0.2932,0.2416
1235651.0,0.1341,0.7949,40.644,-0.0873,0.2357,0.3134
1235661.0,0.0575,0.0766,40.4524,-0.0899,0.1431,0.2921
1235671.0,0.5459,0.1149,39.1787,-0.3198,0.0772,0.2719
1235681.0,0.5267,-0.7183,39.3607,-0.5406,0.2336,0.2528
1235691.0,1.4365,-1.5514,39.4469,-0.2192,0.5263,0.2208
1235701.0,1.1013,-2.0782,39.9927,0.0053,0.8908,0.0681
1235711.0,0.747,-2.3942,40.7397,0.3198,0.9993,-0.083
1235721.0,-0.0192,-1.5036,40.3854,0.1421,1.1148,-0.2783
1235731.0,-0.0383,-1.1588,41.1228,-0.1176,1.2063,-0.4959
1235741.0,-0.8811,-0.1724,41.7932,-0.3288,1.2909,-0.6955
1235751.0,-1.5227,1.3503,43.8043,-0.5491,1.2505,-0.7833
1235761.0,-2.0111,2.6815,45.6814,-0.3954,1.0743,-0.7253
1235771.0,-2.8635,4.0989,46.0166,-0.2155,0.8604,-0.5731
1235781.0,-2.8252,5.0661,46.2177,-0.124,0.6359,-0.3719
1235791.0,-3.2178,5.4875,46.007,-0.0277,0.4172,-0.1139
1235801.0,-2.3463,5.928,46.4188,0.0378,0.1969,0.1522
1235811.0,-3.1891,4.9704,45.2696,-0.0229,-0.1458,0.356
1235821.0,-2.4421,2.8922,45.4324,-0.1112,-0.3512,0.4933
1235831.0,-1.4269,0.5267,44.2161,0.0005,-0.4597,0.4475
1235841.0,-1.1013,-1.1013,42.6359,-0.3443,-0.4869,0.2453
1235851.0,-0.498,-1.9441,43.3925,-0.3108,-0.4608,-0.0181
1235861.0,-0.6608,-0.9194,42.1667,-0.2581,-0.4284,-0.2485
1235871.0,-0.4693,0.9673,42.1188,-0.2203,-0.3416,-0.3549
1235881.0,-1.1205,2.9592,41.4676,-0.1894,-0.3038,-0.3214
1235891.0,-0.9481,4.798,40.778,-0.4385,-0.2176,-0.1767
1235901.0,-0.9481,4.9895,41.1132,-0.5151,-0.0644,0.0303
1235911.0,-1.2354,4.6064,40.9983,-0.4613,0.0899,0.2203
1235921.0,-0.6033,3.62,41.8028,-0.3996,0.133,0.3842
1235931.0,-0.4788,2.2793,42.3582,-0.1926,0.1,0.4491
1235941.0,0.3543,1.4844,42.4444,0.0266,0.0835,0.4518
1235951.0,0.1053,0.9768,41.4867,-0.0069,0.0686,0.3975
1235961.0,0.4884,0.929,40.9121,-0.2868,0.0942,0.3166
1235971.0,0.4022,1.312,40.6248,-0.4528,0.0027,0.2432
1235981.0,-0.1053,2.2601,40.1268,-0.7668,0.0644,0.2698
1235991.0,-0.2107,1.9058,40.6248,-0.7396,0.1022,0.2927
1236001.0,0.0192,2.0782,39.9449,-0.7375,0.19,0.3459
1236011.0,0.2777,0.9098,40.8163,-0.6135,0.3533,0.3475
1236021.0,0.0287,0.0287,41.0749,-0.3491,0.4672,0.2512
1236031.0,-0.2107,0.3256,41.3431,-0.2852,0.5172,0.1469
1236041.0,-0.2203,0.9098,41.7549,-0.2501,0.4337,0.0617
1236051.0,-0.8428,2.1356,42.023,-0.2602,0.331,0.0479
1236061.0,-1.2546,3.1891,42.0613,-0.3512,0.1841,0.1336
1236071.0,-1.5514,4.1276,41.3814,-0.4869,0.0399,0.265
1236081.0,-1.312,4.4819,41.2186,-0.6353,-0.0043,0.456
1236091.0,-1.1875,3.1508,41.3239,-0.4959,0.1022,0.6311
1236101.0,-0.5746,1.0056,41.3143,-0.3304,0.1511,0.6715
1236111.0,-0.6225,-0.6895,41.1515,-0.3304,0.1086,0.605
1236121.0,-0.5938,-1.312,40.9696,-0.3022,0.1192,0.4592
1236131.0,-0.3735,-0.9481,40.9983,-0.1942,0.2198,0.2964
1236141.0,-0.6512,0.316,40.5003,-0.2395,0.2629,0.2272
1236151.0,-1.1013,0.7949,40.3184,-0.5241,0.2017,0.2065
1236161.0,-1.3599,0.8906,41.3718,-0.6236,0.0873,0.1868
1236171.0,-1.5514,0.6704,41.276,-0.4571,0.074,0.2405
1236181.0,-0.9673,-0.1053,41.3143,-0.1697,0.1687,0.2485
1236191.0,-0.8906,-0.6225,40.6248,-0.1011,0.2373,0.1735
1236201.0,-0.8811,0.0192,40.3471,-0.3352,0.2246,0.1027
1236211.0,-1.1013,1.3503,40.6823,-0.6465,0.2246,0.091
1236221.0,-1.3408,1.7717,41.2186,-0.7625,0.2336,0.207
1236231.0,-1.5802,0.3639,41.7836,-0.7508,0.24,0.2959
1236241.0,-1.0343,-1.1875,42.5498,-0.4246,0.1681,0.3028
1236251.0,-0.814,-2.7007,41.8123,-0.3347,0.1527,0.1878
1236261.0,-0.7183,-3.5147,40.9504,-0.2799,0.1639,-0.0415
1236271.0,-0.2586,-2.2122,39.8108,-0.3986,0.3065,-0.2538
1236281.0,-0.4501,-0.8332,40.3567,-0.5571,0.4901,-0.331
1236291.0,-0.7566,0.4884,41.6016,-0.6258,0.5529,-0.3272
1236301.0,-1.2641,1.063,43.019,-0.4236,0.5465,-0.2272
1236311.0,-0.6416,0.4788,43.6319,0.1288,0.555,-0.1139
1236321.0,-0.9577,0.1149,42.6072,0.3219,0.5193,-0.0862
1236331.0,-0.7853,-0.1628,43.0094,0.1799,0.4033,-0.149
1236341.0,-0.7278,0.4884,42.5114,-0.0138,0.2554,-0.1937
1236351.0,-0.7949,1.1875,41.707,-0.3624,0.1485,-0.215
1236361.0,-0.6608,1.6472,42.4731,-0.5236,0.0351,-0.174
1236371.0,-0.7374,2.4612,42.2816,-0.3704,-0.132,-0.0883
1236381.0,-0.6608,2.6719,41.3814,-0.2634,-0.1043,0.0548
1236391.0,-0.3926,1.6855,40.0215,0.0245,0.0623,0.1341
1236401.0,-0.3639,0.6991,38.1444,-0.0101,0.3863,0.1139
1236411.0,-0.0766,0.1437,38.4509,-0.1346,0.7189,-0.0005
1236421.0,-0.1149,0.814,38.3934,-0.3565,1.0105,-0.1304
1236431.0,-0.747,1.7334,40.1939,-0.414,1.2478,-0.1602
1236441.0,-1.0918,2.7677,41.4867,-0.1729,1.3867,-0.0612
1236451.0,-1.3408,2.7485,42.5785,-0.0266,1.4484,0.0692
1236461.0,-1.3982,1.8292,44.4364,0.2054,1.3798,0.1107
1236471.0,-0.9194,1.0439,45.4132,0.2692,1.1802,0.083
1236481.0,-1.561,0.3065,45.4994,0.0426,0.8556,-0.0537
1236491.0,-1.3312,0.3926,45.8825,-0.1926,0.3602,-0.2139
1236501.0,-1.8004,1.0247,45.4515,-0.3874,-0.0239,-0.3129
1236511.0,-1.9824,2.5379,43.9958,-0.423,-0.3182,-0.348
1236521.0,-2.1452,3.7637,42.4827,-0.5837,-0.4246,-0.2804
1236531.0,-2.2601,4.367,40.9313,-0.6854,-0.3022,-0.108
1236541.0,-2.308,4.3,40.0789,-0.6779,-0.116,0.0942
1236551.0,-1.992,2.7581,40.4237,-0.7412,0.1825,0.2442
1236561.0,-1.8483,1.0726,41.6016,-0.2687,0.3581,0.3161
1236571.0,-1.2067,-0.067,41.2473,-0.0106,0.4986,0.2756
1236581.0,-1.2354,-1.0918,41.8506,0.1463,0.4997,0.1719
1236591.0,-0.8523,-0.7087,41.1037,0.1666,0.5146,0.0282
1236601.0,-1.0343,0.0958,40.5865,-0.1501,0.5092,-0.0974
1236611.0,-1.0343,0.8811,40.2513,-0.5752,0.571,-0.124
1236621.0,-1.3408,1.5514,40.8355,-0.9264,0.6332,-0.1011
1236631.0,-1.3886,1.5131,42.1188,-0.9908,0.7184,-0.0346
1236641.0,-1.6951,1.1875,43.2584,-0.8189,0.7428,0.0878
1236651.0,-1.1109,0.2107,43.766,-0.5747,0.6609,0.1623
1236661.0,-0.8045,-0.4501,44.0437,-0.4374,0.5481,0.1591
1236671.0,-0.6704,-1.4461,43.9001,-0.265,0.3581,0.1266
1236681.0,-0.5842,-1.8866,43.1627,-0.2027,0.2975,0.0357
1236691.0,-0.7757,-1.9537,43.1435,-0.1607,0.232,-0.0921
1236701.0,-0.4501,-1.8387,42.4348,-0.3789,0.1463,-0.216
1236711.0,-0.565,-1.6951,42.6072,-0.53,0.0144,-0.3235
1236721.0,-0.9481,-1.5323,42.6743,-0.4555,-0.0654,-0.4177
1236731.0,-0.7757,-0.8236,41.4867,-0.3688,-0.0128,-0.4885
1236741.0,-0.2873,-0.7853,41.2856,-0.0968,0.1884,-0.5268
1236751.0,-0.3639,0.0383,40.6248,0.1628,0.3826,-0.5896
1236761.0,-0.5459,1.1684,39.6959,-0.0223,0.5502,-0.5608
1236771.0,-1.063,0.996,39.5714,-0.2347,0.6955,-0.5284
1236781.0,-0.8619,0.8045,38.585,-0.5326,0.9009,-0.5305
1236791.0,-1.1301,-0.2682,38.7382,-0.9977,1.1829,-0.5965
1236801.0,-1.5706,-1.2546,39.648,-1.2414,1.4862,-0.7253
1236811.0,-1.7526,-1.9441,41.1037,-1.3947,1.9129,-0.903
1236821.0,-2.4038,-2.241,43.8522,-1.0014,2.2051,-1.077
1236831.0,-3.2178,-1.2354,44.8769,-0.5901,2.2625,-1.2372
1236841.0,-4.1084,0.0958,46.7827,-0.1963,2.0529,-1.3149
1236851.0,-4.8554,1.7813,46.6774,0.3544,1.6698,-1.2936
1236861.0,-5.6503,3.486,44.7524,0.6582,1.3436,-1.2106
1236871.0,-6.1004,4.5777,42.5019,0.8849,1.052,-1.1025
1236881.0,-6.1675,5.4684,38.3551,0.6683,1.0131,-1.0126
1236891.0,-5.5737,5.6503,34.8404,-0.0591,1.3143,-0.9285
1236901.0,-5.2481,5.612,33.4039,-0.9174,1.9491,-0.9025
1236911.0,-5.4875,5.5545,34.2179,-1.8225,2.7287,-0.8748
1236921.0,-5.43,5.6886,38.7765,-2.228,3.4907,-0.7843
1236931.0,-6.2728,5.679,43.3638,-2.3163,3.7104,-0.5582
1236941.0,-6.7421,4.7597,48.6693,-2.3817,3.3784,-0.315
1236951.0,-6.5314,3.1029,53.0651,-1.8597,2.6866,-0.0654
1236961.0,-6.6846,1.5036,54.7985,-1.1749,1.864,0.116
1236971.0,-6.1196,-0.4405,54.9421,-0.4858,1.0195,0.2017
1236981.0,-5.5929,-1.6089,52.6054,-0.1815,0.2666,0.1639
1236991.0,-5.2577,-1.7621,49.7324,-0.4603,-0.4422,0.0559
1237001.0,-4.8171,-0.7566,46.6869,-0.9839,-0.9408,-0.0878
1237011.0,-4.4628,0.6512,44.58,-1.7895,-1.0094,-0.1336
1237021.0,-4.8459,0.6608,44.3502,-2.2567,-0.9716,-0.0788
1237031.0,-4.6064,0.6033,44.58,-2.4834,-0.9014,0.0388
1237041.0,-4.7884,-0.8332,46.4284,-2.2226,-0.886,0.2081
1237051.0,-4.5203,-3.3232,47.501,-1.3659,-0.953,0.2937
1237061.0,-3.9265,-4.549,47.1083,-0.4677,-0.977,0.2565
1237071.0,-3.6392,-5.2672,46.8306,0.4039,-0.9466,0.2065
1237081.0,-2.9209,-5.2577,44.513,0.796,-0.8482,0.058
1237091.0,-3.2274,-4.8363,43.9384,0.5433,-0.8253,-0.1916
1237101.0,-3.3136,-3.3615,44.1012,-0.0814,-0.8918,-0.3938
1237111.0,-4.2904,-2.4708,45.078,-0.796,-1.1121,-0.5342
1237121.0,-4.4341,-1.9441,46.3422,-1.5389,-1.4819,-0.6604
1237131.0,-4.9895,-1.1875,48.248,-1.9098,-1.9874,-0.7412
1237141.0,-5.363,0.0958,49.5887,-1.6591,-2.5584,-0.6955
1237151.0,-5.8035,1.5993,50.1059,-0.6364,-2.9639,-0.448
1237161.0,-5.4779,2.4804,48.4108,0.6987,-3.1528,-0.0623
1237171.0,-4.798,2.1261,44.4364,1.5713,-3.1006,0.3022
1237181.0,-4.2521,1.743,41.7261,1.6916,-2.9841,0.5289
1237191.0,-3.6583,1.5131,40.4716,1.1515,-2.8223,0.696
1237201.0,-2.9401,0.8045,39.9161,0.199,-2.8649,0.762
1237211.0,-2.6145,-1.0439,40.2417,-0.9477,-3.1698,0.7508
1237221.0,-1.9058,-2.9784,41.0941,-1.7698,-3.4944,0.588
1237231.0,-0.9577,-4.6926,41.2569,-1.8486,-3.5252,0.3858
1237241.0,-0.3543,-5.4109,42.023,-1.176,-3.1879,0.1676
1237251.0,-0.1532,-4.2904,41.4197,-0.3496,-2.7532,0.025
1237261.0,-0.0287,-3.2274,41.5729,0.331,-2.386,-0.0021
1237271.0,-0.1437,-2.1931,41.2665,0.5789,-2.1114,-0.0037
1237281.0,0.0958,-1.5323,41.8794,0.5912,-1.9268,0.0059
1237291.0,0.5555,-1.4844,42.6455,0.4629,-1.6229,0.0101
1237301.0,0.6895,-2.0399,43.7947,0.0074,-1.5623,-0.1229
1237311.0,0.2203,-1.6281,46.2081,-0.6039,-1.7373,-0.273
1237321.0,0.5746,-1.1779,48.2958,-1.0084,-1.8337,-0.4241
1237331.0,0.4501,-0.3256,50.3165,-0.9211,-1.8055,-0.5044
1237341.0,-0.2203,0.7661,53.0268,-0.7253,-1.8299,-0.4566
1237351.0,-1.2641,0.7661,57.2406,-0.0362,-2.1774,-0.3884
1237361.0,-1.5036,2.059,58.0642,0.6433,-2.7665,-0.3017
1237371.0,-2.1739,4.3287,58.5909,0.6423,-3.5072,-0.1054
1237381.0,-2.6432,5.4684,58.9357,0.3709,-4.4112,0.1368
1237391.0,-2.9113,6.7421,58.3706,-0.1378,-5.3759,0.4012
1237401.0,-3.1699,7.7764,57.6524,-0.7678,-6.3369,0.7285
1237411.0,-4.5394,8.1116,56.3116,-1.2265,-7.3474,1.0956
1237421.0,-4.6639,7.0773,53.362,-1.7655,-8.4659,1.467
1237431.0,-5.047,3.2753,49.9718,-2.4429,-9.4168,1.6309
1237441.0,-5.3917,1.0534,47.8649,-1.9986,-9.6637,1.6357
1237451.0,-5.861,0.9098,46.8402,-0.1559,-9.1805,1.7773
1237461.0,-6.1292,2.2122,45.011,1.7129,-8.8905,2.1002
1237471.0,-6.5601,3.4285,42.6168,2.494,-9.2886,2.4775
1237481.0,-5.3247,4.6352,40.2609,2.3562,-10.0894,2.8484
1237491.0,-3.5434,4.9895,37.589,2.2194,-10.7849,3.1985
1237501.0,-0.9673,6.8666,32.8101,1.9422,-11.3803,3.7062
1237511.0,0.7949,6.1387,27.3035,1.2132,-11.7453,4.2878
1237521.0,3.7541,2.1739,21.7968,0.3512,-11.9858,4.6884
1237531.0,5.3726,-3.3423,18.6365,-0.0745,-11.7602,4.8332
1237541.0,8.8202,-8.7245,15.4474,0.9323,-10.886,4.7592
1237551.0,13.5895,-12.469,10.5919,1.9821,-9.4924,4.5182
1237561.0,16.587,-16.1273,9.7396,2.5722,-8.3893,4.0983
1237571.0,20.2837,-18.33,9.3087,2.8878,-8.1259,3.3832
1237581.0,24.9093,-16.7498,6.0813,2.1753,-8.4372,2.6185
1237591.0,27.6099,-14.8919,-0.7183,-0.2395,-9.7206,1.8752
1237601.0,29.1805,-13.5608,-8.3414,-3.5673,-11.7623,1.0546
1237611.0,26.0298,-7.7476,-18.6843,-6.3971,-13.9594,0.3496
1237621.0,36.8899,11.3294,-52.1553,-8.1599,-14.6911,0.9509
1237631.0,13.0532,5.9664,-63.0537,-4.2904,-12.1359,2.1199
1237641.0,15.1314,10.477,-78.4532,-2.2721,-11.4138,2.4009
1237651.0,7.5848,8.9352,-78.4532,-5.2674,-9.8888,2.5962
1237661.0,-1.0726,12.9287,-78.4532,-1.7028,-4.2447,2.3668
1237671.0,-15.3899,6.5122,-78.4532,-0.7678,8.301,2.3434
1237681.0,-40.9408,9.1937,-78.4532,-0.0862,17.4357,2.1604
1237691.0,-71.0886,-5.612,-78.4532,-0.1804,17.4357,2.1471
1237701.0,-78.4532,-13.8576,-78.4532,2.5504,17.4357,1.5607
1237711.0,-78.4532,-27.9068,-77.1124,9.3913,17.4357,0.7897
1237721.0,-78.4532,-56.3882,5.1715,17.4357,17.4357,-2.7398
1237731.0,-78.4532,-50.8816,78.4508,17.4357,17.4357,-8.0541
1237741.0,-78.4532,-2.4517,78.4508,17.4357,17.4357,-13.1139
1237751.0,-78.4532,44.9727,78.4508,17.4357,17.4357,-14.7528
1237761.0,-78.4532,78.4508,78.4508,17.3229,17.4357,-13.9892
1237771.0,-78.4532,78.4508,78.4508,-9.6882,17.4357,-12.817
1237781.0,-78.4532,58.3419,78.4508,-0.6886,10.3852,-7.5539
1237791.0,-78.4532,70.8875,78.4508,6.7786,-15.7543,-2.2971
1237801.0,-78.4532,33.4901,78.4508,-2.0683,-17.4363,-0.5007
1237811.0,-78.4532,8.2744,78.4508,2.8255,-17.4363,-0.7928
1237821.0,-78.4532,14.6429,34.4286,-1.1451,-17.4363,-1.8055
1237831.0,-51.7435,14.5089,-6.4069,-6.7169,-17.4363,-3.0996
1237841.0,-38.8531,23.0993,-18.6173,-9.5738,-9.7568,-3.6487
1237851.0,-35.5683,28.1558,4.8554,-10.961,0.7407,-3.1916
1237861.0,-34.3329,27.1407,47.7787,-5.0375,6.868,-1.8502
1237871.0,-33.9402,29.8988,71.1844,0.3916,8.4154,-0.0841
1237881.0,-32.5611,24.4017,78.4508,1.798,4.5889,1.4362
1237891.0,-29.6594,13.4171,78.4508,0.977,-2.4967,2.1673
1237901.0,-25.8095,1.0056,78.4508,-1.955,-9.5498,1.7602
1237911.0,-22.2086,-6.8953,78.4508,-3.9994,-15.0098,0.6726
1237921.0,-20.0538,-6.4835,62.0386,-5.9187,-17.4363,-0.5135
1237931.0,-19.2685,-3.553,42.5976,-7.2878,-17.4363,-1.3207
1237941.0,-17.4585,-0.4597,23.6356,-7.7497,-17.4363,-1.7544
1237951.0,-13.9055,1.6951,9.4332,-7.5528,-16.2784,-1.8097
1237961.0,-10.41,2.49,0.6991,-6.5578,-12.7026,-1.6054
1237971.0,-7.3167,0.7757,-2.49,-5.3924,-8.5628,-1.2654
1237981.0,-4.6639,-4.6064,-0.6895,-3.8227,-4.7773,-1.1009
1237991.0,-3.4572,-10.2663,3.869,-2.577,-1.4782,-1.3622
1238001.0,-2.7581,-13.2064,11.8178,-1.3223,1.1664,-1.9252
1238011.0,-4.7405,-12.2009,18.397,-0.8312,2.949,-2.5834
1238021.0,-5.7557,-11.0612,28.1079,-1.6155,3.8903,-3.2294
1238031.0,-7.3167,-8.4946,41.0366,-1.898,4.1239,-3.8286
1238041.0,-8.3318,-2.7007,52.615,-2.2716,3.6673,-4.1239
1238051.0,-10.7356,1.5131,66.1374,-2.6739,1.9044,-4.0334
1238061.0,-11.8944,6.2824,73.6744,-3.3039,-1.4457,-3.6423
1238071.0,-12.287,7.8051,77.6009,-3.8355,-5.2397,-2.9798
1238081.0,-13.034,6.7612,73.1477,-3.2858,-8.4845,-2.3009
1238091.0,-11.9519,6.6272,62.0194,-3.0293,-10.5236,-1.6724
1238101.0,-11.1091,4.3479,52.3277,-2.717,-11.2419,-1.1531
1238111.0,-9.4427,1.9249,42.0326,-2.2769,-11.011,-0.8226
1238121.0,-8.0828,1.3791,33.9402,-2.6063,-10.1979,-0.647
1238131.0,-6.9623,1.4174,29.3242,-3.3582,-9.2274,-0.6002
1238141.0,-5.8802,1.9058,28.3952,-4.3197,-8.3063,-0.4826
1238151.0,-4.6064,1.5802,32.6378,-4.4799,-7.448,-0.3347
1238161.0,-6.5122,1.3024,38.4221,-2.9399,-6.8962,-0.008
1238171.0,-5.8802,1.3599,39.7342,-0.8977,-6.7206,0.3315
1238181.0,-4.8746,2.1356,39.2074,0.7806,-6.6567,0.5577
1238191.0,-4.6735,5.8897,36.1812,1.6421,-6.5492,0.8785
1238201.0,-4.3958,8.7915,35.1086,1.5857,-6.3029,1.4351
1238211.0,-3.9456,7.6806,36.7462,1.4755,-6.2172,2.121
1238221.0,-2.6336,4.6831,38.3455,0.6886,-6.6716,2.6398
1238231.0,-1.9345,0.7278,42.1188,-0.1437,-7.7944,2.8867
1238241.0,-0.7757,-2.4038,42.0422,-0.8929,-9.2566,2.9857
1238251.0,-0.5842,-5.3534,41.458,-1.325,-10.6109,2.8452
1238261.0,-0.2107,-6.2441,40.4045,-0.4188,-11.624,2.7457
1238271.0,0.6608,-4.9799,33.538,0.4502,-12.3828,2.759
1238281.0,1.5036,-4.5394,26.748,0.7646,-12.8931,2.8628
1238291.0,3.4764,-3.6966,18.4066,0.7551,-12.7824,3.0527
1238301.0,4.8363,-4.2521,12.6127,0.5454,-12.1747,3.2906
1238311.0,6.4931,-6.541,8.0732,0.3134,-11.1983,3.4901
1238321.0,8.5808,-9.5385,6.4931,0.415,-10.1724,3.5354
1238331.0,9.9982,-12.287,4.1276,0.6694,-9.1417,3.3747
1238341.0,11.7795,-13.0245,4.4341,1.301,-7.9934,3.098
1238351.0,12.9478,-12.1913,3.2082,2.32,-6.8403,2.9309
1238361.0,13.0819,-10.2185,1.6951,2.9234,-5.733,2.8372
1238371.0,12.536,-8.2169,1.8771,3.6327,-4.6682,2.9585
1238381.0,13.781,-6.6559,2.557,4.1537,-3.4172,3.2528
1238391.0,14.9781,-7.9871,4.9416,4.4995,-2.5424,3.5439
1238401.0,14.1641,-10.5632,9.0118,4.4378,-2.5089,3.5332
1238411.0,13.1394,-11.406,10.4387,3.7221,-3.7594,3.2283
1238421.0,12.5648,-10.8314,10.1227,2.7021,-5.4041,2.7702
1238431.0,13.6853,-8.6957,5.3247,2.8495,-6.8217,2.2609
1238441.0,14.7291,-4.3287,-9.1459,1.7528,-8.0365,1.7884
1238451.0,13.3501,-0.182,-24.507,-1.0477,-9.3492,1.4346
1238461.0,18.6939,9.7779,-71.9889,-6.529,-8.5106,1.3979
1238471.0,7.7668,9.2703,-76.7773,-8.2589,-5.6164,1.6895
1238481.0,2.6145,23.2812,-78.4532,-10.0569,-1.9789,2.4562
1238491.0,-4.3,17.8224,-78.4532,-9.1188,4.5395,4.1233
1238501.0,-13.3884,23.0897,-78.4532,-3.5806,14.0893,5.6947
1238511.0,-26.9587,3.2178,-78.4532,1.1685,17.4357,7.0127
1238521.0,-39.0638,-13.465,-78.4532,4.8428,17.4357,6.7206
1238531.0,-57.7098,-39.6576,-78.4532,6.8073,17.4357,4.7661
1238541.0,-71.9697,-59.5677,-39.6192,10.9833,17.4357,0.9248
1238551.0,-78.4532,-55.8232,19.2781,16.6333,17.4357,-3.4508
1238561.0,-78.4532,-37.1963,78.4508,17.4357,17.4357,-6.868
1238571.0,-78.4532,5.0853,78.4508,17.4357,17.4357,-8.8517
1238581.0,-78.4532,37.9625,78.4508,17.4357,17.4357,-7.9269
1238591.0,-78.4532,43.3159,78.4508,17.4357,17.4357,-7.2756
1238601.0,-78.4532,70.447,78.4508,15.1684,17.4357,-6.5615
1238611.0,-78.4532,57.5662,78.4508,6.9116,17.4357,-4.4224
1238621.0,-78.4532,57.5949,78.4508,15.8921,17.4357,-1.7634
1238631.0,-78.4532,71.7973,78.4508,8.7458,12.8298,0.1948
1238641.0,-78.4532,53.0076,78.4508,3.1485,-4.0584,1.45
1238651.0,-78.4532,50.6038,78.4508,-0.3709,-17.4363,2.286
1238661.0,-77.0741,41.0175,78.4508,-5.1721,-17.4363,3.0208
1238671.0,-75.5418,29.0465,78.4508,-5.2626,-17.4363,3.6237
1238681.0,-67.8038,20.7817,77.0358,-9.4647,-17.4363,3.7557
1238691.0,-50.1537,2.8252,40.3567,-9.8574,-17.4363,3.0878
1238701.0,-30.2819,-0.2586,-1.6376,-8.1275,-17.4363,2.1359
1238711.0,-17.7746,-2.0207,-14.9973,-8.3409,-17.0079,1.3606
1238721.0,-13.4554,-5.3534,-10.8218,-7.5347,-9.3109,0.5763
1238731.0,-9.7588,-6.5984,1.6951,-7.2224,-3.3619,-0.0963
1238741.0,-8.2935,-12.2775,28.4048,-4.5687,0.6194,-0.745
1238751.0,-10.4579,-11.4443,46.4571,-1.9507,1.1424,-1.4926
1238761.0,-10.7452,-8.4467,60.1328,-2.7202,-1.3164,-2.1008
1238771.0,-9.414,-7.7381,71.5004,-2.6499,-4.8699,-2.5776
1238781.0,-9.6438,-3.2274,68.6849,-2.6414,-7.6747,-2.8601
1238791.0,-9.4906,-0.2586,62.9867,-3.2549,-10.1751,-2.9037
1238801.0,-10.8984,1.5323,54.3771,-4.0834,-12.0343,-2.8585
1238811.0,-9.7588,2.7964,44.9152,-4.8119,-12.8165,-2.7255
1238821.0,-9.0118,3.9169,38.403,-4.7853,-12.5568,-2.4818
1238831.0,-7.6519,4.9129,32.5803,-4.4612,-11.806,-2.1726
1238841.0,-7.5274,4.5107,27.3514,-4.9699,-11.2765,-1.9087
1238851.0,-6.1483,3.0167,26.1447,-5.5377,-10.8051,-1.8347
1238861.0,-4.5873,1.7813,25.0912,-5.1886,-10.199,-1.8193
1238871.0,-3.9648,2.3176,23.2716,-4.4405,-9.1986,-1.7911
1238881.0,-2.0111,3.9073,23.6164,-2.8963,-8.0423,-1.591
1238891.0,-1.4174,7.3358,20.4465,-2.1737,-7.051,-1.1526
1238901.0,-0.7949,7.7381,20.6284,-2.4584,-6.4056,-0.5374
1238911.0,1.9345,3.1029,22.3618,-2.5047,-5.8266,-0.132
1238921.0,3.735,-3.1316,24.2485,-2.6893,-5.2424,-0.0708
1238931.0,4.4245,-8.5712,27.3418,-2.345,-4.954,-0.4278
1238941.0,4.616,-9.7779,27.3322,-1.6937,-4.7507,-0.9088
1238951.0,5.9185,-9.0118,27.744,-0.8657,-3.96,-1.3095
1238961.0,6.7325,-5.928,28.5389,0.4864,-2.7872,-1.5112
1238971.0,7.1635,-2.308,28.7017,0.6795,-1.9018,-1.5522
1238981.0,8.2169,0.814,31.7854,-0.2772,-1.7075,-1.4234
1238991.0,9.5193,1.6472,36.8132,-1.3186,-1.8411,-1.1877
1239001.0,10.4387,0.0479,41.4101,-1.9406,-2.1641,-0.9498
1239011.0,11.6358,-3.8978,45.4132,-1.9507,-2.709,-0.8508
1239021.0,11.8848,-7.5465,46.6007,-1.764,-3.4215,-0.977
1239031.0,11.8752,-8.4659,44.1778,-1.7065,-4.1335,-1.292
1239041.0,10.9367,-7.8626,41.6591,-1.6804,-4.4181,-1.583
1239051.0,11.2719,-6.6272,40.5195,-0.9051,-3.9892,-1.7384
1239061.0,10.8314,-4.2138,37.6368,-0.3453,-3.4135,-1.8608
1239071.0,10.5153,-1.9058,37.1963,-1.0424,-3.2007,-1.9459
1239081.0,10.8026,-0.0383,39.6671,-1.7741,-3.3917,-1.9454
1239091.0,10.2568,2.4325,41.0749,-2.253,-3.5582,-1.8113
1239101.0,10.0365,4.7884,43.0956,-2.2891,-3.7179,-1.4883
1239111.0,9.596,6.6367,44.264,-1.9608,-4.0723,-1.0179
1239121.0,9.6055,7.1539,42.9616,-2.0114,-4.6634,-0.4656
1239131.0,9.3948,4.9704,41.5825,-2.1418,-5.1519,0.0255
1239141.0,10.3525,1.6951,39.9927,-1.7879,-5.2099,0.364
1239151.0,10.5824,-1.3886,36.4781,-1.7219,-5.0497,0.4704
1239161.0,11.3102,-3.8786,34.6585,-2.0635,-4.7746,0.4385
1239171.0,11.2144,-4.8076,36.6121,-2.1157,-4.3601,0.3294
1239181.0,11.4539,-3.6296,40.146,-1.5713,-3.9637,0.4294
1239191.0,10.4483,-2.7869,43.3446,-0.9775,-4.3202,0.663
1239201.0,10.0844,-3.055,45.4228,-0.7386,-5.3509,1.0115
1239211.0,11.4251,-5.6407,46.2272,-0.0803,-6.4146,1.2994
1239221.0,12.7755,-7.671,41.0653,0.1282,-7.4129,1.4585
1239231.0,14.2982,-11.3868,35.8364,-0.887,-8.1743,1.3361
1239241.0,15.7826,-14.3844,33.4039,-1.467,-8.7453,0.9684
1239251.0,16.6349,-14.0971,28.5772,-1.9071,-9.0433,0.5715
1239261.0,17.5543,-13.3788,25.0242,-2.0454,-9.1028,0.2517
1239271.0,18.4737,-11.7124,21.1935,-1.5197,-8.7378,0.0793
1239281.0,19.3356,-9.5577,18.7131,-0.5875,-7.962,0.0585
1239291.0,19.8815,-7.5369,14.8919,0.2772,-7.1074,0.224
1239301.0,20.6667,-7.5082,12.2679,0.5028,-6.4567,0.4278
1239311.0,21.2892,-8.6479,10.7452,0.4347,-5.9581,0.5172
1239321.0,22.7258,-9.7205,9.7588,0.6348,-5.3866,0.497
1239331.0,22.6875,-8.8011,10.2759,1.4548,-4.6102,0.4736
1239341.0,22.3618,-6.5505,9.2799,1.9364,-4.1239,0.5779
1239351.0,21.6149,-4.5586,10.5824,1.7746,-4.2473,0.7678
1239361.0,21.8255,-2.375,11.3581,1.6054,-5.0955,1.052
1239371.0,21.6532,0.4884,9.481,1.176,-6.6663,1.3941
1239381.0,19.1345,5.9185,4.8363,-0.0878,-9.2066,1.8353
1239391.0,14.3748,12.3445,-5.7844,-2.8138,-13.1836,2.5286
1239401.0,2.6624,18.6652,-21.6244,-5.1679,-17.4363,3.505
1239411.0,-6.1675,27.4184,-78.4532,-8.5202,-17.3144,5.2067
1239421.0,2.5187,10.5345,-78.4532,-1.2169,-9.5222,5.7053
1239431.0,-14.1641,12.5169,-78.4532,-6.4125,-7.3538,6.0219
1239441.0,-5.8323,2.5474,-78.4532,-1.8858,4.6975,4.9758
1239451.0,-24.689,5.1906,-78.4532,0.8296,14.4,3.6689
1239461.0,-36.9761,16.204,-78.4532,4.1473,17.4357,2.5094
1239471.0,-62.1918,29.1997,-78.4532,5.2397,17.4357,2.4195
1239481.0,-78.4532,37.2155,-78.4532,4.7752,17.4357,3.3794
1239491.0,-78.4532,25.187,-78.4532,2.7808,17.4357,4.756
1239501.0,-78.4532,14.8536,-44.9918,2.9362,17.4357,5.5026
1239511.0,-78.4532,4.5873,17.1521,6.4827,17.4357,6.8259
1239521.0,-78.4532,-22.2948,78.4508,13.2911,17.4357,6.9707
1239531.0,-78.4532,-21.9213,78.4508,16.5822,17.4357,5.1455
1239541.0,-77.3231,-68.8189,78.4508,16.3976,17.4357,2.5504
1239551.0,-78.4532,-36.5738,78.4508,17.4357,17.4357,-2.2487
1239561.0,-78.4532,8.983,78.4508,-0.9073,17.4357,-4.664
1239571.0,-78.4532,-6.3111,78.4508,16.455,17.4357,-2.8303
1239581.0,-78.4532,74.9481,78.4508,17.4357,14.3282,-0.0298
1239591.0,-78.4532,49.2918,78.4508,5.3733,4.979,2.3301
1239601.0,-77.371,30.2436,78.4508,8.3355,-3.7439,3.0932
1239611.0,-70.9163,35.8843,78.4508,-3.671,-5.7261,3.7354
1239621.0,-61.8374,0.8428,78.4508,-2.8101,-10.0021,4.1702
1239631.0,-49.1673,3.0742,78.4508,-5.9256,-13.4587,3.8536
1239641.0,-43.4979,-19.6899,78.4508,-10.323,-16.7637,3.1815
1239651.0,-33.4422,-26.4894,78.4508,-3.6551,-17.4363,2.0018
1239661.0,-24.2006,-17.1904,48.6214,-3.8323,-16.7004,1.1009
1239671.0,-16.4146,-21.5957,36.0088,-0.0777,-11.5777,0.3001
1239681.0,-9.414,-11.3294,4.6831,0.7098,-4.8747,-0.5135
1239691.0,-11.7316,-11.9423,12.7755,-3.2235,0.9764,-1.2159
1239701.0,-14.1066,-13.3692,31.9387,-3.4273,4.0627,-2.0747
1239711.0,-16.1369,-7.3454,43.4404,-5.518,4.8076,-2.5712
1239721.0,-18.3779,-9.8833,64.1455,-5.9027,2.9527,-2.7244
1239731.0,-17.9948,-11.406,66.6354,-4.8044,0.5672,-2.7516
1239741.0,-13.9821,-21.1935,70.5906,-3.3789,-0.9833,-3.1176
1239751.0,-13.3692,-25.0434,66.8078,-0.8125,-2.2998,-4.1781
1239761.0,-14.1737,-18.0044,56.0722,-1.8379,-3.687,-5.3147
1239771.0,-16.7786,-11.8178,55.0571,-3.8009,-5.3722,-6.1587
1239781.0,-18.4832,-2.2889,49.2631,-4.5969,-6.23,-6.43
1239791.0,-18.6652,5.3439,46.1506,-4.8768,-5.8453,-6.0049
1239801.0,-18.7705,10.3621,43.4308,-4.0004,-5.1365,-5.0764
1239811.0,-18.33,11.3964,41.7836,-3.3997,-4.4554,-3.8121
1239821.0,-16.7211,3.7828,41.9081,-2.7324,-3.5284,-2.7739
1239831.0,-12.7755,-7.8147,47.7595,-1.0461,-1.641,-2.4232
1239841.0,-13.465,-15.7538,55.8041,0.6034,-0.762,-2.8734
1239851.0,-14.9398,-16.3572,63.4846,-0.3831,-2.4796,-3.7338
1239861.0,-16.52,-14.6717,73.5403,-1.4223,-5.6888,-4.5815
1239871.0,-18.7322,-8.0637,72.5635,-1.4622,-8.9597,-5.1003
1239881.0,-19.5463,-0.7278,65.4958,-2.4578,-11.5484,-5.161
1239891.0,-19.2207,5.6024,58.725,-2.8112,-13.2613,-4.7049
1239901.0,-18.8759,10.0844,49.809,-2.7132,-14.2074,-3.8919
1239911.0,-18.4545,11.5401,40.395,-3.0964,-14.3532,-2.8878
1239921.0,-14.8728,5.5641,37.1484,-1.8161,-13.563,-1.9901
1239931.0,-12.7276,-0.6321,31.0289,0.0372,-12.336,-1.5538
1239941.0,-9.979,-5.2577,26.5948,0.1474,-11.3335,-1.5426
1239951.0,-7.5082,-9.0309,27.3801,-0.0149,-10.6731,-1.8672
1239961.0,-6.0142,-8.2935,27.1886,-0.5135,-10.1293,-2.3503
1239971.0,-5.8035,-4.6735,30.0807,-1.1057,-9.7898,-2.5435
1239981.0,-5.7557,-1.6472,34.3807,-0.7215,-9.8483,-2.3722
1239991.0,-5.4971,1.4461,36.1141,-0.1953,-10.1596,-1.9401
1240001.0,-4.8076,1.5993,38.4605,0.8131,-10.7753,-1.3191
1240011.0,-3.4668,-1.2258,35.6832,1.4372,-11.5511,-0.8093
1240021.0,-1.5897,-5.5833,32.1302,1.5947,-12.1604,-0.6343
1240031.0,1.0247,-8.8777,27.6004,1.8746,-12.3737,-0.771
1240041.0,2.9018,-9.7779,21.7202,1.45,-12.1614,-1.0898
1240051.0,4.367,-8.9064,17.9278,0.373,-11.814,-1.4798
