time_ms,ax,ay,az,gx,gy,gz
1504391.0,-1.1779,8.3414,35.3193,-1.1648,0.8684,-1.7006
1504401.0,-2.241,11.7699,33.4901,-2.5632,0.9067,-1.9002
1504411.0,-2.6528,16.338,32.5994,-4.8039,0.5459,-1.8081
1504421.0,-3.3519,16.7881,34.1509,-6.8094,0.1203,-1.4931
1504431.0,-3.6583,15.6006,34.0264,-7.7087,0.1352,-1.0217
1504441.0,-3.6488,12.967,35.53,-7.4895,0.6534,-0.4842
1504451.0,-2.873,10.4866,36.593,-6.1842,1.5681,-0.0367
1504461.0,-3.2753,8.418,38.7382,-4.0776,2.834,0.4198
1504471.0,-3.9361,6.9145,41.3622,-1.6049,3.9994,0.8359
1504481.0,-3.6105,7.2401,42.5881,0.0766,4.7087,1.0584
1504491.0,-3.9169,8.1882,44.197,0.6178,4.838,1.1786
1504501.0,-4.4149,9.0884,44.9727,0.4784,4.4815,1.226
1504511.0,-4.549,9.6055,45.509,-0.3102,3.9642,1.2643
1504521.0,-5.2385,9.6534,46.0357,-1.209,3.3496,1.3436
1504531.0,-5.9568,8.6383,45.8825,-1.8698,2.9421,1.4074
1504541.0,-5.5354,6.3686,47.4052,-1.5745,2.8558,1.5085
1504551.0,-5.0087,4.3766,46.7923,-1.0291,2.8239,1.4841
1504561.0,-5.0661,4.0127,47.003,-0.6226,2.742,1.3585
1504571.0,-5.861,4.9321,46.3996,-0.2059,2.4605,1.2462
1504581.0,-5.861,7.6136,44.2257,-0.2187,2.154,1.1866
1504591.0,-6.1483,9.5193,43.3063,-0.3906,1.9582,1.2973
1504601.0,-6.7612,10.41,41.8985,-0.5374,1.7288,1.4654
1504611.0,-7.6231,11.2049,41.2569,-0.5848,1.4777,1.6676
1504621.0,-8.7053,12.5265,39.6671,-0.4789,1.218,1.9624
1504631.0,-9.3374,13.8672,36.8228,-0.1245,1.1153,2.4616
1504641.0,-10.0269,13.4458,33.9306,0.4459,1.4755,2.9772
1504651.0,-9.7971,11.5975,31.5652,1.2478,2.3174,3.5699
1504661.0,-7.355,6.0813,31.1725,2.0422,3.5258,3.7668
1504671.0,-7.604,2.6719,32.6856,2.552,4.3309,3.5481
1504681.0,-7.7189,1.5419,35.7502,2.5701,4.7699,3.1852
1504691.0,-9.6343,0.2394,39.6959,3.2427,5.0551,2.8383
1504701.0,-9.8737,0.8045,39.6576,3.4912,5.2828,2.4376
1504711.0,-11.2911,1.2641,40.9025,2.7553,5.3531,1.9129
1504721.0,-12.4307,1.5131,43.0765,1.8486,5.3328,1.3489
1504731.0,-12.5935,0.5267,47.6063,1.011,5.1881,0.7779
1504741.0,-13.8864,-1.1588,53.4386,0.3799,4.9284,0.0665
1504751.0,-14.5759,-2.7964,60.3435,0.4619,4.2819,-0.6715
1504761.0,-17.2957,-2.9784,67.1143,1.2946,3.1597,-1.4128
1504771.0,-17.5064,-0.0479,69.8053,2.2152,1.6261,-2.0247
1504781.0,-19.4218,4.2617,69.6425,2.7042,-0.1149,-2.4291
1504791.0,-19.7761,8.6287,65.8789,2.3759,-2.0736,-2.6978
1504801.0,-20.1209,11.3772,61.9907,1.1249,-3.877,-2.9245
1504811.0,-20.389,12.8425,58.7346,-0.0096,-5.385,-3.0394
1504821.0,-19.3451,12.9383,54.6548,-1.1063,-6.4763,-3.1405
1504831.0,-19.1728,11.9902,52.4713,-1.9039,-7.2649,-3.2682
1504841.0,-18.9238,11.2144,50.9678,-1.9539,-7.8167,-3.3651
1504851.0,-18.1289,11.0516,48.2288,-1.8789,-8.2951,-3.4401
1504861.0,-17.1808,11.6933,45.1642,-2.0965,-8.7612,-3.5471
1504871.0,-15.7922,12.536,42.4444,-2.3966,-9.2119,-3.5992
1504881.0,-14.8919,13.7044,39.0255,-2.7755,-9.5408,-3.6141
1504891.0,-14.0109,14.8153,35.7502,-3.3816,-9.5578,-3.5183
1504901.0,-12.7755,12.9766,35.032,-3.6955,-9.3194,-3.3103
1504911.0,-10.8026,9.1075,35.1373,-3.5795,-9.0683,-3.3449
1504921.0,-10.1418,7.2113,35.9801,-3.5774,-8.9544,-3.5737
1504931.0,-9.6534,6.292,37.2538,-3.2996,-9.0597,-3.8211
1504941.0,-8.7628,7.0677,36.2195,-3.1836,-9.3657,-4.0973
1504951.0,-8.4372,8.7149,34.7638,-3.6216,-9.809,-4.3362
1504961.0,-7.6136,11.1091,32.3792,-4.1734,-10.3166,-4.4719
1504971.0,-6.2345,12.8808,29.8988,-4.6241,-10.531,-4.3857
1504981.0,-4.9512,13.0149,27.1119,-4.6491,-10.248,-4.1707
1504991.0,-2.5091,11.9902,25.1583,-4.1941,-9.4524,-3.836
1505001.0,0.0575,10.659,24.3442,-3.711,-8.3451,-3.6152
1505011.0,0.4405,10.5249,24.6699,-3.5375,-7.6119,-3.5045
1505021.0,0.0287,11.4156,27.2077,-3.7338,-7.4815,-3.3603
1505031.0,0.316,12.038,27.2652,-3.6881,-7.6853,-3.1022
1505041.0,1.8483,12.1913,24.3538,-3.8355,-7.7252,-2.8234
1505051.0,3.8116,12.2104,20.2933,-4.2718,-7.4028,-2.6095
1505061.0,5.6886,11.7699,17.5926,-4.7177,-6.5652,-2.4296
1505071.0,6.5984,11.5113,16.089,-4.929,-5.4244,-2.2242
1505081.0,7.1443,12.0093,15.1314,-5.2222,-4.2574,-2.0268
1505091.0,6.8378,12.3637,17.5256,-5.2434,-3.0479,-1.6868
1505101.0,6.7325,11.5496,20.7912,-4.3415,-1.9002,-1.2271
1505111.0,7.039,11.5113,23.195,-3.1283,-1.019,-0.737
1505121.0,7.0102,11.0325,25.2157,-1.8358,-0.4507,-0.2373
1505131.0,7.8721,11.9135,23.8367,-0.9073,-0.0479,0.2097
1505141.0,7.7668,12.5839,22.5534,-0.5773,0.3496,0.7029
1505151.0,8.4563,13.9821,20.0538,-0.5741,0.8067,1.1483
1505161.0,8.6095,15.3325,16.8935,-1.4101,1.3457,1.5543
1505171.0,7.5944,17.1521,15.2559,-2.7744,1.8001,1.9651
1505181.0,5.2768,18.8567,14.5472,-4.4043,2.253,2.4961
1505191.0,2.2889,17.9182,15.9071,-5.8681,2.7021,3.1991
1505201.0,0.5171,13.7044,19.0483,-6.314,3.1278,3.8312
1505211.0,1.1013,11.4156,19.4409,-5.8442,3.6327,4.3309
1505221.0,1.9824,10.6877,19.4026,-5.1886,4.5522,4.7518
1505231.0,0.9385,13.6661,18.2917,-4.3117,5.7138,5.3185
1505241.0,-1.6281,16.7881,17.0084,-3.9738,7.2277,6.1746
1505251.0,-5.4205,16.9701,18.7131,-3.8589,8.707,7.2415
1505261.0,-8.6383,14.6812,22.2086,-4.0387,9.8686,8.2265
1505271.0,-11.7507,10.4674,27.9834,-3.885,10.6843,9.1843
1505281.0,-14.0779,3.6775,33.9402,-2.4451,11.5937,10.0873
1505291.0,-15.4665,-3.7445,36.1908,0.0,12.8659,10.7742
1505301.0,-14.6908,-12.9861,37.2442,1.9348,14.8396,10.8035
1505311.0,-14.8824,-20.0634,43.0382,2.8431,16.9898,9.9745
1505321.0,-18.0044,-20.7625,54.0611,2.7829,17.4357,8.7054
1505331.0,-22.0937,-15.0356,68.0432,2.1652,17.3208,7.6512
1505341.0,-25.9053,-10.3142,78.4508,1.7437,14.9417,7.2021
1505351.0,-27.4184,-6.5122,78.4508,2.3759,11.7145,7.1521
1505361.0,-26.6139,-3.8307,78.4508,3.5401,9.006,7.4916
1505371.0,-24.2581,-5.3822,78.4508,5.0029,7.5166,7.8465
1505381.0,-21.5382,-9.2799,72.3145,5.7654,7.2261,7.7752
1505391.0,-19.9772,-10.7548,68.771,5.676,7.2213,7.1415
1505401.0,-21.5287,-7.4699,68.7806,4.2314,6.661,6.3252
1505411.0,-23.7792,-4.1084,73.2913,2.4796,5.0641,5.7575
1505421.0,-24.2389,-1.5036,74.4692,1.3585,2.8984,5.4424
1505431.0,-23.5015,1.2546,71.7877,0.8519,0.9434,5.3594
1505441.0,-22.1128,4.6448,66.214,1.0408,-0.4794,5.5845
1505451.0,-21.5957,8.4372,58.045,1.2898,-1.1893,6.1166
1505461.0,-20.7529,9.7492,49.9814,1.2813,-1.1611,6.8153
1505471.0,-20.7434,7.2975,43.9767,1.0525,-0.5438,7.4991
1505481.0,-18.397,0.4214,43.1722,1.0328,0.4975,7.8614
1505491.0,-16.7594,-4.4532,43.2967,1.4335,1.3223,7.7768
1505501.0,-16.1656,-8.1211,45.6622,1.5107,1.7586,7.3416
1505511.0,-15.6581,-9.1459,48.3629,2.0279,1.5953,6.8052
1505521.0,-15.3325,-6.5888,47.1849,2.0146,1.2228,6.2108
1505531.0,-15.3804,-3.8595,46.0549,1.5884,0.8407,5.7851
1505541.0,-15.8592,-0.3256,43.3734,0.912,0.5353,5.4738
1505551.0,-17.0563,2.375,41.6016,-0.1155,0.4997,5.3701
1505561.0,-17.6596,1.8004,43.335,-0.3315,0.7322,5.4595
1505571.0,-17.2957,-0.498,45.5856,0.3831,1.0068,5.4802
1505581.0,-16.1273,-1.6664,46.6199,1.1323,1.0616,5.3419
1505591.0,-15.4953,-0.6033,46.4284,1.4692,0.7923,5.1152
1505601.0,-16.2806,1.7526,46.2656,1.2137,0.3821,4.913
1505611.0,-16.7977,3.6488,45.8921,0.6971,-0.1501,4.8465
1505621.0,-15.1601,3.735,45.6335,0.0899,-0.8077,4.6746
1505631.0,-16.2135,5.0853,43.7947,-0.5135,-1.4979,4.6427
1505641.0,-16.8743,5.5737,42.6072,-1.4011,-2.0407,4.6991
1505651.0,-16.6445,3.8595,42.8083,-1.1318,-2.303,4.8241
1505661.0,-14.8057,1.2258,40.7014,-0.4246,-1.9896,4.9082
1505671.0,-13.5512,-2.3367,40.1747,0.1431,-1.4282,4.7294
1505681.0,-12.9287,-4.2042,41.1132,0.5896,-1.1174,4.3569
1505691.0,-12.4115,-4.9895,42.7796,0.9003,-1.0413,3.903
1505701.0,-12.6222,-3.9935,44.0437,1.4521,-1.2143,3.5226
1505711.0,-12.2775,-2.6624,43.3734,1.5,-1.4606,3.1916
1505721.0,-11.7124,-2.3559,43.3446,1.2808,-1.79,2.8165
1505731.0,-10.3142,-3.0358,42.7509,0.9525,-2.0763,2.4477
1505741.0,-11.0229,-3.4093,42.0135,0.4911,-2.3855,1.9369
1505751.0,-11.5401,-3.2274,41.3814,-0.4209,-2.5621,1.4245
1505761.0,-11.5017,-4.4819,44.2832,-0.2921,-2.6648,1.0227
1505771.0,-10.3238,-5.0661,45.2025,0.854,-2.5563,0.7168
1505781.0,-10.0844,-4.9608,45.6622,1.8337,-2.5563,0.3938
1505791.0,-10.228,-4.5586,45.6622,2.3594,-2.9607,0.0112
1505801.0,-9.845,-2.8922,44.5034,2.4195,-3.5806,-0.3725
1505811.0,-9.9311,-1.4174,42.1475,1.8949,-4.1239,-0.7066
1505821.0,-9.8737,-1.0534,40.5099,1.2627,-4.54,-1.0403
1505831.0,-9.1171,-1.4748,40.2322,1.0499,-4.6565,-1.3744
1505841.0,-8.1116,-0.7087,40.0119,1.2217,-4.5405,-1.7198
1505851.0,-8.4563,0.3735,40.0406,1.6581,-4.5426,-1.9316
1505861.0,-8.9735,1.6855,39.8108,1.9257,-4.772,-2.0779
1505871.0,-8.7819,2.5953,39.1021,1.996,-5.1195,-2.1865
1505881.0,-8.2456,3.5243,36.5834,1.9156,-5.4579,-2.237
1505891.0,-6.6176,4.2808,33.9977,1.4931,-5.6702,-2.278
1505901.0,-5.5545,4.0701,31.5939,0.8583,-5.6947,-2.3716
1505911.0,-4.4915,3.055,29.9946,0.1405,-5.6351,-2.5036
1505921.0,-3.4764,1.8196,29.238,-0.2613,-5.4824,-2.709
1505931.0,-2.5953,0.4788,28.7783,-0.4177,-5.2679,-2.9421
1505941.0,-1.743,-0.0192,28.6634,-0.075,-5.0104,-3.1826
1505951.0,-0.8619,-0.2011,28.3473,0.6321,-4.5852,-3.4103
1505961.0,-0.3735,0.4884,27.2652,1.5447,-4.2117,-3.5588
1505971.0,-0.3065,1.5706,25.5988,2.2003,-3.8355,-3.6748
1505981.0,-0.3352,2.3559,23.5685,2.5563,-3.5002,-3.7934
1505991.0,-0.2011,2.8252,21.9309,2.7111,-3.1059,-3.9179
1506001.0,0.7087,3.2944,20.3603,2.6403,-2.6893,-4.1084
1506011.0,1.3503,3.6679,18.3013,2.3147,-2.1082,-4.3181
1506021.0,1.743,4.2425,16.5391,1.8246,-1.3085,-4.5496
1506031.0,1.494,5.1619,16.089,1.3564,-0.4007,-4.748
1506041.0,1.1875,5.7557,16.8743,1.085,0.4624,-4.888
1506051.0,0.7183,6.7229,17.7171,0.7577,1.2425,-5.012
1506061.0,0.431,7.4124,19.0291,0.4975,1.7842,-5.0311
1506071.0,0.0,8.5521,18.7801,-0.2416,2.162,-5.0444
1506081.0,-0.68,8.7915,19.2781,-1.1765,2.5478,-4.9247
1506091.0,-0.9768,7.9679,20.0538,-1.9417,3.1113,-4.7688
1506101.0,-1.5897,5.7365,21.4808,-2.4653,3.9339,-4.6257
1506111.0,-0.9768,3.055,24.1719,-2.5669,4.7331,-4.6054
1506121.0,-1.6376,0.5076,26.2883,-2.8713,5.3243,-4.764
1506131.0,-2.9401,-1.1013,29.6306,-3.1725,5.543,-5.0827
1506141.0,-3.9744,0.1341,30.1765,-3.8025,5.4185,-5.4855
1506151.0,-6.3015,1.3312,31.3928,-4.9093,5.2104,-5.7798
1506161.0,-8.5521,0.8523,34.2658,-5.145,4.9854,-5.9245
1506171.0,-9.4044,0.4884,33.7104,-4.7262,5.0678,-6.0331
1506181.0,-9.5289,-1.4748,34.7447,-3.729,5.7569,-6.1959
1506191.0,-10.228,-3.9552,35.099,-1.9678,6.7669,-6.5583
1506201.0,-11.3677,-3.8499,35.2426,-0.8423,7.7561,-7.2218
1506211.0,-13.3596,0.0383,36.2578,-0.7529,8.2999,-7.9375
1506221.0,-16.4146,4.7597,38.2115,-1.8863,8.3973,-8.41
1506231.0,-20.0347,8.8011,41.5059,-3.7615,7.7795,-8.584
1506241.0,-22.879,10.5249,44.4938,-5.8027,6.8281,-8.4558
1506251.0,-25.0817,8.849,48.1235,-6.7025,6.1869,-8.0855
1506261.0,-25.1678,4.3862,50.3261,-5.9384,6.3226,-7.7891
1506271.0,-26.4607,0.5267,53.3237,-3.8796,6.9494,-7.7199
1506281.0,-24.9955,-0.1628,56.2254,-1.4867,7.3384,-7.7981
1506291.0,-26.5278,1.4461,57.8056,-0.2703,7.1069,-8.0631
1506301.0,-27.2269,4.865,59.7497,-0.0271,5.9703,-8.2712
1506311.0,-28.1367,9.5098,59.6444,-1.0669,4.4091,-8.2914
1506321.0,-18.895,9.8067,60.6212,-2.2881,2.6233,-8.1807
1506331.0,-31.6513,11.3581,56.3882,-3.2613,1.3345,-7.9492
1506341.0,-33.3369,10.4196,58.2366,-1.9348,0.8067,-7.2814
1506351.0,-30.2436,11.4826,55.8328,-1.4452,1.2505,-6.6227
1506361.0,-31.2874,6.8283,60.8606,0.6917,0.9339,-6.0033
1506371.0,-29.3146,8.1211,54.607,1.9768,0.5497,-5.7133
1506381.0,-28.3665,9.7875,53.2566,1.7826,0.0271,-5.4994
1506391.0,-27.2173,11.8274,50.8528,1.5346,-0.6832,-5.0982
1506401.0,-26.1064,11.7699,47.3094,0.589,-1.1808,-4.6986
1506411.0,-25.6946,9.5768,46.323,0.1974,-1.4442,-4.2926
1506421.0,-24.6699,5.9759,44.695,0.1219,-1.2435,-4.0526
1506431.0,-23.5015,1.7717,45.2217,0.7641,-0.787,-4.0547
1506441.0,-23.0322,-0.3352,44.4651,1.5453,-0.249,-4.3819
1506451.0,-23.4632,0.2298,45.2504,1.7262,0.1235,-4.847
1506461.0,-24.6603,3.5913,47.4243,1.5889,0.0314,-5.2078
1506471.0,-25.5318,7.4029,48.7172,1.0993,-0.5209,-5.2871
1506481.0,-25.9148,9.9216,49.0428,0.0282,-1.2957,-5.2142
1506491.0,-25.934,10.4866,50.2112,-1.0621,-2.0869,-5.0035
1506501.0,-25.7137,9.2799,51.4658,-1.409,-2.7335,-4.7337
1506511.0,-25.12,7.9104,51.0923,-1.2164,-3.0996,-4.5214
1506521.0,-32.0631,42.4731,53.6397,2.7542,-1.8922,-3.0325
1506531.0,-26.3554,54.3771,21.7489,4.3506,0.3448,0.1394
1506541.0,-27.3322,26.1064,43.5553,0.77,-0.2198,1.0483
1506551.0,-21.7968,14.5089,52.7012,2.1774,-2.6659,1.1307
1506561.0,-15.9933,-7.8243,63.1878,-2.4765,-4.3569,-0.5215
1506571.0,-18.1097,-2.624,56.9437,-0.771,-6.5067,-1.1217
1506581.0,-19.5558,2.2984,45.8537,-4.7193,-7.05,-1.8347
1506591.0,-19.7665,-4.6352,53.8887,-5.4398,-8.2307,-2.4195
1506601.0,-17.1138,-1.3216,46.007,-5.5244,-8.8719,-3.1767
1506611.0,-18.3492,-0.6608,46.9072,-5.9676,-9.2859,-3.77
1506621.0,-18.895,2.4421,44.2736,-4.3224,-9.6238,-3.9041
1506631.0,-18.7801,6.6367,40.5386,-3.2129,-9.4322,-3.7588
1506641.0,-18.4162,8.7532,38.4509,-0.9594,-9.0965,-3.1576
1506651.0,-16.7786,13.0245,31.8525,0.6295,-8.1605,-2.2769
1506661.0,-16.1082,14.528,31.5077,1.9741,-7.0814,-1.1792
1506671.0,-14.9877,15.2271,29.9467,3.3177,-6.1204,-0.0069
1506681.0,-14.1833,14.6238,30.1095,3.894,-5.4712,1.0674
1506691.0,-13.4075,12.6414,29.6019,4.077,-5.2312,1.9422
1506701.0,-11.6358,10.343,28.424,3.728,-5.0184,2.5323
1506711.0,-9.2703,7.9775,27.6578,3.298,-4.7092,2.924
1506721.0,-7.6902,5.8419,26.432,2.4866,-4.3388,3.1166
1506731.0,-6.8666,4.1276,26.8342,1.607,-3.9281,3.2118
1506741.0,-5.794,2.0016,27.8589,1.0041,-3.3667,3.3177
1506751.0,-4.6448,-1.4269,30.4255,0.7849,-2.809,3.2682
1506761.0,-4.051,-4.3191,33.2507,0.6635,-2.4557,2.8793
1506771.0,-4.1372,-5.5641,35.9609,0.7194,-2.4344,2.361
1506781.0,-3.9648,-3.4955,37.7135,0.6588,-2.6733,1.8049
1506791.0,-3.6583,-0.5842,38.5945,0.3714,-3.2172,1.4745
1506801.0,-4.0223,1.7813,38.6233,-0.0442,-3.878,1.3989
1506811.0,-3.5817,2.557,37.407,-0.107,-4.4575,1.4447
1506821.0,-2.6049,3.4189,34.3807,-0.0122,-4.5959,1.5639
1506831.0,-1.6855,3.2848,31.7184,0.157,-4.3,1.7123
1506841.0,-0.4405,1.8962,30.301,0.4592,-3.6668,1.8193
1506851.0,-0.2107,1.4461,30.3776,0.688,-3.1927,1.7789
1506861.0,0.0958,1.7909,30.732,0.7646,-3.0075,1.7666
1506871.0,0.1628,2.9401,29.9467,0.887,-3.0352,1.8491
1506881.0,0.7087,3.6966,28.0122,0.9136,-2.8777,2.0556
1506891.0,1.5993,4.8746,24.8422,1.0424,-2.3301,2.3871
1506901.0,2.241,5.1619,22.6587,1.1275,-1.185,2.8362
1506911.0,2.2601,2.2314,22.9269,1.4138,0.0931,3.1804
1506921.0,3.122,0.5459,24.2581,1.6666,1.1563,3.3214
1506931.0,2.9688,-1.4269,26.5661,1.4569,1.9087,3.2246
1506941.0,2.4038,-3.0837,29.5732,1.3292,2.3275,2.9373
1506951.0,2.4038,-2.9497,31.6801,1.0892,2.3232,2.4961
1506961.0,3.0263,-0.8045,31.9195,0.3459,2.0407,2.1247
1506971.0,2.6719,1.4653,32.0919,-0.5364,1.7799,1.9768
1506981.0,1.5514,2.49,31.7758,-1.0084,1.8023,2.0204
1506991.0,1.1109,3.5626,30.6554,-1.3755,2.071,2.2141
1507001.0,0.7853,2.624,29.9275,-1.8757,2.5584,2.3902
1507011.0,0.498,-0.2011,33.2794,-1.8789,2.9724,2.4296
1507021.0,0.2873,-1.9824,35.7406,-1.5399,3.0958,2.2711
1507031.0,-0.0575,-3.0742,37.1676,-1.1967,2.7973,1.9683
1507041.0,-0.2777,-1.0343,36.8516,-1.0898,2.311,1.6937
1507051.0,-0.8236,2.0016,34.5531,-1.0802,2.1801,1.6937
1507061.0,-1.6281,3.869,32.0153,-0.9674,2.6542,1.9486
1507071.0,-1.7621,5.9376,29.8318,-0.7806,3.5918,2.3833
1507081.0,-2.8252,5.5258,29.8892,-0.8775,4.6911,2.9085
1507091.0,-3.9744,2.7773,33.356,-0.6848,5.5223,3.3092
1507101.0,-4.0127,0.3448,37.3879,-0.3076,5.9267,3.4374
1507111.0,-4.3958,-2.806,42.0422,-0.0708,5.6729,3.2964
1507121.0,-4.3862,-5.2194,45.2408,0.0979,4.6815,2.8798
1507131.0,-3.6871,-4.4724,44.0342,-0.0341,3.5689,2.2934
1507141.0,-3.9648,-1.494,41.2377,-0.0729,2.9979,1.9731
1507151.0,-4.7597,1.1205,36.6792,-0.0394,3.3278,1.93
1507161.0,-5.363,2.9497,35.0415,-0.0926,4.0435,2.0699
1507171.0,-5.9472,3.6679,35.1756,-0.3581,4.7406,2.2359
1507181.0,-6.608,2.0877,38.585,-0.655,5.0976,2.3615
1507191.0,-6.9432,-0.067,42.8275,-0.5529,4.8497,2.3285
1507201.0,-6.1387,-1.3599,45.0493,-0.4321,4.1005,2.1423
1507211.0,-6.0047,-1.5227,44.9344,-0.1618,3.289,1.9161
1507221.0,-6.0238,0.4214,42.4061,0.232,2.859,1.7932
1507231.0,-6.0238,3.5243,38.3647,0.472,3.1405,1.939
1507241.0,-6.426,5.5162,35.846,0.5491,3.9632,2.2817
1507251.0,-7.6614,6.9336,35.3863,0.2182,4.8449,2.7228
1507261.0,-8.6574,5.6312,38.4413,-0.1958,5.468,3.1682
1507271.0,-9.232,2.5857,43.2106,-0.3475,5.5542,3.4178
1507281.0,-9.481,0.0,47.3382,-0.3363,5.0705,3.3731
1507291.0,-9.5002,-2.5474,48.9088,-0.215,4.2681,3.0554
1507301.0,-9.6726,-3.4477,48.066,-0.1681,3.5481,2.5291
1507311.0,-10.1993,-0.8332,45.26,-0.3267,3.1485,1.9715
1507321.0,-11.8657,3.0167,42.3678,-0.704,3.2427,1.6778
1507331.0,-13.465,6.0334,41.3431,-1.1206,3.563,1.6362
1507341.0,-15.208,8.3606,41.7932,-1.5905,3.8115,1.7624
1507351.0,-16.271,9.6726,43.201,-1.9278,3.8525,2.0641
1507361.0,-17.085,9.8737,45.4228,-2.0699,3.7014,2.4227
1507371.0,-17.4777,8.5712,46.754,-1.9789,3.4071,2.7372
1507381.0,-16.9893,7.0581,47.6638,-1.6182,3.016,2.9351
1507391.0,-17.6405,6.4069,46.3901,-1.2616,2.7462,3.024
1507401.0,-17.1616,6.2824,45.078,-0.9706,2.7122,3.148
1507411.0,-17.6501,6.8857,43.9575,-0.8152,2.7361,3.2422
1507421.0,-18.0331,6.8666,43.4404,-0.7897,2.776,3.3518
1507431.0,-18.1576,6.4835,43.1722,-1.0099,2.742,3.3805
1507441.0,-18.148,5.8706,44.082,-1.3196,2.5227,3.356
1507451.0,-18.4354,5.612,44.829,-1.4144,2.0258,3.3108
1507461.0,-18.9333,6.7804,43.1531,-1.6873,1.499,3.3608
1507471.0,-19.5558,7.6327,42.0901,-1.7432,1.2409,3.562
1507481.0,-19.6325,8.0828,39.1308,-1.6783,1.4729,3.9499
1507491.0,-19.9102,7.1539,37.9242,-1.6235,2.0508,4.3537
1507501.0,-19.9389,5.4779,38.4509,-1.4963,2.7021,4.6922
1507511.0,-19.6612,3.5147,40.5865,-1.2127,3.1517,4.9135
1507521.0,-19.5271,1.7334,43.8426,-0.8093,3.1687,5.0311
1507531.0,-20.0251,1.1013,45.3079,-0.5816,2.7409,5.0503
1507541.0,-19.9676,0.3543,46.3613,-0.4997,2.0987,5.0348
1507551.0,-19.6708,0.0479,44.8482,-0.5699,1.5814,4.9513
1507561.0,-19.7665,-0.0862,42.8754,-0.8359,1.4026,4.8614
1507571.0,-19.9006,-0.1245,42.0709,-1.0919,1.4787,4.7895
1507581.0,-20.4273,-0.4884,42.0709,-1.4122,1.6288,4.7081
1507591.0,-20.8391,-1.5227,44.6279,-1.4702,1.6336,4.6443
1507601.0,-20.5231,-2.8443,46.5816,-1.2893,1.4543,4.5155
1507611.0,-20.5518,-4.6256,48.0373,-1.1366,1.0914,4.2792
1507621.0,-20.322,-5.2864,49.0428,-0.7535,0.6188,3.9908
1507631.0,-20.0826,-5.0566,48.382,-0.4778,0.1873,3.6567
1507641.0,-20.1688,-4.2617,47.4818,-0.357,-0.124,3.3571
1507651.0,-20.1592,-2.9305,46.6295,-0.4715,-0.3704,3.0969
1507661.0,-20.4752,-2.1739,46.1411,-0.7854,-0.5917,2.8755
1507671.0,-20.6763,-1.5131,45.3941,-1.1424,-0.9051,2.6834
1507681.0,-20.9349,-1.5323,45.9591,-1.5974,-1.1563,2.5052
1507691.0,-20.7146,-2.3463,47.4148,-1.6767,-1.3941,2.3684
1507701.0,-20.322,-3.4093,48.1809,-1.4,-1.5862,2.2072
1507711.0,-20.2645,-4.118,49.3493,-0.7343,-1.7187,2.0013
1507721.0,-19.3739,-3.9456,50.058,0.1293,-1.822,1.7938
1507731.0,-19.6037,-3.1125,50.69,1.0068,-2.0556,1.6506
1507741.0,-19.9006,-1.245,50.0484,1.7389,-2.4349,1.5676
1507751.0,-19.9198,-0.1245,48.9183,2.0417,-2.7659,1.5607
1507761.0,-19.4888,0.7278,47.501,2.1034,-2.9554,1.5963
1507771.0,-19.0387,0.5076,47.0796,2.0369,-3.04,1.5915
1507781.0,-18.0331,0.0192,46.888,1.9502,-3.2299,1.4841
1507791.0,-17.4968,-0.3352,47.3573,1.6421,-3.5407,1.2824
1507801.0,-16.3189,-0.0479,47.6733,1.3665,-3.9903,1.0642
1507811.0,-15.3708,0.7757,46.3517,0.8493,-4.4836,0.8402
1507821.0,-14.9685,1.0534,45.9974,0.1517,-5.0242,0.6279
1507831.0,-15.026,1.245,45.4611,-0.4427,-5.5936,0.4055
1507841.0,-14.2982,0.9385,43.8139,-0.854,-6.0001,0.2251
1507851.0,-13.7044,0.2107,42.6359,-0.8056,-6.0969,0.0388
1507861.0,-12.6222,-0.3639,41.6016,-0.3778,-5.9644,-0.1548
1507871.0,-11.8944,0.2873,39.9257,-0.0947,-5.8431,-0.3794
1507881.0,-10.2472,0.6895,39.0159,-0.1282,-5.8314,-0.5678
1507891.0,-10.6686,2.4134,37.3304,-0.2847,-5.9793,-0.7088
1507901.0,-10.3813,3.0263,36.095,-0.8237,-5.9676,-0.7971
1507911.0,-8.849,3.7062,35.7119,-0.8487,-5.9373,-0.7886
1507921.0,-8.1882,3.735,34.1413,-0.8679,-5.7622,-0.7758
1507931.0,-7.7093,3.2561,33.4326,-0.8141,-5.617,-0.7742
1507941.0,-6.79,2.7869,31.6992,-0.8391,-5.4515,-0.8242
1507951.0,-5.8035,2.7581,30.4255,-0.9871,-5.211,-0.8727
1507961.0,-5.1044,2.6815,30.2819,-1.0515,-4.8497,-0.9078
1507971.0,-4.1946,1.7717,29.8509,-0.9104,-4.4011,-0.9206
1507981.0,-2.9401,0.3448,30.3968,-0.5071,-4.0286,-1.0243
1507991.0,-2.0016,-0.3543,29.6306,-0.1431,-3.7759,-1.2207
1508001.0,-1.5514,-0.8811,29.6115,0.041,-3.6093,-1.4702
1508011.0,-0.8811,-0.929,28.7783,0.3145,-3.4204,-1.7315
1508021.0,0.2873,-0.431,26.6235,0.2996,-3.1517,-1.9896
1508031.0,0.2777,0.3065,25.9915,0.0883,-2.7292,-2.1843
1508041.0,0.6991,0.8045,24.8614,-0.1447,-2.3046,-2.3205
1508051.0,0.8523,1.2163,24.6411,-0.4762,-1.781,-2.4339
1508061.0,1.1109,1.5036,25.7808,-0.6423,-1.3548,-2.4493
1508071.0,1.2833,1.6281,26.2883,-0.8152,-1.0679,-2.4328
1508081.0,0.9002,1.4557,27.0928,-0.9163,-0.9073,-2.3839
1508091.0,0.7661,1.1492,26.3075,-0.9472,-0.6444,-2.2998
1508101.0,1.4461,0.1149,25.8574,-0.8402,-0.2639,-2.2205
1508111.0,1.7142,-1.4844,25.5988,-0.7891,0.2671,-2.2727
1508121.0,1.3599,-3.2657,26.5661,-0.7162,0.7545,-2.4823
1508131.0,1.1779,-4.051,27.7632,-0.531,1.1786,-2.8096
1508141.0,0.9194,-4.7788,29.3912,-0.0341,1.4835,-3.1283
1508151.0,0.8811,-4.7118,29.7934,0.5076,1.7443,-3.5263
1508161.0,0.8523,-3.2848,29.238,0.8939,1.98,-3.9637
1508171.0,0.5076,-0.1149,27.6195,0.861,2.3881,-4.3218
1508181.0,-0.814,2.2505,28.3857,0.4427,2.8606,-4.5144
1508191.0,-2.0303,5.0949,29.8605,-0.0458,3.132,-4.49
1508201.0,-3.237,6.608,31.115,-0.6274,3.1671,-4.2755
1508211.0,-4.6064,5.1523,33.2028,-1.0158,3.1027,-4.0026
1508221.0,-4.8459,2.557,34.7542,-0.8642,3.0458,-3.9014
1508231.0,-3.8786,1.245,33.6912,-0.4997,3.2097,-3.9845
1508241.0,-4.0989,1.5227,33.4135,-0.2357,3.5077,-4.2058
1508251.0,-4.5107,3.4764,33.0017,-0.1346,3.8685,-4.3452
1508261.0,-5.861,6.2345,32.4175,-0.5475,4.109,-4.3607
1508271.0,-7.2496,7.2496,33.4422,-1.1728,4.2553,-4.1388
1508281.0,-8.4467,6.7995,34.8213,-1.6639,4.4203,-3.8073
1508291.0,-9.0884,3.1987,37.4262,-1.5729,4.6155,-3.563
1508301.0,-8.667,0.7374,39.0063,-1.0525,4.6943,-3.5529
1508311.0,-9.3853,-1.1301,39.7342,-0.6737,4.698,-3.7338
1508321.0,-10.6303,-1.8962,40.8068,-0.1618,4.5208,-3.9791
1508331.0,-11.5592,-0.6225,40.1651,0.108,4.159,-4.2048
1508341.0,-12.4115,0.3831,38.9776,-0.0138,3.736,-4.3309
1508351.0,-12.4403,0.8428,36.4398,-0.3352,3.4422,-4.3633
1508361.0,-11.8752,0.9002,34.5818,-0.8088,3.6003,-4.3655
1508371.0,-11.9614,0.249,33.4135,-1.3909,4.0276,-4.3686
1508381.0,-13.0532,-0.5363,34.534,-2.096,4.4937,-4.3958
1508391.0,-14.3365,-2.4229,37.2729,-2.303,4.7225,-4.4144
1508401.0,-16.089,-3.7733,39.5235,-2.0289,4.8965,-4.5283
1508411.0,-16.4146,-4.5298,41.0653,-1.3883,4.9838,-4.6586
1508421.0,-15.2654,-4.5777,41.276,-0.7742,5.0503,-4.8949
1508431.0,-15.9933,-3.1987,40.9504,-0.6848,5.0593,-5.1737
1508441.0,-17.7746,-0.9194,41.1132,-0.7237,5.0716,-5.3052
1508451.0,-18.263,1.0439,41.5825,-0.7306,5.2147,-5.1849
1508461.0,-19.4409,1.743,42.4157,-0.9248,5.4105,-4.9822
1508471.0,-21.6532,0.067,45.9112,-0.7944,5.5297,-4.7848
1508481.0,-21.4137,-1.3503,48.3725,-0.1048,5.5308,-4.756
1508491.0,-21.4999,-1.2163,49.4067,0.3475,5.5318,-4.8976
1508501.0,-22.1512,0.1532,51.4658,0.5491,5.3664,-5.0652
1508511.0,-22.697,2.7294,52.3181,0.2027,4.9609,-5.1966
1508521.0,-23.3291,5.612,54.3963,-0.6518,4.2984,-5.1711
1508531.0,-24.0665,7.8434,56.0914,-1.6309,3.3725,-4.9566
1508541.0,-22.9173,6.7421,57.978,-2.5382,2.3136,-4.6523
1508551.0,-27.8302,3.3519,57.2214,-3.0485,1.3079,-4.5565
1508561.0,-28.7783,0.3735,59.041,-2.2445,1.0392,-4.3639
1508571.0,-25.2157,1.5419,56.8767,-1.417,1.1462,-4.2228
1508581.0,-25.0434,-0.8045,60.6212,-0.3065,0.6556,-4.1569
1508591.0,-24.8614,0.0192,57.8535,0.6588,-0.0043,-4.2622
1508601.0,-24.0186,2.0494,56.0243,0.6039,-0.4092,-4.383
1508611.0,-24.0474,4.7884,55.1241,0.5582,-0.9589,-4.3282
1508621.0,-23.9707,7.4508,53.7546,-0.0937,-1.5447,-4.1632
1508631.0,-24.44,7.853,54.4346,-0.5337,-2.1689,-3.8727
1508641.0,-24.191,7.9871,54.3101,-0.6396,-2.6888,-3.5082
1508651.0,-23.4919,7.5274,53.5152,-0.4209,-3.1208,-3.1363
1508661.0,-22.7641,6.9815,51.6669,-0.0133,-3.3986,-2.7883
1508671.0,-22.3044,6.7421,49.6557,0.2554,-3.5433,-2.5494
1508681.0,-21.6819,7.3167,47.8266,0.4017,-3.6141,-2.3546
1508691.0,-21.1743,8.5042,45.9016,0.1681,-3.6274,-2.1396
1508701.0,-21.0881,9.5577,45.9208,-0.0905,-3.7221,-1.8337
1508711.0,-20.8391,10.5919,45.1546,-0.199,-3.8067,-1.4011
1508721.0,-20.2262,11.0133,44.1299,-0.3645,-3.7493,-0.8716
1508731.0,-19.2207,10.3334,43.8522,-0.3602,-3.4917,-0.2836
1508741.0,-18.6077,7.853,44.5034,-0.1985,-3.14,0.2591
1508751.0,-17.9278,5.43,45.8154,-0.0793,-3.0256,0.5603
1508761.0,-17.4681,3.5338,47.501,-0.0623,-3.1325,0.6753
1508771.0,-17.7075,2.1356,49.7707,0.1841,-3.4156,0.7013
1508781.0,-17.5543,2.3942,49.7898,0.2975,-3.9206,0.7019
1508791.0,-16.6636,2.9018,49.9143,0.1809,-4.4155,0.7194
1508801.0,-16.2135,3.0742,48.5736,-0.107,-4.9236,0.7673
1508811.0,-15.591,2.9497,47.8266,-0.7008,-5.3999,0.8141
1508821.0,-14.959,1.2929,47.7404,-1.2595,-5.9815,0.8445
1508831.0,-14.7387,-0.565,46.9838,-1.8305,-6.6413,0.8067
1508841.0,-14.9207,-3.6296,46.5433,-1.9034,-7.2511,0.6726
1508851.0,-13.7906,-6.541,45.011,-1.4319,-7.4171,0.4124
1508861.0,-11.8274,-8.5808,43.2393,-0.6651,-7.0516,-0.0223
1508871.0,-10.3238,-8.8107,41.956,0.1538,-6.38,-0.5236
1508881.0,-10.2185,-6.4739,44.0342,0.7971,-5.932,-0.9227
1508891.0,-11.0421,-2.9497,45.193,1.0296,-6.1134,-1.126
1508901.0,-11.7412,0.9098,45.6526,0.7412,-6.7461,-1.0993
1508911.0,-11.4347,3.0454,45.3845,0.174,-7.4187,-0.8642
1508921.0,-11.4443,4.0127,44.7524,-0.0926,-8.0306,-0.513
1508931.0,-10.8409,2.9018,43.3734,-0.2065,-8.3382,-0.1373
1508941.0,-9.3278,0.1724,42.9711,0.2251,-8.3755,0.0766
1508951.0,-8.8011,-0.7757,41.4101,0.8003,-8.2871,0.1719
1508961.0,-8.2456,-2.6336,42.3199,1.5846,-8.029,0.2975
1508971.0,-6.3686,-3.9456,42.7413,2.9793,-7.9609,0.3241
1508981.0,-5.1236,-2.1356,40.1939,3.2619,-8.0956,0.2549
1508991.0,-4.7118,-0.067,40.1843,3.0847,-8.5702,0.2474
1509001.0,-4.051,2.5091,37.3304,2.61,-9.171,0.4278
1509011.0,-4.6639,3.7445,33.6529,1.6735,-9.4993,0.6875
1509021.0,-2.2697,4.0414,30.2052,0.8673,-9.5371,1.077
1509031.0,-0.4788,0.2203,29.0848,0.3592,-9.0262,1.3393
1509041.0,1.1013,-2.0303,28.6251,0.2831,-8.4244,1.3702
1509051.0,2.8635,-4.0606,29.1135,-0.0511,-7.9338,1.2185
1509061.0,3.8499,-6.043,32.3888,0.2395,-7.7641,1.0137
1509071.0,5.4875,-6.0142,31.4407,0.58,-7.73,0.7764
1509081.0,5.679,-5.5162,31.2491,0.6816,-7.879,0.5747
1509091.0,5.8993,-4.4053,29.4391,0.7705,-8.0269,0.505
1509101.0,6.359,-4.2042,27.2843,0.8849,-7.8662,0.506
1509111.0,8.7724,-4.4149,24.8518,1.2334,-7.2947,0.5151
1509121.0,11.0516,-4.6926,22.3044,1.2308,-6.388,0.4182
1509131.0,11.7603,-4.9799,21.8926,0.9626,-5.3334,0.1719
1509141.0,12.2775,-3.6775,24.6028,0.8237,-4.5017,-0.009
1509151.0,12.1242,-1.1492,26.4703,0.2778,-4.1377,-0.0889
1509161.0,11.5784,-0.1532,30.0616,-0.1038,-4.3942,0.0069
1509171.0,11.3581,1.0056,29.8988,-0.207,-4.7661,0.2426
1509181.0,11.9231,1.4365,27.9068,-0.1517,-4.83,0.6279
1509191.0,13.9151,-0.6416,26.0393,0.3501,-4.2143,0.9732
1509201.0,15.8688,-2.6432,24.44,0.8982,-3.2539,1.0962
1509211.0,16.7498,-3.6392,24.0378,0.9573,-2.4935,0.9951
1509221.0,17.4106,-4.0989,26.0393,0.9062,-1.9811,0.7859
1509231.0,16.9893,-3.4764,28.06,0.9924,-1.8337,0.6481
1509241.0,16.5008,-2.739,29.5157,0.8881,-2.0971,0.53
1509251.0,16.4146,-2.5283,30.1191,0.7817,-2.6675,0.4182
1509261.0,16.4913,-1.6089,28.5293,0.5986,-3.4188,0.3262
1509271.0,16.5104,-0.1245,23.7313,-0.0314,-4.0978,0.2847
1509281.0,17.2957,1.4748,17.4585,-1.3335,-4.4761,0.2746
1509291.0,16.2423,2.8826,13.0436,-2.7952,-4.4368,0.2724
1509301.0,12.718,6.359,7.7572,-4.4091,-4.2314,0.3113
1509311.0,7.0198,11.2432,3.9169,-6.1246,-4.051,0.5236
1509321.0,-4.6064,16.9509,5.363,-7.779,-4.0185,0.912
1509331.0,-30.3202,20.8774,10.6781,-9.3513,-7.1372,1.4521
1509341.0,-51.4945,20.571,-18.579,-17.4363,-17.4363,1.0248
1509351.0,-78.4532,58.6484,-78.4532,-17.4363,-17.4363,-0.6673
1509361.0,18.9908,60.7553,-78.4532,-8.0344,-12.2774,1.2563
1509371.0,-78.4532,78.4508,-78.4532,-17.4363,7.3596,5.4558
1509381.0,-72.6688,78.4508,-78.4532,4.4266,17.4357,13.1395
1509391.0,-78.4532,78.4508,-78.4532,7.0569,17.4357,17.4357
1509401.0,-78.4532,76.557,-78.4532,16.2991,17.4357,17.4357
1509411.0,-78.4532,-27.7632,-74.5267,17.4357,17.4357,17.4357
1509421.0,-78.4532,-78.4532,78.4508,17.4357,17.4357,17.4357
1509431.0,-78.4532,-78.4532,78.4508,17.4357,17.4357,3.885
1509441.0,-78.4532,-57.3555,78.4508,17.4357,17.4357,-6.3667
1509451.0,-78.4532,29.9754,78.4508,17.4357,17.4357,-11.9997
1509461.0,-78.4532,49.2631,78.4508,-15.3259,17.4357,-14.9172
1509471.0,-78.4532,57.8248,78.4508,11.4537,7.1697,-3.48
1509481.0,-78.4532,78.4508,78.4508,12.3642,-17.4363,5.5962
1509491.0,-78.4532,4.3287,78.4508,6.8887,-17.4363,7.307
1509501.0,-78.4532,-21.136,78.4508,9.6445,-17.4363,5.5026
1509511.0,-78.4532,-20.5997,78.4508,-1.541,-17.4363,-0.24
1509521.0,-78.4532,5.9759,78.4508,1.3175,-17.4363,-3.148
1509531.0,-78.4532,46.2368,37.8571,1.5107,-17.4363,-3.2448
1509541.0,-78.4532,65.5054,48.6214,3.505,-17.4363,-0.8801
1509551.0,-68.2539,78.118,36.4589,5.8022,-15.3472,2.9506
1509561.0,-59.2038,68.4071,36.6983,0.8955,-13.4577,6.2007
1509571.0,-51.1976,42.521,48.9662,-0.0995,-13.687,8.3302
1509581.0,-45.7005,27.1119,44.1108,-1.3617,-14.0989,9.3104
1509591.0,-42.1954,10.8218,50.7188,-1.1877,-14.7475,9.6382
1509601.0,-38.6903,5.5641,40.8738,1.0765,-15.154,9.6866
1509611.0,-32.0823,1.7909,27.8015,0.6002,-14.6826,9.3333
1509621.0,-24.622,-7.2975,16.702,-1.1366,-13.9318,8.1275
1509631.0,-17.4298,-10.2568,8.4084,-5.0881,-12.1423,6.0794
1509641.0,-14.1545,-11.5305,13.0245,-8.062,-10.2448,4.1595
1509651.0,-14.1737,-11.3102,21.136,-9.6536,-8.8458,2.5494
1509661.0,-16.089,-11.1666,35.8173,-8.6032,-8.4797,1.5724
1509671.0,-17.7171,-8.1786,41.8698,-5.1077,-8.7399,1.176
1509681.0,-17.7937,-1.9249,39.4948,-2.1912,-9.2545,1.193
1509691.0,-17.5639,2.4325,35.597,-0.5837,-9.6392,1.4532
1509701.0,-17.0659,4.2042,30.7607,-0.1756,-9.7095,1.7342
1509711.0,-15.6677,3.2657,28.0984,-0.8673,-9.5025,1.8565
1509721.0,-14.1354,-0.0575,30.1574,-2.4557,-9.512,1.5735
1509731.0,-15.7443,-3.3232,35.1469,-4.3649,-10.7865,1.0291
1509741.0,-15.3325,-6.177,38.1827,-5.8463,-12.8064,0.3704
1509751.0,-13.6661,-7.3167,36.7366,-5.9543,-14.4389,-0.2219
1509761.0,-12.2966,-6.5601,31.7854,-5.4786,-15.0497,-0.7199
1509771.0,-12.5073,-4.5681,27.744,-4.6262,-15.2009,-1.0807
1509781.0,-12.1434,-0.747,22.9556,-3.968,-15.3126,-1.251
1509791.0,-11.4156,2.7102,19.3547,-3.2496,-15.3131,-1.1345
1509801.0,-9.912,5.6024,14.6334,-2.5206,-14.9912,-0.7428
1509811.0,-7.0581,4.8363,12.1051,-1.6964,-14.2436,-0.2251
1509821.0,-4.6926,1.8771,10.975,-0.3459,-13.3539,0.1783
1509831.0,-2.2314,-0.1532,8.1499,0.7306,-12.6786,0.4539
1509841.0,0.6608,-2.6624,6.2249,1.2111,-12.1641,0.5656
1509851.0,4.1563,-4.2329,4.5298,1.7868,-11.458,0.506
1509861.0,8.0637,-2.8156,3.7828,2.5877,-10.4619,0.3187
1509871.0,4.0127,-3.0263,0.9385,3.1336,-9.9627,0.5401
1509881.0,7.2018,-3.735,-5.6024,0.7982,-9.7478,0.0096
1509891.0,9.9982,-5.4396,-2.6049,-0.4417,-9.4195,-0.4981
1509901.0,12.6127,-4.4819,-5.9759,-0.2027,-8.5723,-0.7327
1509911.0,14.2886,-3.802,-9.5289,-0.2895,-7.3245,-0.8727
1509921.0,16.7211,-3.7924,-11.0229,0.4145,-5.792,-0.9163
1509931.0,18.9525,-1.4269,-13.8864,1.1983,-3.9137,-0.9152
1509941.0,19.1919,0.4597,-13.9917,1.9358,-1.8847,-0.7205
1509951.0,20.1209,0.4788,-13.2351,2.478,-0.1378,-0.4943
1509961.0,19.0483,-1.1396,-10.3142,2.1636,0.8562,-0.5566
1509971.0,16.8743,-2.1261,-7.4316,1.3218,0.8375,-0.8221
1509981.0,14.279,-1.9632,-6.426,0.0601,0.0149,-1.1845
1509991.0,8.5234,1.5227,-11.2911,-1.558,-1.6581,-1.5335
1510001.0,3.5817,7.3741,-24.9955,-4.4937,-3.9068,-1.9773
1510011.0,7.0102,17.3532,-47.2041,-6.1118,-2.834,-2.0359
1510021.0,-7.671,29.0177,-56.302,-2.4919,-1.0616,-1.3846
1510031.0,-26.4033,58.8591,-78.4532,-6.7142,-3.3922,0.1479
1510041.0,-42.3103,78.4508,-78.4532,-17.4363,-3.1081,2.7143
1510051.0,-55.6891,78.4508,-78.4532,-17.4363,9.7366,7.3676
1510061.0,-78.4532,78.4508,-78.4532,-17.4363,17.4357,13.8791
1510071.0,-78.4532,78.4508,-78.4532,-6.5854,17.4357,17.4357
1510081.0,-78.4532,60.2764,-78.4532,13.5753,17.4357,17.4357
1510091.0,-78.4532,19.6612,-78.4532,17.4357,17.4357,17.4357
1510101.0,-78.4532,-46.0453,-39.4469,17.4357,17.4357,17.4357
1510111.0,-78.4532,-78.4532,33.4422,17.4357,17.4357,17.4357
1510121.0,-78.4532,-78.4532,78.4508,17.4357,17.4357,3.1448
1510131.0,-78.4532,-68.388,78.4508,11.5383,17.4357,-7.7662
1510141.0,-78.4532,-47.2232,78.4508,17.4357,17.4357,-12.5642
1510151.0,-78.4532,78.4508,78.4508,-7.4629,12.4663,-17.3256
1510161.0,-78.4532,52.8736,78.4508,2.4286,-14.2745,-9.9441
1510171.0,-78.4532,78.4508,78.4508,17.4357,-17.4363,1.1802
1510181.0,-78.4532,78.4508,78.4508,8.8192,-17.4363,5.5356
1510191.0,-78.4532,38.0103,78.4508,17.4357,-17.4363,9.8505
1510211.0,-78.4532,-40.1172,77.055,0.0,0.0,0.0
1510221.0,-64.7105,-8.0541,25.9723,5.8836,-17.4363,-0.6439
1510231.0,-68.139,18.2342,41.6591,-5.1429,-17.4363,-6.3752
1510241.0,-64.586,44.9727,51.6094,-2.4717,-17.4363,-6.4343
1510251.0,-57.662,69.5468,33.9306,-4.507,-17.4363,-4.581
1510261.0,-54.1473,64.6243,46.6678,-1.2824,-16.1134,-1.5963
1510271.0,-47.1562,64.7296,24.2868,-1.8512,-15.1445,0.9339
1510281.0,-44.5034,42.3295,33.8349,-6.3939,-15.4957,2.1364
1510291.0,-39.4852,22.4097,36.9186,-5.8564,-16.8302,2.469
1510301.0,-35.4725,12.6988,30.2436,-7.349,-17.4341,1.8422
1510311.0,-33.9785,7.4029,34.7925,-4.9417,-17.4081,1.326
1510321.0,-31.23,14.212,19.3835,-2.3147,-15.8357,1.3585
1510331.0,-27.744,14.7962,15.6389,-2.7675,-13.6689,1.3984
1510341.0,-26.2883,13.2543,18.8184,-1.0397,-11.6048,1.5474
1510351.0,-26.5756,19.642,15.2175,-2.4674,-10.1612,1.5117
1510361.0,-28.3378,16.0603,30.4447,-5.1423,-10.9519,1.4559
1510371.0,-29.2763,17.7458,34.6393,-6.645,-13.9254,1.3947
1510381.0,-29.4678,14.7483,36.1046,-8.9273,-16.9877,1.492
1510391.0,-25.8861,7.5753,34.7638,-7.0159,-17.4363,1.7549
1510401.0,-21.7298,4.2808,18.895,-4.6278,-17.4363,1.9853
1510411.0,-15.3037,-1.3216,8.4276,-2.5158,-17.4363,1.9454
1510421.0,-10.4674,-1.8483,-2.2697,-0.5204,-14.5889,1.7278
1510431.0,-7.7955,0.1437,-3.6775,-0.1963,-11.0972,1.4521
1510441.0,-7.2305,1.6376,2.7773,0.4752,-8.525,1.2824
1510451.0,-7.8817,5.0757,8.1594,-0.6641,-7.5177,1.0642
1510461.0,-8.9447,6.2824,17.1138,-2.9389,-8.4436,0.9062
1510471.0,-7.9296,5.5162,21.9022,-4.8582,-10.1761,0.8136
1510481.0,-5.9376,2.8156,25.005,-5.3163,-11.2611,0.7774
1510491.0,-4.0223,1.2163,24.1623,-3.5412,-11.5479,0.9094
1510501.0,-1.4844,-0.0575,18.7418,-1.2797,-11.2414,1.1808
1510511.0,1.3695,-2.1931,11.9327,1.1887,-10.2362,1.3505
1510521.0,5.1236,-1.0726,3.486,2.5616,-8.4201,1.383
1510531.0,6.9336,-2.0686,1.312,2.6036,-6.2635,1.2451
1510541.0,7.671,-1.7526,2.9209,1.7831,-4.7816,0.8822
1510551.0,6.2728,1.7142,7.8147,0.0149,-4.2947,0.6013
1510561.0,6.2345,3.3998,12.5648,-1.3042,-4.6693,0.5992
1510571.0,7.671,3.7828,13.9917,-2.2945,-4.7938,0.6971
1510581.0,9.2129,1.0918,13.5703,-3.0075,-4.4203,0.8269
1510591.0,10.6207,-3.7158,16.5391,-3.5987,-3.7934,0.6699
1510601.0,10.8601,-6.4356,21.7968,-3.0964,-3.6934,0.4315
1510611.0,10.0078,-5.8035,24.0569,-2.0093,-3.9994,0.2325
1510621.0,10.0078,-4.6256,25.3594,-0.0766,-4.4942,0.1548
1510631.0,10.1418,-1.1971,21.0115,2.1221,-4.9705,0.2384
1510641.0,8.7436,3.0071,10.1418,2.6068,-5.7287,0.3267
1510651.0,9.3565,3.9169,-1.0822,1.1414,-6.6903,0.3315
1510661.0,0.2394,7.9775,-28.0122,-2.1178,-8.8411,0.199
1510671.0,9.1842,8.1594,-51.4658,-7.4038,-6.1635,-0.0239
1510681.0,3.2178,9.0214,-67.9474,-10.083,-6.1619,0.1117
1510691.0,1.6472,13.6086,-78.4532,-13.8349,-5.3472,0.613
1510701.0,-21.3467,-4.7214,-78.4532,-5.1886,-8.2084,1.9502
1510711.0,-15.2942,30.8182,-78.4532,-0.539,1.3776,2.4919
1510721.0,-40.4907,37.4549,-78.4532,-0.7817,16.065,3.8216
1510731.0,-78.4532,66.1949,-78.4532,-4.9481,17.4357,6.8866
1510741.0,-78.4532,63.1399,-78.4532,-5.0567,17.4357,11.7086
1510751.0,-78.4532,46.2464,-78.4532,-2.1082,17.4357,16.6785
1510761.0,-78.4532,16.2327,-78.4532,8.368,17.4357,17.4357
1510771.0,-78.4532,-75.6089,6.4452,17.4357,17.4357,17.4357
1510781.0,-78.4532,-78.4532,78.4508,17.4357,17.4357,9.9867
1510791.0,-78.4532,-78.4532,78.4508,17.4357,17.4357,-3.7216
1510801.0,-78.4532,-72.2474,78.4508,17.4357,17.4357,-11.5032
1510811.0,-78.4532,78.4508,78.4508,4.5219,17.4357,-17.4363
1510821.0,-78.4532,67.5931,78.4508,-8.318,17.4357,-17.4363
1510831.0,-78.4532,78.4508,78.4508,9.5083,-1.7735,-10.116
1510841.0,-78.4532,78.4508,78.4508,0.9429,-17.4363,-2.5893
1510851.0,-78.4532,78.4508,78.4508,12.171,-17.4363,5.7867
1510861.0,-78.4532,54.1185,78.4508,13.58,-17.4363,10.7588
1510871.0,-78.4532,13.6757,76.8347,13.7737,-17.4363,11.5868
1510881.0,-78.4532,-0.1724,-1.0247,11.4968,-17.4363,10.2905
1510891.0,-62.8526,-30.1286,-14.3077,7.2452,-17.4363,6.9898
1510901.0,-43.3829,-39.0829,-19.6133,4.5554,-17.4363,2.1386
1510911.0,-37.3495,-23.4919,-10.7739,-1.8725,-14.2079,-2.3216
1510921.0,-36.7749,-3.9073,7.9775,-5.162,-12.9537,-5.0428
1510931.0,-37.9816,18.3779,21.0786,-5.3158,-11.5926,-5.5164
1510941.0,-41.3718,28.807,38.1348,-0.4895,-10.5518,-3.9983
1510951.0,-40.8451,36.3727,32.2164,3.5444,-10.8045,-1.9321
1510961.0,-39.8682,37.2155,25.254,2.8883,-11.823,-0.2464
1510971.0,-33.7582,35.7598,18.5503,1.3973,-12.1795,0.9637
1510981.0,-30.3681,34.3999,10.726,-2.453,-11.9651,1.582
1510991.0,-27.6482,27.4759,15.8305,-5.7085,-12.1652,2.0401
1511001.0,-25.3881,19.7378,16.3093,-6.5157,-12.6233,2.4147
1511011.0,-21.1456,11.3006,14.8057,-6.9095,-12.1375,2.5504
1511021.0,-16.9701,0.2298,16.022,-4.4181,-10.8152,2.5196
1511031.0,-13.3309,-2.8922,10.6781,-1.6432,-8.1424,2.1524
1511041.0,-13.4554,-1.2163,10.9559,0.1905,-5.5654,1.7592
1511051.0,-14.0779,4.8842,12.1434,0.298,-3.778,1.5543
1511061.0,-14.0013,6.9911,20.7721,-1.1387,-2.9335,1.409
1511071.0,-14.9877,6.5697,32.3026,-1.8571,-3.1592,1.3202
1511081.0,-15.4378,6.1387,41.1515,-2.5956,-4.1579,1.2191
1511091.0,-15.8975,3.5626,49.5025,-2.6797,-5.7527,1.0105
1511101.0,-16.6541,3.304,52.2319,-2.4153,-7.5517,0.7678
1511111.0,-17.7267,4.6639,54.3675,-1.9614,-9.6227,0.6029
1511121.0,-19.259,7.7381,50.4219,-1.002,-11.7288,0.713
1511131.0,-18.828,11.8561,41.1994,-0.2836,-13.1943,1.0456
1511141.0,-16.338,13.8289,29.3912,0.1554,-13.4114,1.5995
1511151.0,-11.5305,10.6494,19.9868,0.4315,-11.9582,2.0407
1511161.0,-7.9296,5.6982,14.2982,0.5369,-9.8361,2.1471
1511171.0,-5.2194,1.9345,12.4594,-0.8684,-7.9561,1.8337
1511181.0,-3.2274,-3.7541,18.0714,-2.3738,-6.5748,1.1802
1511191.0,-3.4668,-4.1851,26.9396,-3.0581,-5.5409,0.4209
1511201.0,-6.7038,-1.7047,38.5179,-2.7675,-5.5803,-0.0021
1511211.0,-10.161,3.3327,47.884,-1.615,-6.9728,0.0346
1511221.0,-12.1625,7.9679,50.0675,0.1926,-9.2497,0.596
1511231.0,-9.6534,9.414,42.8179,1.6017,-11.0052,1.3196
1511241.0,-6.5697,7.4795,32.8868,2.3924,-11.5522,1.8198
1511251.0,-2.9209,5.6982,23.0418,2.2966,-10.8923,2.0444
1511261.0,-0.4118,3.5721,19.2494,1.8251,-9.8744,2.0433
1511271.0,-0.4597,4.9608,15.7155,0.6098,-9.37,2.0007
1511281.0,1.1779,4.0797,14.7866,-1.4191,-9.3029,1.9273
1511291.0,3.6583,-0.0479,17.6405,-1.872,-8.9241,1.8853
1511301.0,4.9895,-2.5379,17.516,-1.0392,-8.1897,1.7938
1511311.0,4.3383,-4.1084,19.824,0.4486,-7.7183,1.7331
1511321.0,3.6296,-3.2465,17.9852,2.1535,-7.8407,1.773
1511331.0,4.3479,-1.7142,12.9,2.8425,-8.0993,1.84
1511341.0,6.2441,-1.8579,7.7572,3.3949,-8.3409,1.8549
1511351.0,8.3701,-2.4038,-1.8866,2.7904,-8.6319,1.7001
1511361.0,11.7795,-5.5067,-7.422,1.7198,-9.1545,1.2393
1511371.0,7.604,0.4022,-30.7415,-1.118,-12.4371,0.514
1511381.0,7.671,13.1968,-56.4265,-7.0978,-12.9585,0.074
1511391.0,-3.8499,23.0131,-78.4532,-13.0543,-15.7511,0.4677
1511401.0,-37.5698,11.4443,-78.4532,-16.9489,-17.4363,1.1047
1511411.0,-13.5703,37.2346,-78.4532,-14.4751,-11.2824,1.6778
1511421.0,-41.7166,35.5108,-78.4532,-7.4645,1.2574,3.5103
1511431.0,-77.9265,60.9947,-78.4532,1.4463,17.4357,6.7211
1511441.0,-78.4532,59.0602,-78.4532,12.2434,17.4357,10.4108
1511451.0,-78.4532,40.9025,-78.4532,16.1549,17.4357,12.6515
1511461.0,-78.4532,4.5394,-78.4532,8.9645,17.4357,11.5373
1511471.0,-78.4532,-66.0033,-63.5325,4.5613,17.4357,9.1624
1511481.0,-78.4532,-78.4532,68.4933,17.4357,17.4357,1.666
1511491.0,-78.4532,-65.6394,78.4508,10.8461,17.4357,-7.3368
1511501.0,-78.4532,-70.7534,78.4508,17.4357,17.4357,-9.0629
1511511.0,-78.4532,78.4508,78.4508,-0.099,17.4357,-17.1702
1511521.0,-78.4532,68.2252,78.4508,-5.5042,17.4357,-13.5524
1511531.0,-78.4532,78.4508,78.4508,11.889,17.4357,-5.4073
1511541.0,-78.4532,78.4508,78.4508,3.6327,-5.9586,0.3757
1511551.0,-78.4532,60.5925,78.4508,13.264,-17.4363,6.8765
1511561.0,-78.4532,29.487,78.4508,15.1514,-17.4363,9.6951
1511571.0,-78.4532,-8.5712,78.4508,12.2189,-17.4363,8.0184
1511581.0,-78.4532,-13.0915,60.4009,10.3538,-17.4363,5.1791
1511591.0,-78.4532,-10.6398,50.6038,3.2523,-17.4363,1.3883
1511601.0,-78.4532,8.0349,54.2143,1.5921,-17.4363,-0.8604
1511611.0,-78.4532,27.811,48.9088,-4.0531,-17.4363,-1.9991
1511621.0,-78.4532,27.179,78.1659,-5.9123,-17.4363,-1.8225
1511631.0,-78.4532,26.7097,77.0071,-1.151,-17.4363,-0.4997
1511641.0,-78.4532,23.2716,53.2566,-0.199,-17.4363,0.5289
1511651.0,-78.4532,16.4146,22.2661,1.5969,-17.4363,0.9466
1511661.0,-70.6002,27.9355,-18.5311,-0.8493,-17.4363,0.854
1511671.0,-64.835,35.1852,-25.7233,-2.5185,-17.4363,1.2473
1511681.0,-60.7744,45.6622,-45.9112,-5.4813,-17.4363,2.2849
1511691.0,-56.1009,38.8148,-48.4491,-10.5954,-17.4363,3.1006
1511701.0,-38.719,24.1719,-56.1105,-9.0635,-17.4363,3.8142
1511711.0,-25.0721,13.8193,-68.7902,-6.3774,-17.4363,3.9451
1511721.0,-16.1752,8.3606,-63.9156,-4.8885,-15.9155,3.5811
1511731.0,-13.8193,7.4891,-46.3901,-2.9676,-11.6011,3.4784
1511741.0,-7.2784,4.2617,-35.4725,-0.2969,-8.7102,3.728
1511751.0,-0.0383,-1.0822,-22.7162,3.5912,-3.8658,3.869
1511761.0,0.9577,-1.5131,-8.3222,6.9914,0.4938,3.7913
1511771.0,-2.49,3.3806,8.6862,5.2727,1.6219,3.331
1511781.0,-4.8076,3.4764,29.6019,0.5231,-0.7205,2.7356
1511791.0,-5.5258,3.5913,42.3103,-3.2624,-4.9178,2.0907
1511801.0,-6.7708,6.1483,42.6455,-6.5466,-8.7245,1.724
1511811.0,-4.7022,4.5203,40.0981,-6.5455,-11.1967,1.8911
1511821.0,-1.2833,4.5873,29.1039,-3.9813,-11.0733,2.3807
1511831.0,1.494,2.3559,22.2086,-0.5651,-9.4338,2.9734
1511841.0,4.3958,1.0056,12.6222,1.9608,-7.7433,3.3693
1511851.0,7.4795,0.9768,3.7733,1.4644,-6.0129,3.3965
1511861.0,9.5289,-2.5762,3.6105,0.0064,-4.4469,3.1538
1511871.0,11.7795,-7.0868,3.8499,-1.6064,-2.71,2.6238
1511881.0,11.7795,-12.0285,9.5385,-3.2741,-1.0828,1.7209
1511891.0,11.2432,-14.3461,20.7625,-3.6599,0.2677,0.745
1511901.0,8.0062,-9.6247,32.6856,-2.9197,0.7742,0.1064
1511911.0,4.1755,-4.9799,42.5689,-1.6565,0.2841,0.0154
1511921.0,3.9361,-1.7621,46.1985,0.0543,-0.7375,0.1889
1511931.0,3.6105,0.498,45.3749,1.4473,-1.5266,0.4411
1511941.0,3.3998,3.1699,41.3622,1.2845,-2.6366,0.5555
1511951.0,4.5394,5.2385,37.2155,0.0644,-3.7189,0.6093
1511961.0,5.0278,6.5984,33.1166,-0.8971,-4.4027,0.7492
1511971.0,6.4739,6.5888,27.6961,-2.0215,-4.4713,0.9083
1511981.0,8.0445,4.0127,24.3251,-3.2709,-3.9983,0.9014
1511991.0,8.2839,2.7677,25.005,-4.0206,-3.4965,0.8093
1512001.0,7.4795,1.1779,30.0903,-3.537,-3.1331,0.8987
1512011.0,7.8338,-1.3503,33.2411,-1.2244,-2.7516,1.1398
1512021.0,8.4659,-3.371,32.9634,1.4452,-2.3253,1.3478
1512031.0,8.6,-5.3726,33.4422,4.0542,-2.0242,1.4207
1512041.0,8.6,-6.0142,30.7607,5.9783,-2.1476,1.2686
1512051.0,7.9966,-5.5258,29.2571,6.8909,-2.5627,0.8828
1512061.0,6.4931,-2.1931,25.2349,7.556,-3.4476,0.5715
1512071.0,5.2481,1.0534,14.3748,5.9373,-5.3115,0.2363
1512081.0,5.612,0.3639,2.1165,3.1506,-7.5512,-0.1809
1512091.0,4.7788,3.7637,-21.6244,-0.6795,-9.7079,-0.6891
1512101.0,16.4242,11.7507,-69.0488,-7.9248,-9.9016,-0.8689
1512111.0,-5.0278,-1.6281,-77.6966,-9.0603,-7.0111,-0.5326
1512121.0,6.4356,9.2512,-78.4532,-1.9635,-2.4509,-0.1799
1512131.0,-16.9797,2.0877,-78.4532,-1.2755,2.8021,0.4613
1512141.0,-25.934,11.224,-78.4532,1.3516,8.6841,0.7918
1512151.0,-44.2448,21.4616,-78.4532,0.2911,17.4357,2.1481
1512161.0,-78.4532,19.6612,-78.4532,-3.2704,17.4357,4.2883
1512171.0,-78.4532,3.6296,-78.4532,-6.9387,17.4357,6.4316
1512181.0,-78.4532,-26.2404,-78.4532,-1.4064,17.4357,8.2855
1512191.0,-78.4532,-78.4532,-53.18,5.3993,17.4357,5.3568
1512201.0,-78.4532,-78.4532,78.4508,17.4357,17.4357,-3.4167
1512211.0,-78.4532,-26.25,63.0537,17.4357,17.4357,-12.7851
1512221.0,-78.4532,-15.026,78.4508,17.4357,17.4357,-14.9694
1512231.0,-78.4532,78.4508,78.4508,17.4357,17.4357,-17.1388
1512241.0,-78.4532,78.4508,78.4508,-9.1603,17.4357,-14.0318
1512251.0,-78.4532,78.4508,78.4508,17.4357,7.73,-0.5667
1512261.0,-78.4532,78.4508,78.4508,11.6394,-14.3367,7.108
1512271.0,-78.4532,71.0982,78.4508,15.9549,-17.4363,12.974
1512281.0,-78.4532,34.6202,78.4508,15.0072,-17.4363,15.3504
1512291.0,-78.4532,-18.4737,78.4508,9.686,-17.4363,12.5036
1512301.0,-78.4532,-22.3714,23.5111,9.2939,-17.4363,8.6612
1512311.0,-78.4532,-1.6664,-61.8087,-1.898,-17.4363,4.5288
1512321.0,-73.7893,1.2163,-78.4532,-9.487,-17.4363,1.4021
1512331.0,-17.6596,17.6979,-78.4532,-1.2696,-17.4363,0.0718
1512341.0,-36.66,6.1292,-78.4532,-5.2402,-17.4363,-0.1921
1512351.0,-7.1826,13.2447,-78.4532,-3.8791,-7.912,-0.299
1512361.0,-12.4786,10.0556,-44.7524,-1.6836,-5.5819,-0.2198
1512371.0,-10.3046,14.8824,-28.175,-1.6464,-5.4164,0.1086
1512381.0,-13.3692,12.8712,-16.3093,-1.2127,-5.9416,0.4821
1512391.0,-9.8354,21.9788,-24.4592,0.423,-4.8773,1.3042
1512401.0,-10.908,27.5429,-30.799,-0.0064,-2.2067,2.5531
1512411.0,-7.7572,22.879,-28.4144,-0.3411,1.5554,3.7615
1512421.0,-7.7476,13.1873,-17.8607,-1.45,5.0583,4.3303
1512431.0,-8.0445,2.6049,-1.9154,-3.8323,6.5753,4.1079
1512441.0,-7.1922,-9.2703,18.148,-5.1977,7.4054,3.264
1512451.0,-7.0964,-15.9454,35.7215,-4.8428,7.7273,1.9576
1512461.0,-10.0269,-15.1122,52.2223,-3.562,6.3231,0.6561
1512471.0,-12.0285,-6.7421,57.5662,-1.6788,4.3612,-0.2437
1512481.0,-15.1122,5.5929,56.4265,-0.8966,2.2088,-0.5124
1512491.0,-14.4706,14.2694,53.247,-0.9386,0.4837,-0.1708
1512501.0,-15.3899,16.3285,49.5217,-0.8354,-0.853,0.4315
1512511.0,-13.0723,12.9383,44.0916,-1.8863,-1.6176,0.7524
1512521.0,-12.8808,7.8817,42.2912,-2.1034,-2.2758,0.7811
1512531.0,-12.0093,5.6695,38.0965,-2.5706,-2.4195,0.5561
1512541.0,-11.3868,2.6049,37.4262,-2.3551,-2.2774,0.2623
1512551.0,-11.1378,2.2984,36.0471,-1.3649,-1.6394,-0.0617
1512561.0,-11.3485,3.4189,36.5738,-0.0793,-0.9083,-0.3081
1512571.0,-11.9902,7.0485,36.8132,0.8477,-0.4816,-0.4278
1512581.0,-12.651,9.6247,38.834,1.2797,-0.3916,-0.3214
1512591.0,-12.7946,12.0668,38.7382,1.5213,-0.6949,-0.1437
1512601.0,-13.0532,15.0164,36.909,1.127,-0.9982,0.1644
1512611.0,-12.7659,14.8441,35.1373,0.7652,-1.1552,0.5523
1512621.0,-12.1913,14.9781,31.728,0.2293,-1.0355,0.8498
1512631.0,-12.1242,14.0588,30.8469,-0.431,-0.5055,1.0898
1512641.0,-12.2009,11.224,31.1246,-0.8344,-0.1266,1.2648
1512651.0,-12.2966,8.0062,32.7144,-1.2696,0.1479,1.1536
1512661.0,-12.4211,6.292,34.8021,-1.5176,0.2629,0.9748
1512671.0,-12.3541,5.5929,37.8284,-1.1967,0.2756,0.8189
1512681.0,-12.1147,6.0238,38.3934,-0.8014,0.1501,0.704
1512691.0,-11.9806,6.3398,38.8148,-0.216,0.0458,0.6949
1512701.0,-11.0229,6.9336,38.2115,0.6284,0.2033,0.7482
1512711.0,-10.8026,7.6998,36.8228,1.2558,0.4757,0.8152
1512721.0,-11.0421,9.5481,34.8308,1.1142,0.7577,0.8487
1512731.0,-11.789,10.3908,35.7119,0.812,0.8769,0.911
1512741.0,-12.3541,11.3294,35.846,0.4571,0.8264,1.0541
1512751.0,-12.5935,10.4004,35.6449,0.0378,0.7795,1.1765
1512761.0,-12.153,8.2744,35.4821,-0.24,0.8796,1.1808
1512771.0,-11.8178,6.3494,36.2099,-0.2692,1.2111,1.0584
1512781.0,-11.7412,5.5354,37.5219,0.1261,1.8331,0.8828
1512791.0,-11.8082,5.4971,40.6248,0.4241,2.2742,0.7221
1512801.0,-13.5895,5.7078,44.5226,0.4523,1.9715,0.4879
1512811.0,-14.0875,7.3837,46.6678,0.0937,1.0201,0.2943
1512821.0,-14.5472,8.5234,47.2903,-0.3954,-0.0298,0.1852
1512831.0,-14.2886,9.5577,45.758,-0.5784,-0.7923,0.2097
1512841.0,-13.7331,10.2472,43.3255,-0.8391,-1.2696,0.2586
1512851.0,-12.8425,9.8737,40.6535,-1.0541,-1.4958,0.3113
1512861.0,-12.6893,9.0022,38.8148,-0.978,-1.4324,0.3884
1512871.0,-11.9135,8.8777,36.7845,-0.7551,-1.1914,0.4518
1512881.0,-11.2049,8.3031,36.1524,-0.5752,-0.6907,0.5098
1512891.0,-10.8505,7.6519,36.2291,-0.1655,-0.24,0.5119
1512901.0,-10.7069,7.5944,36.3631,-0.1442,0.0048,0.4534
1512911.0,-11.4634,7.3646,37.7709,-0.1362,-0.1602,0.3709
1512921.0,-10.8505,7.3741,36.7271,-0.091,-0.3214,0.3166
1512931.0,-10.4387,7.1156,36.1237,0.0399,-0.1777,0.2182
1512941.0,-10.1418,7.3071,34.7925,0.1687,0.2144,0.1117
1512951.0,-10.2472,7.039,35.2714,0.2155,0.6141,-0.0053
1512961.0,-10.5536,7.5369,36.3248,0.1825,0.8583,-0.1399
1512971.0,-10.8888,8.4755,38.0774,-0.0122,0.9035,-0.2501
1512981.0,-11.6071,9.2225,39.5331,-0.0553,0.7859,-0.2543
1512991.0,-12.1721,9.9216,40.7206,0.0479,0.5853,-0.1921
1513001.0,-12.6988,10.3046,40.9025,0.1618,0.2927,-0.1298
1513011.0,-12.4498,9.5768,41.0175,0.2756,-0.0287,-0.075
1513021.0,-12.1051,9.481,40.5674,0.3304,-0.2692,-0.0963
1513031.0,-11.7316,9.5577,39.7437,0.4464,-0.3672,-0.1453
1513041.0,-12.1721,10.3621,38.4317,0.5364,-0.4353,-0.1799
1513051.0,-12.7467,11.9423,37.7805,0.2634,-0.497,-0.1894
1513061.0,-12.5073,13.5225,37.7135,-0.1197,-0.7184,-0.1091
1513071.0,-12.4786,13.4171,37.5507,-0.3278,-0.9184,0.0527
1513081.0,-11.9135,12.9,36.2386,-0.4954,-1.0073,0.2102
1513091.0,-10.9654,11.3198,35.1373,-0.5646,-0.9307,0.3076
1513101.0,-10.4962,9.3948,34.7159,-0.4778,-0.704,0.2841
1513111.0,-9.4906,8.2361,33.8349,-0.2256,-0.2735,0.1623
1513121.0,-9.7971,8.0732,33.5954,-0.1288,0.1995,-0.0426
1513131.0,-10.2663,9.165,34.4861,-0.0995,0.6045,-0.1687
1513141.0,-11.0421,10.5824,36.5738,0.0287,0.8008,-0.1788
1513151.0,-11.4347,12.5073,37.0431,-0.0984,0.7737,-0.116
1513161.0,-11.9806,12.7467,38.2402,-0.3076,0.6263,0.0346
1513171.0,-11.7412,12.4307,38.6616,-0.4023,0.4842,0.1719
1513181.0,-11.3006,11.4922,38.8244,-0.3906,0.447,0.273
1513191.0,-11.5305,10.2951,38.403,-0.3938,0.5449,0.3235
1513201.0,-10.7643,8.5617,39.5043,0.0319,0.821,0.339
1513211.0,-10.8601,7.4986,40.1556,0.4965,1.093,0.232
1513221.0,-11.5784,7.9583,40.9696,0.4661,1.0717,0.0516
1513231.0,-12.1817,9.098,43.0765,0.2581,0.6976,-0.0713
1513241.0,-13.0723,9.9695,43.1914,0.1926,0.1298,-0.0963
1513251.0,-12.6988,11.9997,41.9656,-0.1325,-0.2804,-0.066
1513261.0,-12.5265,11.9231,41.8028,-0.0777,-0.5199,0.0686
1513271.0,-11.7795,11.2815,39.8395,-0.0798,-0.5316,0.1634
1513281.0,-11.6358,10.3142,39.1787,-0.0654,-0.5199,0.207
1513291.0,-11.0421,9.9599,38.9776,-0.0463,-0.348,0.2065
1513301.0,-11.2144,9.6917,39.2649,0.041,-0.2528,0.182
1513311.0,-11.3964,9.6917,39.3032,0.0676,-0.2895,0.1532
1513321.0,-11.1282,10.1323,39.5618,-0.0074,-0.5236,0.1368
1513331.0,-10.9654,10.3908,38.7573,0.0176,-0.6726,0.1453
1513341.0,-10.6207,10.3238,37.1005,0.0032,-0.7189,0.1346
1513351.0,-10.1131,10.4579,35.8843,-0.0724,-0.6135,0.1144
1513361.0,-10.0269,10.2663,35.664,-0.1075,-0.3549,0.0974
1513371.0,-9.7971,9.9695,34.8787,-0.049,-0.0234,0.0633
1513381.0,-9.9886,9.9886,35.348,-0.0963,0.2932,0.0287
1513391.0,-10.5441,10.2855,36.5834,-0.1458,0.4188,-0.0357
1513401.0,-10.7931,11.4539,37.2634,-0.2432,0.3241,-0.0202
1513411.0,-11.2911,12.1051,37.656,-0.4629,0.1676,0.0431
1513421.0,-10.6781,11.7603,38.4988,-0.5954,0.083,0.1091
1513431.0,-10.6877,11.3677,37.8858,-0.6364,0.0117,0.1618
1513441.0,-10.4196,10.5058,38.5945,-0.7093,-0.0468,0.1735
1513451.0,-9.9982,9.7683,38.221,-0.6646,0.009,0.1336
1513461.0,-9.9311,9.4236,38.087,-0.5321,0.2033,0.0851
1513471.0,-10.1227,8.9639,38.9776,-0.3964,0.3022,0.0074
1513481.0,-10.5728,9.4619,39.8587,-0.323,0.2517,-0.0894
1513491.0,-11.1187,10.0748,40.5099,-0.298,0.0926,-0.1304
1513501.0,-11.6262,11.3006,40.1268,-0.1373,-0.1389,-0.1096
1513511.0,-11.5879,12.5456,39.217,-0.224,-0.2559,-0.0043
1513521.0,-11.3772,12.6031,39.1979,-0.2602,-0.3874,0.1362
1513531.0,-10.8697,11.9614,38.2115,-0.348,-0.4475,0.223
1513541.0,-10.3238,11.0325,37.0144,-0.5497,-0.4592,0.2373
1513551.0,-9.8067,10.3908,37.0239,-0.6577,-0.3044,0.2235
1513561.0,-9.7492,9.0118,36.8611,-0.6476,-0.0873,0.1336
1513571.0,-9.845,8.7915,37.4262,-0.5656,0.0766,0.0085
1513581.0,-10.1801,9.4236,38.0008,-0.5284,0.0447,-0.0442
1513591.0,-10.4866,10.1418,38.3072,-0.5295,-0.0511,-0.0612
1513601.0,-10.2951,11.0325,37.7997,-0.5247,-0.1745,-0.0378
1513611.0,-10.5919,11.7699,37.7422,-0.5167,-0.1767,0.0718
1513621.0,-9.912,11.8274,36.9569,-0.3821,-0.0612,0.1905
1513631.0,-9.8928,11.5975,36.3823,-0.3549,0.1208,0.2591
1513641.0,-9.979,10.8601,36.344,-0.4358,0.273,0.3065
1513651.0,-9.6822,10.0748,36.7749,-0.4055,0.4033,0.2985
1513661.0,-9.6343,9.2895,37.5602,-0.3986,0.4624,0.2426
1513671.0,-9.8067,8.6862,38.2306,-0.3959,0.4406,0.1187
1513681.0,-9.6343,8.6479,38.1348,-0.3996,0.331,0.0112
1513691.0,-9.979,9.2895,37.7039,-0.5028,0.1591,-0.0772
1513701.0,-9.9886,10.6398,37.1676,-0.5922,0.0197,-0.0766
1513711.0,-10.161,11.3389,36.3631,-0.5736,0.0436,0.0303
1513721.0,-10.0078,11.5401,35.8556,-0.3166,0.2187,0.1282
1513731.0,-9.9599,11.4539,35.5587,-0.0064,0.5715,0.2033
1513741.0,-10.477,12.22,34.6585,0.0575,0.763,0.2799
1513751.0,-10.3813,12.4115,35.9322,0.0479,0.8093,0.3778
1513761.0,-10.1323,11.9997,35.6161,-0.0745,0.704,0.4544
1513771.0,-10.1897,10.8697,36.1429,-0.3539,0.5401,0.4677
1513781.0,-9.5768,10.1323,35.8364,-0.4832,0.397,0.4257
1513791.0,-9.4236,9.6343,35.5874,-0.6327,0.448,0.3453
1513801.0,-8.916,9.1171,35.7502,-0.5885,0.5726,0.2692
1513811.0,-9.414,9.1937,35.7023,-0.4454,0.7577,0.1937
1513821.0,-9.3182,9.5864,35.7311,-0.2528,0.9631,0.133
1513831.0,-9.845,10.3238,35.9609,-0.0963,1.119,0.1144
1513841.0,-10.1993,10.8984,36.2291,-0.1032,1.1531,0.1325
1513851.0,-10.2951,10.659,36.7366,-0.1128,1.1004,0.1532
1513861.0,-10.3238,10.477,36.4876,-0.2033,1.0424,0.1426
1513871.0,-10.4196,10.5058,36.3823,-0.3198,1.0328,0.1527
1513881.0,-10.3334,10.161,37.5507,-0.1149,1.1398,0.1772
1513891.0,-10.4387,10.3334,37.2155,0.1937,1.1781,0.1985
1513901.0,-10.8026,10.5824,37.3017,0.2368,1.1297,0.19
1513911.0,-10.5824,10.3525,37.1293,0.3081,1.0887,0.1559
1513921.0,-10.9176,10.726,36.9282,0.439,1.0477,0.1266
1513931.0,-10.9942,11.2911,36.4398,0.3358,0.9791,0.099
1513941.0,-11.4634,11.3581,36.8516,0.3448,0.7764,0.1112
1513951.0,-11.3102,11.8465,35.4246,0.1623,0.539,0.0937
1513961.0,-11.0708,11.6933,34.2562,0.1538,0.3682,0.1282
1513971.0,-10.1706,11.789,32.8676,0.1788,0.547,0.1644
1513981.0,-9.8641,11.3772,31.7375,0.3618,0.7918,0.1958
1513991.0,-9.8258,11.5879,30.6649,0.4182,1.0483,0.1937
1514001.0,-10.3142,11.8657,30.2723,0.4555,1.4101,0.2277
1514011.0,-10.6111,12.3349,30.1669,0.5364,1.7299,0.2575
1514021.0,-10.7452,13.1394,29.7264,0.3608,2.1673,0.3315
1514031.0,-11.0804,12.3828,30.5692,0.1783,2.5818,0.4358
1514041.0,-11.2911,11.1953,31.048,-0.0623,2.949,0.472
1514051.0,-11.5113,9.8928,32.4366,-0.4592,3.2161,0.3448
1514061.0,-11.9614,9.232,34.2371,-0.7737,3.4359,0.19
1514071.0,-11.7795,8.6383,36.4493,-0.7849,3.6625,0.0197
1514081.0,-12.7276,9.4044,38.47,-0.6758,3.8078,-0.0974
1514091.0,-13.0723,9.9407,41.027,-0.4715,3.8392,-0.1415
1514101.0,-14.0013,10.6207,42.6455,-0.2756,3.7924,-0.1203
1514111.0,-14.5567,11.0995,43.4691,-0.2059,3.6205,-0.0623
1514121.0,-14.9015,10.4483,44.7811,-0.1836,3.4422,-0.0309
1514131.0,-15.342,10.4674,45.8633,-0.1389,3.1395,-0.0319
1514141.0,-15.7443,10.8697,47.3286,-0.1006,2.7595,-0.0245
1514151.0,-15.8496,10.9176,47.6638,0.0612,2.2567,0.0399
1514161.0,-15.8975,10.6111,47.1562,0.1235,1.8416,0.0867
1514171.0,-15.5527,10.6111,45.2025,0.0415,1.5261,0.1006
1514181.0,-15.208,10.8984,44.1299,-0.1447,1.3532,0.1203
1514191.0,-15.4474,10.6494,42.9041,-0.3166,1.2568,0.1261
1514201.0,-15.5815,10.4004,41.774,-0.6013,1.1887,0.0937
1514211.0,-16.022,9.3948,41.3143,-0.8397,1.16,0.0096
1514221.0,-15.8113,8.8777,41.9177,-0.6928,1.3058,-0.1
1514231.0,-15.7155,9.1554,42.3774,-0.3842,1.5889,-0.1969
1514241.0,-16.5487,10.2185,42.4348,-0.3017,1.6432,-0.2565
1514251.0,-16.3093,10.975,43.4117,-0.3262,1.4229,-0.2522
1514261.0,-17.2957,11.7124,43.6224,-0.4571,1.1754,-0.2001
1514271.0,-17.0659,11.904,42.9616,-0.6928,0.9562,-0.157
1514281.0,-17.1616,11.1378,43.3446,-0.9711,0.8679,-0.1687
1514291.0,-17.4968,10.5058,43.9384,-1.0653,0.7742,-0.2623
1514301.0,-17.7362,10.6015,44.0246,-1.1334,0.597,-0.3821
1514311.0,-18.0427,11.2527,44.1108,-1.3351,0.3443,-0.4597
1514321.0,-17.9374,11.8848,44.2736,-1.4218,0.0442,-0.4933
1514331.0,-17.9948,12.469,43.9192,-1.5649,-0.2506,-0.4853
1514341.0,-18.0427,13.2639,43.45,-1.6714,-0.4853,-0.423
1514351.0,-17.8607,13.8576,42.8658,-1.6751,-0.5949,-0.2831
1514361.0,-17.8895,14.0492,43.1339,-1.466,-0.6949,-0.0819
1514371.0,-17.9086,14.1545,42.6838,-1.3149,-0.8961,0.1479
1514381.0,-17.7554,12.2583,42.7413,-1.1914,-1.2467,0.3187
1514391.0,-17.1138,10.8697,42.0422,-1.0504,-1.5458,0.3698
1514401.0,-16.3093,9.7779,39.715,-1.1111,-1.7671,0.3171
1514411.0,-16.0699,8.8585,39.1308,-1.1792,-1.9252,0.1969
1514421.0,-15.5527,8.7053,37.7326,-1.1951,-2.0454,0.0607
1514431.0,-15.524,8.9735,36.4398,-1.1786,-2.0774,-0.0426
1514441.0,-14.959,9.7205,35.099,-1.2489,-2.0422,-0.0734
1514451.0,-15.0547,10.228,35.3097,-1.0323,-1.947,-0.05
1514461.0,-14.5759,10.8697,33.1932,-0.9903,-1.7927,0.0059
1514471.0,-14.3269,10.2089,33.7199,-0.7854,-1.6331,0.1197
1514481.0,-13.6086,9.3565,32.1398,-0.5646,-1.442,0.1543
1514491.0,-13.1202,8.2073,31.5939,-0.513,-1.177,0.1064
1514501.0,-12.7467,7.7189,31.4119,-0.3602,-0.8498,-0.0176
1514511.0,-12.7563,8.351,31.4311,-0.3874,-0.5087,-0.1607
1514521.0,-13.2064,8.7532,32.9538,-0.4587,-0.356,-0.2469
1514531.0,-13.3501,9.7971,34.17,-0.4374,-0.3544,-0.2602
1514541.0,-13.216,10.5441,34.2562,-0.4475,-0.3437,-0.1979
1514551.0,-13.398,10.228,34.8692,-0.3517,-0.3001,-0.0889
1514561.0,-13.5895,10.3142,34.9937,-0.241,-0.3022,-0.0032
1514571.0,-13.5799,10.3046,35.1469,-0.3171,-0.348,0.0341
1514581.0,-13.5129,9.9024,35.4438,-0.4645,-0.4385,0.0782
1514591.0,-13.465,9.5768,34.9266,-0.5699,-0.5007,0.0644
1514601.0,-13.1394,9.7492,34.6297,-0.6641,-0.4869,0.0484
1514611.0,-12.6893,9.6151,34.5148,-0.7258,-0.3288,0.0734
1514621.0,-12.2679,9.3374,34.917,-0.6827,-0.0947,0.1011
1514631.0,-12.038,9.0501,35.3576,-0.5279,0.1336,0.0905
1514641.0,-12.1338,9.4906,35.0511,-0.4959,0.3187,0.0862
1514651.0,-12.5648,9.7875,35.8747,-0.647,0.456,0.1293
1514661.0,-12.7276,9.5577,36.6026,-0.6811,0.6465,0.1963
1514671.0,-12.6605,9.0214,36.8611,-0.6689,0.9578,0.2277
1514681.0,-12.2583,8.3893,38.2976,-0.5933,1.3627,0.223
1514691.0,-13.6086,7.9009,40.2322,-0.5741,1.6059,0.1692
1514701.0,-14.0588,8.0828,42.4444,-0.6662,1.4787,0.0883
1514711.0,-14.2886,8.3606,44.1778,-0.8743,1.1637,0.0282
1514721.0,-14.4993,8.1977,44.6854,-1.0467,0.7662,0.0197
1514731.0,-14.1833,8.0254,44.58,-1.3292,0.3672,-0.058
1514741.0,-13.7044,7.1251,44.1491,-1.5139,0.1032,-0.1368
1514751.0,-13.8576,6.7708,43.0765,-1.6581,-0.0154,-0.241
1514761.0,-13.8193,6.0813,43.0573,-1.8001,-0.1282,-0.365
1514771.0,-13.2447,5.8706,42.7604,-1.8033,-0.1804,-0.5007
1514781.0,-13.0436,6.0238,42.1571,-1.8172,-0.2464,-0.6226
1514791.0,-13.9438,5.43,41.8794,-1.7379,-0.3528,-0.7146
1514801.0,-13.4554,5.0757,39.3224,-1.7028,-0.3964,-0.8189
1514811.0,-12.9861,4.7884,38.0774,-1.5942,-0.0138,-0.9951
1514821.0,-12.8425,5.5929,37.8667,-1.2382,0.7822,-1.1424
1514831.0,-13.2735,7.3358,39.6097,-1.044,1.7342,-1.2542
1514841.0,-14.8057,9.8641,43.335,-1.135,2.1136,-1.2733
1514851.0,-16.6445,12.0572,48.9471,-1.5878,1.7139,-1.1456
1514861.0,-17.4681,12.9574,52.5001,-1.8193,0.8296,-0.8615
1514871.0,-17.1808,12.0859,55.1337,-1.6911,-0.1383,-0.5263
1514881.0,-17.2383,9.73,55.6317,-1.144,-0.9738,-0.2347
1514891.0,-16.4338,7.2113,55.2486,-0.2959,-1.5687,-0.1133
1514901.0,-15.6581,5.6503,54.5686,0.6699,-1.963,-0.0979
1514911.0,-15.6868,4.3191,54.9613,1.6756,-2.2029,-0.1713
1514921.0,-15.5336,5.2577,52.9885,2.3365,-2.6079,-0.4039
1514931.0,-16.6732,8.1786,52.3085,2.1104,-3.2033,-0.6359
1514941.0,-16.587,11.157,50.805,1.7719,-4.0574,-0.6534
1514951.0,-16.5104,13.283,48.0468,1.4367,-4.6384,-0.4874
1514961.0,-16.1561,14.7196,43.833,1.0302,-4.8316,-0.2671
1514971.0,-15.706,15.0069,39.8299,0.2969,-4.582,-0.0309
1514981.0,-14.528,14.5376,38.3168,-0.4794,-3.9914,0.0681
1514991.0,-14.1833,14.2886,40.3375,-1.2632,-3.0831,0.1054
1515001.0,-15.6485,13.5416,45.2408,-1.4649,-2.6526,0.174
1515011.0,-16.2518,13.9917,49.3206,-1.8869,-2.9096,0.2043
1515021.0,-16.0795,13.8576,54.9804,-1.5814,-3.5854,0.3624
1515031.0,-15.955,14.1641,56.3404,-0.4321,-4.3149,0.6864
1515041.0,-16.2901,14.9973,54.8272,0.2469,-4.9646,1.0142
1515051.0,-16.2997,15.6006,52.3564,0.3581,-5.6995,1.3079
1515061.0,-16.5104,15.2559,50.9678,0.1623,-6.4072,1.5745
1515071.0,-16.1848,14.777,48.5257,0.0617,-7.0446,1.8017
1515081.0,-15.4091,13.7523,44.7811,-0.4321,-7.4012,1.9209
1515091.0,-15.1505,12.5935,43.4787,-0.8035,-7.5161,1.9475
1515101.0,-13.283,12.5552,41.8028,-1.2835,-7.5363,1.9433
1515111.0,-12.8617,12.7372,41.4293,-1.9779,-7.7534,1.8869
1515121.0,-13.0436,13.5225,41.0558,-2.7196,-8.1514,1.9433
1515131.0,-11.1474,14.03,40.146,-3.3699,-8.6383,2.1077
1515141.0,-10.6877,12.7659,38.8531,-3.7849,-9.048,2.27
1515151.0,-10.5728,12.153,35.53,-3.9084,-9.4822,2.5068
1515161.0,-9.0788,11.3485,30.2819,-4.5097,-9.5653,2.7026
1515171.0,-7.4986,9.9982,28.0505,-4.5448,-9.1523,2.9293
1515181.0,-5.5162,8.3893,24.871,-4.5448,-8.5308,3.0831
1515191.0,-3.6871,5.7365,24.1623,-4.9353,-8.1748,3.1017
1515201.0,-2.8635,3.0358,25.2253,-5.1093,-8.1493,3.0192
1515211.0,-1.7621,1.2067,26.0298,-4.7954,-8.2446,2.9548
1515221.0,-0.8523,-0.3831,25.2636,-4.242,-8.3627,2.859
1515231.0,1.0439,-1.1109,22.065,-3.7344,-8.4473,2.759
1515241.0,2.4708,-2.5762,19.9581,-3.0171,-8.0998,2.709
1515251.0,4.4245,-3.8211,16.5487,-1.7629,-7.2985,2.7116
1515261.0,7.0773,-5.5162,13.7427,-0.6774,-5.9559,2.651
1515271.0,8.0445,-7.5657,14.3844,0.2868,-4.6453,2.4669
1515281.0,8.8585,-9.4715,15.9645,0.9871,-3.7934,2.0731
1515291.0,9.347,-11.5879,18.9429,1.5266,-3.2629,1.557
1515301.0,9.6343,-12.7755,21.2126,1.9827,-3.1458,0.9136
1515311.0,9.232,-12.3253,23.1184,2.0779,-3.4268,0.1862
1515321.0,9.0597,-9.9695,23.444,2.4158,-3.852,-0.3831
1515331.0,9.414,-7.8434,22.879,3.098,-3.9914,-0.7652
1515341.0,10.8218,-5.4109,20.887,4.1473,-3.9062,-1.0999
1515351.0,11.4539,-0.7566,17.3915,4.3117,-3.62,-1.4564
1515361.0,6.675,5.4205,18.6077,4.6054,-3.8578,-1.5586
1515371.0,-5.5258,24.4304,9.2416,1.1201,-7.1809,-1.2191
1515381.0,-34.4957,52.1361,-15.026,-12.0401,-17.4363,0.1107
1515391.0,-73.3871,65.333,-49.2631,-17.4363,-17.4363,2.4738
1515401.0,-43.1914,-2.1069,-78.4532,-15.3552,-17.4363,7.3815
1515411.0,-63.3889,61.9045,-78.4532,-10.3687,-17.4363,8.7357
1515421.0,-54.607,12.6031,-78.4532,12.4168,17.4357,10.133
1515431.0,-78.4532,1.5419,-78.4532,17.4357,17.4357,9.2119
1515441.0,-78.4532,-27.3131,-78.4532,14.3479,17.4357,7.4315
1515451.0,-78.4532,-78.4532,-78.4532,14.3862,17.4357,-1.0962
1515461.0,-78.4532,-78.4532,73.751,14.9343,17.4357,-7.5688
1515471.0,-78.4532,-64.4136,-10.1227,-12.5174,17.4357,-12.8511
1515481.0,-78.4532,-78.4532,78.4508,17.4357,17.4357,-10.82
1515491.0,-78.4532,59.6252,78.4508,5.36,17.4357,-13.0266
1515501.0,-78.4532,13.0723,78.4508,0.397,17.4357,-7.5847
1515511.0,-78.4532,58.3611,78.4508,17.4357,-6.9185,3.1251
1515521.0,-78.4532,46.3996,78.4508,12.9309,-17.4363,3.0112
1515531.0,-78.4532,-7.1347,78.4508,17.4357,-17.4363,3.4837
1515541.0,-78.4532,9.2608,78.4508,9.7552,-17.4363,0.2458
1515551.0,-78.4532,-9.979,55.1816,1.6304,-17.4363,-4.6837
1515561.0,-78.4532,28.6059,-37.3495,5.0854,-17.4363,-6.2555
1515571.0,-77.2082,52.8257,-52.864,-4.3974,-17.4363,-6.877
1515581.0,-66.4247,54.1568,-13.0053,3.339,-13.4763,-4.9955
1515591.0,-58.2174,76.5761,-18.6939,7.8024,-3.7248,-1.757
1515601.0,-59.9412,72.3432,14.8632,7.482,1.1222,1.5655
1515611.0,-55.8998,65.6394,31.6418,6.8568,0.3565,4.1622
1515621.0,-53.113,56.1584,39.9544,-1.2654,-3.6402,5.3222
1515631.0,-48.2863,32.1876,59.0314,-5.1955,-8.7102,5.8378
1515641.0,-43.3925,19.6325,50.2016,-6.3784,-11.715,5.7463
1515651.0,-38.9968,7.9871,46.8593,-7.5821,-12.5802,5.2594
1515661.0,-35.4533,-0.2011,45.6239,-4.6581,-12.5791,4.7534
1515671.0,-31.4119,4.0127,33.9115,-3.5024,-11.9725,4.2143
1515681.0,-30.2052,7.5178,33.9785,-3.3837,-11.541,4.1138
1515691.0,-29.0465,9.2608,30.866,-3.1544,-11.8017,4.4149
1515701.0,-27.7344,7.0964,28.2516,-4.4724,-12.7526,4.6198
1515711.0,-24.6986,0.7183,27.3609,-3.9887,-13.2246,4.7023
1515721.0,-20.9253,-2.4134,18.828,-2.85,-12.4115,4.5703
1515731.0,-16.3668,-4.7309,14.2024,-2.3434,-10.6561,4.1313
1515741.0,-14.6334,-4.5681,13.8098,-2.3626,-9.0087,3.5763
1515751.0,-14.6717,-2.3846,16.1082,-4.2516,-8.5947,3.0309
1515761.0,-14.5951,-6.3398,26.681,-5.9224,-9.5355,2.4802
1515771.0,-15.4091,-7.7955,31.4023,-5.8676,-11.1999,1.9231
1515781.0,-16.271,-6.7516,32.5707,-4.7805,-12.6962,1.6458
1515791.0,-15.5815,-5.3151,25.3498,-3.0554,-13.7785,1.5782
1515801.0,-12.6893,-3.0933,14.3173,-2.4541,-13.9057,1.4984
1515811.0,-9.0405,-2.2122,5.3343,-1.5958,-12.6504,1.4463
1515821.0,-4.9799,0.1149,-2.8826,-0.994,-10.016,1.4229
1515831.0,-1.6664,0.9864,-4.1946,-0.9073,-6.8802,1.4032
1515841.0,-1.2354,0.6991,0.3256,-1.0669,-4.4043,1.3452
1515851.0,-1.0726,0.3926,8.4084,-1.7826,-2.9495,1.2946
1515861.0,-2.1931,-2.6145,19.8815,-1.6219,-2.3519,1.3138
1515871.0,-2.4038,-4.0989,27.562,-0.4693,-2.154,1.3303
1515881.0,-2.806,-5.4109,33.854,1.0366,-2.0534,1.2898
1515891.0,-4.118,-3.9935,35.9418,2.0587,-2.3823,1.1643
1515901.0,-4.0797,-2.7677,37.2538,2.0167,-3.0123,0.9956
1515911.0,-2.8252,-2.9592,38.8914,1.74,-3.6939,0.7535
1515921.0,-2.4229,-3.2274,39.6671,1.3787,-4.3543,0.4033
1515931.0,-3.1987,-1.7526,40.3375,0.7588,-5.2355,0.0239
1515941.0,-3.802,0.4788,41.0175,0.3746,-6.3736,-0.1857
1515951.0,-4.3287,3.0263,38.652,0.1527,-7.3421,-0.2549
1515961.0,-4.1563,4.8076,35.5491,0.2746,-7.9977,-0.1176
1515971.0,-3.5817,5.5067,32.6761,1.0078,-8.211,0.1793
1515981.0,-2.8826,5.8897,27.6004,1.7735,-8.1743,0.5236
1515991.0,-2.3942,5.0949,24.5645,2.5589,-7.7263,0.887
1516001.0,-0.6033,4.4628,20.4273,3.3119,-7.1872,1.2664
1516011.0,2.0686,1.8771,17.2574,3.4497,-6.4024,1.5006
1516021.0,3.0071,-0.3543,15.2463,3.3353,-5.8782,1.5309
1516031.0,4.0989,-0.316,11.4634,1.7379,-6.14,1.2984
1516041.0,6.8857,-1.1301,8.3797,-0.2256,-6.6025,0.9679
1516051.0,8.351,-1.7526,6.359,-1.2313,-6.727,0.5502
1516061.0,7.7285,-1.0247,2.3942,-1.4218,-6.8456,0.2474
1516071.0,5.6024,1.8771,-4.4915,-1.939,-7.9125,0.0309
1516081.0,-0.6608,5.5737,-17.5543,-3.8105,-10.1852,-0.0883
1516091.0,-19.4888,16.0699,-54.8081,-8.1834,-15.5398,-0.05
1516101.0,5.1906,14.1449,-78.4532,-13.8509,-13.3379,0.0208
1516111.0,3.802,34.534,-78.4532,-11.972,-9.2029,0.2458
1516121.0,-24.1048,35.6928,-78.4532,-17.4059,-9.0246,1.2382
1516131.0,-40.1556,57.049,-78.4532,-17.4363,3.7317,3.4758
1516141.0,-67.1813,57.6811,-78.4532,-9.7472,17.4357,8.2877
1516151.0,-78.4532,51.5903,-78.4532,4.7262,17.4357,13.3677
1516161.0,-78.4532,35.1277,-78.4532,16.421,17.4357,17.4357
1516171.0,-78.4532,-17.0659,-78.4532,17.4357,17.4357,17.4357
1516181.0,-78.4532,-78.4532,-34.85,12.0114,17.4357,10.6885
1516191.0,-78.4532,-78.4532,55.1241,12.4195,17.4357,0.4166
1516201.0,-78.4532,-78.4532,64.8733,-11.4367,17.4357,-5.8527
1516211.0,-78.4532,-78.4532,78.4508,17.4357,17.4357,-5.6329
1516221.0,-78.4532,23.1184,78.4508,2.5999,17.4357,-9.0252
1516231.0,-78.4532,4.3287,78.4508,12.743,17.4357,-2.4882
1516241.0,-78.4532,62.6898,78.4508,17.4357,-11.9012,2.3663
1516251.0,-78.4532,12.8521,78.4508,10.4278,-17.4363,1.0429
1516261.0,-78.4532,29.6498,78.4508,17.4357,-17.4363,3.7748
1516271.0,-78.4532,16.4146,78.4508,2.0359,-17.4363,1.4319
1516281.0,-78.4532,-21.9213,78.4508,15.2477,-17.4363,1.1685
1516291.0,-78.4532,1.3408,-29.9084,14.5682,-17.4363,0.3241
1516301.0,-78.4532,-12.0476,-29.9179,6.9265,-17.4363,-2.1513
1516311.0,-65.0936,2.5187,-73.9234,10.2591,-17.4363,-3.6514
1516321.0,-42.9328,15.9454,-60.3435,4.2883,-12.5717,-5.2126
1516331.0,-44.6088,24.2389,-32.8006,7.2878,-8.758,-5.103
1516341.0,-33.6625,38.7095,-22.6204,5.1705,-1.0488,-4.4905
1516351.0,-38.3647,38.2976,12.3062,6.2396,1.8629,-3.2746
1516361.0,-36.9473,54.0132,19.0674,4.7752,3.7205,-1.9944
1516371.0,-60.9181,64.3466,-2.6336,-2.6776,-1.9316,-0.3634
1516381.0,-78.4532,51.8009,76.5187,-3.1198,1.7624,1.5516
1516391.0,-78.0318,61.5597,73.1477,-6.0485,-0.622,3.2523
1516401.0,-66.0608,42.5593,78.4508,-9.9643,-6.3428,5.1471
1516411.0,-45.2504,27.6387,78.4508,-3.6631,-11.7118,7.3267
1516421.0,-32.5037,18.0619,58.0067,-1.6192,-14.1728,8.493
1516431.0,-25.0817,1.5802,47.5297,0.9535,-15.4228,8.5968
1516441.0,-21.3946,0.8619,22.8886,0.9924,-15.8979,8.094
1516451.0,-20.3316,-4.9895,14.4035,-2.9814,-15.5505,6.9818
1516461.0,-18.5024,-8.7628,12.7563,-4.6927,-14.3521,5.5723
1516471.0,-18.3204,-6.5505,13.1011,-6.4093,-12.4174,4.2792
1516481.0,-19.4888,-6.5984,21.1264,-6.0421,-10.8764,3.364
1516491.0,-18.7322,-0.3831,22.9652,-4.5049,-9.9537,2.8654
1516501.0,-18.0906,4.6352,22.5821,-4.283,-9.5605,2.7521
1516511.0,-15.5719,7.6998,24.5358,-3.5343,-9.3024,3.0474
1516521.0,-14.1928,9.0022,23.4823,-2.7079,-8.8842,3.5545
1516531.0,-12.7372,6.0047,24.8327,-2.0827,-8.2802,4.0504
1516541.0,-11.5688,0.9098,27.4663,-1.4048,-8.0163,4.317
1516551.0,-10.0748,-4.4341,29.6689,-1.383,-8.2451,4.093
1516561.0,-9.2225,-6.4548,31.6897,-1.4543,-9.1103,3.5955
1516571.0,-7.9392,-6.1387,30.55,-1.8081,-9.9893,3.1043
1516581.0,-6.1579,-7.1347,29.5157,-1.7379,-10.4246,2.5807
1516591.0,-4.3862,-4.3191,24.9763,-1.4303,-10.4353,2.1588
1516601.0,-2.9497,-0.6512,19.7474,-1.9741,-10.1767,2.0103
1516611.0,-1.4174,-1.0439,17.8703,-2.254,-9.5924,2.0194
1516621.0,1.561,-2.4517,16.8264,-2.1758,-8.5213,2.0082
1516631.0,2.5953,-4.7692,19.5367,-1.2249,-7.3469,1.9704
1516641.0,3.735,-6.2728,21.9788,0.2613,-6.3891,1.8768
1516651.0,4.1946,-7.1826,23.3099,1.2553,-5.9708,1.6613
1516661.0,5.0757,-7.2784,24.373,1.7661,-6.0272,1.3723
1516671.0,6.11,-7.5944,22.946,1.9571,-6.0187,0.9488
1516681.0,7.1443,-6.7995,20.82,1.6464,-5.6276,0.3991
1516691.0,7.288,-3.6488,19.5271,1.2063,-5.1663,-0.0841
1516701.0,6.4931,0.9194,18.6843,0.6173,-4.7337,-0.3294
1516711.0,5.4109,4.118,19.7665,0.2575,-4.4086,-0.3432
1516721.0,5.4109,5.7269,21.5574,0.4832,-4.2532,-0.1729
1516731.0,5.2577,6.4069,21.3084,1.177,-4.3921,0.1325
1516741.0,6.2537,4.798,19.4984,1.9912,-4.7502,0.3741
1516751.0,6.4165,3.2657,11.5592,2.022,-5.5776,0.3352
1516761.0,8.1211,4.9799,-1.6089,-0.265,-6.8627,-0.0803
1516771.0,6.7133,10.1418,-16.1273,-3.9871,-8.3409,-0.4198
1516781.0,0.5938,21.1743,-33.4231,-8.0179,-9.6578,-0.2464
1516791.0,3.0358,39.5714,-73.7223,-13.1458,-8.6921,0.9583
1516801.0,-3.9552,27.9547,-44.8961,-1.0515,-7.5188,4.2393
1516811.0,-33.4326,43.7469,-78.4532,4.574,-11.0653,7.366
1516821.0,-27.4567,30.8948,-78.4532,15.0045,-9.6025,10.0819
1516831.0,-40.1939,19.6995,-78.4532,17.4357,1.2143,12.3062
1516841.0,-64.4806,-6.8474,-78.4532,7.0026,17.4357,12.5797
1516851.0,-78.4532,-54.2239,-78.4532,5.6478,17.4357,11.9928
1516861.0,-78.4532,-71.2514,-78.4532,-6.0906,17.4357,8.9384
1516871.0,-78.4532,-78.4532,-78.4532,1.0211,17.4357,0.8775
1516881.0,-78.4532,-78.4532,-27.6674,14.5762,17.4357,-8.9746
1516891.0,-78.4532,-78.4532,78.4508,17.4357,17.4357,-17.4363
1516901.0,-78.4532,-8.2552,78.4508,17.4357,17.4357,-17.4363
1516911.0,-78.4532,78.4508,78.4508,17.4357,17.4357,-17.4363
1516921.0,-78.4532,78.4508,78.4508,-13.099,17.4357,-17.4363
1516931.0,-78.4532,78.4508,78.4508,4.3027,17.4357,-3.9153
1516941.0,-78.4532,78.4508,78.4508,17.1846,3.4923,6.6062
1516951.0,-78.4532,52.5671,78.4508,17.4357,-17.4363,12.1231
1516961.0,-78.4532,7.5369,78.4508,12.378,-17.4363,10.1868
1516971.0,-78.4532,-21.2031,78.4508,11.0621,-17.4363,6.2933
1516981.0,-78.4532,-20.0921,57.7003,11.1956,-17.4363,1.7927
1516991.0,-78.4532,-0.316,3.5243,8.2504,-17.4363,-2.046
1517001.0,-78.4532,16.9893,-30.3489,4.6427,-17.4363,-4.2899
1517011.0,-60.717,34.5148,-51.0156,0.6875,-17.4363,-4.9864
1517021.0,-38.9968,43.1627,-56.8767,-3.008,-11.7038,-4.4548
1517031.0,-41.1515,42.8179,-30.3585,-3.8073,-5.9746,-3.1847
1517041.0,-31.7663,42.8849,-17.7554,-6.9691,-1.6565,-1.7581
1517051.0,-38.3264,27.1215,16.2806,-5.4462,-0.1421,-0.4528
1517061.0,-28.4048,21.0977,30.3106,-1.806,4.6416,0.4033
1517071.0,-28.242,19.7761,40.0215,-0.2352,2.121,1.3292
1517081.0,-27.8972,11.7699,48.5544,-0.1974,-2.0662,1.9289
1517091.0,-25.2349,5.9376,44.8673,-0.2581,-5.4728,1.7863
1517101.0,-27.3418,5.5833,36.9856,-2.9415,-7.0893,0.9748
1517111.0,-29.5349,6.6655,40.5482,-5.3195,-7.6459,0.2176
1517121.0,-32.2834,9.3757,46.9359,-5.1785,-7.4826,0.1064
1517131.0,-33.7199,8.9447,54.8368,-2.6765,-7.0425,0.4853
1517141.0,-35.5491,10.5058,57.0203,0.8338,-7.4198,0.9349
1517151.0,-35.7502,15.4761,54.1185,2.6728,-8.6639,1.4495
1517161.0,-34.6776,20.3028,48.248,3.2017,-10.3405,2.1907
1517171.0,-30.4447,23.7122,37.225,1.938,-11.2164,2.9383
1517181.0,-27.5525,22.8215,30.7032,-0.3789,-11.2813,3.5354
1517191.0,-26.4416,17.2766,29.3529,-2.4387,-10.8764,3.9243
1517201.0,-25.7808,10.1993,30.55,-3.7498,-10.6178,3.9573
1517211.0,-24.191,4.2234,34.0647,-4.4373,-10.415,3.6051
1517221.0,-25.0625,0.067,39.5714,-4.01,-10.5928,3.156
1517231.0,-23.4728,-2.6624,43.7564,-2.2923,-11.0972,2.7824
1517241.0,-22.5725,-2.375,41.6783,-0.9541,-11.9321,2.2429
1517251.0,-21.1647,1.5514,37.3304,-0.7758,-12.8819,1.7203
1517261.0,-20.073,5.7365,32.6856,-1.0993,-13.4417,1.475
1517271.0,-18.5503,9.4332,27.5142,-1.7283,-13.6684,1.4766
1517281.0,-17.3628,11.2815,22.3714,-2.7116,-13.2517,1.6309
1517291.0,-14.8728,10.4866,20.8296,-3.645,-12.5547,1.7831
1517301.0,-13.3596,8.8681,21.6915,-4.151,-11.6623,1.922
1517311.0,-12.3062,4.3,27.0353,-3.0346,-10.7641,2.1684
1517321.0,-10.477,-0.2107,29.9275,-1.0099,-10.0628,2.237
1517331.0,-9.596,-3.8307,32.2738,0.4677,-9.8606,1.9603
1517341.0,-8.0732,-3.0454,31.8429,1.2584,-10.282,1.4692
1517351.0,-8.2361,1.494,29.4774,1.0621,-10.8753,1.1041
1517361.0,-6.924,6.6463,24.8805,-0.0415,-11.4601,0.9434
1517371.0,-5.6216,10.2663,21.6915,-1.4463,-11.583,1.0546
1517381.0,-3.8116,11.5209,18.1385,-2.4115,-11.2909,1.3244
1517391.0,-1.4078,10.8793,14.5472,-3.5753,-10.6114,1.6001
1517401.0,-0.2298,7.7859,16.1369,-4.0659,-9.768,1.8326
1517411.0,1.2929,4.5873,18.5886,-3.0756,-8.9682,2.046
1517421.0,2.4134,3.0454,18.8088,-1.9534,-8.1701,2.1849
1517431.0,2.5187,1.5897,19.2398,-0.7934,-7.7002,2.2806
1517441.0,4.1563,1.2546,17.9086,0.1022,-7.5305,2.3205
1517451.0,5.5833,1.9537,12.9,-0.0537,-7.6651,2.2594
1517461.0,7.1635,2.4038,7.5274,-1.126,-7.8577,2.1237
1517471.0,9.3182,1.4269,3.6009,-2.0869,-7.6172,1.9635
1517481.0,11.3868,0.9385,-0.7278,-2.1662,-6.6791,1.8209
1517491.0,13.3884,0.8906,-4.7501,-1.7288,-5.2631,1.699
1517501.0,13.5129,1.6664,-5.7365,-1.0674,-3.7716,1.5921
1517511.0,13.2735,4.0701,-8.0541,-0.7098,-3.0314,1.5745
1517521.0,10.8984,6.6463,-10.3046,-1.185,-3.4821,1.6692
1517531.0,4.9895,10.2855,-16.8169,-2.1753,-5.3259,1.8507
1517541.0,0.0,18.1959,-34.6489,-5.1062,-8.5947,2.162
1517551.0,-3.0071,28.989,-78.4532,-11.3569,-12.1513,2.7537
1517561.0,-10.4004,29.8413,-78.4532,-10.2096,-12.8771,3.7397
1517571.0,-32.9442,39.6192,-78.4532,-16.0129,-11.0174,5.0753
1517581.0,-39.1308,48.2958,-78.4532,-8.4292,-0.4331,8.4409
1517591.0,-56.9054,31.0097,-78.4532,3.1331,17.4357,12.4504
1517601.0,-78.4532,8.6095,-78.4532,7.2963,17.4357,14.5698
1517611.0,-78.4532,-18.0619,-78.4532,2.7388,17.4357,14.3883
1517621.0,-78.4532,-52.6054,-78.4532,-0.2639,17.4357,12.4259
1517631.0,-78.4532,-78.4532,-78.4532,7.0005,17.4357,7.2405
1517641.0,-78.4532,-78.4532,72.8125,17.4357,17.4357,-1.1861
1517651.0,-78.4532,-78.4532,63.6475,15.9612,17.4357,-9.8771
1517661.0,-78.4532,-29.1326,78.4508,17.4357,17.4357,-12.6829
1517671.0,-78.4532,78.4508,78.4508,12.4429,17.4357,-17.2995
1517681.0,-78.4532,78.4508,78.4508,-2.4786,17.4357,-12.6999
1517691.0,-78.4532,78.4508,78.4508,17.4357,8.5771,-1.9454
1517701.0,-78.4532,78.4508,78.4508,2.4051,-4.855,3.4385
1517711.0,-78.4532,41.7645,78.4508,12.8409,-17.4363,8.5516
1517721.0,-78.4532,25.1295,78.4508,13.355,-17.4363,9.445
1517731.0,-78.4532,-22.5917,78.4508,10.2511,-17.4363,6.2768
1517741.0,-78.4532,-10.4962,64.2125,16.7775,-17.4363,3.3076
1517751.0,-73.2051,11.789,17.6213,3.8498,-17.4363,-0.5992
1517761.0,-68.8381,14.6525,27.3418,4.0403,-17.4363,-2.5211
1517771.0,-53.3237,41.7453,-13.7427,2.9979,-17.4363,-2.6962
1517781.0,-47.386,48.5161,-8.6574,0.1607,-12.8356,-1.6655
1517791.0,-41.2473,50.6805,-4.0797,2.9133,-6.6913,0.5268
1517801.0,-40.3662,49.4355,-2.0686,0.1479,-1.7177,2.4078
1517811.0,-41.5059,36.8516,21.9117,-1.9944,0.0883,3.8355
1517821.0,-41.6783,27.6578,37.5698,-2.7957,0.3517,4.8284
1517831.0,-40.1747,17.9374,52.2894,-3.9318,-1.1079,5.2035
1517841.0,-38.1923,8.7245,60.3147,-4.582,-3.5843,5.0646
1517851.0,-37.4836,3.122,63.5134,-5.6079,-6.4136,4.4783
1517861.0,-37.7518,-0.1149,66.5588,-5.4989,-8.9437,3.9004
1517871.0,-38.336,0.5076,64.0784,-2.8351,-10.5699,3.7035
1517881.0,-36.1908,7.6231,52.3277,-1.6139,-11.2536,3.6631
1517891.0,-36.0567,12.651,45.8537,-2.0885,-11.8938,3.9802
1517901.0,-33.4326,14.1162,38.3838,-2.809,-12.4876,4.4596
1517911.0,-29.7073,13.6278,29.6306,-4.9827,-12.535,4.8475
1517921.0,-27.2556,4.0223,31.1629,-6.3438,-12.0784,4.9811
1517931.0,-24.373,-5.8131,29.8126,-6.0038,-11.3739,4.6501
1517941.0,-21.2222,-12.5169,30.0903,-6.2789,-10.464,3.6359
1517951.0,-20.8583,-17.5447,37.1197,-5.0631,-10.1516,2.2508
1517961.0,-20.0059,-13.4937,36.4589,-4.4415,-10.4826,0.8477
1517971.0,-22.0554,-4.7788,39.9257,-4.1845,-11.5021,-0.0633
1517981.0,-22.8407,3.9265,38.8435,-3.1453,-12.6387,-0.2496
1517991.0,-22.9652,13.3309,32.4941,-3.3422,-13.5252,0.0357
1518001.0,-21.0594,17.6405,28.1175,-3.9509,-14.2596,0.7189
1518011.0,-19.6708,17.2574,21.8447,-4.7188,-14.7874,1.4452
1518021.0,-16.8935,12.2009,16.0316,-5.6149,-14.5788,1.9566
1518031.0,-13.2351,4.051,13.9821,-4.8369,-13.5157,2.1673
1518041.0,-9.5193,-2.5857,11.1187,-3.2496,-11.6634,2.088
1518051.0,-6.5984,-7.7381,11.8178,-1.425,-9.785,1.764
1518061.0,-4.1851,-9.3661,10.7164,-0.5688,-8.3089,1.1446
1518071.0,-2.8635,-8.4084,13.4937,-0.4156,-7.1186,0.5225
1518081.0,-1.6568,-4.6256,16.3763,0.2698,-6.1464,0.1203
1518091.0,-0.7949,0.0958,18.148,0.3203,-4.9646,-0.0527
1518101.0,-1.1109,3.0071,23.2621,0.5789,-4.1154,-0.0607
1518111.0,-1.8483,8.0062,23.9229,-0.5731,-4.0504,0.0021
1518121.0,-2.9305,10.0748,28.9124,-2.154,-4.5049,0.199
1518131.0,-1.8292,9.1171,33.4518,-2.2445,-4.8183,0.5827
1518141.0,-1.9345,7.3071,34.3807,-2.0146,-4.8981,0.8828
1518151.0,-1.494,3.6296,35.846,-1.5186,-5.0098,1.0972
1518161.0,0.3735,1.245,35.6544,-1.0844,-4.9556,1.0648
1518171.0,0.7757,0.0862,35.8364,-1.2595,-5.0125,0.8822
1518181.0,0.8619,-0.3735,37.5794,-1.5128,-5.4909,0.6556
1518191.0,0.6895,0.5555,37.3879,-1.9188,-6.1374,0.3868
1518201.0,0.3639,1.7909,38.0295,-2.0784,-6.9196,0.2597
1518211.0,0.0096,2.6049,36.5738,-1.956,-7.7194,0.2804
1518221.0,0.2777,2.988,33.5188,-1.6804,-8.4648,0.3789
1518231.0,1.3216,2.9592,28.4144,-1.3713,-8.9916,0.5342
1518241.0,3.1603,2.6624,21.8064,-1.1855,-8.8639,0.6907
1518251.0,5.2098,1.6376,16.4625,-0.6082,-7.9705,0.8966
1518261.0,6.7421,-0.3543,13.398,-0.0144,-6.6477,1.061
1518271.0,7.92,-3.2657,13.1968,1.0435,-5.3765,1.0695
1518281.0,8.4563,-4.7022,11.6837,1.4873,-4.6858,0.8407
1518291.0,9.0788,-4.2904,12.153,1.2116,-4.5959,0.5789
1518301.0,9.9311,-3.4381,11.1953,1.3351,-4.5927,0.4358
1518311.0,11.8465,-2.0686,7.7668,1.7411,-3.8999,0.4816
1518321.0,13.0819,-1.2737,5.3151,2.6595,-2.3674,0.6662
1518331.0,12.8712,0.4884,3.7445,3.7248,-0.563,0.9482
1518341.0,15.457,2.2793,3.8978,4.051,0.9684,1.242
1518351.0,18.3204,2.8826,4.8459,2.6324,1.4378,1.2521
1518361.0,15.9837,0.7566,11.6358,-0.3166,0.0511,0.771
1518371.0,13.6565,3.9073,9.3757,-4.6134,-3.7163,-0.2097
1518381.0,2.3655,10.4866,1.8292,-12.684,-9.5136,-1.2686
1518391.0,-10.3046,15.6389,-13.1011,-17.4363,-17.4363,-2.1173
1518401.0,-78.4532,40.6631,-78.4532,-17.4363,-17.4363,-2.047
1518411.0,31.7471,-4.2329,-78.4532,-3.2251,-9.4211,-2.5281
1518421.0,-33.7678,50.805,-78.4532,-10.5976,-1.8651,-3.3278
1518431.0,-41.5059,78.4508,-78.4532,-1.7996,14.5166,0.8099
1518441.0,-78.4532,78.4508,-78.4532,6.4146,17.4357,9.3237
1518451.0,-78.4532,78.4508,-78.4532,8.5074,17.4357,17.4357
1518461.0,-78.4532,75.3886,-78.4532,16.3933,17.4357,17.4357
1518471.0,-78.4532,-43.2297,-78.4532,17.4357,17.4357,17.4357
1518481.0,-78.4532,-78.4532,3.7828,10.1181,17.4357,13.6045
1518491.0,-78.4532,-78.4532,-41.209,0.6667,17.4357,-0.5555
1518501.0,-78.4532,-78.4532,78.4508,17.4357,17.4357,-8.8847
1518511.0,-78.4532,71.9984,78.4508,17.4357,17.4357,-17.4363
1518521.0,-78.4532,78.4508,78.4508,-12.8899,17.4357,-17.4363
1518531.0,-78.4532,78.4508,78.4508,17.4357,3.2017,-3.5343
1518541.0,-78.4532,78.4508,78.4508,-4.425,-17.3352,3.0825
1518551.0,-78.4532,61.2916,78.4508,17.4357,-17.4363,13.3778
1518561.0,-78.4532,60.1998,78.4508,11.6953,-17.4363,16.7594
1518571.0,-78.4532,-33.3752,78.4508,11.1887,-17.4363,15.8405
1518581.0,-78.4532,-50.0771,54.6261,17.4357,-17.4363,13.2235
1518591.0,-67.7655,-45.8059,17.8895,4.9875,-17.4363,6.5237
1518601.0,-55.6125,-52.7203,51.37,4.5405,-17.4363,1.3079
1518611.0,-43.019,-16.0603,3.1603,0.2357,-17.4363,-2.1668
1518621.0,-41.1611,-10.2376,12.2104,-5.4637,-17.4363,-4.5512
1518631.0,-34.9841,3.5338,6.8666,-0.4603,-17.4363,-4.9242
1518641.0,-31.1342,23.0705,-12.5935,-1.052,-13.4875,-4.3819
1518651.0,-30.7703,24.4496,-0.1915,-0.1479,-9.6552,-3.1325
1518661.0,-29.6306,29.238,1.2163,1.6852,-6.6264,-1.5649
1518671.0,-31.0001,29.8605,9.6055,0.3597,-5.2291,-0.0984
1518681.0,-30.4447,25.3307,23.0418,0.7519,-5.5004,1.3069
1518691.0,-28.8549,21.8351,25.369,1.516,-5.9863,2.4935
1518701.0,-26.9779,16.2135,25.12,1.823,-6.0219,3.3294
1518711.0,-23.0993,8.3797,23.5973,2.9554,-5.336,3.7306
1518721.0,-19.326,3.4764,18.895,2.444,-3.96,3.3273
1518731.0,-19.9964,-0.2107,23.3961,1.1079,-2.9511,2.3471
1518741.0,-19.2207,3.1891,28.6155,-0.5076,-3.0032,1.3489
1518751.0,-21.0977,7.7189,33.9211,-2.9186,-4.1106,0.6566
1518761.0,-21.7298,9.0118,39.4469,-3.8796,-5.6037,0.3597
1518771.0,-20.8487,12.1338,37.2634,-4.2181,-6.5173,0.3246
1518781.0,-21.0594,12.6222,36.3631,-4.0749,-6.786,0.5428
1518791.0,-19.6995,11.0325,35.7598,-3.0086,-6.5189,0.7971
1518801.0,-19.3547,9.8067,35.1469,-1.7012,-6.0703,1.0499
1518811.0,-18.4928,8.3127,35.099,-0.1426,-5.4893,1.2361
1518821.0,-17.3915,8.7915,32.0727,0.5811,-5.0189,1.2499
1518831.0,-16.3955,9.5864,31.5843,-0.3751,-4.8821,1.1249
1518841.0,-16.5104,9.6726,32.3313,-1.8496,-5.3616,0.9126
1518851.0,-16.7498,10.5919,32.0344,-3.711,-5.948,0.6822
1518861.0,-16.702,9.5193,33.3464,-4.4713,-6.2523,0.5837
1518871.0,-16.4721,9.098,33.1932,-4.1696,-5.8149,0.6364
1518881.0,-16.2327,7.7476,32.858,-3.2501,-4.9572,0.738
1518891.0,-15.3325,5.2864,34.8979,-1.9151,-3.5785,0.7662
1518901.0,-15.524,4.2713,37.4262,-0.9222,-2.46,0.5731
1518911.0,-17.1329,5.047,42.2816,-1.5463,-2.4514,0.1788
1518921.0,-18.1672,7.4508,47.7691,-2.8308,-3.8488,-0.1708
1518931.0,-18.8376,9.347,52.5001,-3.6758,-5.6335,-0.3565
1518941.0,-19.2207,11.8465,52.2702,-3.7248,-7.0436,-0.2618
1518951.0,-20.3603,13.6565,50.3261,-3.5226,-7.9689,0.0266
1518961.0,-20.2549,14.1162,49.062,-3.1097,-8.7703,0.4113
1518971.0,-20.3411,13.7619,46.256,-2.287,-9.3955,0.8939
1518981.0,-18.3396,10.8888,43.699,-1.2164,-9.3088,1.3606
1518991.0,-16.4338,7.9009,41.2665,0.2426,-8.6484,1.582
1519001.0,-16.4242,7.6998,39.9544,0.7348,-8.1504,1.6134
1519011.0,-16.587,8.4563,41.2952,0.2602,-8.6484,1.5367
1519021.0,-17.1904,10.7739,41.889,-0.8274,-9.925,1.5165
1519031.0,-16.1561,12.1242,40.4141,-1.7022,-11.1994,1.6735
1519041.0,-15.026,12.2583,36.1429,-2.0923,-11.8092,1.956
1519051.0,-13.0436,10.4962,32.3217,-2.2269,-11.682,2.2647
1519061.0,-11.2911,6.8091,30.3393,-2.0747,-11.3516,2.4392
1519071.0,-9.9982,4.051,29.3912,-1.872,-11.019,2.4397
1519081.0,-8.9926,2.4134,29.4774,-1.6559,-11.0451,2.3466
1519091.0,-8.6,1.4557,28.5868,-1.2813,-11.3808,2.2556
1519101.0,-7.7381,1.5036,26.2309,-0.9525,-11.6394,2.2099
1519111.0,-7.5753,1.8196,22.6491,-0.6199,-11.9289,2.2072
1519121.0,-6.2058,1.8483,17.3149,-0.705,-12.0002,2.2647
1519131.0,-4.1659,0.5363,11.473,-1.0924,-11.79,2.2556
1519141.0,-2.8347,-0.5938,3.0454,-2.8085,-11.5383,2.0561
1519151.0,-2.6528,-3.9361,0.1437,-4.9513,-11.4697,1.7198
1519161.0,-1.9249,-6.3207,-8.3606,-6.7498,-12.1082,1.0876
1519171.0,-0.2777,-4.3958,-18.0427,-9.9771,-13.0953,0.1144
1519181.0,-12.0285,2.1548,-31.5747,-13.8445,-17.1649,-1.0791
1519191.0,14.9973,26.7863,-78.4532,-17.4363,-17.4363,-1.3234
1519201.0,-36.5451,11.0421,-78.4532,-14.5059,-17.4363,-0.621
1519211.0,-28.9315,32.9825,-78.4532,-17.4363,-12.7638,-1.6692
1519221.0,-18.5982,75.063,-78.4532,-15.2179,-2.6606,-0.0325
1519231.0,-78.4532,78.4508,-78.4532,1.152,16.4125,5.5302
1519241.0,-78.4532,78.4508,-78.4532,15.2796,17.4357,12.7053
1519251.0,-78.4532,64.0114,-78.4532,17.4357,17.4357,17.4357
1519261.0,-78.4532,-7.5848,-78.4532,17.4357,17.4357,17.4357
1519271.0,-78.4532,-69.5563,-78.4532,17.4357,17.4357,4.0579
1519281.0,-78.4532,-78.4532,8.8969,17.4357,17.4357,-8.1498
1519291.0,-78.4532,-22.697,-59.0314,0.671,17.4357,-17.109
1519301.0,-78.4532,-16.8073,78.4508,9.8111,17.4357,-17.4363
1519311.0,-78.4532,78.4508,78.4508,14.5373,17.4357,-17.4363
1519321.0,-78.4532,55.0762,78.4508,-17.4363,17.4357,-13.0357
1519331.0,-78.4532,78.4508,78.4508,17.4357,-16.7828,6.1257
1519341.0,-78.4532,78.4508,78.4508,1.2505,-12.7047,9.5025
1519351.0,-78.4532,-17.5351,78.4508,12.3477,-17.4363,12.8228
1519361.0,-78.4532,9.6247,78.4508,17.4357,-17.4363,14.4421
1519371.0,-78.4532,-48.6406,78.4508,2.9383,-17.4363,8.2547
