time_ms,ax,ay,az,gx,gy,gz
1436941.0,1.5227,3.1795,48.3725,-6.0943,0.9621,0.7806
1436951.0,4.2425,7.0677,42.1571,-5.4919,0.3938,0.9535
1436961.0,2.9592,4.3479,48.2575,-3.124,-0.042,1.2803
1436971.0,4.1851,5.6024,42.6743,-1.608,0.7364,1.657
1436981.0,3.8307,3.4093,42.0135,0.3762,0.6369,1.8975
1436991.0,4.7309,1.7526,39.0638,1.6857,1.2973,2.0502
1437001.0,4.9321,-0.0192,36.2386,2.5807,2.038,2.0066
1437011.0,5.2002,-2.4517,36.1046,2.9649,2.5233,1.8177
1437021.0,5.0278,-3.0167,35.4916,2.7069,2.9841,1.5346
1437031.0,4.616,-4.9321,36.8324,2.3743,3.2853,1.1696
1437041.0,4.9225,-6.3207,38.8627,2.0758,3.5497,0.7338
1437051.0,5.0278,-7.9775,41.525,2.2993,3.7232,0.1618
1437061.0,4.7309,-7.9104,42.8371,2.8649,3.9259,-0.422
1437071.0,4.0318,-6.5888,43.5266,3.471,4.2431,-0.9642
1437081.0,2.9784,-4.8554,44.2161,3.852,4.3516,-1.4154
1437091.0,2.2697,-3.1125,45.3079,4.1031,4.4501,-1.8118
1437101.0,1.7238,0.0862,44.6758,3.7876,4.5065,-2.0438
1437111.0,0.6416,2.8347,45.6239,2.8984,4.3293,-2.1806
1437121.0,0.0575,4.6543,46.7923,1.6756,4.1478,-2.1726
1437131.0,-0.1724,4.6831,49.627,0.5561,4.0057,-2.1013
1437141.0,-0.5076,3.0933,53.7546,0.0569,3.7759,-2.0502
1437151.0,-0.9194,1.4269,57.8918,0.1421,3.3332,-2.0625
1437161.0,-1.3886,-0.3448,60.0274,0.6949,2.9373,-2.1375
1437171.0,-1.9537,-2.2889,61.598,1.5937,2.6563,-2.3056
1437181.0,-2.1739,-3.9935,61.6363,2.369,2.3392,-2.6542
1437191.0,-2.557,-3.9265,61.2054,2.345,1.7602,-3.1602
1437201.0,-2.4038,-2.5857,59.7497,1.5186,1.209,-3.7322
1437211.0,-3.1508,-0.8045,60.7361,0.1788,0.5066,-4.2197
1437221.0,-3.6871,0.3735,63.0537,-1.0472,-0.3948,-4.6118
1437231.0,-3.5147,1.3695,64.5094,-1.8331,-1.3356,-4.9066
1437241.0,-3.9744,1.6951,65.9746,-2.4089,-2.2929,-5.2057
1437251.0,-4.3191,1.7813,66.4535,-2.6552,-3.1677,-5.4627
1437261.0,-4.2234,1.9058,66.2811,-2.6936,-4.043,-5.742
1437271.0,-4.4724,2.2793,65.7448,-2.5988,-4.8901,-6.0028
1437281.0,-5.1906,3.9361,64.1359,-2.2386,-5.7415,-6.1996
1437291.0,-5.9376,6.0334,61.6555,-1.9465,-6.479,-6.2779
1437301.0,-6.292,9.0597,56.7234,-2.0822,-7.0404,-6.2486
1437311.0,-6.5218,11.4826,54.607,-2.5297,-7.5517,-6.1049
1437321.0,-6.3207,13.4746,52.4426,-3.1198,-8.0855,-5.8415
1437331.0,-5.2577,13.7427,50.7092,-3.7977,-8.5638,-5.5233
1437341.0,-4.6352,13.532,49.5695,-4.4011,-8.9299,-5.2567
1437351.0,-3.6679,12.7084,50.2687,-4.4788,-9.3753,-5.0317
1437361.0,-3.5817,12.5935,50.0867,-4.251,-10.1234,-4.7725
1437371.0,-2.7485,12.3445,46.888,-3.8083,-10.8019,-4.4697
1437381.0,-2.2601,12.5839,42.5498,-3.3901,-11.2904,-4.1675
1437391.0,-1.2354,13.216,37.1676,-3.1176,-11.3888,-3.845
1437401.0,0.1245,13.7523,31.7758,-3.0006,-11.3383,-3.5231
1437411.0,1.6951,14.3748,26.3266,-3.1975,-10.9583,-3.19
1437421.0,3.0358,14.6621,21.883,-3.654,-10.3969,-2.8532
1437431.0,4.6543,14.777,19.5271,-4.0073,-9.6323,-2.5217
1437441.0,6.0142,14.9302,18.0236,-3.8802,-8.6734,-2.1205
1437451.0,7.2975,14.6717,17.5926,-3.4178,-7.6103,-1.624
1437461.0,8.3989,13.7427,17.2861,-2.6531,-6.5067,-1.11
1437471.0,9.8162,12.7372,16.3572,-2.0002,-5.4536,-0.6343
1437481.0,9.9311,11.2911,16.9797,-1.4016,-4.5442,-0.2458
1437491.0,11.2623,10.0461,16.6062,-1.0738,-3.7179,0.1027
1437501.0,12.4403,8.5329,16.8264,-0.9237,-3.1464,0.2895
1437511.0,13.7236,7.92,16.1369,-1.0674,-2.6063,0.423
1437521.0,14.0013,7.8626,16.6062,-1.1786,-2.0641,0.5209
1437531.0,14.2311,8.0828,16.9893,-1.1781,-1.5671,0.7125
1437541.0,14.4993,8.1786,16.7977,-1.1158,-1.0504,0.9307
1437551.0,14.4706,7.3454,16.1944,-1.151,-0.5103,1.1595
1437561.0,14.5759,6.4835,15.7634,-1.2106,0.0633,1.3436
1437571.0,14.2503,5.5162,16.2423,-1.2281,0.7295,1.475
1437581.0,14.2407,4.8554,17.0946,-1.168,1.4069,1.59
1437591.0,14.3652,3.9648,17.8607,-0.9716,1.9773,1.6442
1437601.0,14.4514,3.4189,19.5846,-0.4768,2.6723,1.7028
1437611.0,13.8959,3.8211,20.4273,0.0708,3.1964,1.7714
1437621.0,13.465,4.4724,20.6572,0.5507,3.8163,1.9151
1437631.0,12.6797,5.2002,20.5997,0.7689,4.458,2.0742
1437641.0,12.0285,5.3439,20.638,0.8397,5.1508,2.2987
1437651.0,11.0612,5.3056,22.1607,0.8136,5.8543,2.5068
1437661.0,9.6822,4.2425,24.2485,0.87,6.4939,2.7138
1437671.0,9.232,3.5913,27.0066,1.094,6.9467,2.8734
1437681.0,8.7436,3.371,29.7073,1.3223,7.2431,2.999
1437691.0,7.8913,3.8307,31.2012,1.4452,7.3602,3.1235
1437701.0,7.5657,4.4724,31.9961,1.3207,7.3735,3.2815
1437711.0,6.4931,4.7597,32.9442,1.201,7.4171,3.4811
1437721.0,5.2385,5.3917,33.2028,0.936,7.5007,3.6992
1437731.0,4.5586,4.7692,33.7295,0.7194,7.7215,3.9775
1437741.0,3.6583,4.1563,34.8213,0.5635,8.1365,4.1994
1437751.0,2.7581,2.5666,37.1101,0.4108,8.2318,4.3676
1437761.0,1.9632,0.929,39.8395,0.2767,8.235,4.4469
1437771.0,1.1875,-0.1628,41.2473,0.3932,8.0386,4.4389
1437781.0,0.3065,-1.6568,41.0462,0.5236,7.9865,4.3686
1437791.0,-0.5938,-2.7677,40.213,0.6582,8.1967,4.2484
1437801.0,-0.8906,-3.7062,40.893,1.0264,8.7421,4.0169
1437811.0,-1.8196,-3.0454,42.0422,1.3431,9.2848,3.7296
1437821.0,-3.0933,-1.5706,44.9152,1.4862,9.6339,3.4465
1437831.0,-4.6448,-0.2873,49.2535,1.6554,9.627,3.2986
1437841.0,-5.4971,1.1588,53.0938,1.8682,9.1491,3.2416
1437851.0,-6.4739,2.241,54.7123,2.0869,8.6548,3.2102
1437861.0,-7.4316,3.5626,55.5359,2.112,8.1046,3.2283
1437871.0,-8.0445,4.8171,56.3116,2.1024,7.6342,3.3028
1437881.0,-9.232,5.8897,56.7043,2.0119,7.2772,3.4704
1437891.0,-9.8258,7.0485,57.6715,2.0146,7.0207,3.6929
1437901.0,-10.2759,7.2401,59.855,1.8784,6.6088,3.9579
1437911.0,-10.6877,6.9145,61.4352,2.0859,6.2119,4.2393
1437921.0,-11.3964,6.3686,63.0058,2.0178,5.6287,4.5246
1437931.0,-11.8178,4.9033,64.4711,2.0949,4.8257,4.6927
1437941.0,-12.0764,3.0933,64.3083,1.8379,3.9728,4.7715
1437951.0,-10.0365,0.9194,63.8581,1.5421,3.0703,4.7049
1437961.0,-10.5632,-0.1341,61.1862,0.8796,2.2338,4.3889
1437971.0,-13.7714,-0.0862,60.8893,0.414,1.839,4.2032
1437981.0,-12.9,1.5706,60.5925,-0.3379,1.1158,4.0893
1437991.0,-11.7412,0.4597,62.2971,-0.6811,0.0601,4.0526
1438001.0,-12.5456,0.4214,61.2054,-0.605,-0.5039,4.0238
1438011.0,-13.0436,-0.2873,60.1711,-0.3879,-1.1281,4.0313
1438021.0,-11.7412,-1.2833,58.3898,-0.1144,-1.6346,3.9648
1438031.0,-11.2144,-1.5514,55.3827,-0.1836,-2.1588,3.8009
1438041.0,-10.6207,-1.6855,53.6397,-0.5337,-2.5887,3.6274
1438051.0,-9.7779,-1.743,51.4658,-1.0052,-2.9729,3.4539
1438061.0,-9.2033,-1.7717,50.3836,-1.5798,-3.347,3.2885
1438071.0,-8.8873,-1.7526,49.2056,-1.9757,-3.7019,3.1336
1438081.0,-8.3318,-1.8196,48.0181,-2.2556,-3.9674,3.0783
1438091.0,-7.6231,-1.9249,46.6486,-2.3684,-4.1255,3.0368
1438101.0,-6.8378,-3.122,46.4092,-2.477,-4.3777,2.9426
1438111.0,-5.861,-4.0797,45.193,-2.4679,-4.59,2.8122
1438121.0,-4.6256,-5.3151,43.9958,-2.2785,-4.6214,2.6233
1438131.0,-3.6488,-6.0525,42.6743,-2.0965,-4.639,2.3514
1438141.0,-2.624,-6.4835,41.9177,-1.8885,-4.6533,2.0742
1438151.0,-1.7621,-6.3494,39.964,-1.8188,-4.5724,1.7597
1438161.0,-1.4557,-5.6886,39.3224,-1.7533,-4.4463,1.5224
1438171.0,-1.1684,-5.5545,38.4892,-1.5447,-4.2149,1.3633
1438181.0,-0.7278,-5.6599,38.2306,-1.2595,-3.8796,1.218
1438191.0,0.0192,-6.541,38.403,-0.97,-3.4923,1.0616
1438201.0,0.929,-7.2688,39.0063,-0.7561,-3.1639,0.8088
1438211.0,1.6759,-8.1882,40.7972,-0.5193,-3.0517,0.505
1438221.0,2.3559,-8.3222,41.7836,-0.24,-3.082,0.1729
1438231.0,2.49,-7.8338,42.0901,-0.2043,-3.1629,-0.182
1438241.0,2.5379,-7.4986,42.1667,-0.3368,-3.4289,-0.5193
1438251.0,2.2984,-6.4356,41.7357,-0.6689,-3.8392,-0.803
1438261.0,2.7485,-5.6216,40.6152,-0.8753,-4.051,-1.002
1438271.0,2.8539,-5.3343,39.2074,-1.0461,-4.0361,-1.1403
1438281.0,3.0263,-5.4588,38.7286,-1.0068,-3.9467,-1.2446
1438291.0,4.0606,-5.8706,38.0678,-0.9445,-3.8669,-1.3787
1438301.0,4.8076,-6.7804,37.1772,-0.9796,-3.7892,-1.5766
1438311.0,5.4875,-7.1539,36.2674,-1.0264,-3.6977,-1.8166
1438321.0,5.6886,-6.7325,35.1277,-1.1233,-3.5795,-2.0859
1438331.0,5.8323,-6.0238,34.2945,-1.1648,-3.4045,-2.2971
1438341.0,5.4684,-5.5354,33.6337,-1.2717,-3.3081,-2.4956
1438351.0,6.292,-4.7692,31.6513,-1.2074,-3.0772,-2.6297
1438361.0,6.8666,-4.4628,30.3489,-0.9961,-2.5063,-2.7367
1438371.0,7.2975,-3.8116,30.2531,-0.7109,-1.8358,-2.8276
1438381.0,7.422,-3.5913,30.4638,-0.456,-1.2744,-2.8777
1438391.0,8.0254,-3.1412,31.5652,-0.422,-1.0121,-2.933
1438401.0,8.3989,-2.9688,32.1398,-0.4677,-1.0233,-3.0245
1438411.0,8.6191,-2.7869,32.1876,-0.613,-1.0711,-3.0655
1438421.0,9.1459,-2.8635,30.866,-0.7072,-1.027,-3.1554
1438431.0,9.8928,-3.1603,30.1478,-0.5656,-0.6508,-3.314
1438441.0,10.0269,-2.7294,29.4104,-0.2597,-0.107,-3.4348
1438451.0,9.7971,-2.1069,29.6881,0.1235,0.4464,-3.5609
1438461.0,9.1075,-1.1205,29.9467,0.3555,0.9094,-3.6657
1438471.0,8.8011,0.565,31.3545,0.5683,1.2861,-3.6434
1438481.0,8.5329,2.059,34.2275,0.9605,1.3606,-3.5034
1438491.0,9.1363,2.7294,34.6585,1.1403,1.0456,-3.2395
1438501.0,9.3565,1.7621,34.0647,1.1095,0.679,-3.1325
1438511.0,9.4044,1.6951,32.3505,0.9328,0.555,-3.1517
1438521.0,9.8162,1.9249,30.9522,0.4039,0.464,-3.1991
1438531.0,9.6726,2.6145,30.1957,0.0692,0.6976,-3.2017
1438541.0,8.5234,3.5913,30.1382,-0.4145,0.7716,-3.1544
1438551.0,7.5369,3.7254,31.2491,-0.9504,0.6912,-2.9734
1438561.0,6.2441,1.4365,32.8293,-0.9823,0.2591,-2.759
1438571.0,8.0349,-2.1165,30.3106,-0.2948,0.431,-2.7915
1438581.0,9.979,-4.4628,26.4894,0.7428,1.582,-3.1017
1438591.0,10.4196,-5.6024,24.7082,1.608,2.7654,-3.6162
1438601.0,9.9311,-4.7022,23.4919,2.3275,4.2851,-4.2101
1438611.0,7.0581,-1.3886,24.3442,2.5914,5.7889,-4.6608
1438621.0,4.5873,2.2984,27.8877,2.3902,6.6094,-4.8428
1438631.0,2.1165,5.6216,31.7567,1.7836,7.0313,-4.7778
1438641.0,-0.2586,6.7516,35.9513,0.8466,6.8408,-4.5022
1438651.0,-0.6991,5.0087,40.0694,0.3789,6.6599,-4.3101
1438661.0,0.0766,3.5626,42.1954,0.2166,6.578,-4.2947
1438671.0,0.1437,2.0303,44.9248,0.705,6.7892,-4.4298
1438681.0,-0.8045,2.988,47.1275,1.3606,6.9728,-4.6054
1438691.0,-1.9058,4.4053,48.9949,1.9725,6.9462,-4.7257
1438701.0,-4.0893,6.924,50.0292,2.3525,6.8738,-4.7337
1438711.0,-5.7748,9.347,51.4753,2.427,6.7929,-4.5756
1438721.0,-6.8474,10.1035,53.4769,2.5557,6.5961,-4.3458
1438731.0,-7.9296,9.9407,55.5359,2.5818,6.3034,-4.1303
1438741.0,-7.6998,9.1459,57.5853,2.511,5.916,-4.0611
1438751.0,-9.0405,9.4427,59.0314,2.4243,5.3829,-4.0371
1438761.0,-8.8011,9.414,60.7648,2.4121,4.8853,-4.0441
1438771.0,-9.6438,10.41,62.527,2.3019,4.4793,-4.101
1438781.0,-10.3046,12.0668,64.5764,1.939,3.6375,-4.1047
1438791.0,-10.3334,13.0436,66.0129,1.6511,2.7633,-4.0292
1438801.0,-11.406,14.7387,66.9802,1.1515,1.8193,-3.8951
1438811.0,-11.3581,14.8728,67.7272,0.6572,0.8312,-3.7184
1438821.0,-11.473,15.0835,68.2443,0.3304,-0.141,-3.5455
1438831.0,-10.3334,14.2982,67.5835,-0.2368,-1.3697,-3.4747
1438841.0,-8.7819,12.3732,64.7105,-0.7694,-2.4807,-3.6428
1438851.0,-13.034,13.3213,63.7624,-0.7173,-2.7654,-3.711
1438861.0,-12.7563,18.2725,61.7034,-1.4947,-3.4811,-3.4034
1438871.0,-11.6741,17.9852,62.1439,-1.5139,-4.5634,-2.9798
1438881.0,-10.6494,18.4354,58.0929,-2.0838,-5.0178,-2.5988
1438891.0,-10.1323,17.4106,58.2749,-2.2966,-5.617,-2.2796
1438901.0,-9.5481,16.7307,57.662,-2.6691,-6.3854,-1.9917
1438911.0,-8.8298,15.9071,55.8041,-2.7537,-7.1282,-1.7347
1438921.0,-8.2456,15.3708,53.2375,-2.9745,-7.7119,-1.5186
1438931.0,-7.5274,14.528,50.7475,-3.0479,-8.1413,-1.301
1438941.0,-7.1347,13.6661,48.5448,-3.0112,-8.3281,-1.126
1438951.0,-6.3303,13.149,46.074,-2.9229,-8.4515,-0.9546
1438961.0,-5.0757,12.5648,43.9767,-2.784,-8.3659,-0.7976
1438971.0,-4.0989,12.2296,43.6415,-2.6803,-8.2009,-0.6524
1438981.0,-2.988,11.904,42.6455,-2.7138,-8.3175,-0.4986
1438991.0,-2.1739,11.2815,41.7836,-2.8622,-8.4744,-0.3704
1439001.0,-1.2163,11.0038,40.2705,-3.0064,-8.5691,-0.2921
1439011.0,-0.5555,10.6398,39.4373,-3.1613,-8.7756,-0.1527
1439021.0,0.2203,10.3621,37.4357,-3.2778,-8.815,-0.0484
1439031.0,1.1301,10.0748,36.1046,-3.2241,-8.7032,0.0654
1439041.0,2.4612,10.0844,34.7159,-3.1804,-8.6059,0.1878
1439051.0,3.8595,10.3621,32.791,-3.1432,-8.4909,0.3374
1439061.0,4.6256,10.5536,30.9427,-3.1081,-8.2094,0.5465
1439071.0,5.3056,10.4579,29.9754,-3.0565,-7.9317,0.821
1439081.0,6.541,10.3046,28.0696,-3.0676,-7.6034,1.1121
1439091.0,6.857,9.596,26.2117,-3.0298,-7.224,1.4383
1439101.0,8.2361,8.5329,25.6658,-3.1767,-6.8925,1.7709
1439111.0,9.8258,7.1251,24.2676,-3.189,-6.4098,1.996
1439121.0,11.0133,6.3207,24.0761,-3.0474,-5.8213,2.1625
1439131.0,11.1282,5.8131,25.254,-2.8021,-5.4515,2.3413
1439141.0,11.6262,5.1715,25.4552,-2.2088,-5.112,2.5887
1439151.0,12.1434,4.6448,25.2732,-1.358,-4.7225,2.8558
1439161.0,12.7563,3.4285,24.9763,-0.2767,-4.449,3.1081
1439171.0,13.5512,3.1795,21.0498,0.1112,-3.9589,3.2869
1439181.0,14.2407,1.8675,19.144,0.0527,-3.6077,3.3954
1439191.0,14.9973,1.1396,16.9797,-0.3124,-3.1496,3.4108
1439201.0,15.1984,0.5076,15.2271,-0.738,-2.6419,3.4289
1439211.0,15.5336,-0.2777,14.3556,-1.1297,-1.9576,3.4071
1439221.0,16.338,-1.4174,13.7236,-1.284,-1.1079,3.3608
1439231.0,16.8264,-2.3559,14.6908,-1.434,-0.2719,3.2842
1439241.0,16.9414,-3.2178,15.9645,-1.3399,0.4555,3.1714
1439251.0,17.0371,-3.802,16.9509,-1.0552,1.1478,3.0719
1439261.0,16.6253,-3.9456,17.9469,-0.6215,1.8693,2.9798
1439271.0,16.3572,-4.0318,19.077,-0.0649,2.4866,2.8872
1439281.0,16.3093,-3.9648,19.7091,0.5161,3.1778,2.8042
1439291.0,15.524,-3.9169,20.0155,1.0057,3.8397,2.7404
1439301.0,14.9877,-3.4572,20.14,1.3452,4.4974,2.693
1439311.0,14.5567,-3.9073,20.4656,1.4606,5.2876,2.6393
1439321.0,14.1258,-4.1563,21.6723,1.5995,6.1805,2.5499
1439331.0,13.532,-3.8978,24.2293,1.5293,6.9584,2.419
1439341.0,12.3445,-3.5051,27.1119,1.4575,7.4506,2.2977
1439351.0,11.2432,-3.0837,31.2395,1.3159,7.7023,2.2035
1439361.0,10.2472,-2.7869,33.8157,1.1254,7.6113,2.17
1439371.0,9.6726,-3.7541,36.5834,0.9748,7.1809,2.0742
1439381.0,9.5864,-3.802,36.411,1.102,7.0377,1.922
1439391.0,8.9256,-3.3423,36.5451,1.4138,7.2963,1.7469
1439401.0,8.0637,-2.3655,39.0063,2.1173,7.8689,1.6373
1439411.0,7.039,-0.6895,42.2529,3.3725,8.3281,1.6575
1439421.0,6.4069,0.8715,44.9535,4.5395,8.5473,1.7193
1439431.0,4.9033,3.1412,45.9304,5.0338,8.236,1.8863
1439441.0,3.1891,3.8116,46.0166,4.5661,7.3128,2.1024
1439451.0,2.7964,2.7294,43.7181,3.8152,6.4641,2.286
1439461.0,3.0837,1.8387,40.4429,3.3598,6.5136,2.311
1439471.0,2.6336,0.929,39.1596,3.0341,7.1633,2.2471
1439481.0,1.3599,0.6991,41.2856,2.9229,7.8806,2.1263
1439491.0,-0.182,1.3024,45.4803,2.9213,8.3297,2.0577
1439501.0,-0.996,2.2889,49.6749,3.0224,8.2626,2.0454
1439511.0,-1.9537,3.1412,52.9885,2.9373,7.7454,2.1215
1439521.0,-3.304,2.4804,55.1816,2.7276,6.6924,2.2445
1439531.0,-2.6815,0.9385,53.4003,2.5696,5.8006,2.2173
1439541.0,-2.241,-0.0862,51.4849,2.6164,5.7207,2.0619
1439551.0,-2.5666,0.2011,50.5081,2.5249,5.8032,1.8369
1439561.0,-3.8882,1.4174,50.4698,2.1636,5.8022,1.6416
1439571.0,-4.3479,2.7294,52.2702,1.7895,5.8351,1.5394
1439581.0,-5.8131,3.6966,55.3444,1.5474,5.5595,1.5373
1439591.0,-6.2537,3.7158,57.3459,1.4011,5.0152,1.6107
1439601.0,-6.6559,2.9209,58.7154,1.6075,4.5485,1.666
1439611.0,-6.2441,2.059,58.9261,1.8885,4.0701,1.6171
1439621.0,-5.861,2.1069,58.3323,2.1604,3.7439,1.4979
1439631.0,-6.3877,2.7581,57.5566,2.1279,3.4667,1.3399
1439641.0,-7.0485,4.0797,57.298,1.8028,3.1528,1.2292
1439651.0,-7.8817,4.865,57.6811,1.1797,2.6925,1.1893
1439661.0,-8.3031,5.4875,59.041,0.6864,2.2349,1.2313
1439671.0,-8.3318,5.5258,60.5829,0.339,1.7948,1.2696
1439681.0,-8.6,4.7788,62.345,0.0713,1.0653,1.2973
1439691.0,-8.2361,3.9169,63.4368,-0.0777,0.3847,1.2616
1439701.0,-8.4946,3.8786,63.6953,-0.2501,-0.3837,1.2111
1439711.0,-8.2073,3.553,63.5996,-0.3315,-1.1914,1.2036
1439721.0,-8.1977,3.5051,62.9005,-0.4949,-2.0412,1.1419
1439731.0,-7.6614,3.3998,61.7417,-0.7285,-2.9016,1.0946
1439741.0,-7.0773,3.5721,59.0506,-0.8019,-3.546,1.0669
1439751.0,-6.3877,4.616,55.9381,-1.1206,-3.9903,1.0903
1439761.0,-6.11,5.7269,53.4194,-1.9167,-4.3793,1.2393
1439771.0,-5.2481,5.4109,51.8393,-2.7361,-4.7097,1.4404
1439781.0,-4.4819,3.5147,52.4043,-3.5827,-5.1556,1.6405
1439791.0,-3.5338,0.0958,52.4043,-4.084,-5.7058,1.6783
1439801.0,-2.2314,-2.2218,52.2798,-4.1984,-6.2656,1.5516
1439811.0,-1.2641,-3.9744,51.2359,-4.1319,-6.7365,1.359
1439821.0,-0.5267,-4.6064,49.6845,-3.7716,-7.166,1.1185
1439831.0,0.1437,-5.1332,46.4571,-3.2853,-7.333,0.8838
1439841.0,1.1875,-5.2194,42.9616,-2.8473,-7.2889,0.647
1439851.0,1.9632,-5.5067,40.3088,-2.742,-7.1814,0.3693
1439861.0,3.1603,-5.3439,37.4549,-2.9383,-6.9765,0.0718
1439871.0,3.2848,-4.9129,36.0279,-3.422,-6.918,-0.2208
1439881.0,4.1563,-4.7788,35.1565,-3.82,-6.7828,-0.5055
1439891.0,4.8363,-4.8171,34.5435,-3.8472,-6.6014,-0.763
1439901.0,5.6886,-4.6831,33.7295,-3.6226,-6.3369,-1.0211
1439911.0,6.292,-3.8595,32.3983,-3.3268,-5.9969,-1.2004
1439921.0,6.5122,-3.6009,31.4023,-3.0054,-5.5962,-1.3324
1439931.0,7.1156,-3.0454,30.4064,-2.56,-5.0572,-1.4378
1439941.0,7.288,-2.8539,30.0424,-2.196,-4.6459,-1.5357
1439951.0,8.0158,-2.7677,29.3816,-1.7389,-4.2058,-1.5559
1439961.0,8.1977,-2.9113,28.5676,-1.5011,-3.7769,-1.6788
1439971.0,8.7628,-3.0837,27.5333,-1.383,-3.355,-1.7969
1439981.0,9.414,-2.5379,26.7384,-1.3973,-2.8798,-1.956
1439991.0,9.7971,-2.1165,25.9244,-1.5719,-2.4498,-2.1034
1440001.0,9.8354,-1.1396,25.6563,-1.872,-1.9837,-2.2402
1440011.0,9.4427,-0.4022,26.8629,-2.1465,-1.5447,-2.2764
1440021.0,9.73,0.2777,28.5772,-1.9576,-1.2068,-2.2418
1440031.0,9.4906,0.7757,29.8701,-1.5979,-0.9615,-2.1311
1440041.0,9.3278,1.0534,29.3338,-1.2148,-0.8062,-2.0034
1440051.0,9.7205,0.8045,28.4623,-0.9972,-0.6439,-1.8869
1440061.0,10.094,0.498,28.2995,-0.8125,-0.3288,-1.8241
1440071.0,10.2568,0.9194,28.0696,-0.5028,-0.1,-1.8039
1440081.0,10.161,1.2067,26.8534,-0.1777,0.2506,-1.7272
1440091.0,9.8545,1.5131,25.4073,-0.0532,0.7588,-1.6309
1440101.0,9.7683,1.5036,25.3402,-0.1399,1.1451,-1.5453
1440111.0,9.9503,1.2163,25.4456,-0.2139,1.6442,-1.4782
1440121.0,10.0078,1.0534,26.5852,-0.2506,2.1077,-1.4266
1440131.0,9.7205,0.431,28.1941,-0.0239,2.4775,-1.3766
1440141.0,10.094,0.3735,28.8741,0.3709,2.9841,-1.3627
1440151.0,9.6917,0.6321,29.7839,0.8093,3.5029,-1.3585
1440161.0,8.916,1.312,31.1917,1.11,3.7865,-1.3462
1440171.0,8.418,1.8579,31.5939,1.3351,4.076,-1.3031
1440181.0,7.9392,2.5187,32.7718,1.4394,4.2941,-1.218
1440191.0,6.9623,2.8635,34.3424,1.1999,4.0345,-1.0786
1440201.0,6.5505,2.4325,34.1796,0.986,3.7296,-0.9876
1440211.0,6.8666,1.2258,32.4558,0.8721,3.8333,-0.9653
1440221.0,7.173,0.431,32.0727,0.8764,4.3357,-1.0238
1440231.0,6.6846,0.4022,32.4271,0.8652,4.9119,-1.1148
1440241.0,5.114,1.1492,34.9266,0.9546,5.328,-1.177
1440251.0,4.2904,1.9249,38.0295,1.1169,5.444,-1.1589
1440261.0,3.2944,2.5953,39.9449,1.3952,5.2488,-1.0467
1440271.0,2.2122,2.1261,40.3279,1.4638,4.8034,-0.9291
1440281.0,2.2697,1.2163,38.0295,1.5591,4.7284,-0.9216
1440291.0,2.9592,0.5842,36.2291,1.723,5.336,-1.0094
1440301.0,2.4421,0.7661,36.6121,1.7161,5.9884,-1.1584
1440311.0,1.7047,1.5419,37.7326,1.5905,6.5317,-1.2851
1440321.0,0.6033,2.3367,41.142,1.475,6.9973,-1.3782
1440331.0,-0.0862,3.0742,45.1642,1.2164,6.9451,-1.3915
1440341.0,-1.1396,3.7062,49.1003,1.1121,6.5232,-1.3276
1440351.0,-2.0016,3.6105,51.1401,1.0068,5.7117,-1.2084
1440361.0,-1.3695,3.0837,50.5847,1.1201,5.1844,-1.1802
1440371.0,-1.6185,2.9305,49.7036,1.1978,4.9635,-1.2137
1440381.0,-2.0303,3.3327,49.0524,1.2765,4.8938,-1.2531
1440391.0,-2.6624,3.8116,48.9471,1.293,5.0854,-1.2733
1440401.0,-3.4668,4.0701,50.7954,1.2563,5.0795,-1.2531
1440411.0,-3.9073,4.549,53.0364,1.2074,4.8779,-1.2185
1440421.0,-4.8171,4.5969,54.5495,1.3111,4.5826,-1.1494
1440431.0,-5.2672,4.7884,55.3444,1.2813,4.1569,-1.0839
1440441.0,-5.2672,4.1276,55.7083,1.3558,3.8653,-1.0413
1440451.0,-5.612,4.2425,56.0722,1.3766,3.5231,-1.0568
1440461.0,-5.7748,4.1084,56.2254,1.2297,3.1911,-1.093
1440471.0,-6.2632,4.3766,57.1544,1.0962,2.9852,-1.1414
1440481.0,-6.7133,4.9416,58.4185,0.7998,2.4839,-1.176
1440491.0,-6.6942,4.8554,59.4911,0.5071,1.9646,-1.1696
1440501.0,-7.0294,5.2002,60.717,0.2341,1.2739,-1.1467
1440511.0,-6.5984,4.6735,61.3011,-0.0846,0.4166,-1.1371
1440521.0,-0.9098,1.3408,60.3435,-0.3565,-0.3262,-1.3915
1440531.0,-8.2361,2.7007,57.2789,-0.7774,-0.655,-1.5522
1440541.0,-8.1499,3.4381,58.6388,-0.7902,-1.1302,-1.6889
1440551.0,-6.4165,3.8116,60.4967,-1.3808,-1.9763,-1.7512
1440561.0,-5.928,5.114,58.5813,-0.8184,-2.511,-1.8209
1440571.0,-6.7133,6.3398,57.9684,-0.8668,-2.8841,-1.7874
1440581.0,-6.3973,7.5657,56.6947,-0.7253,-3.5194,-1.6405
1440591.0,-6.0813,7.9679,54.5303,-0.7572,-4.0648,-1.4665
1440601.0,-5.7365,8.5042,51.7626,-1.1105,-4.607,-1.2446
1440611.0,-4.5011,7.8626,50.2495,-1.6134,-5.0907,-1.0717
1440621.0,-3.6679,7.4891,47.5297,-1.9523,-5.4297,-0.9408
1440631.0,-2.7773,6.359,46.3613,-2.2381,-5.7426,-0.8285
1440641.0,-1.6759,5.2672,45.0876,-2.2482,-5.8873,-0.8051
1440651.0,-1.312,4.8267,43.8618,-1.8927,-5.8644,-0.7577
1440661.0,-0.7566,4.2234,42.4253,-1.6778,-5.916,-0.713
1440671.0,-0.8236,3.3423,41.7166,-1.4495,-6.0427,-0.7327
1440681.0,-0.3639,3.0837,38.9393,-1.1898,-6.1044,-0.7928
1440691.0,0.0862,2.6911,36.9952,-0.9589,-5.8825,-0.8062
1440701.0,1.1588,2.7198,34.17,-0.6455,-5.385,-0.8689
1440711.0,1.9537,3.1795,33.4135,-0.4119,-4.7539,-0.9376
1440721.0,2.4038,3.6775,33.1932,-0.6337,-4.325,-0.9631
1440731.0,2.7294,4.0127,33.854,-0.8594,-4.002,-0.9791
1440741.0,2.9113,4.8267,34.5818,-1.177,-3.7636,-0.9413
1440751.0,3.4477,5.0949,35.7406,-1.4112,-3.6061,-0.8578
1440761.0,3.7062,4.9416,37.225,-1.4218,-3.521,-0.762
1440771.0,3.9169,5.4109,37.6464,-1.2164,-3.4763,-0.6226
1440781.0,4.2808,5.5929,37.972,-0.7897,-3.4178,-0.4401
1440791.0,4.6256,6.0142,36.7462,-0.3852,-3.3544,-0.2251
1440801.0,5.114,5.7174,35.9513,-0.1426,-3.2267,0.0181
1440811.0,5.6024,5.2385,34.5914,-0.1703,-3.1091,0.1857
1440821.0,6.2345,4.5203,33.5092,-0.4448,-3.0937,0.3054
1440831.0,7.039,3.9935,32.3888,-0.8328,-3.0171,0.3608
1440841.0,7.5944,3.5817,32.0823,-1.1653,-2.8777,0.3773
1440851.0,7.5753,3.4093,31.7758,-1.3702,-2.7925,0.4055
1440861.0,7.9487,3.2753,30.6745,-1.4442,-2.5823,0.4613
1440871.0,8.1977,3.055,30.0041,-1.3665,-2.2865,0.5422
1440881.0,8.2552,2.6624,29.985,-1.317,-2.0279,0.6343
1440891.0,8.6862,1.9154,29.3433,-1.2994,-1.8081,0.6779
1440901.0,9.347,0.6033,28.0313,-1.3351,-1.5431,0.6556
1440911.0,9.6726,-0.2011,26.8917,-1.4606,-1.3377,0.5438
1440921.0,10.1035,-0.3639,25.7425,-1.5144,-0.8987,0.3975
1440931.0,10.1418,-0.2298,26.4224,-1.3489,-0.249,0.2692
1440941.0,9.5577,0.996,26.0393,-0.9802,0.3517,0.2565
1440951.0,9.2512,2.0111,26.1734,-0.6412,0.9961,0.3182
1440961.0,8.8011,2.557,26.6618,-0.3874,1.5431,0.5018
1440971.0,9.0692,2.0494,26.8055,-0.2703,1.9949,0.671
1440981.0,9.414,1.0726,27.2843,-0.2171,2.4711,0.7769
1440991.0,9.5768,0.1437,28.5772,-0.0745,3.0501,0.7849
1441001.0,9.4044,-0.3448,30.6171,0.0537,3.4949,0.737
1441011.0,9.1937,-0.3352,32.111,0.1777,3.8046,0.7066
1441021.0,8.4659,0.0479,33.787,0.299,3.9818,0.655
1441031.0,8.3606,0.6416,35.4916,0.3975,4.0637,0.6699
1441041.0,7.9009,1.2258,37.6943,0.4906,3.8935,0.7359
1441051.0,7.039,0.929,38.0103,0.3805,3.4593,0.8296
1441061.0,6.7995,-0.0862,36.842,0.2219,3.0245,0.8679
1441071.0,6.6176,-0.8811,35.2426,0.3352,3.0948,0.7673
1441081.0,6.8761,-0.498,33.7582,0.5922,3.5981,0.6465
1441091.0,6.0238,-0.4788,34.352,0.7386,4.0526,0.5438
1441101.0,5.2289,0.2586,35.0128,1.3207,4.4644,0.4842
1441112.0,4.3287,1.5036,36.6887,1.7698,4.773,0.5087
1441121.0,3.5051,2.0399,37.4262,1.9177,4.5682,0.5789
1441131.0,2.0782,1.5323,36.7749,1.9858,4.2255,0.6173
1441141.0,1.4653,0.5938,33.9306,2.0896,4.3484,0.5444
1441151.0,1.5323,0.0,31.3736,2.1125,4.9087,0.373
1441161.0,1.0439,0.4022,30.866,2.1641,5.8889,0.1362
1441171.0,-0.5938,1.7813,33.1645,2.0518,6.7791,-0.0128
1441181.0,-1.6951,3.237,37.3591,1.8895,7.1175,-0.0367
1441191.0,-2.4708,4.4532,41.2856,1.6134,6.985,0.0553
1441201.0,-3.0933,4.9512,45.0493,1.3037,6.5721,0.2464
1441211.0,-4.3287,3.6296,46.3134,1.2015,5.7803,0.4129
1441221.0,-3.2753,1.4557,45.6526,1.4681,5.676,0.4145
1441231.0,-3.0167,0.2586,45.4611,1.9262,5.932,0.2698
1441241.0,-3.869,0.0766,46.7061,2.2876,6.3305,0.0122
1441251.0,-5.1715,1.3982,49.1386,2.5366,6.5077,-0.2027
1441261.0,-5.8227,2.9305,52.2702,2.536,6.1965,-0.3235
1441271.0,-6.6367,4.0893,54.0036,2.5919,5.8075,-0.3352
1441281.0,-7.0773,4.3958,55.1145,2.4163,5.3206,-0.3363
1441291.0,-6.7325,4.1563,55.1433,2.3264,4.979,-0.3517
1441301.0,-7.5657,4.1084,56.4265,2.1018,4.5214,-0.4544
1441311.0,-7.9775,3.802,56.551,1.8645,4.0776,-0.6146
1441321.0,-8.102,4.0031,57.3459,1.5325,3.6306,-0.795
1441331.0,-8.3606,4.6448,57.7577,1.1605,3.214,-0.9812
1441341.0,-8.849,5.6216,58.1983,0.7615,2.7069,-1.118
1441351.0,-9.5577,6.426,59.1655,0.5981,2.3088,-1.1919
1441361.0,-10.4196,7.5082,59.7114,0.5694,1.9486,-1.1988
1441371.0,-10.8984,9.0597,60.8127,0.4864,1.4293,-1.1318
1441381.0,-10.908,9.7875,61.349,0.3821,0.895,-1.0089
1441391.0,-10.8409,10.0748,61.6172,0.332,0.4246,-0.8264
1441401.0,-10.6973,10.3238,61.3586,0.1788,-0.0905,-0.6768
1441411.0,-10.5728,10.3621,62.1056,-0.1006,-0.7178,-0.5071
1441421.0,-10.4674,10.0652,62.4599,-0.3395,-1.409,-0.3741
1441431.0,-10.4962,9.7683,61.8949,-0.5667,-2.0641,-0.2927
1441441.0,-10.3046,9.2225,61.5406,-0.7684,-2.7585,-0.2192
1441451.0,-10.1706,9.0788,60.6786,-0.97,-3.48,-0.1889
1441461.0,-9.7013,9.2416,58.974,-1.2393,-4.0435,-0.1538
1441471.0,-9.5098,9.6726,57.3938,-1.5458,-4.5512,-0.1096
1441481.0,-9.596,9.8545,56.7905,-1.8092,-5.1205,-0.0064
1441491.0,-9.5385,9.7013,55.4593,-1.8273,-5.6005,0.1485
1441501.0,-8.9639,9.0788,53.6972,-1.6325,-5.9783,0.2975
1441511.0,-8.2265,8.3318,51.4083,-1.2898,-6.1518,0.4406
1441521.0,-7.3454,7.4891,49.2727,-1.1164,-6.3055,0.5263
1441531.0,-6.2058,7.4795,46.4762,-1.2771,-6.4002,0.5161
1441541.0,-5.0374,7.5561,44.9344,-1.6506,-6.4529,0.5188
1441551.0,-4.6831,7.4891,44.4077,-2.0827,-6.6253,0.5816
1441561.0,-4.2904,7.4891,44.2736,-2.3642,-6.9042,0.6534
1441571.0,-3.553,7.0677,43.7947,-2.5009,-7.2633,0.7455
1441581.0,-2.7102,6.1579,41.9081,-2.527,-7.5459,0.7939
1441591.0,-1.5802,5.3056,39.648,-2.4302,-7.5917,0.829
1441601.0,-0.5746,4.9799,37.0144,-2.477,-7.6071,0.7966
1441611.0,0.4405,4.3862,35.5491,-2.419,-7.4666,0.7529
1441621.0,1.4748,4.3287,34.4669,-2.3072,-7.2405,0.7226
1441631.0,2.5474,3.984,33.2603,-2.279,-7.1245,0.6822
1441641.0,3.2178,4.0318,32.1302,-2.4376,-7.0665,0.6412
1441651.0,3.6583,4.1276,31.2491,-2.6207,-7.1872,0.6098
1441661.0,4.7501,3.5338,29.1614,-2.776,-7.1367,0.5518
1441671.0,5.8802,3.735,27.1886,-2.7186,-6.8004,0.473
1441681.0,6.6655,3.1987,25.5318,-2.5462,-6.3407,0.3932
1441691.0,7.9104,3.5721,24.0378,-2.2104,-5.5723,0.3581
1441701.0,8.6479,3.4668,23.444,-1.7352,-4.681,0.3964
1441711.0,9.3182,3.5051,23.5494,-1.3883,-4.0334,0.4326
1441721.0,9.7396,3.6009,23.626,-1.1962,-3.4406,0.4986
1441731.0,9.8928,3.553,23.9133,-1.2494,-3.1043,0.6029
1441741.0,10.477,3.3232,23.6451,-1.2414,-2.8468,0.6955
1441751.0,10.8409,3.1029,22.4863,-1.3968,-2.5563,0.7795
1441761.0,11.6167,2.624,21.2797,-1.5809,-2.1386,0.8721
1441771.0,12.1051,2.0111,21.4904,-1.4862,-1.5915,0.8971
1441781.0,11.789,2.3176,21.3371,-1.177,-0.9796,0.9716
1441791.0,12.038,1.9249,21.8638,-0.6917,-0.3459,1.1201
1441801.0,12.3828,0.9673,21.5957,-0.2128,0.2863,1.2409
1441811.0,12.6318,0.3256,20.9732,0.1266,0.8636,1.2946
1441821.0,12.651,-0.2298,20.9541,0.2698,1.5298,1.2728
1441831.0,12.4882,-0.7183,20.7721,0.307,2.2083,1.2201
1441841.0,12.2487,-0.8236,21.4712,0.4193,2.9144,1.1653
1441851.0,12.1721,-0.431,22.1799,0.4874,3.7232,1.1387
1441861.0,11.1474,-0.5938,24.8039,0.6194,4.4123,1.1132
1441871.0,10.2376,0.0383,27.2939,0.7881,4.8965,1.1584
1441881.0,9.9503,-0.1053,29.7168,1.0323,5.2637,1.2153
1441891.0,9.6534,-0.7566,32.111,1.1291,5.3169,1.2691
1441901.0,8.8585,-1.9441,32.8868,1.1999,5.2754,1.2547
1441911.0,9.0309,-3.6679,33.3752,1.3234,5.3115,1.0706
1441921.0,9.3374,-4.3287,32.8484,1.4133,5.5707,0.7503
1441931.0,8.849,-4.0318,34.0455,1.6102,6.1805,0.3762
1441941.0,7.5369,-2.1931,35.7694,1.6639,6.5349,0.0979
1441951.0,6.6272,0.1532,38.652,1.8704,6.6769,0.0021
1441961.0,4.3191,2.2601,41.027,1.715,6.4646,0.0862
1441971.0,2.8443,2.4612,42.3582,1.4915,5.924,0.3065
1441981.0,2.3176,0.5842,41.6974,1.4346,5.4137,0.4092
1441991.0,3.3423,-1.6089,39.964,1.5373,5.6202,0.2794
1442001.0,2.806,-1.9154,39.7725,1.8278,6.28,-0.0176
1442011.0,1.494,-1.1779,41.8219,2.1923,6.7307,-0.3443
1442021.0,0.4788,1.1109,44.2736,2.6717,7.0563,-0.58
1442031.0,-1.1588,4.3862,45.8442,3.1352,7.0494,-0.6119
1442041.0,-1.7621,7.1922,47.319,3.1911,6.7765,-0.4784
1442051.0,-2.9018,9.2703,46.6774,2.8681,6.346,-0.2097
1442061.0,-3.4668,9.7013,46.5529,2.1316,5.6878,0.0761
1442071.0,-3.8882,9.2512,44.3789,1.3776,5.3163,0.3028
1442081.0,-4.6639,7.5848,44.5609,0.8551,5.5302,0.4688
1442091.0,-4.4532,5.6216,47.7787,0.5811,5.6303,0.5055
1442101.0,-3.9552,3.9648,50.805,0.5364,5.3642,0.4156
1442111.0,-4.1563,3.3998,52.9597,0.5172,4.8683,0.2927
1442121.0,-4.6735,3.2465,54.2335,0.5167,4.2356,0.1713
1442131.0,-4.8267,2.806,53.994,0.5332,3.6136,0.0639
1442141.0,-5.0278,2.4804,52.7012,0.5257,3.1953,-0.0601
1442151.0,-5.0278,2.5762,51.2838,0.3964,2.9421,-0.2405
1442161.0,-5.4779,2.8922,49.6557,0.0873,2.7877,-0.4369
1442171.0,-5.9951,3.4093,49.3301,-0.249,2.7409,-0.5438
1442181.0,-6.3303,3.4381,49.5791,-0.3741,2.7893,-0.6497
1442191.0,-6.4835,3.7541,50.3836,-0.5768,2.7702,-0.721
1442201.0,-6.9145,3.62,51.9925,-0.6492,2.6473,-0.7748
1442211.0,-6.8378,3.6583,53.1321,-0.6348,2.5137,-0.8471
1442221.0,-7.4412,3.735,54.3867,-0.5789,2.2514,-0.8812
1442231.0,-7.8051,4.2042,54.6644,-0.7114,1.8869,-0.8971
1442241.0,-7.2496,4.2713,54.9421,-0.8716,1.5181,-0.8865
1442251.0,-6.177,3.055,54.5974,-1.1967,1.1073,-0.9551
1442261.0,-9.0597,2.6432,55.737,-1.6027,1.0397,-0.9424
1442271.0,-8.5042,2.308,57.6045,-1.79,0.3187,-0.9621
1442281.0,-6.4643,0.4022,59.1942,-2.4163,-0.7178,-1.027
1442291.0,-6.6463,-0.3639,56.4649,-2.6308,-1.3548,-1.1882
1442301.0,-6.8761,-1.1875,55.7179,-3.2523,-1.8938,-1.4128
1442311.0,-6.292,-1.7813,54.3963,-3.994,-2.3748,-1.6527
1442321.0,-6.4739,-2.059,55.0571,-4.3293,-2.8308,-1.9066
1442331.0,-6.7038,-1.7717,54.425,-4.4293,-3.2555,-2.0705
1442341.0,-6.4643,-1.9537,53.9366,-4.1542,-3.5561,-2.1849
1442351.0,-6.3973,-2.4325,52.9693,-3.5678,-3.7658,-2.2551
1442361.0,-5.4013,-2.8635,51.2455,-2.7782,-3.8717,-2.3535
1442371.0,-4.9321,-3.4189,48.7843,-2.2913,-3.9201,-2.5472
1442381.0,-4.5011,-3.5434,46.7635,-2.1114,-3.9472,-2.8223
1442391.0,-3.6966,-2.8539,44.5226,-2.0779,-3.861,-3.1395
1442401.0,-3.7828,-1.5131,43.9001,-2.2817,-3.7721,-3.4593
1442411.0,-3.6009,0.2777,44.0725,-2.511,-3.7881,-3.6897
1442421.0,-3.869,1.7909,44.7716,-2.7393,-3.8913,-3.8286
1442431.0,-3.6775,3.4668,44.762,-2.8612,-4.0632,-3.8828
1442441.0,-4.1659,4.9033,44.8003,-2.8692,-4.1287,-3.8568
1442451.0,-4.3574,6.292,44.6567,-2.6121,-4.1292,-3.7019
1442461.0,-4.6639,7.7285,45.1451,-2.2035,-4.1617,-3.4449
1442471.0,-4.4149,8.8394,45.0397,-1.5735,-4.0834,-3.1065
1442481.0,-3.8786,10.0173,44.6567,-0.8498,-3.9605,-2.6723
1442491.0,-3.3136,11.1474,43.4404,-0.3964,-3.8695,-2.1598
1442501.0,-2.557,11.8752,42.3582,-0.4331,-3.9749,-1.6346
1442511.0,-2.308,11.5496,41.0653,-0.9104,-4.0696,-1.1408
1442521.0,-1.9824,10.5919,41.3431,-1.4303,-4.1611,-0.6923
1442531.0,-1.4844,8.8873,42.5689,-1.8454,-4.3857,-0.3076
1442541.0,-0.4214,7.106,43.5649,-1.8773,-4.7182,-0.025
1442551.0,-0.1149,6.0908,43.0573,-1.7054,-5.0013,0.1878
1442561.0,0.4501,5.3247,42.0805,-1.3516,-5.2381,0.39
1442571.0,1.5036,4.798,40.711,-0.9519,-5.4345,0.6268
1442581.0,2.0973,4.5298,37.9337,-0.8221,-5.6409,0.8535
1442591.0,3.0358,3.7158,36.0088,-0.9099,-5.7734,1.0334
1442601.0,4.0223,3.0742,33.2507,-1.1792,-6.0304,1.1573
1442611.0,5.1236,1.9824,30.5692,-1.375,-5.9666,1.2047
1442621.0,6.0717,1.3024,28.3282,-1.5484,-5.7351,1.1877
1442631.0,7.3167,1.0534,26.5373,-1.7294,-5.4291,1.1563
1442641.0,7.5944,1.4748,25.3785,-1.7299,-5.104,1.1669
1442651.0,7.6423,2.2218,24.4496,-1.6719,-4.8172,1.2483
1442661.0,7.8243,2.806,23.8462,-1.5197,-4.516,1.4835
1442671.0,7.9104,2.4229,22.7449,-1.2824,-4.3096,1.782
1442681.0,8.8873,1.1779,20.4178,-0.9908,-4.0286,1.988
1442691.0,9.6822,-0.1532,17.7746,-0.8072,-3.4337,2.1189
1442701.0,10.8888,-1.5993,16.1848,-0.5209,-2.808,2.072
1442711.0,12.038,-1.8675,14.0396,-0.4358,-1.9459,1.9784
1442721.0,12.3158,-2.2505,13.5703,-0.2671,-1.0977,1.8539
1442731.0,12.3541,-1.992,12.9957,-0.1666,-0.2352,1.7602
1442741.0,11.9327,-2.3559,13.5608,0.0192,0.5156,1.6958
1442751.0,11.7029,-2.2793,12.6127,0.3517,1.4202,1.6565
1442761.0,11.3294,-2.6719,11.9231,0.4448,2.3918,1.5527
1442771.0,11.971,-3.3615,10.9559,0.5396,3.7179,1.3574
1442781.0,11.2719,-3.735,11.8848,0.5688,5.1673,1.0802
1442791.0,9.7971,-3.6009,15.8783,0.7471,6.4641,0.7822
1442801.0,8.3222,-2.2889,20.7242,1.1802,7.2788,0.5199
1442811.0,6.6176,-1.4269,24.6315,1.7863,7.9641,0.3512
1442821.0,4.549,0.5842,26.8725,2.0917,8.5314,0.2155
1442831.0,2.7964,2.4038,29.8796,2.3865,8.8544,0.2299
1442841.0,1.8579,4.0893,31.5843,2.5584,9.387,0.3672
1442851.0,0.7087,5.6982,33.2411,2.7026,10.016,0.5108
1442861.0,-1.063,7.5178,36.5164,2.6441,10.5433,0.7625
1442871.0,-2.8443,9.912,40.9313,2.6137,10.828,1.1408
1442881.0,-4.7214,11.8369,46.9742,2.5329,10.6151,1.7091
1442891.0,-6.1866,12.2487,52.117,2.427,9.8755,2.4467
1442901.0,-7.0198,10.0652,55.4401,2.3865,8.6963,3.1341
1442911.0,-7.0485,6.7421,54.7985,2.344,7.7002,3.5508
1442921.0,-6.3015,4.4915,52.2319,2.5116,7.4325,3.6764
1442931.0,-6.8091,3.9552,52.2127,2.3519,7.4304,3.6673
1442941.0,-8.3989,5.4109,52.117,2.1678,7.4155,3.7785
1442951.0,-9.3661,6.2824,54.2909,2.2109,7.3815,4.0951
1442961.0,-9.3087,6.2345,56.9437,2.0215,7.1213,4.5192
1442971.0,-10.0078,3.5243,59.6539,1.5282,5.9799,4.9024
1442981.0,-9.2033,-1.8004,59.7976,1.3526,4.8428,4.929
1442991.0,-7.4603,-6.0717,57.2885,1.2616,4.3756,4.5639
1443001.0,-6.4835,-8.6095,57.0203,1.4021,4.1611,3.8743
1443011.0,-6.8666,-7.9871,56.2829,1.4654,3.8344,3.0719
1443021.0,-8.0062,-4.7501,55.7945,1.3824,3.4837,2.4961
1443031.0,-8.7915,-1.3503,54.7698,1.1898,3.264,2.2019
1443041.0,-9.7971,1.3695,54.425,0.9599,2.9224,2.146
1443051.0,-10.7548,2.6911,54.6357,0.7093,2.717,2.245
1443061.0,-11.0708,2.3367,54.8655,0.589,2.6196,2.4004
1443071.0,-10.4387,1.2163,55.5359,0.4177,2.3849,2.4546
1443081.0,-10.3238,0.2682,56.666,0.0176,2.0513,2.3434
1443091.0,-10.7356,-0.4693,58.6388,-0.1181,1.4761,2.2349
1443101.0,-10.228,-1.245,60.2764,-0.0027,0.9434,2.1231
1443111.0,-9.8258,-2.0494,60.219,0.1548,0.2437,1.9316
1443121.0,-9.4906,-2.4038,58.0929,0.0346,-0.3767,1.6554
1443131.0,-9.73,-1.3791,55.8328,-0.307,-0.7992,1.3888
1443141.0,-9.7013,-0.2107,54.5399,-0.9083,-1.061,1.2095
1443151.0,-9.5577,-0.2203,54.6931,-1.5463,-1.2882,1.1073
1443161.0,-8.9543,-0.9481,55.9669,-2.0944,-1.7283,1.0057
1443171.0,-8.7053,-2.2793,57.8343,-2.4105,-2.2897,0.8338
1443181.0,-8.1403,-2.624,58.8207,-2.3716,-2.9873,0.6018
1443191.0,-7.853,-2.1835,57.7194,-2.2663,-3.7716,0.4321
1443201.0,-7.6231,-1.561,56.0052,-2.2003,-4.4277,0.2937
1443211.0,-7.1156,-0.8715,52.3564,-2.2274,-4.7294,0.2565
1443221.0,-6.6272,-1.0343,50.0867,-2.4498,-4.9976,0.215
1443231.0,-6.1675,-1.312,48.8034,-2.7803,-5.2381,0.1729
1443241.0,-5.928,-1.8579,48.2001,-2.8186,-5.4377,0.1224
1443251.0,-5.1715,-2.806,47.07,-2.7808,-5.5414,0.091
1443261.0,-4.4724,-3.9169,46.2847,-2.6403,-5.5962,-0.0277
1443271.0,-3.6105,-4.3574,45.1259,-2.6372,-5.8761,-0.19
1443281.0,-2.6528,-4.5873,43.5649,-2.6936,-5.9708,-0.3666
1443291.0,-2.4229,-4.5203,42.3295,-2.7484,-5.9198,-0.5183
1443301.0,-1.8387,-4.7597,41.5059,-2.7516,-6.0171,-0.663
1443311.0,-0.8523,-4.5969,40.6535,-2.5956,-5.9921,-0.7955
1443321.0,-0.3831,-4.3479,39.3607,-2.4578,-5.8878,-0.8796
1443331.0,0.4022,-4.0127,38.0199,-2.3136,-5.7814,-0.895
1443341.0,1.1205,-4.2521,37.3783,-2.1439,-5.5611,-0.8796
1443351.0,1.6376,-4.2521,36.1524,-1.9108,-5.4797,-0.912
1443361.0,2.4325,-4.4532,35.4438,-1.8645,-5.4174,-0.9216
1443371.0,2.8252,-3.8307,33.7199,-1.8672,-5.3546,-0.9418
1443381.0,3.2465,-4.0318,32.9346,-1.889,-5.3073,-0.8977
1443391.0,4.0893,-4.5681,31.4215,-1.707,-5.1487,-0.8769
1443401.0,4.9991,-5.1715,28.9698,-1.5729,-4.7826,-0.8913
1443411.0,5.6216,-6.0908,27.7727,-1.6527,-4.4607,-0.9855
1443421.0,6.6367,-6.5505,27.2843,-1.6144,-4.1483,-1.127
1443431.0,7.0198,-6.5122,26.6331,-1.6783,-3.7487,-1.3069
1443441.0,7.2592,-6.426,26.8725,-1.5155,-3.4114,-1.442
1443451.0,7.1443,-6.359,26.9779,-1.2489,-3.2374,-1.5618
1443461.0,8.0541,-5.7748,24.44,-0.853,-2.8952,-1.648
1443471.0,8.4851,-5.6216,22.6683,-0.7513,-2.3684,-1.7331
1443481.0,9.3374,-5.6312,20.5039,-0.7615,-1.6942,-1.8496
1443491.0,10.2951,-5.5258,19.9006,-0.6641,-0.7348,-1.9944
1443501.0,10.1993,-5.4013,21.0019,-0.4895,0.1809,-2.1657
1443511.0,9.3948,-4.1276,21.883,-0.1655,0.8594,-2.2801
1443521.0,8.1211,-3.7254,23.2716,0.4587,1.5277,-2.2615
1443531.0,8.0732,-3.371,23.0131,0.9222,2.1157,-2.2343
1443541.0,8.2361,-3.4955,22.5438,1.2249,2.7936,-2.2987
1443551.0,7.355,-3.3423,22.946,1.3409,3.5332,-2.428
1443561.0,7.0868,-2.49,23.9324,1.2505,4.2564,-2.5643
1443571.0,6.4165,-1.6855,25.6371,1.1408,4.8593,-2.6888
1443581.0,5.2672,-0.9673,28.0122,1.0291,5.3413,-2.7744
1443591.0,4.3958,0.3926,30.8373,1.1967,5.6298,-2.8085
1443601.0,3.3902,2.0111,33.1645,1.4234,5.8665,-2.6946
1443611.0,1.6089,2.806,35.9609,1.9231,5.8208,-2.4818
1443621.0,0.431,3.304,37.4645,1.947,5.4887,-2.1998
1443631.0,-0.0479,2.7102,36.1524,1.8794,5.021,-1.9789
1443641.0,0.7566,1.6664,35.1565,1.93,5.1024,-1.9342
1443651.0,-0.0958,1.7909,34.3616,1.9736,5.4749,-1.9193
1443661.0,-0.7566,2.375,35.0894,1.9497,5.7553,-1.9566
1443671.0,-1.7717,3.6009,36.8324,1.7762,5.9293,-1.8778
1443681.0,-3.6871,5.0087,39.3607,1.7618,5.5164,-1.6559
1443691.0,-5.4013,4.2234,40.0502,1.798,5.045,-1.3234
1443701.0,-5.2481,1.6472,37.6656,2.2349,4.922,-1.1451
1443711.0,-4.3191,-0.4501,34.7925,2.601,5.3126,-1.2946
1443721.0,-3.7828,-0.7949,33.1741,2.8505,6.2944,-1.6927
1443731.0,-5.3726,1.1205,34.1892,2.6925,7.2649,-2.0337
1443741.0,-6.4548,3.6105,38.8148,2.411,7.556,-2.2051
1443751.0,-7.7093,6.608,41.6112,2.0327,7.5869,-2.1976
1443761.0,-8.2361,8.6862,45.2504,1.5346,7.3639,-1.8587
1443771.0,-9.8258,7.2975,48.7364,1.1696,6.8307,-1.4186
1443781.0,-10.0173,5.1236,49.5504,1.3324,6.371,-1.0908
1443791.0,-8.2935,2.0686,50.69,1.4617,6.1087,-1.0062
1443801.0,-8.2265,0.8332,51.054,1.8571,6.057,-1.1297
1443811.0,-9.1267,0.7661,52.5288,2.1513,6.0203,-1.3212
1443821.0,-9.4427,1.9441,53.6205,2.0678,5.6973,-1.4048
1443831.0,-9.8737,1.9441,55.6796,1.7102,5.087,-1.4149
1443841.0,-11.1091,1.2641,56.733,1.118,4.0919,-1.4154
1443851.0,-10.975,-0.249,56.3882,0.6412,3.2725,-1.5048
1443861.0,-10.7356,-1.6664,54.8847,0.605,3.2321,-1.6565
1443871.0,-11.0325,-3.1699,56.0052,0.7859,3.4151,-1.8358
1443881.0,-11.4539,-4.2713,57.6811,0.7242,3.165,-2.1056
1443891.0,-11.5784,-5.5641,59.5199,0.5028,2.8138,-2.4786
1443901.0,-11.3772,-6.7133,61.3969,0.0059,2.2008,-2.9676
1443911.0,-11.0804,-8.1594,63.8486,-0.1453,1.5064,-3.6088
1443921.0,-11.6071,-7.9583,65.3713,0.0154,0.7891,-4.2745
1443931.0,-12.967,-5.9089,65.2851,0.2975,-0.0415,-4.8619
1443941.0,-13.9151,-2.7198,64.4232,0.4395,-0.7492,-5.3211
1443951.0,-14.5855,0.4788,63.2835,0.3437,-1.4452,-5.5808
1443961.0,-14.9973,3.4189,61.9045,0.0458,-2.2216,-5.7074
1443971.0,-15.026,5.8227,60.8893,-0.4358,-2.9373,-5.7181
1443981.0,-14.6717,7.7764,59.5582,-0.9317,-3.5806,-5.6399
1443991.0,-14.8728,9.3087,58.8686,-1.4532,-4.2973,-5.5132
1444001.0,-14.6908,10.659,57.3746,-1.8065,-4.8518,-5.3089
1444011.0,-14.6812,11.722,56.5989,-2.1253,-5.2977,-4.9896
1444021.0,-14.2407,11.7603,56.2637,-2.1354,-5.758,-4.6741
1444031.0,-13.781,11.6741,55.919,-1.98,-6.1214,-4.3399
1444041.0,-12.9957,11.4539,55.6796,-1.4761,-6.5349,-4.0164
1444051.0,-10.8505,10.9559,53.6397,-0.9472,-6.992,-3.7088
1444061.0,-12.038,9.5577,52.7969,-0.6987,-7.2037,-3.5902
1444071.0,-11.8178,12.7467,46.2081,-0.2581,-7.6103,-3.3582
1444081.0,-9.6726,12.4211,46.3517,-1.0238,-7.3054,-3.0245
1444091.0,-9.3087,14.2216,43.0286,-1.524,-7.6805,-2.6616
1444101.0,-9.2799,13.7906,42.6168,-2.3945,-7.8534,-2.2072
1444111.0,-7.9871,13.6278,41.5921,-3.1506,-7.7837,-1.7171
1444121.0,-6.7516,11.4251,43.7181,-3.273,-8.1328,-1.2643
1444131.0,-5.2672,9.6534,43.2106,-3.2267,-8.3041,-0.953
1444141.0,-4.5298,7.9009,42.272,-2.7404,-8.575,-0.6992
1444151.0,-3.4572,6.5601,40.1268,-2.2077,-8.6798,-0.5114
1444161.0,-1.8196,5.928,36.2578,-1.806,-8.5894,-0.3709
1444171.0,-0.5555,4.8937,33.0017,-1.5836,-8.2685,-0.2969
1444181.0,0.3352,4.3862,30.4542,-1.4527,-7.8497,-0.1889
1444191.0,1.5514,3.5626,28.5963,-1.3893,-7.3926,-0.1644
1444201.0,2.1356,3.1508,26.7959,-1.3441,-6.7483,-0.1447
1444211.0,3.0933,2.5953,24.9859,-1.4367,-6.1427,-0.1729
1444221.0,4.7788,2.059,24.44,-1.5394,-5.4536,-0.2426
1444231.0,5.6982,2.3463,24.4113,-1.8113,-4.7603,-0.3326
1444241.0,6.2441,2.7964,25.934,-2.0289,-4.3229,-0.3959
1444251.0,6.9336,3.5626,27.179,-1.9821,-4.0004,-0.3698
1444261.0,6.9336,4.6831,26.3171,-1.8975,-3.7131,-0.2363
1444271.0,6.9432,4.4724,26.3841,-1.8549,-3.604,-0.0814
1444281.0,7.7381,4.9321,25.9531,-1.3409,-3.0964,0.1745
1444291.0,7.2975,4.9991,26.0681,-0.9887,-2.5121,0.4821
1444301.0,7.8243,3.4668,26.2596,-0.4028,-2.229,0.7354
1444311.0,8.6862,2.6432,25.3019,-0.0117,-1.6868,0.9158
1444321.0,8.9543,2.5474,24.3442,-0.0537,-1.4495,0.97
1444331.0,9.4427,2.3367,23.3961,-0.2506,-1.0988,1.0078
1444341.0,9.1267,2.6719,22.2948,-0.5997,-0.621,1.0605
1444351.0,9.1075,2.9784,22.4576,-0.8099,-0.0841,1.1563
1444361.0,8.8585,3.3998,22.5246,-0.8264,0.6396,1.3473
1444371.0,8.2456,3.0837,24.6124,-0.6018,1.3287,1.5985
1444381.0,8.5712,2.1165,25.7233,-0.455,1.8523,1.8172
1444391.0,8.667,0.68,27.5908,-0.2623,2.1545,1.9459
1444401.0,8.9352,-0.2873,28.5676,-0.0814,2.3722,2.0124
1444411.0,8.3893,-0.8332,28.7687,-0.0851,2.4232,1.9928
1444421.0,8.8585,-1.1684,28.4527,-0.1655,2.42,1.9699
1444431.0,8.3222,-1.5131,27.7632,-0.3193,2.6121,1.9119
1444441.0,8.0445,-0.8619,26.4799,-0.4135,3.0416,1.9135
1444451.0,7.3167,-0.5459,27.0162,-0.4129,3.6961,1.9582
1444461.0,6.5218,-0.2586,27.993,-0.3187,4.2372,2.0838
1444471.0,6.1387,-1.0822,30.55,-0.0293,4.7502,2.2285
1444481.0,5.3726,-2.2314,32.2164,0.4049,5.0976,2.2753
1444491.0,5.43,-3.0742,33.3847,0.8924,5.4701,2.2891
1444501.0,4.865,-3.6966,35.1852,1.5139,5.799,2.2013
1444511.0,4.1851,-3.2848,35.4246,1.8911,6.1087,2.0949
1444521.0,3.553,-2.6145,36.2003,2.0736,6.1784,2.0055
1444531.0,2.8252,-1.5897,36.4493,1.8156,6.2805,1.9348
1444541.0,1.5227,-1.1013,37.407,1.3564,6.2646,1.9459
1444551.0,1.1779,-1.1779,38.9872,1.1121,6.3417,1.9523
1444561.0,0.7757,-1.1492,40.3854,1.1935,6.5907,2.0061
1444571.0,0.2586,-2.0207,43.5457,1.5719,6.6977,1.996
1444581.0,0.2873,-2.1739,45.1834,2.0641,6.695,1.9555
1444591.0,-0.9768,-2.375,47.003,2.5222,6.5397,1.8565
1444601.0,-1.7909,-2.0494,46.9359,2.8968,6.3449,1.7443
1444611.0,-2.4708,-1.743,46.7348,3.0687,6.3071,1.5852
1444621.0,-2.8347,-1.0247,46.256,2.9016,6.1842,1.3989
1444631.0,-2.9305,0.2682,46.2081,2.5398,6.1874,1.2286
1444641.0,-4.1946,1.6759,48.2001,2.0433,6.1789,1.1515
1444651.0,-5.4013,3.0837,51.2072,1.673,5.9756,1.1866
1444661.0,-6.541,3.0837,55.3061,1.4074,5.4217,1.2792
1444671.0,-6.8953,3.3902,56.8,1.4755,4.5693,1.3835
1444681.0,-6.7421,2.7581,56.5127,1.6203,4.0824,1.4452
1444691.0,-6.8857,3.1029,55.9094,1.7852,3.711,1.474
1444701.0,-7.2784,3.9935,55.3252,1.8416,3.3709,1.5234
1444711.0,-8.2073,4.7022,54.3771,1.6549,3.1176,1.6293
1444721.0,-8.2361,5.2098,53.3332,1.3803,2.8841,1.7858
1444731.0,-8.4851,4.7597,53.5535,1.2313,2.8245,1.9023
1444741.0,-8.4851,3.9361,53.4482,0.9392,2.8159,1.9646
1444751.0,-8.4276,3.5721,54.2047,0.6822,2.71,1.9789
1444761.0,-8.7149,3.2082,56.0818,0.2953,2.5201,1.9741
1444771.0,-8.5617,2.6432,58.4185,0.1128,2.1854,1.9827
1444781.0,-8.3893,2.6336,60.4775,0.0436,1.6362,1.972
1444791.0,-8.3031,2.6336,61.0426,-0.0979,0.8727,2.0045
1444801.0,-8.4755,2.1644,61.3873,-0.1362,-0.0101,2.0337
1444811.0,-8.3701,1.9058,59.6827,-0.1825,-0.8242,2.0689
1444821.0,-7.9487,1.1779,56.982,-0.3124,-1.5309,2.0657
1444831.0,-7.2305,0.5459,54.0323,-0.5608,-1.8943,2.0194
1444841.0,-6.2441,-0.1915,51.7531,-1.0435,-2.1747,1.9066
1444851.0,-6.11,-0.996,49.9909,-1.699,-2.4004,1.7373
1444861.0,-5.8897,-1.561,49.2535,-2.2407,-2.5616,1.5453
1444871.0,-5.6216,-2.308,49.4738,-2.5589,-2.7255,1.3521
1444881.0,-5.6982,-2.241,49.0907,-2.6148,-2.8207,1.1691
1444891.0,-5.7269,-2.3463,48.3437,-2.6403,-2.8229,1.0754
1444901.0,-5.2002,-2.9209,48.5353,-2.6776,-2.7861,0.9445
1444911.0,-4.4436,-3.3327,49.3684,-2.7175,-2.8378,0.8402
1444921.0,-3.62,-4.2042,50.4123,-2.7462,-3.0559,0.6843
1444931.0,-3.0646,-4.8937,50.3453,-2.8085,-3.4087,0.481
1444941.0,-2.8539,-5.4396,50.2591,-2.8117,-3.8179,0.1852
1444951.0,-2.6719,-5.5641,49.4929,-2.9436,-4.1382,-0.1187
1444961.0,-2.4421,-4.7788,48.6789,-3.0357,-4.4006,-0.4294
1444971.0,-2.2889,-4.0223,47.8649,-3.074,-4.6273,-0.6561
1444981.0,-2.8826,-3.1699,48.0085,-2.9176,-4.8406,-0.8077
1444991.0,-2.7198,-2.1452,46.9168,-2.685,-5.0444,-0.8604
1445001.0,-2.4229,-1.7909,45.7676,-2.3631,-5.1163,-0.8849
1445011.0,-2.0207,-1.6759,43.9671,-2.1497,-5.1881,-0.8924
1445021.0,-1.2546,-1.5993,43.5362,-1.9555,-5.1445,-0.9424
1445031.0,-0.8236,-0.996,41.7549,-1.8821,-5.0769,-0.9541
1445041.0,-0.6704,-0.3639,41.1132,-1.8358,-5.029,-0.9402
1445051.0,-0.565,0.2969,40.6344,-1.8443,-5.0529,-0.8796
1445061.0,-0.4022,0.5267,39.6384,-1.8991,-5.0721,-0.7865
1445071.0,0.1724,0.5076,39.2266,-1.9247,-4.9987,-0.6758
1445081.0,0.8428,0.1532,39.4756,-1.8874,-4.9944,-0.5694
1445091.0,1.2833,-0.249,39.3224,-1.7746,-5.0971,-0.4922
1445101.0,2.1165,-0.2969,38.6424,-1.5979,-5.2615,-0.4071
1445111.0,2.5953,-0.6991,37.5219,-1.5006,-5.4265,-0.3129
1445121.0,3.62,-0.8715,35.0224,-1.4133,-5.4685,-0.2767
1445131.0,4.4436,-1.3024,33.0591,-1.4245,-5.3919,-0.2464
1445141.0,5.0661,-1.3216,31.5268,-1.5474,-5.3195,-0.2405
1445151.0,6.0334,-1.2641,29.6211,-1.6448,-5.1945,-0.2379
1445161.0,6.2728,-1.3886,29.1039,-1.7028,-5.0716,-0.215
1445171.0,6.8474,-1.3982,27.1311,-1.6049,-4.8481,-0.166
1445181.0,7.853,-1.5419,25.2636,-1.4042,-4.4692,-0.1176
1445191.0,8.7436,-1.5993,23.5973,-1.2249,-4.0419,-0.0968
1445201.0,9.9311,-1.81,22.6204,-0.9349,-3.4438,-0.0506
1445211.0,10.3908,-1.8292,21.4329,-0.8035,-2.8856,-0.0197
1445221.0,10.6111,-1.8387,20.5231,-0.8381,-2.4477,0.0
1445231.0,11.0133,-1.7334,20.0826,-0.9695,-2.0524,0.0309
1445241.0,10.975,-1.9632,19.4505,-1.2233,-1.8901,0.0623
1445251.0,11.7412,-2.624,18.0236,-1.093,-1.2467,0.0788
1445261.0,11.4251,-2.8443,16.9701,-0.7753,-0.4044,0.042
1445271.0,11.473,-3.1508,16.3572,-0.29,0.5438,0.05
1445281.0,11.7412,-3.4668,16.2327,0.2666,1.607,0.0037
1445291.0,11.4443,-3.5817,16.5775,0.5811,2.5584,-0.0591
1445301.0,11.2815,-3.7445,17.5351,0.8652,3.479,-0.1437
1445311.0,11.2144,-3.3327,19.3164,1.1073,4.3431,-0.2613
1445321.0,10.5824,-3.0646,21.2509,1.3228,5.0599,-0.3459
1445331.0,9.6822,-2.1356,22.5246,1.5623,5.7846,-0.4119
1445341.0,8.3701,-1.2354,24.1623,1.7661,6.4694,-0.4608
1445351.0,6.608,-0.0479,25.4073,1.8496,7.1489,-0.4475
1445361.0,5.6024,1.0056,27.3801,1.8576,7.8614,-0.3379
1445371.0,4.4532,1.9154,30.3489,1.8704,8.3898,-0.1751
1445381.0,3.5626,2.2793,33.8636,1.8427,8.5957,0.0649
1445391.0,2.9497,2.0303,37.3687,1.8816,8.6569,0.298
1445401.0,1.7047,1.4269,40.1747,1.9635,8.5777,0.4592
1445411.0,1.1301,0.7566,41.5538,1.9481,8.4249,0.5608
1445421.0,0.6321,0.4118,43.3925,1.8714,8.3488,0.572
1445431.0,-0.8715,0.6225,45.0876,1.4532,7.9162,0.5928
1445441.0,-1.5802,0.4788,47.7787,1.2228,7.63,0.6694
1445451.0,-2.6528,1.2833,49.9047,0.8604,7.0335,0.7662
1445461.0,-3.2178,0.5938,51.8584,0.5837,6.1172,0.9376
1445471.0,-3.5338,-1.1205,52.6533,0.654,5.3956,1.0504
1445481.0,-3.5626,-2.6049,51.6669,0.8737,4.8635,0.9807
1445491.0,-3.0742,-3.304,49.129,1.0813,4.7906,0.8136
1445501.0,-3.6966,-2.9305,48.2096,1.1749,4.9391,0.6396
1445511.0,-4.6448,-2.308,48.88,1.2249,5.0636,0.5422
1445521.0,-5.6503,-1.6759,49.4929,1.1802,5.0003,0.5561
1445531.0,-5.9376,-2.0016,50.7954,1.268,4.7816,0.5726
1445541.0,-5.7652,-2.8922,50.2591,1.2137,4.6469,0.5406
1445551.0,-6.0908,-3.5051,49.8281,1.3383,4.6416,0.4129
1445561.0,-6.8378,-3.5243,50.1346,1.351,4.8348,0.2155
1445571.0,-7.6998,-2.8347,50.6038,1.2749,5.0407,0.0362
1445581.0,-8.667,-2.5762,53.2183,1.1893,5.1152,-0.0628
1445591.0,-8.9543,-2.6145,56.3978,1.2281,4.9838,-0.191
1445601.0,-9.1267,-2.9113,58.9931,1.1595,4.5522,-0.3384
1445611.0,-9.663,-2.873,61.0617,1.0898,4.0063,-0.5635
1445621.0,-9.8258,-2.6528,62.2397,0.8434,3.3156,-0.7689
1445631.0,-10.2472,-2.7198,62.4695,0.5811,2.6616,-1.0355
1445641.0,-10.7452,-1.6568,62.3929,0.2097,2.0502,-1.2893
1445651.0,-10.5728,-1.494,62.7185,-0.2405,1.4761,-1.5405
1445661.0,-12.0859,-2.1452,63.3697,-0.481,0.8344,-1.9247
1445671.0,-13.3501,-2.3367,66.3768,-0.944,0.5013,-2.1769
1445681.0,-11.8657,0.7661,65.5437,-1.4149,-0.472,-2.3833
1445691.0,-11.0612,-0.498,69.1062,-2.0109,-1.8991,-2.5765
1445701.0,-11.5209,1.3791,65.4766,-2.7308,-2.8447,-2.7798
1445711.0,-11.3964,1.7142,65.9938,-3.4279,-3.8924,-2.9202
1445721.0,-11.2719,3.1987,63.6858,-4.1638,-4.9518,-2.9836
1445731.0,-11.2336,4.4245,60.9564,-4.5347,-5.767,-2.9479
1445741.0,-10.6877,4.7022,58.3515,-4.864,-6.3135,-2.7723
1445751.0,-10.1227,4.8267,56.5415,-4.6688,-6.7052,-2.56
1445761.0,-9.414,4.5107,54.674,-4.2165,-6.8478,-2.2609
1445771.0,-9.414,3.9744,53.113,-3.4997,-6.9521,-1.9481
1445781.0,-8.4659,3.1603,51.121,-2.8175,-7.1133,-1.6682
1445791.0,-7.2496,2.4517,48.3533,-2.2322,-7.1287,-1.4261
1445801.0,-6.2537,1.3599,45.8825,-1.9603,-7.1952,-1.3026
1445811.0,-5.0757,0.8811,43.3734,-1.9199,-7.1718,-1.2175
1445821.0,-3.9456,0.9194,41.8794,-2.0093,-7.1447,-1.2058
1445831.0,-2.873,0.9481,40.462,-2.2498,-7.1739,-1.1744
1445841.0,-2.2889,0.8332,39.1117,-2.4749,-7.141,-1.1206
1445851.0,-1.6759,0.5076,38.3264,-2.6547,-7.0936,-1.0089
1445861.0,-0.9002,-0.0287,37.4262,-2.825,-7.1117,-0.9248
1445871.0,0.0958,-0.9194,36.3057,-2.9713,-7.0516,-0.8668
1445881.0,0.5555,-1.5514,36.4972,-3.0283,-7.1489,-0.887
1445891.0,2.3846,-1.6759,35.3671,-2.8856,-7.2107,-0.8913
1445901.0,3.486,-1.5227,34.3424,-2.7287,-7.0973,-0.8918
1445911.0,4.3096,-1.7334,33.7774,-2.4525,-7.1346,-0.8301
1445921.0,5.3917,-0.5842,31.9291,-2.2147,-7.1766,-0.7253
1445931.0,5.6695,-0.0383,29.2763,-2.1332,-7.1872,-0.5561
1445941.0,6.2824,0.0958,26.3554,-2.3248,-7.1138,-0.3432
1445951.0,7.4124,-0.5171,22.8215,-2.6435,-6.7578,-0.1346
1445961.0,8.5521,-1.81,22.4385,-2.6946,-6.1762,0.0138
1445971.0,9.7971,-2.4708,21.8734,-2.5701,-5.5084,0.1463
1445981.0,11.4922,-3.4764,21.1839,-2.1306,-4.7816,0.2453
1445991.0,12.3158,-4.1563,21.0115,-1.6644,-4.0451,0.307
1446001.0,12.8617,-4.549,20.6476,-1.2052,-3.3789,0.3257
1446011.0,13.1968,-4.7884,20.9349,-0.7567,-2.8032,0.3608
1446021.0,13.3501,-5.2002,20.9924,-0.2996,-2.3716,0.397
1446031.0,13.3692,-5.3247,19.7665,0.2464,-1.8906,0.4071
1446041.0,13.8672,-5.6599,18.2247,0.6508,-1.1765,0.4246
1446051.0,14.5567,-5.2385,16.3859,0.9025,-0.3799,0.3704
1446061.0,15.0069,-5.2002,16.2231,0.9759,0.4629,0.3022
1446071.0,14.4993,-4.5681,17.0371,0.9227,1.1643,0.2671
1446081.0,13.5895,-4.0797,17.832,0.7833,1.6788,0.2602
1446091.0,12.7467,-4.3287,18.6843,0.7269,2.1976,0.3182
1446101.0,12.5552,-4.4819,19.2781,0.8503,2.7675,0.3475
1446111.0,12.4403,-4.9033,20.14,1.3218,3.6099,0.3006
1446121.0,12.1434,-5.0566,21.452,1.7682,4.4096,0.2485
1446131.0,11.8178,-4.4915,22.4097,2.2397,5.1211,0.1309
1446141.0,10.228,-3.1029,23.7026,2.4695,5.8277,0.0708
1446151.0,8.849,-1.2833,25.5509,2.5866,6.2981,0.1181
1446161.0,7.6423,0.1915,27.3801,2.7686,6.7387,0.3134
1446171.0,5.5929,1.2163,28.7783,2.6983,6.8259,0.6258
1446181.0,4.1946,0.6321,29.3338,2.5196,6.9015,0.9748
1446191.0,4.051,-0.5267,29.6019,2.3764,7.3389,1.2095
1446201.0,3.6679,-1.8483,31.297,2.2088,7.9375,1.2952
1446211.0,2.988,-2.5187,34.0168,2.2077,8.376,1.2888
1446221.0,2.0303,-2.8826,38.6328,2.37,8.5133,1.2356
1446231.0,1.2163,-1.6759,41.5155,2.7377,8.4505,1.2425
1446241.0,-0.8715,-0.3735,44.331,2.7329,7.9205,1.3425
1446251.0,-2.2697,-0.2969,44.9823,2.4903,7.0297,1.5623
1446261.0,-2.4421,-1.2833,43.268,2.2876,6.3981,1.7097
1446271.0,-1.9154,-2.9497,41.0845,1.9954,6.2523,1.6895
1446281.0,-1.6664,-4.2234,41.209,1.8768,6.5673,1.5064
1446291.0,-2.0111,-4.2521,42.8562,1.8911,6.6413,1.2196
1446301.0,-1.8387,-3.8116,44.6662,2.0657,6.6732,0.961
1446311.0,-2.4517,-1.1301,45.6909,2.0321,6.3944,0.7976
1446321.0,-4.0031,-0.182,47.2711,1.9183,5.8149,0.8099
1446331.0,-5.0661,-0.0479,44.7045,1.9231,5.4238,0.8508
1446341.0,-4.9321,0.0958,42.4827,2.1519,5.7622,0.8317
1446351.0,-5.4971,0.747,41.5921,2.0401,6.3444,0.7567
1446361.0,-6.3877,1.5227,44.3885,1.9731,6.8142,0.6572
1446371.0,-7.671,2.9305,47.0796,1.9449,6.9707,0.6263
1446381.0,-8.4563,4.1946,50.8816,2.1896,6.9483,0.7029
1446391.0,-9.165,5.3534,53.2183,2.527,6.5407,0.8849
1446401.0,-9.4906,5.3247,53.8408,2.5807,5.9123,1.0722
1446411.0,-9.8162,4.8554,53.4482,2.4834,5.3685,1.1627
1446421.0,-10.2568,4.5107,52.9214,2.2109,4.8683,1.1536
1446431.0,-10.477,5.0949,52.1074,2.0486,4.6017,1.0903
1446441.0,-11.4634,6.11,52.0787,1.7581,4.4421,1.093
1446451.0,-12.6797,6.857,53.4099,1.6288,4.2271,1.1722
1446461.0,-13.7523,7.3358,54.0707,1.5527,4.0669,1.3771
1446471.0,-13.8289,6.9815,55.8232,1.6059,3.8073,1.5836
1446481.0,-13.8193,6.3686,56.9437,1.608,3.4343,1.7576
1446491.0,-13.6565,5.861,56.2159,1.442,2.9687,1.8667
1446501.0,-13.8002,5.6407,55.6125,0.8977,2.5882,1.9039
1446511.0,-13.8385,5.1811,56.0147,0.2283,2.0747,1.9151
1446521.0,-13.6948,4.9608,56.7713,-0.4624,1.5942,1.9534
1446531.0,-14.5759,4.0318,58.7154,-0.9355,0.9674,2.0162
1446541.0,-14.7579,2.7581,60.1328,-0.9738,0.1777,2.0939
1446551.0,-13.9055,1.0534,61.1862,-0.705,-0.6375,2.1151
1446561.0,-12.5456,-0.3639,59.3187,-0.4773,-1.4633,2.0513
1446571.0,-12.0476,-1.6951,56.8096,-0.3661,-2.1551,1.8597
1446581.0,-11.3389,-1.8196,53.4003,-0.497,-2.5935,1.616
1446591.0,-11.1282,-2.1069,50.5464,-0.7444,-2.8319,1.3729
1446601.0,-10.7069,-2.0494,48.4299,-1.1254,-2.9027,1.0983
1446611.0,-10.343,-2.1835,47.5584,-1.4378,-2.8936,0.8322
1446621.0,-9.8833,-1.7717,47.4722,-1.6389,-2.8574,0.5779
1446631.0,-9.7205,-1.0247,48.3246,-1.6836,-3.0038,0.4225
1446641.0,-9.4715,-0.4788,48.564,-1.641,-3.2257,0.3246
1446651.0,-8.983,-0.2586,47.8649,-1.5559,-3.4007,0.2868
1446661.0,-8.6574,-0.0958,47.3956,-1.4149,-3.5263,0.2613
1446671.0,-8.1882,-0.5938,47.319,-1.1781,-3.6146,0.2559
1446681.0,-7.7476,-0.7374,46.3996,-1.011,-3.7408,0.2022
1446691.0,-7.2209,-1.0534,45.6814,-1.0222,-3.9084,0.1144
1446701.0,-6.6559,-1.1779,44.8003,-1.2127,-4.0371,-0.0367
1446711.0,-5.9664,-0.7374,43.8809,-1.5506,-4.0691,-0.1804
1446721.0,-5.5067,-0.3065,44.082,-1.9396,-4.2239,-0.3038
1446731.0,-5.3822,0.1149,44.1682,-2.3658,-4.4261,-0.3677
1446741.0,-5.1332,0.1437,43.5745,-2.5925,-4.5948,-0.3884
1446751.0,-4.9704,-0.9577,44.5705,-2.5403,-4.7395,-0.4049
1446761.0,-3.9456,-1.8387,45.0876,-2.0912,-4.8007,-0.4911
1446771.0,-3.4285,-1.8196,44.3789,-1.7054,-4.9768,-0.5784
1446781.0,-3.5338,-2.1452,43.8905,-1.3893,-5.1966,-0.6907
1446791.0,-2.8156,-1.6855,41.3526,-1.0669,-5.3169,-0.7854
1446801.0,-2.308,-1.2258,39.4469,-0.9429,-5.3147,-0.8599
1446811.0,-1.8483,-0.498,37.8571,-1.0153,-5.2237,-0.8955
1446821.0,-1.1013,-0.2394,36.5451,-1.2941,-5.0583,-0.9142
1446831.0,-0.5746,0.2107,35.7885,-1.6187,-4.9742,-0.9025
1446841.0,-0.067,0.8045,34.8979,-1.9262,-4.9087,-0.8546
1446851.0,0.4597,0.5459,35.1852,-2.0566,-4.7097,-0.795
1446861.0,1.1492,0.3448,34.9266,-1.947,-4.6049,-0.7056
1446871.0,1.8483,0.1628,35.3097,-1.6235,-4.5341,-0.5896
1446881.0,2.2793,-0.1628,34.4574,-1.1637,-4.4479,-0.4459
1446891.0,3.4477,-1.063,33.2986,-0.7189,-4.2814,-0.348
1446901.0,4.6448,-1.4269,30.5979,-0.5044,-4.0478,-0.3145
1446911.0,6.3207,-1.6472,29.305,-0.4997,-3.7322,-0.331
1446921.0,6.9145,-1.8579,27.8206,-0.6173,-3.4917,-0.4193
1446931.0,6.8666,-1.4748,26.3649,-0.8147,-3.3582,-0.4715
1446941.0,7.3837,-1.0247,24.6603,-1.1084,-2.9942,-0.5193
1446951.0,6.9336,-1.1109,23.7409,-1.3239,-2.6505,-0.5263
1446961.0,7.5848,-1.1492,22.3331,-1.2483,-2.0848,-0.505
1446971.0,7.7668,-1.5514,21.9596,-0.9557,-1.2739,-0.4576
1446981.0,8.2169,-2.7294,22.0841,-0.5619,-0.489,-0.4725
1446991.0,8.8011,-3.6871,22.1607,-0.0968,0.3331,-0.5912
1447001.0,9.7683,-3.802,21.9979,0.2799,1.2297,-0.7982
1447011.0,8.8202,-3.2178,22.7736,0.4177,1.8528,-1.0062
1447021.0,8.0924,-2.0973,23.6068,0.4374,2.477,-1.0956
1447031.0,6.9432,-0.996,25.0721,0.456,2.924,-1.1025
1447041.0,6.3782,-0.6321,26.3745,0.4725,3.2517,-1.0749
1447051.0,5.7078,-0.9385,26.8917,0.4938,3.6136,-1.0302
1447061.0,5.4779,-1.3312,26.6331,0.6039,4.1233,-1.0727
1447071.0,5.296,-2.0207,27.926,0.845,4.9604,-1.1616
1447081.0,4.2808,-2.4325,30.866,1.2185,5.7144,-1.2994
1447091.0,3.553,-2.0207,34.0551,1.5814,6.1315,-1.4692
1447101.0,2.7198,-0.6512,36.4781,1.6666,6.1773,-1.5931
1447111.0,1.8771,1.4269,38.6999,1.458,5.9405,-1.5649
1447121.0,0.249,2.9401,40.5961,1.11,5.4217,-1.3984
1447131.0,-1.1875,2.624,40.8451,0.6992,4.781,-1.1866
1447141.0,-0.8332,1.8196,39.6288,0.2975,4.541,-1.0467
1447151.0,-0.6129,0.8715,38.9776,0.1277,4.8656,-1.0674
1447161.0,-1.3024,0.4405,41.4388,0.3092,5.2653,-1.0637
1447171.0,-2.3942,0.6895,44.2257,0.9046,5.4148,-1.0531
1447181.0,-3.1795,1.2833,46.0836,1.483,5.3142,-0.9605
1447191.0,-3.2657,2.4708,46.9742,1.7767,5.0199,-0.8051
1447201.0,-4.0127,2.6336,46.323,1.6213,4.4,-0.6226
1447211.0,-4.6352,1.1492,44.3215,1.2861,3.861,-0.5071
1447221.0,-4.1084,-0.996,41.525,1.1281,4.0244,-0.621
1447231.0,-4.2234,-1.9728,40.6248,1.1212,4.6416,-0.9025
1447241.0,-5.1619,-1.8675,42.5019,1.1595,5.3648,-1.2191
1447251.0,-6.3207,-0.7278,46.1219,1.184,5.65,-1.4564
1447261.0,-7.2784,0.3735,50.5847,1.4585,5.559,-1.5894
1447271.0,-7.288,1.7909,53.2758,1.7033,5.261,-1.5868
1447281.0,-7.7572,1.8196,55.8136,1.9316,4.5602,-1.5607
1447291.0,-7.8434,1.5706,55.1528,1.798,3.7679,-1.5692
1447301.0,-7.671,1.1109,54.5686,1.6038,3.1363,-1.7118
1447311.0,-8.0254,1.0343,53.9557,1.3154,2.7936,-1.9177
1447321.0,-7.9583,1.8483,53.6397,1.1217,2.5472,-2.1487
1447331.0,-8.4755,2.9975,53.5727,0.9025,2.5137,-2.3424
1447341.0,-9.5289,4.4532,54.5303,0.5257,2.3408,-2.4488
1447351.0,-10.3238,5.5641,57.2406,0.3666,2.0848,-2.4371
1447361.0,-10.7452,6.4452,58.9452,0.373,1.7544,-2.3285
1447371.0,-11.1857,6.675,60.6978,0.3656,1.1355,-2.2338
1447381.0,-11.3868,6.79,60.5063,0.2304,0.5018,-2.1146
1447391.0,-11.5017,7.106,60.6978,0.0857,-0.0319,-2.0273
1447401.0,-11.0516,7.422,60.2764,-0.1756,-0.5795,-1.9321
1447411.0,-10.5058,6.9145,60.4871,-0.5028,-1.2249,-1.8651
1447421.0,-10.726,6.5122,61.2149,-0.6476,-1.8539,-1.8294
1447431.0,-10.6015,5.794,60.4967,-0.7721,-2.6004,-1.8491
1447441.0,-9.8833,6.1866,59.0027,-0.887,-3.2262,-1.873
1447451.0,-9.8833,6.6367,56.9628,-1.1265,-3.7519,-1.8879
1447461.0,-10.1706,6.7995,55.4593,-1.4974,-4.2159,-1.8778
1447471.0,-9.6247,7.4508,53.8791,-1.8273,-4.5549,-1.8347
1447481.0,-9.1554,7.9104,52.9885,-2.1056,-4.7858,-1.7655
1447491.0,-9.1075,7.8626,53.5343,-2.1343,-5.2099,-1.6384
1447501.0,-8.8107,8.1403,52.0691,-2.0784,-5.75,-1.4463
1447511.0,-8.2361,7.92,50.2591,-1.8565,-6.122,-1.2473
1447521.0,-7.4124,7.6614,47.0604,-1.8273,-6.388,-1.0291
1447531.0,-6.3303,7.0198,45.7293,-1.9885,-6.6131,-0.8961
1447541.0,-5.5162,6.11,43.4595,-2.2705,-6.8584,-0.8051
1447551.0,-4.4532,5.8897,41.4101,-2.4706,-7.0585,-0.7407
1447561.0,-3.9361,5.5258,39.2074,-2.4924,-6.9728,-0.6423
1447571.0,-3.553,5.4779,37.7997,-2.3695,-6.7961,-0.5491
1447581.0,-2.8443,5.4588,36.6121,-2.1418,-6.5641,-0.3986
1447591.0,-2.1261,5.4396,36.0471,-1.8922,-6.2912,-0.2613
1447601.0,-1.6376,4.8746,35.53,-1.5676,-6.1768,-0.1016
1447611.0,-0.6512,4.5107,33.8923,-1.3276,-6.0198,0.0506
1447621.0,0.0287,4.0606,32.4845,-1.2217,-5.7708,0.191
1447631.0,1.2163,3.2753,31.0959,-1.284,-5.5973,0.2895
1447641.0,2.7677,2.6432,30.5883,-1.3351,-5.3259,0.3124
1447651.0,3.3519,2.6528,29.803,-1.3537,-5.0471,0.3496
1447661.0,4.5107,2.5187,29.6977,-1.3569,-4.7816,0.4103
1447671.0,5.1523,2.6528,29.238,-1.2893,-4.5544,0.4752
1447681.0,5.9089,3.055,28.5676,-1.3329,-4.4064,0.5656
1447691.0,6.0813,2.8347,28.4048,-1.3473,-4.3176,0.679
1447701.0,7.0964,2.7677,26.3745,-1.5245,-4.2926,0.7891
1447711.0,7.1826,2.1356,25.1008,-1.5527,-4.0898,0.8961
1447721.0,8.0254,1.7142,23.1567,-1.533,-3.6365,0.9727
1447731.0,8.9256,0.9768,22.4385,-1.4128,-3.1054,1.0259
1447741.0,9.7013,0.747,21.7872,-1.0962,-2.4089,1.085
1447751.0,9.9982,0.68,21.2222,-0.6657,-1.6373,1.1531
1447761.0,10.1801,0.5076,20.7338,-0.4198,-1.0264,1.2164
1447771.0,10.4004,0.0862,20.1304,-0.307,-0.3762,1.2989
1447781.0,10.4866,-0.4597,19.9964,-0.3986,0.1341,1.2882
1447791.0,9.912,-0.9577,19.5367,-0.6625,0.63,1.2473
1447801.0,9.9886,-1.5706,19.2877,-0.7806,1.3015,1.1701
1447811.0,9.9599,-1.7909,20.14,-0.5869,2.2269,1.0823
1447821.0,9.4427,-1.4078,21.7872,-0.2017,3.1788,1.0195
1447831.0,8.6479,-0.5171,23.6451,0.1517,3.9515,1.0456
1447841.0,7.4508,0.2777,25.6946,0.4156,4.5357,1.1153
1447851.0,6.7038,0.9768,27.0449,0.5577,4.9864,1.2377
1447861.0,5.545,0.7757,28.7496,0.5428,5.2982,1.3729
1447871.0,5.2385,-0.5363,29.3625,0.7359,5.5952,1.4569
1447881.0,5.3247,-1.4078,30.0233,1.0509,6.2614,1.4271
1447891.0,4.0989,-1.6089,31.5843,1.276,6.877,1.326
1447901.0,3.1029,-1.4174,34.4574,1.5346,7.4751,1.2196
1447911.0,2.0686,-0.4693,38.1348,1.8741,7.8098,1.1733
1447921.0,1.3982,0.5555,41.6304,2.1008,7.7066,1.1557
1447931.0,0.1245,1.1013,44.3215,2.0407,7.1255,1.1919
1447941.0,-0.9098,1.1779,44.446,1.7432,6.2752,1.2366
1447951.0,-1.1588,0.7949,43.2201,1.4857,5.8681,1.2451
1447961.0,-2.0016,0.565,42.2912,1.4697,5.8426,1.1824
1447971.0,-2.2697,0.747,41.9464,1.5069,6.1267,1.1169
1447981.0,-2.9209,0.929,43.7181,1.6432,6.4285,1.0217
1447991.0,-3.802,2.7294,45.7005,1.8645,6.3933,0.9653
1448001.0,-3.8978,4.3287,47.3956,1.9763,6.28,1.0642
1448011.0,-5.1044,6.0047,48.4395,1.9071,5.8798,1.3133
1448021.0,-6.1866,5.9472,48.5065,1.765,5.3397,1.5777
1448031.0,-5.9472,5.3247,47.2041,1.5261,5.194,1.7804
1448041.0,-6.2632,4.3958,46.9359,1.226,5.1918,1.8805
1448051.0,-6.6655,3.4764,48.0947,1.0988,5.2509,1.9215
1448061.0,-7.2784,2.7773,50.556,1.1813,5.1966,1.9167
1448071.0,-7.5274,2.7198,53.3045,1.3851,4.7949,1.9055
1448081.0,-7.5753,2.8539,54.3388,1.5383,4.2633,1.9332
1448091.0,-8.0158,2.7581,53.4099,1.5405,3.5327,1.9241
1448101.0,-7.6998,2.2027,51.2838,1.3244,2.9905,1.8656
1448111.0,-7.9296,1.8387,48.9949,1.0046,2.7547,1.7038
1448121.0,-8.5329,1.8387,47.7021,0.729,2.7611,1.5208
1448131.0,-9.3087,2.5379,47.4435,0.406,2.7633,1.3846
1448141.0,-9.6343,2.7964,48.2863,0.3278,2.8543,1.2914
1448151.0,-10.161,3.3998,49.3301,0.3959,2.9389,1.2451
1448161.0,-10.6111,3.8499,50.9007,0.6034,2.9362,1.218
1448171.0,-10.7164,4.6543,52.4426,0.6987,2.7212,1.2324
1448181.0,-10.9559,5.2864,53.2854,0.5449,2.3477,1.2739
1448191.0,-11.1857,5.5258,53.4673,0.2778,2.013,1.359
1448201.0,-11.2144,5.43,54.425,0.0452,1.6155,1.4676
1448211.0,-11.3581,4.9608,55.1528,-0.2863,1.152,1.5165
1448221.0,-11.7507,4.2713,56.1871,-0.4475,0.6146,1.5671
1448231.0,-11.1187,3.8211,56.1488,-0.6178,0.0612,1.5697
1448241.0,-11.3294,3.8786,55.4976,-0.8067,-0.4475,1.5373
1448251.0,-11.1953,3.5051,55.0188,-0.8737,-0.7726,1.5357
1448261.0,-11.1953,3.4189,54.607,-0.8955,-1.0472,1.5399
1448271.0,-11.0899,2.4421,54.7027,-1.0036,-1.4234,1.4931
1448281.0,-10.6111,1.8004,54.1473,-1.1643,-1.8395,1.4277
1448291.0,-10.6686,0.7853,53.927,-1.2803,-2.2365,1.3069
1448301.0,-10.2089,0.4788,53.1321,-1.3351,-2.618,1.1393
1448311.0,-9.6534,0.7757,51.9733,-1.4681,-2.8777,0.9807
1448321.0,-9.4332,1.0534,51.7435,-1.6059,-3.1389,0.8934
1448331.0,-9.2416,1.063,51.8105,-1.707,-3.4582,0.8269
1448341.0,-8.9639,0.9768,51.2168,-1.7038,-3.8051,0.7641
1448351.0,-8.1499,0.8523,51.2742,-1.7714,-4.1675,0.687
1448361.0,-7.7476,0.7949,50.3644,-1.8597,-4.5708,0.6008
1448371.0,-7.3646,0.7949,49.3301,-1.9326,-4.9263,0.5247
1448381.0,-6.8187,0.6033,48.4969,-2.0327,-5.2046,0.4677
1448391.0,-5.8035,0.2298,47.386,-2.0768,-5.4621,0.3837
1448401.0,-5.4875,-0.1341,46.4475,-2.0869,-5.7096,0.2868
1448411.0,-4.4915,0.0766,45.0972,-2.1066,-5.8692,0.1878
1448421.0,-3.8595,0.2682,43.5362,-2.1136,-5.9879,0.1564
1448431.0,-3.3136,0.2586,42.3678,-2.08,-6.0693,0.0926
1448441.0,-2.5379,0.4214,41.142,-2.0875,-6.1102,0.0394
1448451.0,-1.561,0.6608,39.6767,-2.237,-6.0868,0.0287
1448461.0,-1.0151,0.4214,38.9776,-2.3977,-6.2039,0.0048
1448471.0,-0.3065,0.4501,38.2306,-2.5871,-6.3023,0.0096
1448481.0,0.5459,0.0575,37.7709,-2.4137,-6.346,0.0383
1448491.0,1.6568,-0.1532,36.6792,-2.0678,-6.2566,0.0713
1448501.0,2.8347,-0.3543,35.3959,-1.7655,-6.1438,0.1235
1448511.0,3.2848,-0.3926,34.0839,-1.5575,-6.197,0.1777
1448521.0,4.0127,-0.3831,31.7088,-1.5032,-6.2497,0.2081
1448531.0,4.5681,-0.4022,28.9507,-1.6107,-6.1533,0.2549
1448541.0,5.6407,-1.2546,27.0928,-1.7453,-5.9756,0.306
1448551.0,7.0485,-1.8004,23.9037,-1.8071,-5.4989,0.2458
1448561.0,7.7381,-2.6911,22.7641,-1.8949,-4.8997,0.1751
1448571.0,8.3893,-2.7485,21.8638,-1.731,-4.2271,0.0782
1448581.0,8.8585,-2.7773,21.2318,-1.4064,-3.5151,0.0266
1448591.0,9.0405,-2.9305,20.7912,-0.9514,-2.5685,0.0468
1448601.0,9.3565,-3.1029,20.9253,-0.5843,-1.7922,0.0372
1448611.0,9.8928,-3.8307,21.1647,-0.3225,-1.1164,0.0266
1448621.0,10.2855,-4.616,21.2031,-0.2075,-0.4443,-0.0862
1448631.0,10.2376,-5.3726,21.7872,-0.1011,0.0777,-0.2687
1448641.0,10.726,-5.4588,21.3754,0.1155,0.7199,-0.455
1448651.0,10.6207,-5.2672,21.2797,0.4262,1.6187,-0.671
1448661.0,10.4483,-4.2617,22.563,0.6279,2.4445,-0.8721
1448671.0,9.7205,-3.0933,24.5454,0.7199,3.1272,-0.9817
1448681.0,8.6957,-2.4325,26.7001,0.8253,3.6141,-1.0094
1448691.0,8.2456,-2.0973,29.056,0.9514,3.9552,-1.0105
1448701.0,7.9296,-2.2601,30.5596,1.0679,4.0989,-1.0254
1448711.0,7.3741,-2.2122,31.6513,1.1653,4.192,-1.086
1448721.0,6.6846,-2.2027,31.8333,1.3409,4.3655,-1.1871
1448731.0,6.3782,-1.5131,31.4311,1.5016,4.7055,-1.2962
1448741.0,5.6503,-0.8332,30.6937,1.5644,5.286,-1.392
1448751.0,4.6543,0.2394,31.9387,1.433,5.9091,-1.4649
1448761.0,3.3615,1.1396,34.5052,1.259,6.3907,-1.4543
1448771.0,2.375,2.2793,37.5315,1.2042,6.5439,-1.3569
1448781.0,1.0918,3.5721,41.4867,1.11,6.3305,-1.118
1448791.0,-0.68,2.8252,43.8713,1.069,5.8112,-0.796
1448801.0,-1.0822,0.3735,44.3789,0.9913,5.1572,-0.6178
1448811.0,0.0383,-2.2122,43.268,1.1941,4.929,-0.7013
1448821.0,-0.0958,-3.1125,42.5593,1.3239,5.07,-0.961
1448831.0,-1.2354,-3.0071,42.7892,1.5607,5.2126,-1.2659
1448841.0,-2.3559,-1.2833,43.9671,1.6676,5.154,-1.4559
1448851.0,-3.1508,0.8332,44.0246,1.5681,4.8555,-1.5123
1448861.0,-2.9497,2.9209,43.9192,1.2366,4.4729,-1.3792
1448871.0,-4.6064,3.8978,43.1339,0.7104,3.827,-1.1291
1448881.0,-5.296,3.2848,39.6192,0.2629,3.2358,-0.8854
1448891.0,-5.5162,2.806,35.5012,0.1517,3.7189,-0.704
1448901.0,-5.5641,1.561,35.1469,0.3448,4.839,-0.5321
1448911.0,-5.1906,-0.9194,39.2936,0.9466,5.8671,-0.5247
1448921.0,-4.8076,-3.0071,44.1778,1.6687,6.3449,-0.7317
1448931.0,-5.3247,-3.5243,48.5065,2.4733,6.2135,-1.0318
1448941.0,-5.0661,-3.304,50.0771,2.8654,5.9501,-1.334
1448951.0,-1.5131,-6.3494,50.9965,2.9947,5.4025,-1.8922
1448961.0,-8.7053,-5.6982,52.682,3.5492,5.071,-2.3977
1448971.0,-7.2305,-4.5681,49.694,3.0219,4.7752,-2.8649
1448981.0,-7.0198,-5.114,53.7163,3.1341,4.7874,-3.4853
1448991.0,-7.4412,-3.1029,55.3061,2.7978,4.3271,-4.1191
1449001.0,-8.2073,-0.5076,56.0339,2.5728,3.7487,-4.6464
1449011.0,-9.663,2.7294,57.6907,2.0566,3.2789,-5.012
1449021.0,-11.0133,6.292,60.4392,1.8518,2.5834,-5.1439
1449031.0,-11.7029,9.232,60.9085,1.732,1.7762,-5.0146
1449041.0,-13.3405,11.2432,61.5884,1.7618,1.086,-4.7262
1449051.0,-13.6374,13.2447,60.219,1.7299,0.5326,-4.333
1449061.0,-12.7659,14.0109,59.5869,1.6251,-0.0724,-3.9025
1449071.0,-13.5608,14.6238,59.5773,1.3292,-0.7716,-3.4609
1449081.0,-12.8138,14.9877,57.7864,0.8668,-1.358,-3.0016
1449091.0,-12.6988,13.7331,58.0929,0.538,-2.022,-2.5823
1449101.0,-12.3062,13.0628,55.7466,0.1495,-2.6952,-2.246
1449111.0,-11.8657,11.904,53.1704,-0.3092,-3.1815,-2.0002
1449121.0,-11.5784,10.2663,51.7243,-0.6987,-3.497,-1.8118
1449131.0,-10.9176,8.983,50.3261,-0.9695,-3.7429,-1.7209
1449141.0,-10.343,7.6136,49.4163,-1.1488,-3.8834,-1.7038
1449151.0,-9.73,6.7995,48.315,-1.2377,-3.9908,-1.7512
1449161.0,-8.916,6.0047,47.8936,-1.3,-4.1265,-1.8645
1449171.0,-8.4467,5.8035,47.3477,-1.3276,-4.2377,-1.9779
1449181.0,-7.9487,6.3398,46.3326,-1.3276,-4.4229,-2.105
1449191.0,-7.6998,6.8761,45.2408,-1.4293,-4.5107,-2.1561
1449201.0,-7.5561,7.4316,43.833,-1.4904,-4.5714,-2.1476
1449211.0,-7.0485,7.9104,43.201,-1.5644,-4.6166,-2.1098
1449221.0,-6.3015,8.0828,43.2297,-1.5655,-4.6209,-2.0444
1449231.0,-5.8897,8.3031,43.2967,-1.583,-4.689,-1.9587
1449241.0,-5.2385,8.6095,43.0956,-1.4564,-4.7629,-1.8635
1449251.0,-4.8937,8.8107,42.6647,-1.2728,-4.8039,-1.7411
1449261.0,-4.7692,8.9447,42.0709,-0.9599,-4.8513,-1.5782
1449271.0,-4.0223,9.5098,40.4716,-0.8232,-5.0152,-1.4042
1449281.0,-3.6009,9.7588,38.0582,-0.9067,-5.0769,-1.2302
1449291.0,-3.2657,9.9982,36.2003,-1.1909,-5.0221,-1.0695
1449301.0,-2.2314,9.8067,34.5914,-1.516,-4.7566,-0.8397
1449311.0,-1.4461,9.2416,34.1222,-1.5633,-4.2558,-0.6779
1449321.0,-0.7087,8.6383,35.1852,-1.4894,-3.8035,-0.5055
1449331.0,-0.1245,8.1882,36.3919,-1.3031,-3.5699,-0.3512
1449341.0,-0.249,7.6519,37.8284,-1.1052,-3.5263,-0.2336
1449351.0,-0.2394,7.604,37.972,-0.8003,-3.612,-0.1059
1449361.0,0.3065,7.4891,37.0335,-0.5603,-3.6726,0.0266
1449371.0,1.1396,7.4316,35.2043,-0.4459,-3.6189,0.1532
1449381.0,1.4844,7.7476,33.1741,-0.6699,-3.389,0.2389
1449391.0,1.9728,7.9392,32.7048,-0.986,-3.2177,0.3443
1449401.0,2.8443,7.92,32.3888,-1.1877,-2.8649,0.4879
1449411.0,2.9975,7.3263,33.3464,-1.3186,-2.5323,0.6364
1449421.0,3.4477,6.5793,35.1373,-1.2478,-2.4089,0.7258
1449431.0,3.7062,6.3207,35.9322,-1.1648,-2.4951,0.7897
1449441.0,3.5626,6.8378,35.6066,-1.1536,-2.635,0.9147
1449451.0,3.6775,6.7038,34.6968,-1.1871,-2.8734,1.052
1449461.0,4.3766,6.8761,32.5994,-1.2132,-2.9357,1.2153
1449471.0,4.5873,6.8474,31.5173,-1.1733,-2.7675,1.3526
1449481.0,5.2194,7.0581,28.7496,-1.2877,-2.5451,1.5288
1449491.0,5.5833,6.3494,27.9068,-1.2425,-2.1513,1.7395
1449501.0,5.9568,5.1523,27.5142,-1.3542,-1.7597,1.9161
1449511.0,6.6463,3.8882,26.9587,-1.5532,-1.607,1.9741
1449521.0,6.7708,2.4038,26.0585,-1.7687,-1.3239,1.9901
1449531.0,7.1156,1.0056,25.12,-1.8124,-0.9386,1.9113
1449541.0,7.4124,-0.2777,24.6507,-1.6501,-0.3991,1.7522
1449551.0,7.5178,-0.6033,23.942,-1.2233,0.3778,1.5804
1449561.0,7.5369,-0.2969,24.0378,-0.8109,1.1339,1.4234
1449571.0,7.2592,0.5171,23.7122,-0.531,1.8597,1.293
1449581.0,7.173,2.1452,23.6451,-0.5002,2.5627,1.242
1449591.0,6.0334,3.3423,24.6699,-0.7199,3.0405,1.3
1449601.0,5.2289,4.3,25.9148,-0.9583,3.3927,1.4676
1449611.0,4.5969,4.3287,26.681,-0.9839,3.7759,1.6384
1449621.0,3.6009,4.1563,27.4854,-0.7178,4.3431,1.84
1449631.0,3.0646,3.6488,28.4623,-0.1352,5.128,2.022
1449641.0,2.4708,3.1603,31.0289,0.4518,5.8351,2.1923
1449651.0,2.2027,2.6336,33.787,0.8924,6.1682,2.2492
1449661.0,2.0686,2.9497,35.7023,1.0477,6.1113,2.2838
1449671.0,1.494,4.1372,35.8556,0.6774,5.891,2.3823
1449681.0,0.1053,3.9935,36.344,0.4257,5.6122,2.5355
1449691.0,-0.3831,3.5626,35.3767,0.2863,5.7899,2.7383
1449701.0,-0.9768,2.2314,35.3959,0.3645,6.3689,2.8697
1449711.0,-1.5323,1.1492,37.5985,0.6013,6.9669,2.9442
1449721.0,-2.1835,0.5076,40.4141,0.7593,7.199,2.9378
1449731.0,-2.9401,-0.067,43.9097,0.8993,7.1133,2.9032
1449741.0,-4.0318,-0.7566,46.2177,0.9855,6.7573,2.8532
1449751.0,-3.9552,-1.9154,47.2041,1.3015,6.4519,2.751
1449761.0,-4.5011,-3.055,47.7212,1.6793,6.198,2.4993
1449771.0,-4.1659,-3.0837,47.3669,2.2466,6.2113,2.1428
1449781.0,-4.798,-1.7717,47.4339,2.5584,6.2699,1.7395
1449791.0,-5.0949,0.6416,46.7635,2.4914,6.2353,1.4
1449801.0,-5.7078,3.1508,47.75,2.1285,6.1209,1.2116
1449811.0,-7.0102,5.4875,49.129,1.516,5.6335,1.2467
1449821.0,-8.3414,6.5122,50.1154,0.8046,4.8624,1.3702
1449831.0,-8.7436,6.541,49.5408,0.4172,4.4192,1.5218
1449841.0,-9.1075,6.5027,48.9471,0.2714,4.3521,1.6666
1449851.0,-9.347,6.5697,49.3684,0.4347,4.5038,1.7991
1449861.0,-10.3813,7.4412,50.441,0.5146,4.5895,1.9678
1449871.0,-11.0516,7.4603,52.8352,0.6492,4.4245,2.1774
1449881.0,-11.6646,7.6614,54.5782,0.803,4.0457,2.4472
1449891.0,-11.8657,6.6942,55.4018,1.0275,3.4667,2.6675
1449901.0,-11.8657,5.363,54.6165,1.1552,2.9016,2.8245
1449911.0,-11.655,4.1276,52.4713,1.0908,2.6292,2.8117
1449921.0,-11.6741,3.0837,51.4179,0.8386,2.3647,2.6967
1449931.0,-11.6837,2.9975,50.2208,0.2682,2.1013,2.5057
1449941.0,-12.0955,3.1699,50.2304,-0.2916,1.9837,2.3652
1449951.0,-12.5743,3.553,51.6764,-0.8019,1.7368,2.2508
1449961.0,-12.2775,3.2082,52.3372,-1.0562,1.4367,2.2141
1449971.0,-12.2966,2.6336,53.4194,-1.3079,1.1158,2.171
1449981.0,-12.1625,1.8004,54.358,-1.3803,0.6673,2.0944
1449991.0,-11.9614,1.1492,55.1624,-1.3654,0.2517,2.0018
1450001.0,-11.7795,0.2873,55.8232,-1.2877,-0.2831,1.8523
1450011.0,-10.7643,-0.182,55.8998,-1.2058,-0.8705,1.6607
1450021.0,-11.0516,0.1628,54.2239,-1.3191,-1.4899,1.4644
1450031.0,-10.6015,0.3543,52.2894,-1.6171,-2.0364,1.2771
1450041.0,-10.659,1.1684,50.6709,-1.9374,-2.4727,1.1861
1450051.0,-10.5728,1.2929,49.627,-2.1322,-2.7553,1.1446
1450061.0,-10.5249,1.1205,48.7843,-2.2104,-2.9452,1.1164
1450071.0,-10.1706,0.5267,48.2958,-2.1077,-3.0831,1.0956
1450081.0,-9.2225,-0.4884,48.0277,-1.8283,-3.1176,1.0435
1450091.0,-8.8394,-0.9481,47.8074,-1.6267,-3.2517,0.9557
1450101.0,-8.0924,-1.8675,47.6255,-1.6208,-3.405,0.7849
1450111.0,-7.4986,-2.308,47.4243,-1.6778,-3.7056,0.589
1450122.0,-7.0773,-2.4421,46.7827,-1.7565,-4.0637,0.3006
1450131.0,-6.675,-2.0494,45.7293,-1.7224,-4.2053,0.0926
1450141.0,-6.5793,-1.0822,44.4747,-1.756,-4.4362,-0.0665
1450151.0,-6.2249,-0.1724,42.8083,-1.8879,-4.5384,-0.1548
1450161.0,-5.7269,0.6991,40.9408,-1.988,-4.4506,-0.2059
1450171.0,-4.9512,1.5419,40.9121,-2.1886,-4.3287,-0.2043
1450181.0,-4.7118,1.312,41.0558,-2.3424,-4.2739,-0.1208
1450191.0,-4.8459,0.2394,42.3486,-2.2083,-4.233,-0.083
1450201.0,-3.4955,-0.7087,43.201,-1.7911,-4.2282,-0.0958
1450211.0,-2.7198,-0.814,43.3638,-1.367,-4.3293,-0.1352
1450221.0,-2.5762,-0.9098,42.2529,-1.0429,-4.474,-0.2458
1450231.0,-2.3463,-0.6512,40.0885,-0.9828,-4.4628,-0.3044
1450241.0,-1.6855,-0.0575,38.5371,-1.069,-4.3665,-0.364
1450251.0,-1.0247,0.3065,37.6177,-1.2324,-4.1111,-0.4087
1450261.0,-0.9098,0.7853,37.9529,-1.3436,-3.8637,-0.4156
1450271.0,-1.1875,0.4884,38.7956,-1.5963,-3.944,-0.3704
1450281.0,-0.6991,-0.6416,39.4181,-1.6155,-4.0419,-0.3682
1450291.0,0.2682,-1.3982,38.968,-1.5745,-4.0797,-0.4454
1450301.0,1.1779,-1.5897,38.4413,-1.3814,-3.993,-0.5523
1450311.0,1.4365,-1.0439,38.0678,-1.2611,-3.9456,-0.6396
1450321.0,2.0111,-0.7374,37.0527,-1.1137,-3.9297,-0.6859
1450331.0,2.1069,0.1628,35.8843,-1.0131,-3.7775,-0.6753
1450341.0,2.6528,0.6704,35.2905,-1.1126,-3.7439,-0.5789
1450351.0,3.0071,1.0439,34.4095,-1.2616,-3.6492,-0.4581
1450361.0,2.8347,0.1149,33.854,-1.3611,-3.6306,-0.3751
1450371.0,3.6009,-0.9864,33.1357,-1.2851,-3.4555,-0.3006
1450381.0,4.7501,-2.2314,32.6856,-1.1132,-3.2102,-0.3427
1450391.0,5.6886,-2.7581,32.1876,-0.911,-2.8692,-0.4773
1450401.0,6.4356,-2.9018,31.6705,-0.77,-2.6733,-0.5917
1450411.0,6.6846,-2.806,30.9139,-0.6103,-2.4115,-0.7301
1450421.0,6.5314,-1.7621,30.5117,-0.4496,-2.1098,-0.7806
1450431.0,6.2824,-1.5514,29.5157,-0.3432,-1.8512,-0.7439
1450441.0,6.9432,-2.8347,29.0656,-0.2331,-1.4825,-0.7242
1450451.0,7.9392,-3.9552,29.171,-0.1229,-1.1361,-0.7966
1450461.0,8.102,-4.7022,29.5349,-0.041,-0.9227,-0.9796
1450471.0,8.418,-4.9512,28.9794,0.0537,-0.7029,-1.1962
1450481.0,8.1977,-4.2234,28.3665,0.2501,-0.4656,-1.3814
1450491.0,7.8243,-3.2465,27.9834,0.4438,-0.2379,-1.5107
1450501.0,7.7572,-1.4365,26.2117,0.6077,0.1868,-1.5399
1450511.0,7.2784,-0.1724,25.5413,0.6912,0.5683,-1.4473
1450521.0,7.0773,0.6321,23.4057,0.7721,1.1871,-1.3383
1450531.0,6.8378,1.5227,22.9269,0.8769,2.2162,-1.202
1450541.0,6.2345,1.7813,23.9995,1.0531,3.3241,-1.0094
1450551.0,5.9089,1.0822,25.7999,1.3697,4.2824,-0.8274
1450561.0,5.9951,-0.3831,29.3433,1.7469,5.0774,-0.7412
1450571.0,6.1292,-1.3024,33.3273,1.9741,5.4696,-0.7913
1450581.0,5.3056,-1.6376,35.3671,2.0226,5.3318,-0.879
1450591.0,4.4628,-3.0933,36.2865,1.9475,5.0348,-1.0573
1450601.0,4.0223,-3.7733,36.0184,2.0167,5.0918,-1.3462
1450611.0,4.0127,-3.802,35.3959,2.2913,5.6351,-1.6756
1450621.0,2.7485,-3.5147,36.5834,2.4658,6.3082,-2.0226
1450631.0,1.5993,-3.0263,39.4756,2.4004,6.6094,-2.378
1450641.0,1.3024,-1.8579,43.0286,2.2365,6.6812,-2.6888
1450651.0,0.6129,-0.1149,46.5337,2.0699,6.4269,-2.8963
1450661.0,-1.3695,1.3312,49.56,1.7384,5.676,-2.958
1450671.0,-3.1029,1.3599,50.4315,1.4766,4.7454,-2.9575
1450681.0,-3.486,0.7661,49.6749,1.4559,4.0989,-2.9713
1450691.0,-3.1029,0.431,48.0181,1.8097,4.1021,-3.0815
1450701.0,-3.5913,0.814,47.6063,2.2359,4.4325,-3.2081
1450711.0,-4.7597,1.9441,48.8992,2.3583,4.408,-3.3236
1450721.0,-5.3151,3.7445,49.5217,2.1141,4.2202,-3.3081
1450731.0,-6.4165,4.3096,51.2934,1.6192,3.7929,-3.223
1450741.0,-7.0868,3.4955,52.7969,1.2233,3.19,-3.1113
1450751.0,-7.106,2.1452,53.0268,1.1249,2.6691,-3.1022
1450761.0,-6.5027,1.1396,52.9502,1.2952,2.4541,-3.2198
1450771.0,-6.857,1.1875,53.1034,1.4665,2.2801,-3.4135
1450781.0,-7.2592,1.4748,53.8504,1.5357,2.1093,-3.5832
1450791.0,-7.3646,2.1835,54.2526,1.5202,1.8113,-3.7567
1450801.0,-7.3741,2.7102,54.8272,1.3574,1.3744,-3.9254
1450811.0,-7.5082,3.4189,55.4018,1.1925,0.9541,-4.0941
1450821.0,-8.1116,4.5107,55.488,1.1132,0.5699,-4.2191
1450831.0,-8.1977,5.679,55.9956,1.0679,0.1612,-4.3059
1450841.0,-8.8011,7.1443,56.0914,1.0068,-0.3155,-4.3436
1450851.0,-8.3031,9.1267,55.0954,0.9179,-0.77,-4.3027
1450861.0,-8.4084,10.6686,54.9326,0.6689,-1.1999,-4.1627
1450871.0,-8.3222,12.2583,54.3963,0.4209,-1.6703,-3.9446
1450881.0,-8.2361,13.2543,53.6684,0.2458,-2.0683,-3.6737
1450891.0,-7.9583,12.9383,52.9023,0.0431,-2.3918,-3.4114
1450901.0,-8.5617,12.5743,52.1936,0.0697,-2.7345,-3.1852
1450911.0,-8.0732,12.5935,51.4179,0.0154,-2.9394,-2.9452
1450921.0,-7.3933,12.5456,50.6134,-0.1793,-3.2459,-2.7111
1450931.0,-6.7516,11.2911,50.3165,-0.2017,-3.5167,-2.5861
1450941.0,-6.2632,11.5975,48.8896,-0.4315,-3.6961,-2.5148
1450951.0,-6.2537,11.6837,48.8417,-0.6407,-3.993,-2.4179
1450961.0,-6.1004,12.1434,47.8266,-1.0217,-4.3543,-2.2897
1450971.0,-5.6599,12.1913,46.9838,-1.2952,-4.6863,-2.1322
1450981.0,-5.2768,11.8082,45.3558,-1.6464,-4.9279,-1.9709
1450991.0,-4.9129,11.3485,44.7524,-1.8629,-5.0774,-1.8278
1451001.0,-4.1468,10.2759,43.9863,-1.8438,-5.1019,-1.7177
1451011.0,-3.4381,9.845,43.1818,-1.8145,-5.153,-1.6698
1451021.0,-3.3327,9.5672,42.272,-1.8225,-5.2088,-1.6171
1451031.0,-2.6145,9.4236,41.2952,-1.5852,-5.0348,-1.5266
1451041.0,-1.9632,9.3374,40.7589,-1.4755,-4.9188,-1.4692
1451051.0,-1.1971,9.73,39.5426,-1.4803,-4.7539,-1.3574
1451061.0,-1.3791,9.5577,40.3375,-1.6405,-4.6666,-1.2074
1451071.0,-0.6991,8.8969,40.5003,-1.6389,-4.664,-1.0637
1451081.0,-0.3065,8.4755,40.2992,-1.6309,-4.6874,-0.9312
1451091.0,0.3448,7.4603,40.2417,-1.5266,-4.6203,-0.8125
1451101.0,0.9481,7.0964,40.644,-1.4575,-4.6517,-0.7684
1451111.0,1.8771,6.9049,40.3662,-1.3297,-4.7401,-0.7513
1451121.0,2.2218,7.3741,39.6384,-1.4755,-4.9635,-0.704
1451131.0,2.8922,8.2648,37.9242,-1.7661,-5.1477,-0.6407
1451141.0,3.1029,8.8585,36.7654,-2.1944,-5.3052,-0.522
1451151.0,3.6679,9.1937,35.5874,-2.7164,-5.4792,-0.3459
1451161.0,4.9704,9.2129,33.9115,-3.0942,-5.543,-0.1703
1451171.0,5.2194,9.3853,32.9442,-3.4162,-5.4297,0.0255
1451181.0,5.6407,9.347,31.5268,-3.5689,-5.3674,0.2389
1451191.0,6.4165,9.2799,30.55,-3.3869,-5.0221,0.5135
1451201.0,6.5601,8.5712,30.7703,-2.8771,-4.6672,0.8306
1451211.0,7.0581,7.6614,30.0329,-1.9624,-4.1973,1.1435
1451221.0,7.9775,7.2018,29.0177,-0.8961,-3.5976,1.4585
1451231.0,8.4276,6.8187,27.246,-0.041,-3.0288,1.7597
1451241.0,9.1842,6.4069,25.12,0.4975,-2.3562,2.0071
1451251.0,9.6343,5.9855,23.0897,0.3602,-1.7624,2.2189
1451261.0,10.6015,5.1332,22.1033,-0.0218,-1.1813,2.3487
1451271.0,10.5249,4.3479,21.8351,-0.472,-0.4683,2.4078
1451281.0,11.0038,3.8882,23.4536,-0.688,0.2703,2.4594
1451291.0,10.5728,3.1795,25.8095,-0.8008,0.8695,2.519
1451301.0,10.6207,2.1835,28.3473,-0.663,1.16,2.5839
1451311.0,10.5632,1.6281,30.052,-0.2714,1.3686,2.6121
1451321.0,10.5345,1.1971,30.4734,0.1602,1.6203,2.6297
1451331.0,10.4291,0.8236,30.6745,0.6353,1.8528,2.6345
1451341.0,10.2376,0.565,30.1669,1.0765,2.1795,2.6345
1451351.0,10.1227,0.6129,29.1805,1.4745,2.4408,2.6228
1451361.0,9.7205,0.0,28.0409,1.5979,2.8979,2.5898
1451371.0,9.6343,-0.0862,28.0505,1.5431,3.4635,2.5153
1451381.0,9.3087,-0.1341,28.0888,1.318,3.8732,2.3541
1451391.0,8.8969,0.1341,29.7934,0.9844,4.2989,2.2588
1451401.0,8.2552,0.5459,31.0672,0.5805,4.5144,2.171
1451411.0,7.3933,0.7661,32.8101,0.2059,4.5586,2.1311
1451421.0,7.7285,0.7183,33.6721,0.1963,4.8263,2.1167
1451431.0,6.6846,0.5938,35.3863,0.6343,5.2424,2.1024
1451441.0,6.2345,0.7278,36.3344,1.2036,5.6159,2.1104
1451451.0,5.6599,1.0726,37.9625,1.8863,6.0379,2.0885
1451461.0,4.5777,1.494,39.3128,2.3844,6.2529,2.0396
1451471.0,4.6831,1.6759,40.3567,2.7739,6.247,2.0316
1451481.0,4.367,2.2505,40.5482,2.7287,6.2002,1.9693
1451491.0,4.0127,2.7007,40.6248,2.2971,5.8426,1.8874
1451501.0,4.2808,2.9975,40.3662,1.608,5.6074,1.7922
1451511.0,3.2657,3.0742,40.0502,0.9482,5.5175,1.6942
1451521.0,2.5953,2.8252,40.9696,0.2746,5.4121,1.6405
1451531.0,1.8866,2.5762,42.2433,-0.1325,5.3695,1.6096
1451541.0,1.4557,2.0686,44.8099,-0.2102,5.2796,1.5713
1451551.0,1.1301,1.6376,45.9974,-0.1697,4.9614,1.5181
1451561.0,0.565,0.8236,46.1315,0.0101,4.5693,1.4293
1451571.0,-0.249,0.68,45.1068,0.2575,4.342,1.3372
1451581.0,-0.8811,0.6512,43.4117,0.5023,4.3117,1.1973
1451591.0,-1.3408,0.6608,42.0901,0.928,4.6358,1.052
1451601.0,-2.3272,1.6951,41.4293,1.1105,5.0631,0.9291
1451611.0,-3.0742,2.5953,42.6264,1.1765,5.3882,0.8599
1451621.0,-3.6966,3.6775,43.8235,1.1435,5.5882,0.8556
1451631.0,-4.4915,3.6488,45.5377,1.0089,5.4307,0.886
1451641.0,-4.616,3.1508,46.7157,0.9115,5.1876,0.8594
1451651.0,-5.3726,2.7677,47.9319,0.8817,5.0423,0.7875
1451661.0,-5.8706,2.8347,48.8417,0.9461,4.8651,0.6758
1451671.0,-6.4643,3.2274,49.5025,1.2063,4.7848,0.5688
1451681.0,-7.2496,4.3958,50.2974,1.3681,4.6012,0.5082
1451691.0,-8.2456,5.2577,50.7188,1.4324,4.2095,0.505
1451701.0,-8.667,5.928,50.2016,1.3675,3.9861,0.5305
1451711.0,-8.7245,6.4165,49.9047,1.1855,3.769,0.5715
1451721.0,-8.8394,6.8187,50.6134,0.9695,3.6365,0.555
1451731.0,-8.734,7.4699,51.0444,0.7215,3.497,0.6024
1451741.0,-9.1075,8.4467,52.0308,0.3592,3.1858,0.6518
1451751.0,-9.7971,8.849,53.496,-0.0734,2.6648,0.7689
1451761.0,-10.6877,8.7724,53.9557,-0.5757,1.9215,0.8982
1451771.0,-10.2663,8.1786,54.607,-0.8205,1.4931,1.0147
1451781.0,-10.6973,7.7093,54.5782,-0.9456,0.9147,1.1174
1451791.0,-10.2568,7.0485,54.7219,-0.8333,0.4566,1.1967
1451801.0,-10.1897,7.2209,53.2758,-0.8189,0.0319,1.26
1451811.0,-10.0365,7.3263,52.7107,-0.8216,-0.3283,1.326
1451821.0,-9.9407,7.0581,51.1401,-1.0254,-0.5741,1.3936
1451831.0,-9.912,6.5697,50.7283,-1.2276,-0.8583,1.483
1451841.0,-9.481,5.6695,50.8528,-1.3319,-1.1861,1.5282
1451851.0,-9.3565,5.1044,50.4506,-1.4037,-1.4324,1.5453
1451861.0,-9.1746,4.5873,50.1346,-1.4596,-1.7863,1.541
1451871.0,-8.6095,4.0127,49.0907,-1.4841,-2.0651,1.5043
1451881.0,-8.2744,4.118,48.3629,-1.5431,-2.2918,1.4548
1451891.0,-7.9009,3.8978,47.4435,-1.5766,-2.4339,1.4335
1451901.0,-7.5848,3.4668,46.6103,-1.5937,-2.5446,1.4293
1451911.0,-7.1156,3.0646,46.7252,-1.5953,-2.6872,1.4048
1451921.0,-6.5218,2.3942,47.07,-1.6229,-2.7478,1.3122
1451931.0,-6.1292,2.4038,46.8019,-1.6751,-2.9665,1.235
