time_ms,ax,ay,az,gx,gy,gz
2832041.0,4.0606,-1.0032,9.098,-0.2857,-0.3592,0.0032
2832051.0,4.2952,-0.9912,8.5688,-0.0926,-0.2905,0.0266
2832061.0,4.276,-0.6584,8.2791,0.0676,-0.2075,0.0245
2832071.0,4.2952,-0.5938,7.5513,0.182,-0.1825,0.0367
2832081.0,4.2306,-0.6201,7.0701,0.29,-0.0298,0.0708
2832091.0,3.7206,-0.8882,8.1307,0.4204,0.265,0.1304
2832101.0,3.5698,-1.4389,9.3254,0.5502,0.4113,0.1884
2832111.0,3.735,-1.5658,9.6558,0.6486,0.4012,0.1916
2832121.0,3.7038,-1.3312,10.2831,0.6199,0.3379,0.1256
2832131.0,3.5985,-0.9026,11.0588,0.4821,0.2038,0.0245
2832141.0,3.2992,-0.7063,11.9758,0.3358,-0.0388,-0.0676
2832151.0,3.5626,-0.6153,11.7053,0.2831,-0.3108,-0.1176
2832161.0,3.3615,0.5674,10.9295,0.1623,-0.5555,-0.1389
2832171.0,4.209,0.565,8.9208,0.0857,-0.6917,-0.1112
2832181.0,4.3383,0.2131,8.2361,0.0186,-0.5465,-0.0756
2832191.0,3.8068,0.0575,9.0644,-0.0303,-0.34,-0.0479
2832201.0,3.5913,-0.2322,9.3925,-0.0745,-0.3108,-0.0234
2832211.0,3.6272,-0.6177,9.4379,-0.0905,-0.3198,-0.0037
2832221.0,3.5458,-0.747,9.7803,-0.0931,-0.3166,-0.0059
2832231.0,4.1444,-0.4597,9.6558,-0.0495,-0.3613,-0.0484
2832241.0,4.5586,0.0886,8.7005,0.0293,-0.3693,-0.1006
2832251.0,4.6256,-0.0024,8.8657,0.0506,-0.2554,-0.1479
2832261.0,4.3862,0.0287,9.2033,0.1245,-0.1261,-0.1809
2832271.0,4.3335,0.0192,9.2009,0.1469,-0.0846,-0.1937
2832281.0,4.4724,0.0287,9.2225,0.1235,-0.0479,-0.1905
2832291.0,4.3263,0.1652,9.0621,0.1181,-0.0117,-0.1761
2832301.0,4.4556,0.0862,8.5138,0.1266,0.0154,-0.1437
2832311.0,4.6519,-0.0934,8.2863,0.1192,0.1192,-0.099
2832321.0,4.5107,-0.1101,8.3653,0.091,0.2224,-0.0793
2832331.0,4.5801,-0.3112,8.6981,0.1112,0.3113,-0.0686
2832341.0,4.5825,-0.3089,8.9016,0.2081,0.4166,-0.0628
2832351.0,4.4676,-0.328,9.177,0.2783,0.4842,-0.0692
2832361.0,4.2976,-0.0766,9.323,0.3198,0.5459,-0.0814
2832371.0,4.2353,-0.1413,9.7181,0.3054,0.6098,-0.0825
2832381.0,4.0534,-0.1317,9.833,0.2331,0.6423,-0.0905
2832391.0,3.8379,-0.1053,9.7827,0.0905,0.6747,-0.1032
2832401.0,3.7733,-0.2274,9.9814,-0.0048,0.795,-0.1054
2832411.0,3.6512,-0.0335,9.9766,-0.0772,0.903,-0.1176
2832421.0,3.5099,0.2442,9.8928,-0.2421,0.9488,-0.1469
2832431.0,3.2585,0.3615,9.8234,-0.4417,0.986,-0.1735
2832441.0,3.3471,0.3519,9.244,-0.53,0.9897,-0.1772
2832451.0,3.0909,0.1604,9.6606,-0.5284,1.0429,-0.1634
2832461.0,3.0382,0.0622,10.1658,-0.3597,1.0408,-0.1272
2832471.0,2.8012,-0.0479,10.8338,-0.1639,0.9653,-0.0878
2832481.0,2.4493,0.2179,11.2647,0.074,0.8578,-0.041
2832491.0,2.0542,0.4453,11.4634,0.3358,0.7258,0.0303
2832501.0,1.4174,0.3998,11.2408,0.6737,0.6103,0.125
2832511.0,1.901,0.1915,10.1658,1.0445,0.5071,0.2155
2832521.0,2.1668,0.917,7.8338,1.1472,0.381,0.2304
2832531.0,2.7246,-1.1971,6.8115,0.8977,0.3799,0.1868
2832541.0,2.49,-1.7573,7.75,0.6774,0.5236,0.0527
2832551.0,2.0446,-0.668,9.3757,0.7764,0.7237,-0.0766
2832561.0,1.9058,0.0263,7.9703,0.9849,0.705,-0.0889
2832571.0,2.7821,-0.8404,9.0118,0.6843,0.6529,-0.1304
2832581.0,2.4014,-0.1891,9.4523,0.6082,0.7019,-0.2171
2832591.0,2.1955,-0.1269,10.137,0.6087,0.6635,-0.2496
2832601.0,2.7438,-0.2155,9.2608,0.6614,0.5215,-0.2501
2832611.0,2.7773,-0.2729,8.7604,0.6604,0.5289,-0.2666
2832621.0,2.8276,-0.498,8.8083,0.6651,0.5938,-0.2921
2832631.0,3.0335,-0.51,8.157,0.7774,0.6524,-0.3251
2832641.0,4.1851,0.3352,8.8466,0.8828,0.7913,-0.397
2832651.0,1.7645,1.4269,7.0222,1.1988,0.994,-0.3682
2832661.0,3.2465,0.067,8.0637,1.0062,1.1121,-0.3304
2832671.0,2.7414,0.735,9.4212,0.9434,1.3079,-0.4193
2832681.0,1.7573,1.0846,10.6925,1.0158,1.3872,-0.4448
2832691.0,2.1691,1.1684,10.6159,0.9977,1.2143,-0.4555
2832701.0,1.8794,1.3408,10.6901,0.977,1.1659,-0.4752
2832711.0,1.6975,1.2139,11.0325,0.9663,1.1515,-0.4922
2832721.0,1.5467,1.1756,10.5441,0.9573,1.0887,-0.5364
2832731.0,1.4629,1.6975,10.5967,0.8647,1.0919,-0.622
2832741.0,1.075,2.8347,11.1019,0.7774,1.1494,-0.6971
2832751.0,0.8092,4.2066,11.9686,0.6518,1.1446,-0.7205
2832761.0,0.6369,5.3151,12.6486,0.4523,1.0451,-0.6758
2832771.0,0.4046,5.691,13.4913,0.1517,0.8838,-0.572
2832781.0,0.3352,5.5545,14.0923,-0.1846,0.6252,-0.4518
2832791.0,0.3376,5.0781,14.2431,-0.4587,0.3347,-0.3406
2832801.0,0.3232,4.2258,13.8936,-0.6215,0.0995,-0.2458
2832811.0,0.2298,3.055,13.3884,-0.7184,-0.0729,-0.1974
2832821.0,0.3376,1.9225,12.9502,-0.7742,-0.2112,-0.2182
2832831.0,0.7302,1.3288,12.3349,-0.7482,-0.2937,-0.3006
2832841.0,0.8428,1.7166,11.8585,-0.6667,-0.3001,-0.4087
2832851.0,0.7757,2.3942,11.6454,-0.58,-0.2661,-0.4879
2832861.0,0.8332,2.873,11.4778,-0.5013,-0.273,-0.5124
2832871.0,0.9864,3.2034,10.987,-0.4145,-0.2996,-0.5013
2832881.0,0.9505,3.7972,10.2711,-0.3416,-0.3006,-0.4667
2832891.0,1.1588,4.1899,9.5648,-0.3645,-0.299,-0.4097
2832901.0,1.2474,4.1252,8.9352,-0.4188,-0.281,-0.3272
2832911.0,1.7693,3.6703,8.5832,-0.4092,-0.2033,-0.2331
2832921.0,1.7214,3.2968,8.3534,-0.2011,-0.0085,-0.1282
2832931.0,1.7861,3.1819,7.7812,0.108,0.1841,-0.0186
2832941.0,1.7573,3.1244,6.7804,0.3539,0.3464,0.0756
2832951.0,1.6712,2.9688,6.0741,0.4725,0.6002,0.1469
2832961.0,1.3695,2.3966,6.1866,0.4677,0.9174,0.1841
2832971.0,1.1109,1.6568,7.1706,0.373,1.1733,0.1596
2832981.0,0.9792,1.3312,8.2049,0.3501,1.359,0.0921
2832991.0,0.7302,1.5395,9.0237,0.39,1.4851,0.0064
2833001.0,0.3879,1.6855,9.6486,0.3757,1.5123,-0.0639
2833011.0,0.3232,1.743,10.1131,0.3326,1.4718,-0.1224
2833021.0,0.2059,2.0446,10.0796,0.3251,1.4479,-0.1793
2833031.0,-0.1173,2.6217,10.0054,0.2852,1.4404,-0.2299
2833041.0,-0.5722,3.225,10.2472,0.1676,1.4335,-0.2607
2833051.0,-0.7925,3.6536,10.7667,0.074,1.4442,-0.2496
2833061.0,-0.996,3.9576,11.1282,-0.0064,1.4064,-0.2075
2833071.0,-1.075,3.869,11.789,-0.1059,1.325,-0.1532
2833081.0,-1.0295,3.711,12.1003,-0.074,1.2632,-0.0809
2833091.0,-1.0008,3.2298,12.3565,-0.0059,1.202,-0.0154
2833101.0,-1.0534,2.5953,12.1937,0.0372,1.1031,0.0186
2833111.0,-0.9481,2.0542,12.0357,-0.0005,0.9972,-0.0064
2833121.0,-0.9744,1.8603,12.0955,-0.0734,0.9142,-0.0777
2833131.0,-1.3264,2.0135,12.1027,-0.1458,0.8434,-0.1596
2833141.0,-1.2689,2.1979,11.7747,-0.2857,0.687,-0.2331
2833151.0,-1.0463,2.2793,11.5472,-0.4922,0.5337,-0.298
2833161.0,-0.9313,2.4445,11.3509,-0.6263,0.472,-0.3336
2833171.0,-0.9601,2.4277,11.7148,-0.6971,0.4454,-0.3453
2833181.0,-0.8595,2.4229,11.485,-0.6731,0.3773,-0.3272
2833191.0,-0.8547,2.2386,11.2575,-0.6566,0.3139,-0.2996
2833201.0,-0.9409,1.8675,11.1019,-0.6194,0.2655,-0.2677
2833211.0,-0.9218,1.5203,11.3749,-0.4677,0.2581,-0.2331
2833221.0,-1.0774,1.4437,11.1929,-0.1575,0.2751,-0.1979
2833231.0,-1.1444,1.4509,10.4291,0.0692,0.2373,-0.1772
2833241.0,-1.0511,1.3096,9.7276,0.0883,0.1735,-0.1932
2833251.0,-1.0319,1.154,9.2105,-0.025,0.1639,-0.2437
2833261.0,-1.1875,1.0654,9.1506,-0.1628,0.224,-0.3171
2833271.0,-1.4006,0.9649,9.5792,-0.3006,0.2884,-0.3954
2833281.0,-1.9297,1.1013,10.2185,-0.4337,0.2751,-0.4768
2833291.0,-1.8699,1.3479,10.2352,-0.5002,0.1394,-0.5321
2833301.0,-1.7909,1.5347,10.1442,-0.4858,0.0474,-0.5593
2833311.0,-1.9656,1.9776,10.5105,-0.3033,0.0926,-0.5587
2833321.0,-2.2266,2.6624,10.6997,-0.0543,0.1064,-0.5161
2833331.0,-2.2218,2.9353,10.647,0.0724,-0.008,-0.4454
2833341.0,-2.1548,2.9808,10.3046,0.1,-0.1368,-0.3735
2833351.0,-2.1907,2.9353,10.1514,0.0639,-0.2341,-0.3198
2833361.0,-2.2003,2.8826,9.8952,0.0516,-0.3209,-0.2772
2833371.0,-2.1404,2.7581,9.3158,0.099,-0.34,-0.2357
2833381.0,-2.0255,2.6001,9.0668,0.1235,-0.273,-0.207
2833391.0,-2.2218,2.727,9.2392,0.1027,-0.1916,-0.1937
2833401.0,-2.2027,2.6983,10.0173,0.0628,-0.1437,-0.1676
2833411.0,-2.2194,2.7294,10.5297,0.0835,-0.1793,-0.125
2833421.0,-2.1907,2.6384,10.9367,0.1224,-0.281,-0.0756
2833431.0,-1.9656,2.6073,10.5489,0.2528,-0.4033,-0.0165
2833441.0,-1.731,2.7078,9.6774,0.3874,-0.4619,0.0314
2833451.0,-1.4964,2.8659,8.9926,0.4049,-0.4406,0.0617
2833461.0,-1.4054,3.0646,8.7173,0.3187,-0.3783,0.0777
2833471.0,-1.4245,3.1603,8.9088,0.1985,-0.3097,0.1
2833481.0,-1.4198,2.9688,9.2823,0.1325,-0.2437,0.1447
2833491.0,-1.4198,2.6504,9.5313,0.108,-0.2128,0.1862
2833501.0,-1.47,2.387,9.742,0.0686,-0.2246,0.2075
2833511.0,-1.4581,2.1691,10.094,0.0585,-0.2437,0.2166
2833521.0,-1.3575,2.0806,9.9838,0.0995,-0.2895,0.2219
2833531.0,-1.1468,1.98,9.7348,0.1314,-0.3358,0.2166
2833541.0,-0.8787,1.9225,9.177,0.1612,-0.3475,0.2022
2833551.0,-0.7614,1.901,8.825,0.1469,-0.3012,0.1745
2833561.0,-0.6823,1.9513,8.7197,0.1165,-0.2208,0.1426
2833571.0,-0.7302,2.0542,8.7101,0.0745,-0.133,0.1139
2833581.0,-0.747,2.138,8.928,0.0069,-0.0596,0.0899
2833591.0,-0.8308,2.1739,9.2823,-0.0532,-0.0096,0.0745
2833601.0,-0.826,2.2362,9.5385,-0.0798,0.0101,0.0702
2833611.0,-0.8045,2.2865,9.6438,-0.0702,0.0261,0.0772
2833621.0,-0.8547,2.3822,9.7755,-0.0394,0.0394,0.0947
2833631.0,-0.7326,2.296,9.7372,-0.0261,0.042,0.1213
2833641.0,-0.6201,2.1931,9.6151,-0.0298,0.0415,0.1362
2833651.0,-0.6369,2.1213,9.493,-0.0628,0.0553,0.1399
2833661.0,-0.7063,2.0542,9.4284,-0.1245,0.0702,0.1336
2833671.0,-0.7422,1.8794,9.6055,-0.1969,0.0857,0.1229
2833681.0,-0.7135,1.6712,9.7683,-0.2219,0.0974,0.1155
2833691.0,-0.7398,1.5658,9.9647,-0.207,0.1059,0.1038
2833701.0,-0.6991,1.5179,10.0365,-0.1602,0.1101,0.0921
2833711.0,-0.6321,1.4964,9.9982,-0.0756,0.1192,0.0873
2833721.0,-0.6225,1.5107,9.833,0.0202,0.1458,0.0825
2833731.0,-0.4597,1.4533,9.7899,0.0963,0.1948,0.0686
2833741.0,-0.5171,1.5754,9.8689,0.1293,0.2453,0.0388
2833751.0,-0.7302,1.8818,10.1275,0.1086,0.2629,0.0059
2833761.0,-0.7183,2.2098,10.2735,0.0612,0.2357,-0.0117
2833771.0,-0.7877,2.4565,10.4267,0.0165,0.2043,-0.0059
2833781.0,-0.8428,2.49,10.6207,0.009,0.1809,0.0261
2833791.0,-0.8236,2.3056,10.7332,0.0399,0.1681,0.0681
2833801.0,-0.7111,2.0063,10.6279,0.0926,0.1431,0.0947
2833811.0,-0.7039,1.8244,10.4794,0.1075,0.1245,0.0915
2833821.0,-0.7638,1.7454,10.3238,0.0734,0.1038,0.067
2833831.0,-0.759,1.7358,10.2879,0.0027,0.0708,0.0314
2833841.0,-0.7542,1.9297,10.3166,-0.0607,0.0548,-0.0064
2833851.0,-0.7733,2.217,10.3238,-0.0798,0.0532,-0.0255
2833861.0,-0.7853,2.4253,10.4291,-0.0846,0.0553,-0.0218
2833871.0,-0.7518,2.5115,10.4651,-0.0702,0.0452,-0.0021
2833881.0,-0.6919,2.4086,10.3693,-0.0548,0.0261,0.0208
2833891.0,-0.668,2.0901,10.3334,-0.0516,0.0154,0.0357
2833901.0,-0.6464,1.9178,10.0963,-0.058,0.0069,0.025
2833911.0,-0.6488,1.7885,10.0556,-0.0883,0.0101,-0.0064
2833921.0,-0.668,1.7717,10.1011,-0.1043,0.017,-0.041
2833931.0,-0.6656,1.9034,10.1179,-0.0889,0.0293,-0.0718
2833941.0,-0.6656,2.1237,10.1897,-0.0537,0.0415,-0.0926
2833951.0,-0.656,2.3391,10.1323,-0.0122,0.0436,-0.0968
2833961.0,-0.6847,2.3822,10.0604,0.0154,0.0532,-0.0878
2833971.0,-0.656,2.3272,9.8569,0.0165,0.0617,-0.0803
2833981.0,-0.6393,2.1931,9.9407,-0.0367,0.0665,-0.091
2833991.0,-0.7183,2.0949,10.1299,-0.0921,0.0591,-0.116
2834001.0,-0.7661,2.0423,10.1873,-0.1219,0.0314,-0.1389
2834011.0,-0.7949,2.1093,10.1562,-0.1261,-0.0011,-0.1628
2834021.0,-0.8212,2.2817,10.1131,-0.1101,-0.0208,-0.1793
2834031.0,-0.8499,2.49,9.979,-0.0851,-0.0282,-0.1825
2834041.0,-0.8643,2.6097,9.8761,-0.058,-0.0261,-0.1724
2834051.0,-0.8212,2.6887,9.6845,-0.0335,-0.0128,-0.1554
2834061.0,-0.7829,2.7054,9.493,-0.0383,0.0085,-0.1399
2834071.0,-0.8452,2.7102,9.5672,-0.0639,0.0436,-0.1314
2834081.0,-0.8859,2.7078,9.663,-0.074,0.0772,-0.1171
2834091.0,-0.9505,2.6839,9.7492,-0.0506,0.0968,-0.0963
2834101.0,-0.9098,2.7054,9.7252,-0.0011,0.1107,-0.0729
2834111.0,-0.9337,2.7126,9.6175,0.0516,0.1399,-0.0521
2834121.0,-0.9625,2.7246,9.6534,0.0867,0.1799,-0.0314
2834131.0,-0.9673,2.6097,9.8067,0.1064,0.2256,-0.0149
2834141.0,-0.9744,2.4852,10.0102,0.1059,0.2442,-0.0101
2834151.0,-0.9385,2.3391,10.3118,0.0835,0.232,-0.0181
2834161.0,-0.9912,2.3008,10.422,0.0713,0.1846,-0.0351
2834171.0,-0.9242,2.4181,10.331,0.0591,0.1219,-0.0559
2834181.0,-0.9361,2.569,10.3046,0.0484,0.0803,-0.0702
2834191.0,-0.9505,2.7821,10.0365,0.0303,0.042,-0.0745
2834201.0,-0.9361,2.9257,9.9455,-0.008,0.0122,-0.0708
2834211.0,-0.9122,3.0239,9.7971,-0.033,0.0032,-0.0521
2834221.0,-0.9146,2.9425,9.6702,-0.0452,0.0144,-0.0245
2834231.0,-0.8787,2.7892,9.5888,-0.0372,0.0351,0.0032
2834241.0,-0.7973,2.5905,9.5433,-0.0144,0.0639,0.0245
2834251.0,-0.8188,2.3966,9.5864,0.0186,0.1032,0.0341
2834261.0,-0.8284,2.3056,9.4834,0.0537,0.1325,0.0309
2834271.0,-0.8236,2.2242,9.481,0.0777,0.1586,0.0197
2834281.0,-0.8595,2.2098,9.4739,0.1027,0.1974,0.0032
2834291.0,-0.838,2.2697,9.584,0.1378,0.2453,-0.016
2834301.0,-0.917,2.4157,9.6103,0.1666,0.2799,-0.0335
2834311.0,-0.9433,2.5043,9.7851,0.1697,0.2985,-0.0452
2834321.0,-0.996,2.5402,9.9264,0.1623,0.3033,-0.0506
2834331.0,-1.0678,2.4708,10.0987,0.1431,0.307,-0.0553
2834341.0,-1.1516,2.5307,10.1969,0.1277,0.2799,-0.0676
2834351.0,-1.1899,2.6456,10.2615,0.1006,0.2421,-0.0841
2834361.0,-1.2043,2.7797,10.1562,0.0974,0.2134,-0.0883
2834371.0,-1.1971,2.8922,10.0269,0.1133,0.2134,-0.0862
2834381.0,-1.2019,3.0191,9.9742,0.1282,0.2357,-0.0803
2834391.0,-1.3264,2.9329,10.0844,0.1479,0.2735,-0.0654
2834401.0,-1.4988,2.8012,10.1466,0.1825,0.3033,-0.0479
2834411.0,-1.5802,2.6791,10.0844,0.1995,0.3081,-0.0463
2834421.0,-1.7573,2.6863,10.0509,0.1937,0.3193,-0.0623
2834431.0,-2.0111,2.8778,10.1658,0.2075,0.3634,-0.0814
2834441.0,-2.2027,3.1627,10.1778,0.2347,0.3996,-0.0889
2834451.0,-2.3703,3.4022,10.3262,0.249,0.4321,-0.083
2834461.0,-2.4684,3.6033,10.3693,0.2565,0.4672,-0.0623
2834471.0,-2.5091,3.6488,10.5872,0.224,0.4949,-0.0325
2834481.0,-2.5139,3.5841,10.8529,0.1479,0.4853,-0.0059
2834491.0,-2.4086,3.4955,11.0492,0.0431,0.4379,0.009
2834501.0,-2.2458,3.3998,11.2408,-0.0766,0.3751,0.017
2834511.0,-2.0303,3.3327,11.461,-0.1889,0.3017,0.0181
2834521.0,-1.6592,3.3016,11.6262,-0.2905,0.2017,0.0138
2834531.0,-1.2091,3.2753,11.5688,-0.4081,0.0676,0.0059
2834541.0,-0.8882,3.201,11.4203,-0.5428,-0.0846,-0.0043
2834551.0,-0.5962,3.0119,11.2144,-0.6598,-0.2309,-0.0133
2834561.0,-0.498,2.909,10.8122,-0.705,-0.3374,-0.0197
2834571.0,-0.5195,2.7892,10.3837,-0.6737,-0.3959,-0.0176
2834581.0,-0.4262,2.7031,9.8689,-0.5848,-0.4033,-0.0069
2834591.0,-0.3543,2.6695,9.3206,-0.4709,-0.3549,0.0005
2834601.0,-0.3352,2.7126,9.0166,-0.3751,-0.2629,0.0021
2834611.0,-0.4334,2.7892,8.9543,-0.3012,-0.158,0.0101
2834621.0,-0.4932,2.8132,9.1363,-0.2272,-0.0564,0.0255
2834631.0,-0.6393,2.8132,9.3302,-0.1453,0.0287,0.0442
2834641.0,-0.8619,2.8778,9.6199,-0.0841,0.0665,0.066
2834651.0,-1.1492,2.8778,9.7731,-0.0676,0.0511,0.0873
2834661.0,-1.3599,2.818,9.7851,-0.0814,-0.0112,0.108
2834671.0,-1.5036,2.6576,9.6606,-0.1075,-0.0814,0.1266
2834681.0,-1.5682,2.5091,9.4379,-0.1123,-0.1208,0.1357
2834691.0,-1.6185,2.4277,9.1722,-0.1027,-0.1282,0.1383
2834701.0,-1.7358,2.4205,9.0644,-0.0974,-0.1213,0.1368
2834711.0,-1.8866,2.3942,8.8777,-0.0851,-0.1075,0.1352
2834721.0,-2.15,2.4205,8.6814,-0.0548,-0.075,0.1405
2834731.0,-2.1811,2.5043,8.5569,-0.0218,-0.0293,0.1501
2834741.0,-2.1404,2.4157,8.6048,0.0069,0.0388,0.166
2834751.0,-2.1739,2.2625,8.6167,0.0266,0.1,0.1799
2834761.0,-2.0877,2.1907,8.8514,0.0229,0.1431,0.1799
2834771.0,-2.0758,2.0303,8.9735,0.0404,0.174,0.1767
2834781.0,-2.0686,1.9345,8.9232,0.0591,0.1926,0.1644
2834791.0,-2.0542,1.8651,9.0046,0.0495,0.2166,0.1442
2834801.0,-2.0327,1.7621,9.0333,0.0293,0.2304,0.125
2834811.0,-1.913,1.6903,9.1147,-0.0117,0.2277,0.0947
2834821.0,-1.7741,1.6257,9.1842,-0.0255,0.2352,0.0644
2834831.0,-1.7023,1.561,9.2919,0.0032,0.2703,0.0362
2834841.0,-1.6041,1.549,9.3326,0.066,0.3065,0.0064
2834851.0,-1.5323,1.5275,9.3805,0.1426,0.3523,-0.0234
2834861.0,-1.3168,1.4437,9.4978,0.2219,0.4129,-0.0601
2834871.0,-1.2881,1.549,9.6319,0.2575,0.4496,-0.1165
2834881.0,-1.3312,1.743,9.8761,0.216,0.4401,-0.1862
2834891.0,-1.3216,2.0686,10.1275,0.1628,0.4071,-0.248
2834901.0,-1.2474,2.4373,10.2759,0.1304,0.3608,-0.2868
2834911.0,-1.1779,2.794,10.2831,0.1043,0.3022,-0.3012
2834921.0,-1.0798,3.1915,10.2568,0.0968,0.2586,-0.2975
2834931.0,-1.1612,3.6224,10.0126,0.1187,0.2421,-0.273
2834941.0,-1.3216,4.0007,9.8761,0.1463,0.2533,-0.2182
2834951.0,-1.336,4.0414,9.9383,0.2011,0.3001,-0.1389
2834961.0,-1.3072,3.7828,10.003,0.2692,0.3618,-0.0532
2834971.0,-1.2402,3.3136,10.2927,0.2804,0.3991,-0.0021
2834981.0,-1.2641,2.9951,10.6207,0.2379,0.3746,0.0048
2834991.0,-1.2881,2.7964,10.999,0.1815,0.3033,-0.0192
2835001.0,-1.2354,2.7461,10.9559,0.1559,0.2123,-0.0575
2835011.0,-1.1564,2.9928,10.6901,0.1213,0.1235,-0.1075
2835021.0,-1.0918,3.5003,10.3765,0.066,0.0596,-0.1596
2835031.0,-1.3144,4.1803,9.9551,-0.0005,0.0319,-0.1884
2835041.0,-1.664,4.4724,10.1466,-0.0495,0.0708,-0.165
2835051.0,-1.5802,4.0725,10.5776,0.0335,0.1607,-0.0905
2835061.0,-1.5371,3.6895,10.647,0.1554,0.1953,-0.0452
2835071.0,-1.5682,3.5291,10.8816,0.1644,0.1602,-0.0559
2835081.0,-1.7214,3.6583,11.0133,0.1644,0.1054,-0.083
2835091.0,-1.8124,3.9049,10.8433,0.1745,0.0447,-0.1038
2835101.0,-1.8196,4.1922,10.58,0.1394,-0.0144,-0.1208
2835111.0,-1.8364,4.446,10.4172,0.0463,-0.0511,-0.1293
2835121.0,-1.9345,4.6352,10.5273,-0.0591,-0.0665,-0.1203
2835131.0,-1.98,4.6807,10.6566,-0.149,-0.099,-0.0926
2835141.0,-1.9632,4.616,10.7284,-0.2214,-0.1517,-0.0506
2835151.0,-2.0063,4.5418,10.6326,-0.2799,-0.2235,-0.0053
2835161.0,-2.0327,4.3934,10.5058,-0.3427,-0.3001,0.0399
2835171.0,-2.0375,4.1755,10.2663,-0.3863,-0.3719,0.0878
2835181.0,-1.9106,3.8738,9.821,-0.4076,-0.422,0.1304
2835191.0,-1.8124,3.5865,9.3685,-0.4236,-0.4305,0.1596
2835201.0,-1.6688,3.2298,9.0716,-0.448,-0.4023,0.1729
2835211.0,-1.64,2.9233,8.8945,-0.4848,-0.3592,0.1692
2835221.0,-1.6448,2.6671,8.8562,-0.5146,-0.3145,0.1511
2835231.0,-1.5921,2.4517,8.8585,-0.513,-0.2762,0.1298
2835241.0,-1.4389,2.3272,8.825,-0.4901,-0.2522,0.0995
2835251.0,-1.257,2.3008,8.8035,-0.4512,-0.2272,0.0644
2835261.0,-1.1325,2.411,8.7604,-0.3906,-0.1995,0.0303
2835271.0,-1.0056,2.5642,8.6694,-0.3326,-0.1708,0.009
2835281.0,-0.8021,2.6504,8.5904,-0.2746,-0.1405,0.0021
2835291.0,-0.6033,2.7366,8.4587,-0.2416,-0.1096,-0.0016
2835301.0,-0.5219,2.8228,8.4084,-0.2602,-0.0798,-0.0048
2835311.0,-0.486,2.8299,8.7484,-0.2831,-0.0474,0.0037
2835321.0,-0.4573,2.7821,8.849,-0.2474,-0.0325,0.0277
2835331.0,-0.4381,2.8156,8.7221,-0.1809,-0.0266,0.058
2835341.0,-0.3041,2.7773,8.4539,-0.0979,0.0112,0.0894
2835351.0,-0.3831,2.7509,8.1666,-0.0165,0.0857,0.1187
2835361.0,-0.4741,2.5474,8.1427,0.0287,0.1921,0.1415
2835371.0,-0.4717,2.2386,8.1163,0.0729,0.306,0.1479
2835381.0,-0.5267,2.0782,8.0709,0.1016,0.4225,0.1235
2835391.0,-0.7087,2.0638,8.3701,0.1421,0.5827,0.0867
2835401.0,-0.9266,2.2027,8.6311,0.2501,0.7764,0.0548
2835411.0,-1.245,2.4541,9.0142,0.3666,0.9706,0.0309
2835421.0,-1.6424,2.648,9.6917,0.4608,1.1547,0.0176
2835431.0,-1.8986,2.8036,10.319,0.5289,1.2882,0.0106
2835441.0,-2.1691,2.9808,10.9391,0.5135,1.3399,-0.0085
2835451.0,-2.387,3.134,11.7483,0.4225,1.3282,-0.0362
2835461.0,-2.6624,3.316,12.3565,0.2948,1.2478,-0.0697
2835471.0,-2.8826,3.5482,13.0077,0.1357,1.11,-0.1027
2835481.0,-3.0885,3.8762,13.3333,0.0112,0.9477,-0.1213
2835491.0,-3.2274,4.0773,13.5272,-0.0814,0.7764,-0.1123
2835501.0,-3.3878,4.1899,13.6996,-0.1564,0.6093,-0.0862
2835511.0,-3.5267,4.0127,13.7906,-0.1618,0.464,-0.0415
2835521.0,-3.6368,3.7254,13.8193,-0.1112,0.3368,-0.0021
2835531.0,-3.6464,3.4979,13.7092,-0.05,0.2001,0.0037
2835541.0,-3.5985,3.5626,13.3237,-0.0176,0.0644,-0.0266
2835551.0,-3.6416,3.8738,13.0891,-0.0553,-0.05,-0.0761
2835561.0,-3.7397,4.3359,12.9694,-0.158,-0.1687,-0.1235
2835571.0,-3.7661,4.6759,12.9742,-0.2911,-0.3028,-0.1474
2835581.0,-3.6344,4.9584,13.0316,-0.3996,-0.4305,-0.1453
2835591.0,-3.6607,5.1739,13.2735,-0.4693,-0.5422,-0.1155
2835601.0,-3.7685,5.3367,13.5201,-0.4991,-0.6662,-0.0511
2835611.0,-3.8427,5.375,13.5871,-0.4906,-0.8131,0.0378
2835621.0,-3.8451,5.2146,13.4913,-0.4592,-0.9551,0.1405
2835631.0,-3.7038,4.8339,13.3405,-0.4033,-1.0733,0.2395
2835641.0,-3.5171,4.6471,13.0699,-0.3661,-1.1749,0.3139
2835651.0,-3.4046,4.5825,12.9694,-0.3932,-1.2749,0.3661
2835661.0,-3.2058,4.5418,12.8593,-0.4826,-1.4138,0.4129
2835671.0,-2.9784,4.3144,12.7491,-0.6391,-1.6043,0.4581
2835681.0,-2.7821,3.9313,12.4451,-0.821,-1.8347,0.4949
2835691.0,-2.6815,3.4788,12.0452,-0.9828,-2.0502,0.522
2835701.0,-2.6145,3.1196,11.461,-1.0908,-2.2386,0.5422
2835711.0,-2.3415,2.6121,10.817,-1.1722,-2.3929,0.5598
2835721.0,-1.9752,2.0734,10.173,-1.2228,-2.4993,0.5593
2835731.0,-1.6233,1.81,9.4403,-1.2372,-2.5728,0.5374
2835741.0,-1.3384,1.6544,8.849,-1.2489,-2.6095,0.505
2835751.0,-0.9816,1.6783,8.1235,-1.2414,-2.6313,0.4794
2835761.0,-0.5578,1.6065,7.4579,-1.2425,-2.6334,0.4672
2835771.0,-0.2083,1.4557,6.5553,-1.2414,-2.6042,0.4693
2835781.0,0.2107,1.0439,5.8059,-1.2398,-2.5222,0.4699
2835791.0,0.6776,0.5531,5.0877,-1.1818,-2.3663,0.4635
2835801.0,1.1468,0.0407,4.4556,-1.0706,-2.1332,0.4385
2835811.0,1.6472,-0.5866,4.4029,-0.9307,-1.8342,0.389
2835821.0,2.0806,-0.9337,4.5035,-0.7391,-1.5171,0.3081
2835831.0,2.4517,-0.9673,4.8219,-0.5295,-1.2148,0.2038
2835841.0,2.727,-0.7422,4.9752,-0.3352,-0.9711,0.1
2835851.0,2.9999,-0.3496,4.9632,-0.2038,-0.7604,0.0096
2835861.0,3.1388,0.0646,5.2409,-0.1426,-0.5369,-0.0686
2835871.0,3.0502,0.5483,5.6886,-0.1091,-0.3283,-0.1235
2835881.0,2.8898,0.8739,6.3303,-0.1421,-0.1969,-0.1575
2835891.0,3.0023,0.9433,6.9456,-0.2022,-0.1309,-0.1745
2835901.0,2.9975,1.0582,7.4555,-0.2517,-0.0878,-0.1894
2835911.0,2.9281,1.2594,8.1259,-0.2969,-0.0639,-0.2027
2835921.0,2.9257,1.4054,8.9328,-0.3241,-0.0772,-0.2001
2835931.0,2.8922,1.4892,9.4164,-0.3118,-0.1527,-0.1756
2835941.0,2.9185,1.7071,9.4475,-0.3145,-0.2916,-0.1474
2835951.0,2.9066,1.9776,9.2991,-0.373,-0.4523,-0.1144
2835961.0,2.7438,2.1524,9.0956,-0.4539,-0.621,-0.0623
2835971.0,2.5762,2.2146,8.3749,-0.5614,-0.8237,0.0064
2835981.0,2.5211,1.9561,7.5178,-0.7066,-1.0206,0.0788
2835991.0,2.9161,1.4269,6.3949,-0.8088,-1.1435,0.1474
2836001.0,3.2489,0.9673,5.2553,-0.8328,-1.1467,0.1905
2836011.0,3.4237,0.723,4.3359,-0.7817,-1.0264,0.2139
2836021.0,3.3686,0.7973,3.2058,-0.6753,-0.8556,0.2395
2836031.0,3.3495,0.9553,1.5826,-0.6997,-0.7152,0.2655
2836041.0,3.2777,0.6943,0.7087,-0.9328,-0.547,0.2857
2836051.0,3.1699,0.3089,0.17,-1.102,-0.3203,0.3065
2836061.0,3.0191,0.0527,-0.6177,-1.0892,-0.0468,0.3331
2836071.0,3.2944,-0.5746,-0.9218,-0.8556,0.3751,0.3778
2836081.0,3.3208,-0.814,-2.0135,-0.299,0.9892,0.4182
2836091.0,2.8443,-0.6488,-2.9592,0.1437,1.6756,0.4124
2836101.0,2.2553,-0.4764,-2.3128,0.3523,2.4009,0.3719
2836111.0,1.1516,-0.0072,-1.3743,0.6332,3.1246,0.3501
2836121.0,-0.0431,0.7997,-0.1867,0.9158,3.7886,0.3512
2836131.0,-1.6137,1.7023,1.3838,1.1573,4.3878,0.3895
2836141.0,-3.1651,1.7238,3.3758,1.4096,4.9625,0.4938
2836151.0,-4.1228,0.7949,5.6743,1.6895,5.5201,0.5933
2836161.0,-5.2696,-0.0072,8.849,1.8071,5.9469,0.5768
2836171.0,-6.4955,-1.1636,13.4913,1.8145,6.1427,0.4858
2836181.0,-7.0461,-1.5969,17.243,1.9247,5.9825,0.3496
2836191.0,-7.4651,-1.8914,19.9006,1.9518,5.4999,0.1724
2836201.0,-7.5705,-1.6544,20.4752,1.8555,4.7885,-0.049
2836211.0,-7.3502,-0.7853,19.4984,1.5144,4.0621,-0.3081
2836221.0,-7.4579,0.1365,19.6492,1.0339,3.6045,-0.5539
2836231.0,-7.8793,1.1253,20.401,0.7593,3.3789,-0.7104
2836241.0,-8.1547,1.5323,21.9931,0.5497,3.1176,-0.7886
2836251.0,-8.1427,1.6927,23.4584,0.4007,2.6861,-0.8274
2836261.0,-8.248,2.0566,24.0162,0.3139,2.1162,-0.8482
2836271.0,-8.2289,2.3032,23.5925,0.2442,1.4803,-0.845
2836281.0,-7.944,2.5331,22.4648,0.1873,0.9126,-0.8381
2836291.0,-7.7021,2.727,21.5311,0.1032,0.4906,-0.8381
2836301.0,-7.7428,2.7964,20.9636,-0.0085,0.1522,-0.8397
2836311.0,-7.7572,2.6528,20.8319,-0.0745,-0.1628,-0.8317
2836321.0,-7.5274,2.5259,20.6093,-0.075,-0.4778,-0.8269
2836331.0,-7.3023,2.3846,20.3507,-0.0857,-0.8216,-0.837
2836341.0,-7.0126,2.3894,19.8048,-0.1671,-1.2265,-0.8759
2836351.0,-6.8618,2.569,19.2997,-0.2847,-1.6448,-0.9301
2836361.0,-6.7852,3.0311,18.3827,-0.373,-2.0502,-0.969
2836371.0,-6.7277,3.4117,17.2933,-0.4337,-2.4307,-0.9663
2836381.0,-6.5577,3.6775,15.852,-0.4305,-2.7457,-0.9195
2836391.0,-6.2321,3.8906,14.291,-0.4081,-2.9681,-0.8439
2836401.0,-5.8849,3.8762,13.0939,-0.4076,-3.0761,-0.7487
2836411.0,-5.2696,3.5793,12.3684,-0.3948,-3.0868,-0.6439
2836421.0,-4.8267,3.134,11.9566,-0.3863,-3.0783,-0.5534
2836431.0,-4.6663,2.6767,11.7029,-0.4145,-3.1208,-0.4879
2836441.0,-4.3934,2.3607,11.1498,-0.4762,-3.2395,-0.4475
2836451.0,-3.9241,2.0446,10.3765,-0.5917,-3.3789,-0.4347
2836461.0,-3.4117,1.8818,9.4858,-0.721,-3.4875,-0.4491
2836471.0,-3.0263,1.7621,9.0237,-0.8312,-3.5082,-0.4741
2836481.0,-2.6336,1.64,8.7149,-0.7843,-3.4364,-0.4741
2836491.0,-2.1955,1.47,8.3749,-0.6572,-3.347,-0.456
2836501.0,-1.5514,1.3719,8.0134,-0.5816,-3.3018,-0.4502
2836511.0,-1.0247,1.4389,7.5896,-0.5624,-3.2741,-0.4592
2836521.0,-0.7159,1.6496,7.2449,-0.563,-3.2358,-0.464
2836531.0,-0.3855,1.8196,6.778,-0.5577,-3.1948,-0.4528
2836541.0,0.1341,1.8579,6.28,-0.5699,-3.1549,-0.4289
2836551.0,0.747,1.8914,5.7485,-0.5976,-3.091,-0.4103
2836561.0,1.1684,1.9201,5.1858,-0.6199,-2.9899,-0.3911
2836571.0,1.7119,1.8387,4.8339,-0.6369,-2.8532,-0.3672
2836581.0,2.2194,1.7382,5.0111,-0.5805,-2.6579,-0.3363
2836591.0,2.4565,1.7885,5.0853,-0.3751,-2.436,-0.274
2836601.0,2.8539,1.6544,4.9249,-0.1751,-2.2641,-0.1985
2836611.0,3.0694,1.5203,4.6232,-0.0947,-2.1657,-0.1399
2836621.0,3.3686,1.3982,4.2617,-0.0878,-2.088,-0.1016
2836631.0,3.6607,1.1396,3.8451,-0.0745,-1.9693,-0.0686
2836641.0,3.984,0.9768,3.2226,-0.075,-1.8289,-0.0537
2836651.0,4.2377,0.9218,2.8036,-0.1511,-1.673,-0.0681
2836661.0,4.4796,1.0654,2.4995,-0.2293,-1.4963,-0.0857
2836671.0,4.5418,1.1947,2.6264,-0.2538,-1.2851,-0.0814
2836681.0,4.6615,1.415,2.9904,-0.1479,-1.0552,-0.0458
2836691.0,4.7573,1.7142,3.055,0.0617,-0.8455,0.0218
2836701.0,4.6376,2.0997,2.7318,0.182,-0.729,0.1
2836711.0,4.604,2.2984,2.2314,0.1086,-0.7157,0.1767
2836721.0,4.8171,2.3535,0.929,-0.0665,-0.7327,0.2533
2836731.0,5.0949,2.4157,-1.5036,-0.3672,-0.6997,0.3166
2836741.0,5.4037,1.8842,-3.4477,-0.8668,-0.4837,0.3555
2836751.0,5.873,0.644,-3.6248,-1.1552,0.0426,0.381
2836761.0,5.6575,0.2083,-3.7589,-0.9599,0.7556,0.3932
2836771.0,4.8483,0.0838,-2.3703,-0.6215,1.4766,0.3911
2836781.0,4.1396,0.2705,-1.1803,-0.1564,2.0444,0.4145
2836791.0,3.2848,0.5315,-0.4142,0.24,2.4525,0.4528
2836801.0,2.5881,0.5124,-0.1293,0.365,2.6717,0.4853
2836811.0,2.4349,-0.0335,-0.3041,0.2027,2.7361,0.4895
2836821.0,2.2793,-0.8092,-0.3711,0.108,2.9383,0.4566
2836831.0,1.573,-1.008,0.0359,0.3714,3.4726,0.4028
2836841.0,0.5674,-0.8188,1.6999,0.7247,4.0856,0.3374
2836851.0,-0.589,-0.2658,3.8882,0.9791,4.4926,0.265
2836861.0,-1.5299,0.7207,5.3941,1.1621,4.689,0.2208
2836871.0,-2.466,1.4772,6.4883,1.1935,4.7438,0.2283
2836881.0,-3.213,1.8914,6.6918,1.0738,4.681,0.2724
2836891.0,-3.7637,1.2617,7.4627,0.9562,4.748,0.3326
2836901.0,-4.5059,0.6057,7.9272,1.0621,4.9864,0.3688
2836911.0,-5.284,0.1125,9.6606,1.1717,5.3142,0.3347
2836921.0,-6.2249,0.1006,12.1434,1.325,5.5808,0.2602
2836931.0,-7.2903,0.656,14.303,1.4463,5.6308,0.1788
2836941.0,-7.8458,0.6967,16.7786,1.4457,5.4621,0.1224
2836951.0,-8.3366,0.8332,18.1672,1.5298,5.1732,0.0772
2836961.0,-8.734,1.1444,18.7849,1.5814,4.8481,0.0138
2836971.0,-9.0621,1.3001,20.0395,1.5101,4.5602,-0.074
2836981.0,-9.153,1.5227,21.6029,1.4718,4.3176,-0.1729
2836991.0,-9.6606,2.1476,23.1447,1.3548,3.9701,-0.29
2837001.0,-9.9335,2.6815,24.9045,1.069,3.4098,-0.3975
2837011.0,-10.0221,3.067,26.0322,0.7742,2.709,-0.4645
2837021.0,-9.8617,3.2657,26.1112,0.4406,1.8826,-0.5082
2837031.0,-9.6941,3.3543,25.3187,0.0601,0.9849,-0.5481
2837041.0,-9.2201,3.1508,23.7002,-0.2474,0.1894,-0.572
2837051.0,-8.825,3.0263,21.6891,-0.4278,-0.3874,-0.5896
2837061.0,-8.5449,3.0239,19.9461,-0.5401,-0.762,-0.605
2837071.0,-8.3725,2.8683,18.9094,-0.621,-1.002,-0.6066
2837081.0,-8.1307,2.6145,18.0954,-0.6034,-1.1797,-0.5869
2837091.0,-7.6974,2.411,17.3675,-0.5023,-1.3218,-0.5566
2837101.0,-7.3717,2.2889,16.4937,-0.4087,-1.4665,-0.5257
2837111.0,-6.9528,2.1069,15.8065,-0.4087,-1.6256,-0.5087
2837121.0,-6.3973,1.9034,15.1385,-0.473,-1.7746,-0.5039
2837131.0,-5.8562,1.6903,14.8848,-0.5747,-1.906,-0.5167
2837141.0,-5.5785,1.415,15.0188,-0.6545,-2.0401,-0.5422
2837151.0,-5.2984,1.2761,14.777,-0.6433,-2.2381,-0.5699
2837161.0,-4.9129,1.3288,14.042,-0.6018,-2.452,-0.6082
2837171.0,-4.6759,1.6185,13.1585,-0.5321,-2.5988,-0.6417
2837181.0,-4.3096,1.8842,12.2487,-0.4667,-2.6771,-0.6609
2837191.0,-3.8906,2.1165,11.5496,-0.4448,-2.7026,-0.6742
2837201.0,-3.6129,2.5618,11.0014,-0.4693,-2.7042,-0.6854
2837211.0,-3.5338,2.9688,10.7284,-0.5694,-2.7234,-0.6795
2837221.0,-3.3447,3.1771,10.6757,-0.6721,-2.7686,-0.6449
2837231.0,-3.146,3.237,10.5752,-0.6843,-2.8042,-0.5821
2837241.0,-2.9856,3.2465,10.3741,-0.5965,-2.8276,-0.4927
2837251.0,-2.6264,3.1819,10.0221,-0.4826,-2.859,-0.3895
2837261.0,-2.1524,2.9856,9.651,-0.3879,-2.8936,-0.2921
2837271.0,-1.7382,2.9473,8.9926,-0.3406,-2.9399,-0.2107
2837281.0,-1.4461,2.8347,8.5329,-0.4081,-3.0022,-0.1458
2837291.0,-1.1875,2.6743,7.853,-0.5444,-3.099,-0.0905
2837301.0,-0.9433,2.3391,7.1419,-0.7194,-3.1943,-0.049
2837311.0,-0.68,1.8938,6.45,-0.8583,-3.2459,-0.0181
2837321.0,-0.3017,1.4844,5.7748,-0.9147,-3.2305,0.0011
2837331.0,0.2251,1.2115,5.217,-0.8657,-3.1272,0.0117
2837341.0,0.6895,1.0606,5.0709,-0.7008,-2.9378,0.0271
2837351.0,1.1947,1.0822,4.8291,-0.4566,-2.7297,0.0575
2837361.0,1.7047,1.2354,4.367,-0.2692,-2.5877,0.0942
2837371.0,2.0231,1.2689,3.96,-0.2208,-2.4701,0.1277
2837381.0,2.3918,1.2139,3.6248,-0.2299,-2.3344,0.1681
2837391.0,2.7054,1.0726,3.237,-0.2528,-2.1833,0.2065
2837401.0,3.0981,0.9098,2.7653,-0.3272,-2.0433,0.2261
2837411.0,3.6152,0.6464,2.2984,-0.431,-1.8847,0.2315
2837421.0,4.0127,0.3783,1.9513,-0.4927,-1.657,0.2267
2837431.0,4.2018,0.1365,1.9321,-0.506,-1.3611,0.215
2837441.0,4.4772,-0.1413,2.2841,-0.5007,-1.077,0.2017
2837451.0,4.4772,-0.4836,2.8323,-0.4693,-0.8546,0.183
2837461.0,4.6448,-0.6871,3.1173,-0.3959,-0.7066,0.157
2837471.0,4.7405,-0.7901,3.134,-0.3108,-0.5997,0.1266
2837481.0,4.9368,-0.7901,2.7126,-0.2267,-0.5135,0.0899
2837491.0,5.1092,-0.6823,1.913,-0.1421,-0.3778,0.0537
2837501.0,5.3415,-0.5578,1.0558,-0.0527,-0.1336,0.025
2837511.0,5.4348,-0.5076,0.5387,0.0314,0.2474,0.0016
2837521.0,5.2648,-0.6129,0.7709,0.1091,0.7152,-0.0176
2837531.0,4.9129,-0.5411,1.4461,0.1815,1.1552,-0.0463
2837541.0,4.5346,-0.4334,2.4732,0.2059,1.5022,-0.0798
2837551.0,4.1252,-0.2777,3.5075,0.2384,1.7586,-0.0947
2837561.0,3.8164,-0.0024,4.0869,0.3113,1.9529,-0.0958
2837571.0,3.2753,0.3711,4.7429,0.3682,2.1205,-0.0857
2837581.0,2.6504,0.747,5.2457,0.4092,2.2386,-0.0495
2837591.0,1.9968,0.9768,5.5474,0.357,2.2923,0.0037
2837601.0,1.6999,0.6728,5.5474,0.1442,2.2476,0.0676
2837611.0,1.7334,-0.1484,5.679,-0.1676,2.1763,0.1091
2837621.0,1.7142,-0.9481,5.8754,-0.3326,2.2157,0.1112
2837631.0,1.4605,-1.2689,6.0023,-0.2272,2.3993,0.0963
2837641.0,0.9529,-1.1061,6.3159,0.0,2.6483,0.0761
2837651.0,0.3711,-0.7087,6.8067,0.2102,2.866,0.0708
2837661.0,-0.4022,-0.3184,7.0413,0.3528,2.9931,0.0931
2837671.0,-1.1061,-0.4932,7.1395,0.3544,3.0368,0.1437
2837681.0,-1.2139,-1.5658,7.3382,0.2873,3.082,0.1846
2837691.0,-1.3623,-2.4852,7.3358,0.3395,3.2246,0.1591
2837701.0,-1.731,-2.7964,7.4699,0.4906,3.5024,0.0601
2837711.0,-2.3607,-2.3056,8.1547,0.6311,3.8222,-0.0745
2837721.0,-3.5698,-1.4126,9.3853,0.7024,4.0744,-0.1878
2837731.0,-4.6735,-0.6776,10.8864,0.7535,4.226,-0.2283
2837741.0,-5.3965,-0.6943,12.9407,0.8482,4.316,-0.2027
2837751.0,-6.0406,-0.7278,14.4969,1.0222,4.2622,-0.1745
2837761.0,-6.3949,-1.166,16.3548,1.1797,4.143,-0.1825
2837771.0,-6.4643,-1.5131,17.7937,1.4356,3.9547,-0.2336
2837781.0,-6.7038,-1.1372,18.8328,1.6964,3.7046,-0.3586
2837791.0,-6.9528,0.1293,19.5439,1.8539,3.3794,-0.5231
2837801.0,-7.3071,1.8507,19.7929,1.8486,3.0022,-0.6678
2837811.0,-7.7189,3.3734,20.0227,1.6192,2.5813,-0.7551
2837821.0,-8.1235,4.3503,20.4728,1.2499,2.1375,-0.7817
2837831.0,-8.339,4.5155,21.4544,0.8769,1.7267,-0.7556
2837841.0,-8.3438,4.1132,22.6539,0.6604,1.325,-0.7066
2837851.0,-8.3941,4.1108,23.2333,0.4885,0.7662,-0.6912
2837861.0,-8.3127,4.4508,23.0059,0.2703,0.0761,-0.6971
2837871.0,-8.0613,4.8937,21.8567,0.1006,-0.5853,-0.6721
2837881.0,-7.944,5.0374,20.3411,-0.058,-1.126,-0.6178
2837891.0,-7.6902,5.0542,18.7825,-0.2224,-1.5649,-0.5555
2837901.0,-7.3334,4.9464,17.0707,-0.39,-1.9108,-0.4922
2837911.0,-7.0102,4.7166,15.5791,-0.5428,-2.1433,-0.4294
2837921.0,-6.7253,4.3072,14.4993,-0.671,-2.2695,-0.3682
2837931.0,-6.4284,3.7517,13.8983,-0.7184,-2.3237,-0.307
2837941.0,-6.0262,3.3016,13.5488,-0.6375,-2.3525,-0.2464
2837951.0,-5.8347,3.0574,13.0029,-0.4475,-2.3647,-0.1857
2837961.0,-5.4396,3.1412,12.1745,-0.2246,-2.3748,-0.1165
2837971.0,-5.0422,3.2489,11.2456,-0.1022,-2.3647,-0.0495
2837981.0,-4.6807,3.3208,10.5872,-0.1219,-2.3413,0.0122
2837991.0,-4.2689,3.1364,10.2807,-0.2448,-2.3104,0.066
2838001.0,-3.8786,2.7509,10.3765,-0.3916,-2.2796,0.1038
2838011.0,-3.5578,2.4181,10.4674,-0.4927,-2.27,0.1256
2838021.0,-3.2465,2.2625,10.635,-0.5513,-2.2822,0.1405
2838031.0,-2.8635,2.1548,11.0516,-0.5571,-2.2913,0.1564
2838041.0,-2.5522,2.1284,11.224,-0.4933,-2.3456,0.1937
2838051.0,-2.3487,2.0063,11.1498,-0.4518,-2.4722,0.2384
2838061.0,-1.9345,1.8747,10.6063,-0.4571,-2.6536,0.2772
2838071.0,-1.4245,1.7023,9.754,-0.4837,-2.808,0.306
2838081.0,-0.9074,1.5371,8.6981,-0.539,-2.8952,0.3214
2838091.0,-0.5818,1.2833,7.8673,-0.6774,-2.917,0.3161
2838101.0,-0.1077,0.8284,7.5872,-0.8508,-2.8888,0.2948
2838111.0,0.4741,0.3352,7.5705,-0.9605,-2.8335,0.2533
2838121.0,0.7566,0.1437,7.4939,-0.9881,-2.7968,0.1958
2838131.0,0.8715,0.2227,7.2377,-0.9844,-2.7994,0.1383
2838141.0,1.1612,0.2753,7.039,-0.9504,-2.7968,0.1064
2838151.0,1.5395,0.2705,6.6295,-0.8237,-2.759,0.1059
2838161.0,1.9201,0.4046,5.8419,-0.6657,-2.7042,0.1197
2838171.0,2.2266,0.3926,5.1212,-0.6034,-2.6292,0.1288
2838181.0,2.545,0.3735,4.4508,-0.613,-2.5504,0.1314
2838191.0,2.9664,0.3807,3.8283,-0.6742,-2.4578,0.1288
2838201.0,3.3591,0.34,3.3615,-0.7508,-2.3211,0.1256
2838211.0,3.7206,0.2777,2.8635,-0.7865,-2.1476,0.1378
2838221.0,3.9887,0.1556,2.6671,-0.795,-1.9204,0.1586
2838231.0,4.1396,0.0024,2.7198,-0.7466,-1.6788,0.1889
2838241.0,4.2401,-0.2394,2.8563,-0.6407,-1.4495,0.2293
2838251.0,4.3598,-0.6871,3.0215,-0.4842,-1.234,0.2708
2838261.0,4.5753,-1.0534,3.0837,-0.3097,-1.0472,0.2884
2838271.0,4.865,-1.1899,2.7773,-0.2038,-0.9222,0.2708
2838281.0,5.0781,-1.1923,2.4062,-0.1985,-0.8136,0.2267
2838291.0,5.2337,-1.0032,1.8842,-0.2011,-0.646,0.1761
2838301.0,5.2672,-0.6416,1.4964,-0.1745,-0.4039,0.1426
2838311.0,5.1595,-0.407,1.4724,-0.1506,-0.1016,0.1399
2838321.0,5.0159,-0.4166,1.7166,-0.0835,0.216,0.1639
2838331.0,4.9919,-0.6225,2.0566,0.0367,0.5289,0.2001
2838341.0,4.9704,-0.9649,2.4493,0.158,0.8402,0.2198
2838351.0,4.9488,-1.2067,2.9497,0.2586,1.1063,0.2011
2838361.0,4.7477,-1.1732,3.3375,0.3065,1.3223,0.1495
2838371.0,4.4197,-0.9649,3.7397,0.3177,1.5075,0.0937
2838381.0,4.0558,-0.6656,4.0941,0.3246,1.6735,0.0516
2838391.0,3.6081,-0.431,4.446,0.3299,1.822,0.0282
2838401.0,3.2441,-0.2203,4.616,0.3171,1.931,0.0181
2838411.0,3.0047,-0.1987,4.9847,0.2661,2.0385,0.0186
2838421.0,2.7054,-0.3256,5.5498,0.298,2.1934,0.0245
2838431.0,2.411,-0.1389,5.7509,0.4385,2.3503,0.0261
2838441.0,1.992,0.1963,6.1507,0.5438,2.5153,0.017
2838451.0,1.4868,0.7302,6.5362,0.6162,2.643,0.0197
2838461.0,0.905,1.2546,6.6343,0.6337,2.7106,0.0479
2838471.0,0.5315,1.7358,6.359,0.5497,2.7116,0.0926
2838481.0,-0.0335,2.1715,5.3678,0.3448,2.6872,0.1532
2838491.0,-0.5914,1.9154,4.6711,0.0718,2.8106,0.2464
2838501.0,-0.9481,0.8356,4.9057,-0.0766,3.1565,0.3555
2838511.0,-1.3647,-0.1748,5.8945,-0.033,3.6019,0.4119
2838521.0,-2.1596,-0.8045,7.5633,0.1032,4.018,0.4087
2838531.0,-2.9951,-1.1995,9.7468,0.3203,4.3213,0.3762
2838541.0,-3.6488,-1.1899,11.6238,0.6236,4.4458,0.3326
2838551.0,-4.2665,-0.9936,12.9574,0.8759,4.4022,0.2783
2838561.0,-4.7573,-0.6201,13.6972,1.0153,4.2356,0.216
2838571.0,-5.3391,-0.182,14.1354,1.0509,4.0488,0.1532
2838581.0,-5.8586,-0.0646,14.947,1.0302,3.9312,0.1022
2838591.0,-6.3111,-0.1772,16.1417,1.0121,3.8408,0.0575
2838601.0,-6.3734,-0.5698,17.8105,0.9817,3.6918,-0.0064
2838611.0,-6.4117,-0.8452,19.3475,0.92,3.3906,-0.1112
2838621.0,-6.5793,-0.9218,20.82,0.8567,2.9809,-0.2426
2838631.0,-6.6679,-0.6177,21.4975,0.8487,2.4812,-0.3719
2838641.0,-6.7756,-0.1508,21.3132,0.7822,1.9055,-0.4933
2838651.0,-6.766,0.2897,20.2669,0.605,1.3058,-0.605
2838661.0,-6.869,0.5962,18.7705,0.3634,0.7923,-0.705
2838671.0,-6.7397,0.9266,17.7243,0.1357,0.4874,-0.796
2838681.0,-6.9599,1.1636,17.2095,0.0346,0.3608,-0.8434
2838691.0,-7.0174,1.2929,16.9893,-0.0016,0.2618,-0.8477
2838701.0,-6.8067,1.1468,17.0084,-0.0851,0.1075,-0.8466
2838711.0,-6.5721,0.9194,16.9845,-0.1708,-0.0931,-0.8556
2838721.0,-6.5434,0.8691,16.8719,-0.2198,-0.2927,-0.879
2838731.0,-6.4356,0.9409,16.6277,-0.2421,-0.4901,-0.9073
2838741.0,-6.3303,1.0678,16.4386,-0.2703,-0.6843,-0.9312
2838751.0,-6.1675,1.1923,16.1968,-0.2815,-0.8812,-0.944
2838761.0,-5.9903,1.2282,16.0795,-0.2538,-1.0674,-0.9386
2838771.0,-5.8275,1.2881,15.8783,-0.1644,-1.2505,-0.9184
2838781.0,-5.636,1.47,15.3804,-0.0537,-1.4468,-0.8902
2838791.0,-5.351,1.6328,14.8129,0.0255,-1.6517,-0.8588
2838801.0,-5.0805,1.8004,14.0899,0.0756,-1.839,-0.8269
2838811.0,-7.2903,10.7212,11.9758,0.3884,-1.8294,-0.6949
2838821.0,-5.7916,11.133,4.9536,1.7123,-1.4335,0.017
2838831.0,-2.7414,5.9424,11.4778,0.6678,-1.3383,0.3145
2838841.0,-2.8611,2.296,11.8992,-0.0468,-1.9209,0.3682
2838851.0,-2.5714,1.7166,10.58,-0.0979,-2.0646,0.3092
2838861.0,-2.648,1.4413,10.2304,-0.1181,-1.8863,0.2634
2838871.0,-2.1979,-0.4884,11.0445,-0.3586,-1.8486,0.1458
2838881.0,-1.7957,-0.4357,13.8792,-0.9142,-2.0912,-0.1634
2838891.0,-1.7478,-1.0534,11.3461,-0.6715,-2.4025,-0.3448
2838901.0,-2.1141,-0.1221,13.1059,-1.0392,-2.6361,-0.6188
2838911.0,-2.0016,1.2713,11.643,-0.8333,-2.9527,-0.6981
2838921.0,-1.6137,2.5618,9.7851,-0.5779,-3.1081,-0.6726
2838931.0,-0.893,3.1125,7.7979,-0.5614,-3.2411,-0.5944
2838941.0,-0.0694,3.4764,5.3415,-0.6247,-3.24,-0.4906
2838951.0,0.4669,3.6512,3.8164,-0.7503,-2.9846,-0.3874
2838961.0,0.7805,3.893,3.2178,-0.8109,-2.5589,-0.2602
2838971.0,0.905,3.8331,4.4748,-0.7396,-2.0002,-0.0952
2838981.0,0.9194,3.462,5.5785,-0.3868,-1.5229,0.125
2838991.0,1.2929,2.9832,6.5793,0.0383,-1.1265,0.339
2839001.0,1.3743,2.4708,7.9344,0.3666,-0.8306,0.5034
2839011.0,1.5921,2.3942,8.4443,0.5353,-0.7583,0.6151
2839021.0,1.5323,2.3128,9.1099,0.3815,-0.8328,0.6753
2839031.0,1.5275,2.1332,9.6223,0.0521,-1.0621,0.7109
2839041.0,1.4078,1.8076,10.0173,-0.2671,-1.3111,0.7412
2839051.0,1.4269,1.0582,11.0061,-0.3586,-1.4117,0.7865
2839061.0,1.506,0.2083,11.9542,-0.1064,-1.4245,0.8349
2839071.0,1.4413,0.0838,12.2775,0.1926,-1.5713,0.8301
2839081.0,1.2737,0.5171,11.8992,0.2182,-1.9401,0.771
2839091.0,1.3336,0.9768,10.5584,0.0016,-2.428,0.7104
2839101.0,1.664,1.1564,8.6143,-0.3134,-2.8409,0.6721
2839111.0,2.1261,1.166,6.359,-0.6417,-3.073,0.6476
2839121.0,2.6432,1.1229,4.3072,-1.0115,-3.1176,0.6135
2839131.0,3.0694,0.8475,3.2729,-1.3324,-2.9617,0.5811
2839141.0,3.5314,0.3328,3.383,-1.3702,-2.6127,0.5795
2839151.0,3.893,-0.3807,3.8595,-1.0727,-2.2136,0.6045
2839161.0,4.0845,-0.7997,3.6871,-0.5917,-1.9183,0.6226
2839171.0,4.4221,-0.9337,2.9113,-0.1453,-1.7017,0.6268
2839181.0,4.7669,-1.0918,2.15,0.1703,-1.4628,0.6125
2839191.0,5.2936,-1.1109,0.9218,0.415,-1.1994,0.5843
2839201.0,5.6575,-1.0654,-0.3591,0.4922,-0.8801,0.53
2839211.0,5.9664,-1.1636,-1.221,0.3954,-0.4874,0.4496
2839221.0,6.1435,-1.2258,-1.5514,0.2607,-0.0277,0.3555
2839231.0,5.9783,-1.087,-1.4485,0.191,0.4826,0.2597
2839241.0,5.6743,-0.8068,-1.2761,0.191,0.9913,0.1873
2839251.0,5.193,-0.5148,-1.2426,0.1783,1.4479,0.1437
2839261.0,4.5753,-0.328,-1.245,0.0974,1.8624,0.1256
2839271.0,4.1563,-0.3567,-0.814,0.0069,2.2897,0.1282
2839281.0,3.5961,-0.4597,-0.0407,0.0309,2.7505,0.1479
2839291.0,2.6169,-0.5028,0.9074,0.2112,3.2363,0.1756
2839301.0,1.6592,-0.4334,2.2817,0.5215,3.7184,0.2038
2839311.0,0.7566,-0.2418,4.1468,0.9227,4.1755,0.2288
2839321.0,-0.1484,0.1891,6.1124,1.3729,4.5182,0.2597
2839331.0,-0.9529,0.6943,7.7883,1.7097,4.673,0.2969
2839341.0,-1.3192,1.0104,8.7795,1.7453,4.5575,0.3235
2839351.0,-1.561,1.1037,8.9184,1.4346,4.2484,0.3139
2839361.0,-1.8364,0.9313,8.7029,0.9477,3.9717,0.2772
2839371.0,-2.2697,0.6823,8.8897,0.5231,3.886,0.2299
2839381.0,-2.9616,0.5411,9.8952,0.2959,3.952,0.1937
2839391.0,-3.7876,0.5531,11.497,0.2996,4.0329,0.1878
2839401.0,-4.288,0.6632,12.9191,0.4858,3.9988,0.2187
2839411.0,-4.5394,0.5195,13.5464,0.7098,3.8083,0.2682
2839421.0,-4.5514,0.3065,13.2711,0.8716,3.5433,0.2911
2839431.0,-4.4748,0.1724,12.6222,0.9881,3.3683,0.2629
2839441.0,-4.5514,0.1915,12.0548,1.094,3.3672,0.1937
2839451.0,-4.8507,0.51,12.0931,1.1627,3.4992,0.0968
2839461.0,-5.5737,1.2665,12.6965,1.1627,3.6333,-0.0037
2839471.0,-6.2656,1.9417,13.9151,1.0531,3.6838,-0.0665
2839481.0,-6.9623,1.9393,15.4067,0.8977,3.5843,-0.0708
2839491.0,-6.8714,1.8555,16.0914,0.7226,3.2954,-0.0756
2839501.0,-7.1826,1.6185,17.0156,0.4975,2.9878,-0.1176
2839511.0,-7.2951,1.6951,17.7027,0.4071,2.6941,-0.1719
2839521.0,-7.5106,2.0494,18.1217,0.3911,2.4163,-0.2304
2839531.0,-7.8147,2.5809,18.1887,0.3134,2.0689,-0.2879
2839541.0,-7.9464,3.1556,18.1073,0.1336,1.6852,-0.3342
2839551.0,-7.3981,3.3208,18.0571,-0.0708,1.3058,-0.356
2839561.0,-7.5944,2.4373,16.9246,-0.24,0.9211,-0.3879
2839571.0,-9.0692,3.1627,16.6038,-0.3735,0.7194,-0.4704
2839581.0,-9.0166,3.7038,16.2423,-0.2235,0.6651,-0.4379
2839591.0,-8.6694,3.8978,16.5942,-0.2033,0.555,-0.3714
2839601.0,-8.418,3.62,17.097,-0.3991,0.2549,-0.3278
2839611.0,-6.5697,3.3662,17.9158,-0.5076,-0.0521,-0.306
2839621.0,-8.2169,2.5474,18.2007,-0.4736,-0.3555,-0.2879
2839631.0,-8.5569,3.9504,16.3189,-0.464,-0.8945,-0.3225
2839641.0,-8.7843,4.2832,16.0579,-0.6008,-1.2217,-0.273
2839651.0,-7.6136,4.7477,14.6908,-0.5406,-1.4825,-0.1282
2839661.0,-7.1108,4.4915,13.3405,-0.7082,-1.7491,0.0165
2839671.0,-6.8738,3.8427,13.058,-1.0046,-1.9316,0.1096
2839681.0,-6.4835,3.6129,12.5959,-1.044,-2.0119,0.1958
2839691.0,-6.4691,3.316,12.3684,-1.0153,-2.0449,0.2889
2839701.0,-6.3351,3.1484,12.2511,-1.0025,-2.1412,0.3826
2839711.0,-5.9855,2.7366,12.2368,-0.9738,-2.2578,0.4943
2839721.0,-5.5905,2.332,11.7986,-0.8344,-2.3514,0.6188
2839731.0,-5.126,1.8771,11.1761,-0.687,-2.3924,0.7333
2839741.0,-4.7238,1.3384,10.7284,-0.6428,-2.4163,0.8109
2839751.0,-4.3096,0.7015,10.343,-0.7258,-2.4855,0.8344
2839761.0,-3.984,0.1173,10.0868,-0.9269,-2.6148,0.8003
2839771.0,-3.7996,-0.3328,9.9216,-1.126,-2.7414,0.7269
2839781.0,-3.4692,-0.7733,9.7803,-1.2143,-2.8255,0.6481
2839791.0,-2.964,-1.1971,9.5505,-1.1903,-2.8521,0.5651
2839801.0,-2.4732,-1.3623,9.0884,-1.1323,-2.8846,0.4635
2839811.0,-2.2338,-1.087,8.7101,-1.1291,-2.9059,0.3453
2839821.0,-2.1141,-0.7542,8.983,-1.1089,-2.8574,0.2528
2839831.0,-1.9776,-0.34,8.7795,-0.9855,-2.8511,0.2203
2839841.0,-1.9201,-0.1532,8.2361,-0.9253,-2.9021,0.2283
2839851.0,-1.4054,-0.3998,7.9033,-0.9764,-2.9575,0.2416
2839861.0,-0.8715,-0.6991,7.2975,-0.9844,-2.9883,0.2485
2839871.0,-0.3041,-0.9218,6.6415,-0.9562,-2.9516,0.2448
2839881.0,0.2873,-1.4078,6.5864,-0.8934,-2.8218,0.2309
2839891.0,0.814,-1.7358,6.5745,-0.7375,-2.6584,0.1974
2839901.0,1.0894,-1.6328,6.2656,-0.6258,-2.5589,0.1293
2839911.0,0.9673,-1.0822,6.1866,-0.6992,-2.5424,0.0383
2839921.0,0.7781,-0.7183,6.7397,-0.7742,-2.535,-0.0053
2839931.0,1.2019,-0.4741,6.1938,-0.6045,-2.5398,0.0372
2839941.0,1.6472,-0.7446,5.387,-0.4597,-2.4972,0.1032
2839951.0,2.2865,-1.2905,4.6974,-0.4076,-2.4179,0.1368
2839961.0,2.9018,-1.6592,3.9911,-0.3948,-2.312,0.1203
2839971.0,3.146,-1.7597,3.4884,-0.398,-2.1551,0.0654
2839981.0,3.474,-1.6831,3.4692,-0.3049,-1.9161,0.0096
2839991.0,3.5698,-1.3096,3.1819,-0.1197,-1.6692,-0.0192
2840001.0,3.6703,-1.0008,3.0406,-0.0101,-1.5006,-0.0378
2840011.0,3.9696,-0.5842,1.9609,0.0027,-1.4266,-0.0378
2840021.0,4.5466,-0.6488,1.0391,-0.099,-1.2904,-0.0261
2840031.0,4.9775,-0.7111,0.0215,-0.157,-0.9977,-0.016
2840041.0,5.0685,-0.7183,-0.0718,-0.1862,-0.571,-0.0165
2840051.0,4.9895,-0.5746,0.4166,-0.1203,-0.1187,-0.0059
2840061.0,4.3814,-0.1484,0.8404,0.0325,0.2783,0.0277
2840071.0,4.2353,0.3711,1.4437,0.157,0.5933,0.0819
2840081.0,4.1276,1.0846,1.2474,0.249,0.8322,0.1655
2840091.0,3.7733,1.6233,0.1221,-0.0043,0.9184,0.2559
2840101.0,3.5458,1.1779,-0.7638,-0.7189,0.8493,0.3288
2840111.0,3.7493,-0.0694,-1.8148,-1.417,0.8152,0.3879
2840121.0,4.0797,-1.5682,-2.3391,-1.6692,1.0935,0.4252
2840131.0,3.6607,-2.5115,-1.6999,-1.334,1.7475,0.4331
2840141.0,2.7461,-2.9305,0.1987,-0.572,2.502,0.415
2840151.0,1.9369,-2.411,1.2881,0.3975,3.0916,0.4028
2840161.0,1.2115,-1.719,2.4636,1.1286,3.529,0.3938
2840171.0,0.2466,-0.8523,3.1053,1.5905,3.8296,0.3906
2840181.0,-0.7973,-0.1844,3.4524,1.8672,4.1393,0.4055
2840191.0,-1.5203,-0.6464,4.6519,1.9502,4.5645,0.4198
2840201.0,-2.6959,-1.2594,7.2544,1.9401,5.0551,0.3741
2840211.0,-4.1084,-1.6137,11.1402,1.798,5.3669,0.2469
2840221.0,-5.1595,-1.9944,15.7682,1.6437,5.3041,0.1
2840231.0,-5.6048,-2.0063,18.2366,1.6857,4.8513,-0.0144
2840241.0,-5.8059,-2.2075,19.2326,1.6565,4.151,-0.1405
2840251.0,-4.9871,-1.6496,17.8799,1.6953,3.4529,-0.2905
2840261.0,-5.0182,-0.3256,16.2327,1.7091,3.1113,-0.4406
2840271.0,-5.1356,1.0271,15.2295,1.5548,2.9633,-0.5491
2840281.0,-5.454,2.047,15.0476,1.2281,2.8367,-0.6039
2840291.0,-5.8323,2.2266,15.3636,0.9152,2.7079,-0.5784
2840301.0,-6.0956,1.6113,15.7131,0.7237,2.5552,-0.5103
2840311.0,-6.2106,0.7015,15.6748,0.6822,2.3695,-0.4534
2840321.0,-6.0262,0.067,14.9422,0.8668,2.2812,-0.4353
2840331.0,-6.0861,-0.2969,14.856,1.1451,2.402,-0.4645
2840341.0,-6.3159,-0.1508,15.7323,1.3989,2.5605,-0.5412
2840351.0,-6.8235,0.3208,17.1568,1.5394,2.5478,-0.6502
2840361.0,-7.1419,1.3958,17.4226,1.4463,2.2019,-0.77
2840371.0,-7.1491,2.3463,17.2071,1.0616,1.6772,-0.8684
2840381.0,-6.778,3.1699,16.3883,0.6662,1.2169,-0.9057
2840391.0,-6.7397,3.644,15.2966,0.3363,0.9253,-0.8955
2840401.0,-6.5649,3.7757,14.6501,-0.0048,0.7492,-0.8604
2840411.0,-6.7684,3.6775,15.2439,-0.2288,0.7237,-0.7966
2840421.0,-7.0629,3.1532,15.9693,-0.2054,0.6981,-0.6768
2840431.0,-7.0533,2.1524,17.1281,-0.0335,0.6018,-0.5624
2840441.0,-6.8235,1.7861,16.9653,0.281,0.4172,-0.4965
2840451.0,-6.7756,1.7478,16.5775,0.3177,0.1219,-0.5119
2840461.0,-6.5434,1.8579,16.0603,0.0644,-0.2661,-0.5821
2840471.0,-6.3877,2.0255,15.4091,-0.2746,-0.6157,-0.6683
2840481.0,-6.2537,2.0039,15.1218,-0.5651,-0.8743,-0.7364
2840491.0,-6.098,1.9872,14.9518,-0.6912,-1.06,-0.7716
2840501.0,-6.0669,2.1332,14.6046,-0.6321,-1.2164,-0.7684
2840511.0,-5.9903,2.6671,13.9151,-0.4677,-1.3324,-0.729
2840521.0,-5.7317,2.9113,13.2591,-0.3624,-1.4282,-0.647
2840531.0,-5.466,2.5235,12.8449,-0.3331,-1.5107,-0.5529
2840541.0,-5.1954,2.0566,12.3301,-0.3411,-1.5846,-0.4895
2840551.0,-4.9991,1.81,12.1266,-0.4012,-1.6394,-0.4683
2840561.0,-4.8339,1.6472,12.3325,-0.4454,-1.6847,-0.4619
2840571.0,-4.9416,1.7454,12.378,-0.4156,-1.7597,-0.4486
2840581.0,-4.8722,1.8459,12.3134,-0.3395,-1.8528,-0.4135
2840591.0,-4.6232,2.0303,12.0428,-0.2325,-1.9294,-0.365
2840601.0,-4.4652,2.2362,11.7747,-0.1463,-1.9912,-0.307
2840611.0,-4.1707,2.2841,11.4539,-0.1203,-2.0683,-0.2442
2840621.0,-3.7493,2.0901,11.1139,-0.1612,-2.1577,-0.19
2840631.0,-3.4884,1.8387,10.8122,-0.2432,-2.2498,-0.157
2840641.0,-3.2226,1.4533,10.7308,-0.3155,-2.3179,-0.1383
2840651.0,-2.9951,1.3192,10.4052,-0.2996,-2.3674,-0.1277
2840661.0,-2.6624,1.5562,9.8162,-0.2852,-2.4105,-0.125
2840671.0,-2.3032,1.5275,9.5217,-0.356,-2.4216,-0.1203
2840681.0,-2.0087,1.7095,9.1985,-0.4241,-2.4238,-0.1155
2840691.0,-1.6065,1.8052,9.2081,-0.5092,-2.4083,-0.107
2840701.0,-1.4413,1.8124,9.7731,-0.5257,-2.3695,-0.0782
2840711.0,-1.3288,2.0159,9.8497,-0.4113,-2.3865,-0.0154
2840721.0,-1.1588,2.1835,9.517,-0.3171,-2.4733,0.0649
2840731.0,-0.8547,2.1883,8.9902,-0.2698,-2.5648,0.1591
2840741.0,-0.4238,1.8435,8.667,-0.1783,-2.5541,0.2639
2840751.0,-0.0551,1.5323,8.1906,-0.0575,-2.4914,0.3539
2840761.0,0.2203,1.312,7.8147,-0.0772,-2.4663,0.4049
2840771.0,0.5363,1.0822,7.5369,-0.2379,-2.4898,0.4252
2840781.0,0.9098,0.8787,7.0006,-0.4448,-2.5302,0.4315
2840791.0,1.2761,0.5291,6.5505,-0.6976,-2.5313,0.4193
2840801.0,1.4533,0.1221,6.4093,-0.9365,-2.4929,0.39
2840811.0,1.6448,-0.1652,6.0478,-1.1222,-2.4711,0.3512
2840821.0,1.9609,-0.6991,5.9568,-1.3228,-2.444,0.3038
2840831.0,2.1045,-1.1492,6.0597,-1.4287,-2.3972,0.2485
2840841.0,2.2649,-1.1827,6.4332,-1.351,-2.3046,0.2006
2840851.0,2.4014,-0.8021,6.5481,-1.1004,-2.2226,0.1846
2840861.0,2.6624,-0.0599,5.6647,-0.8924,-2.2343,0.1932
2840871.0,3.0502,0.3208,4.877,-0.9605,-2.2934,0.2049
2840881.0,3.1173,0.4956,4.6184,-1.1371,-2.345,0.2256
2840891.0,3.2561,0.3065,3.8331,-1.1733,-2.3902,0.2879
2840901.0,3.9002,-0.3208,2.32,-1.0834,-2.3924,0.3602
2840911.0,4.6639,-0.9577,0.5722,-0.8955,-2.2077,0.4001
2840921.0,5.114,-1.1875,-1.1349,-0.6274,-1.8129,0.4039
2840931.0,5.5426,-1.1732,-1.6448,-0.2783,-1.2084,0.3932
2840941.0,5.5258,-0.747,-1.5658,0.1325,-0.5518,0.4001
2840951.0,5.1763,-0.2825,-0.8811,0.4119,0.0,0.4273
2840961.0,5.2026,0.012,-0.9218,0.4278,0.3124,0.4677
2840971.0,5.1667,-0.3879,-0.917,0.1591,0.5225,0.4975
2840981.0,5.4731,-1.4078,-0.5842,-0.0516,0.8141,0.5114
2840991.0,5.1068,-1.9154,-0.2873,0.0282,1.2494,0.4848
2841001.0,4.3167,-1.9776,0.5483,0.224,1.7336,0.4246
2841011.0,3.5578,-1.8603,2.2122,0.5252,2.2051,0.3704
2841021.0,2.7509,-1.3767,3.8523,0.9743,2.6121,0.3517
2841031.0,2.3798,-0.8739,4.8363,1.3276,2.809,0.3613
2841041.0,2.3391,-0.826,5.2553,1.2973,2.7308,0.3581
2841051.0,2.2841,-0.9984,5.4013,1.16,2.6457,0.3241
2841061.0,2.0063,-0.5459,4.4173,1.2127,2.75,0.2794
2841071.0,1.573,-0.0311,3.6057,1.1632,3.0006,0.2288
2841081.0,0.6416,0.4166,3.4668,0.9541,3.3103,0.1846
2841091.0,-0.4525,0.4908,4.2832,0.7098,3.6615,0.1777
2841101.0,-1.3431,-0.2586,6.3853,0.5741,4.0111,0.2086
2841111.0,-1.7621,-1.336,7.7117,0.5726,4.1457,0.2395
2841121.0,-2.1452,-2.6456,8.8083,0.5763,4.1574,0.2011
2841131.0,-2.5259,-3.2465,9.5648,0.8551,4.3053,0.1048
2841141.0,-3.3806,-3.2082,11.4179,1.3697,4.6884,-0.0229
2841151.0,-4.4484,-2.1093,13.9941,1.9592,4.9955,-0.1666
2841161.0,-5.1547,-0.1604,16.1896,2.3424,4.955,-0.2953
2841171.0,-5.5713,1.8076,17.2957,2.3163,4.5426,-0.3677
2841181.0,-5.8131,3.134,17.6501,1.8709,3.91,-0.3757
2841191.0,-6.0597,3.4955,17.0036,1.1792,3.1725,-0.3326
2841201.0,-5.6527,2.2075,15.8448,0.5534,2.577,-0.2543
2841211.0,-5.1451,0.2155,14.947,0.2959,2.4105,-0.2134
2841221.0,-5.351,-0.9002,15.0188,0.282,2.5174,-0.2905
2841231.0,-6.1292,-0.8188,15.955,0.2959,2.5446,-0.4486
2841241.0,-6.3279,0.2251,16.6828,0.3714,2.3929,-0.5853
2841251.0,-6.4548,1.4605,17.03,0.497,2.1992,-0.6375
2841261.0,-6.8211,2.4972,17.0228,0.6119,1.9736,-0.6077
2841271.0,-7.0701,2.8395,16.6948,0.6667,1.6857,-0.5241
2841281.0,-6.6008,2.4924,16.1393,0.6896,1.4447,-0.4347
2841291.0,-6.4332,2.0542,15.7538,0.7019,1.326,-0.3916
2841301.0,-6.2944,1.8747,15.8041,0.6816,1.2505,-0.4007
2841311.0,-6.4572,1.7597,16.2973,0.5741,1.1456,-0.4342
2841321.0,-6.6439,1.901,16.9557,0.3299,0.8721,-0.4954
2841331.0,-6.5194,2.2386,17.4011,0.074,0.472,-0.5545
2841341.0,-6.5577,2.7869,16.9055,-0.0495,0.1,-0.5656
2841351.0,-6.6272,3.1173,16.1848,-0.1857,-0.2416,-0.5459
2841361.0,-6.3662,2.9425,15.4139,-0.3283,-0.5449,-0.5007
2841371.0,-6.0454,2.5331,14.5184,-0.4044,-0.7226,-0.4512
2841381.0,-5.9113,2.059,14.2647,-0.5028,-0.8242,-0.4326
2841391.0,-5.6671,1.5969,14.3054,-0.5922,-0.9392,-0.4454
2841401.0,-5.5162,1.3455,14.4753,-0.6747,-1.0908,-0.481
2841411.0,-5.5186,1.2761,14.5711,-0.713,-1.2776,-0.5209
2841421.0,-5.5402,1.3815,14.2216,-0.6784,-1.4819,-0.5422
2841431.0,-5.3415,1.3886,13.7092,-0.6194,-1.648,-0.5518
2841441.0,-5.1068,1.5227,13.1777,-0.5582,-1.7352,-0.5587
2841451.0,-4.9799,1.5826,13.2806,-0.5177,-1.7475,-0.5577
2841461.0,-4.786,1.822,13.2519,-0.4592,-1.7858,-0.5438
2841471.0,-4.7142,2.0039,13.4985,-0.4613,-1.8725,-0.5156
2841481.0,-4.707,2.162,13.477,-0.4629,-2.0226,-0.4624
2841491.0,-4.4748,1.9393,13.2399,-0.4901,-2.2301,-0.3943
2841501.0,-4.0725,1.6017,12.5145,-0.5092,-2.4232,-0.3384
2841511.0,-3.7326,1.3527,11.5927,-0.5944,-2.5807,-0.3187
2841521.0,-3.462,1.1085,10.9247,-0.7386,-2.6999,-0.331
2841531.0,-3.0694,1.0008,10.252,-0.8109,-2.7409,-0.3507
2841541.0,-2.6552,0.7661,9.8857,-0.8349,-2.7037,-0.365
2841551.0,-2.3583,0.656,9.7061,-0.7838,-2.6313,-0.3794
2841561.0,-2.0853,0.7973,9.6414,-0.6742,-2.5595,-0.3868
2841571.0,-1.8411,1.0942,9.4092,-0.5199,-2.4914,-0.3677
2841581.0,-1.6089,1.3815,9.2129,-0.3757,-2.419,-0.3219
2841591.0,-1.3815,1.3503,8.8921,-0.307,-2.3844,-0.2543
2841601.0,-0.9433,0.9768,8.5784,-0.323,-2.3828,-0.1963
2841611.0,-0.4932,0.6512,8.2384,-0.3751,-2.3525,-0.1761
2841621.0,-0.2251,0.4118,8.4324,-0.4299,-2.2684,-0.1809
2841631.0,-0.1915,0.4286,8.8585,-0.4315,-2.2083,-0.1894
2841641.0,-0.0838,0.4573,9.3637,-0.3688,-2.1992,-0.1799
2841651.0,0.0239,0.7015,9.2512,-0.2416,-2.2583,-0.1463
2841661.0,0.1365,0.8619,9.0621,-0.1426,-2.3477,-0.091
2841671.0,0.3017,0.8859,8.4228,-0.0202,-2.4174,-0.0128
2841681.0,0.4477,0.6393,7.7045,0.0527,-2.4451,0.0623
2841691.0,0.8045,0.079,7.2975,0.0963,-2.4089,0.1181
2841701.0,1.3958,-0.5195,6.8307,0.1187,-2.3179,0.1282
2841711.0,1.8938,-0.7278,6.6655,0.0059,-2.2647,0.0612
2841721.0,2.083,-0.4286,6.4284,-0.207,-2.2993,-0.0415
2841731.0,2.2936,-0.0503,6.2201,-0.3895,-2.3344,-0.1107
2841741.0,2.7605,0.328,5.94,-0.4017,-2.2806,-0.1192
2841751.0,2.9401,0.6129,5.8945,-0.2714,-2.1449,-0.0761
2841761.0,3.1795,0.7326,5.9113,-0.0436,-2.0109,0.0032
2841771.0,3.3279,1.0271,5.1906,0.1474,-1.9646,0.0883
2841781.0,3.6775,0.9433,4.4077,0.1203,-1.9779,0.1618
2841791.0,4.288,0.6943,3.3519,0.0192,-1.9534,0.2102
2841801.0,4.5945,0.6776,2.3511,-0.124,-1.848,0.2267
2841811.0,4.9752,0.4908,1.7119,-0.2794,-1.6602,0.2368
2841821.0,5.3989,0.3855,1.0534,-0.3815,-1.4096,0.2448
2841831.0,5.7796,0.1197,0.6608,-0.4821,-1.1313,0.2517
2841841.0,5.9927,-0.2346,0.644,-0.5071,-0.8008,0.2543
2841851.0,6.1675,-0.4214,0.8452,-0.3693,-0.415,0.2623
2841861.0,6.0861,-0.3639,1.1253,-0.1357,-0.0298,0.274
2841871.0,6.0118,-0.1341,1.2426,0.1224,0.298,0.2943
2841881.0,5.77,0.3304,1.0271,0.3815,0.6162,0.3363
2841891.0,5.4923,0.4956,1.0989,0.5768,0.9551,0.4023
2841901.0,5.1882,0.4453,1.2641,0.738,1.3202,0.4725
2841911.0,4.8315,0.2155,1.415,0.8131,1.6655,0.5209
2841921.0,4.5562,-0.4214,1.889,0.7764,1.9928,0.5321
2841931.0,4.2569,-0.9433,2.5474,0.7072,2.3072,0.489
2841941.0,3.7469,-1.1301,3.7685,0.6502,2.6175,0.3996
2841951.0,3.0023,-0.8308,4.8961,0.6604,2.8814,0.3038
2841961.0,2.2817,-0.4501,6.4404,0.6811,3.0735,0.2347
2841971.0,1.6185,0.0527,8.0445,0.7471,3.1629,0.2081
2841981.0,1.0702,0.6105,9.0836,0.8083,3.0852,0.2251
2841991.0,0.9649,0.5938,9.2416,0.7082,2.7936,0.2714
2842001.0,1.0798,0.0311,8.5904,0.588,2.4977,0.3102
2842011.0,1.1803,-0.2562,6.8618,0.6375,2.4584,0.3076
2842021.0,0.8332,-0.4884,5.8778,0.6545,2.7058,0.2575
2842031.0,0.4094,-0.3136,5.9903,0.5779,3.0793,0.1671
2842041.0,-0.3783,0.1484,6.9049,0.3986,3.3912,0.0724
2842051.0,-1.0918,0.735,8.0637,0.2027,3.5678,0.0234
2842061.0,-1.992,1.3168,9.0453,0.0298,3.6365,0.0404
2842071.0,-2.6791,1.2115,10.1035,-0.1485,3.5928,0.124
2842081.0,-3.1843,0.2155,10.7356,-0.2506,3.4662,0.2421
2842091.0,-3.1532,-1.5754,11.4778,-0.0979,3.4571,0.3352
2842101.0,-3.134,-2.7438,11.8034,0.3453,3.6051,0.3336
2842111.0,-3.5314,-3.2058,12.7228,0.7455,3.7546,0.2112
2842121.0,-4.0199,-2.4948,13.228,1.011,3.7237,0.0229
2842131.0,-4.0606,-1.2115,13.4722,1.0424,3.5598,-0.1697
2842141.0,-4.4676,0.3903,13.2711,0.8679,3.3438,-0.3076
2842151.0,-5.4372,1.7166,12.9263,0.4448,3.032,-0.3709
2842161.0,-6.2968,1.8699,12.8521,0.0309,2.7899,-0.3299
2842171.0,-6.1028,0.2658,14.3245,0.0905,2.9431,-0.1921
2842181.0,-6.347,-0.9744,16.3907,0.5358,3.1836,-0.1213
2842191.0,-6.6056,-1.0391,18.3707,0.9589,3.1107,-0.1846
2842201.0,-6.5529,-0.1365,18.9405,1.2728,2.7824,-0.2879
2842211.0,-6.7205,0.7015,19.1488,1.2925,2.3583,-0.3831
2842221.0,-6.7516,1.415,18.8352,1.0382,1.8267,-0.4768
2842231.0,-6.8043,2.0494,17.8296,0.6204,1.2611,-0.5694
2842241.0,-6.9743,2.399,16.9509,0.1687,0.8338,-0.6433
2842251.0,-6.8881,2.2122,17.0276,-0.0772,0.6832,-0.663
2842261.0,-7.0222,2.1141,17.753,-0.1378,0.6135,-0.6715
2842271.0,-7.2425,2.4134,18.5766,-0.1437,0.3991,-0.6827
2842281.0,-7.276,2.8635,18.6365,-0.1075,0.0532,-0.6577
2842291.0,-7.173,3.055,18.318,-0.1091,-0.3246,-0.6045
2842301.0,-7.0174,3.2465,17.4011,-0.124,-0.6944,-0.5465
2842311.0,-6.7876,3.3639,16.3093,-0.207,-1.0137,-0.5002
2842321.0,-6.4787,3.5338,15.129,-0.34,-1.259,-0.464
2842331.0,-6.1842,3.6105,14.0204,-0.5252,-1.4394,-0.4284
2842341.0,-5.8993,3.541,13.2735,-0.7508,-1.5633,-0.3916
2842351.0,-5.7269,3.1412,13.1106,-0.9418,-1.616,-0.3491
2842361.0,-5.5115,2.6863,13.2184,-1.0179,-1.6618,-0.3012
2842371.0,-5.3941,2.4732,13.1897,-1.0078,-1.7714,-0.2618
2842381.0,-5.1787,2.3583,12.7228,-0.9195,-1.905,-0.2112
2842391.0,-4.9656,2.2745,12.0333,-0.8019,-1.9944,-0.1458
2842401.0,-4.6591,2.0566,11.3749,-0.7035,-2.038,-0.0777
2842411.0,-4.3048,1.7885,10.8242,-0.6486,-2.0454,-0.0293
2842421.0,-4.0582,1.573,10.4555,-0.6359,-2.0247,0.0
2842431.0,-3.8714,1.3575,10.4387,-0.6625,-2.0045,0.016
2842441.0,-3.6607,1.2091,10.398,-0.6928,-2.0167,0.0202
2842451.0,-3.474,1.0056,10.3286,-0.7306,-2.0513,0.0192
2842461.0,-3.3112,0.838,10.2568,-0.7689,-2.0923,0.0128
2842471.0,-3.1556,0.6895,10.2328,-0.7678,-2.1269,0.0032
2842481.0,-2.8826,0.6273,10.1131,-0.7072,-2.1423,0.0011
2842491.0,-2.6935,0.6369,10.1083,-0.6279,-2.1375,0.0059
2842501.0,-2.4924,0.656,10.1706,-0.5624,-2.1402,0.0144
2842511.0,-2.2218,0.7398,10.1778,-0.4821,-2.1497,0.0335
2842521.0,-2.0853,0.8619,10.1586,-0.397,-2.1582,0.066
2842531.0,-1.9632,0.9266,10.1251,-0.339,-2.1811,0.1117
2842541.0,-1.7741,0.8068,9.9503,-0.2746,-2.228,0.1692
2842551.0,-1.3743,0.6057,9.4667,-0.2283,-2.2758,0.2203
2842561.0,-0.9242,0.3831,9.1674,-0.2384,-2.2785,0.2512
2842571.0,-0.6823,0.2753,9.1482,-0.2661,-2.2615,0.2645
2842581.0,-0.4956,0.3065,9.1435,-0.298,-2.2828,0.273
2842591.0,-0.237,0.261,8.904,-0.3124,-2.3344,0.2953
2842601.0,0.2227,0.0694,8.5688,-0.2762,-2.3615,0.3326
2842611.0,0.565,-0.2083,8.4372,-0.2091,-2.3354,0.3682
2842621.0,0.8356,-0.2729,8.1451,-0.1112,-2.3152,0.3927
2842631.0,1.0846,-0.316,7.6399,-0.0931,-2.3535,0.4012
2842641.0,1.4222,-0.4118,6.8785,-0.1421,-2.4089,0.4076
2842651.0,2.0303,-0.5483,5.9472,-0.1905,-2.4073,0.4081
2842661.0,2.5163,-0.6704,5.0087,-0.2315,-2.3046,0.397
2842671.0,3.0382,-0.7422,4.3431,-0.2687,-2.1237,0.3794
2842681.0,3.4955,-0.8499,4.1515,-0.3155,-1.8831,0.3602
2842691.0,3.6775,-0.8643,4.1875,-0.3044,-1.6235,0.3501
2842701.0,3.7469,-0.9888,4.6998,-0.2469,-1.3691,0.3528
2842711.0,3.7493,-1.0798,5.2026,-0.1362,-1.1967,0.3682
2842721.0,3.8235,-1.0774,5.2289,-0.0367,-1.1419,0.3826
2842731.0,3.9121,-1.1301,4.8243,0.0053,-1.1504,0.3927
2842741.0,4.2593,-1.2426,4.1108,-0.0229,-1.1478,0.3916
2842751.0,4.4149,-1.3024,3.2441,-0.1155,-1.0977,0.3656
2842761.0,4.7525,-1.3958,2.3774,-0.2756,-1.0099,0.3267
2842771.0,5.1308,-1.6879,1.8723,-0.455,-0.8588,0.2772
2842781.0,5.3056,-1.6855,1.6927,-0.4778,-0.6018,0.2283
2842791.0,5.2529,-1.573,1.6424,-0.3496,-0.2645,0.2059
2842801.0,5.1188,-1.6305,2.0039,-0.1564,0.0777,0.2065
2842811.0,4.9105,-1.4653,2.3104,0.0649,0.3624,0.2091
2842821.0,4.6663,-1.2306,2.308,0.2081,0.5523,0.2091
2842831.0,4.6639,-1.3001,2.1644,0.2299,0.6673,0.2118
2842841.0,4.7573,-1.482,1.9345,0.2788,0.8397,0.1995
2842851.0,4.6136,-1.3096,1.7957,0.4752,1.1691,0.1729
2842861.0,4.1755,-0.747,1.9417,0.7258,1.5852,0.1442
2842871.0,3.5985,-0.1125,2.5163,0.87,1.9337,0.1235
2842881.0,2.909,0.4884,3.0454,0.8769,2.1636,0.1176
2842891.0,2.2266,0.747,3.6655,0.7673,2.3056,0.1362
2842901.0,1.7789,0.4693,4.367,0.5523,2.3163,0.1612
2842911.0,1.561,-0.1389,4.64,0.3959,2.2439,0.1708
2842921.0,1.6496,-0.5435,3.8068,0.5316,2.3035,0.1522
2842931.0,1.3719,-0.3855,2.6552,0.8471,2.6302,0.0995
2842941.0,0.7254,0.2705,2.0782,1.0802,3.1113,0.0245
2842951.0,-0.0144,1.0774,2.4924,1.1728,3.6545,-0.0388
2842961.0,-1.142,1.9537,3.6009,1.1297,4.1574,-0.0591
2842971.0,-2.4565,2.2625,5.5665,0.8817,4.4676,-0.025
2842981.0,-3.3088,1.7382,7.3143,0.571,4.5054,0.0585
2842991.0,-3.9385,0.644,8.3222,0.4214,4.4953,0.1453
2843001.0,-4.5059,-0.3998,9.2081,0.563,4.6821,0.1937
2843011.0,-5.6575,-0.8691,10.5848,0.8599,4.9917,0.1799
2843021.0,-6.6679,-0.9098,12.6414,1.1201,5.187,0.1176
2843031.0,-7.3191,-0.565,14.2287,1.3058,5.1689,0.0394
2843041.0,-7.9487,-0.4501,15.9957,1.3074,4.9928,-0.0399
2843051.0,-8.5329,-0.3615,17.2933,1.2026,4.6358,-0.1208
2843061.0,-8.7915,-0.3711,17.9469,1.0717,4.1792,-0.215
2843071.0,-8.9088,0.0599,17.9038,1.0504,3.8456,-0.315
2843081.0,-9.4092,0.5267,18.9166,1.0727,3.7211,-0.4044
2843091.0,-9.7061,1.0846,20.4968,1.0679,3.5439,-0.4784
2843101.0,-9.8833,1.8483,22.0075,0.9131,3.1251,-0.5449
2843111.0,-9.9742,2.2913,23.1687,0.6545,2.5185,-0.5736
2843121.0,-9.7995,2.3727,23.4847,0.3954,1.8267,-0.5715
2843131.0,-9.5409,2.3607,23.0083,0.1495,1.1286,-0.5667
2843141.0,-9.3589,2.3798,22.0434,-0.0857,0.5087,-0.571
2843151.0,-9.0549,2.399,20.9995,-0.2692,0.0096,-0.5683
2843161.0,-8.8562,2.3415,19.9341,-0.4438,-0.4071,-0.5608
2843171.0,-8.6335,2.0159,19.0387,-0.6008,-0.7567,-0.5502
2843181.0,-8.2815,1.5323,18.2055,-0.6731,-1.0254,-0.5417
2843191.0,-8.1427,1.1061,17.7027,-0.6944,-1.2388,-0.5582
2843201.0,-8.1547,0.9577,17.0802,-0.6476,-1.4532,-0.5912
2843211.0,-7.8434,1.0942,16.4242,-0.5587,-1.6629,-0.6337
2843221.0,-7.5657,1.5179,15.7706,-0.4172,-1.8023,-0.6689
2843231.0,-7.3334,2.2122,15.3085,-0.2943,-1.8949,-0.6896
2843241.0,-7.2616,2.9544,15.2175,-0.2623,-2.0146,-0.6896
2843251.0,-7.106,3.7302,15.1577,-0.2937,-2.1966,-0.6598
2843261.0,-7.0605,4.3096,15.1912,-0.3512,-2.4153,-0.5869
2843271.0,-7.0102,4.6328,15.0356,-0.3821,-2.6669,-0.4778
2843281.0,-6.7588,4.7429,14.6812,-0.39,-2.9389,-0.3443
2843291.0,-6.4332,4.7956,13.8744,-0.3895,-3.2134,-0.2001
2843301.0,-6.2465,4.6543,12.9311,-0.4715,-3.4997,-0.0628
2843311.0,-5.7006,4.288,11.5209,-0.6066,-3.8174,0.0612
2843321.0,-4.9967,3.8044,9.7731,-0.7487,-4.0462,0.1591
2843331.0,-4.5179,3.3303,8.1547,-0.879,-4.1127,0.2357
2843341.0,-4.1013,2.6264,7.2975,-0.9897,-4.0627,0.3006
2843351.0,-3.4213,1.8316,6.5769,-1.0121,-3.9616,0.3491
2843361.0,-2.7054,1.0582,6.1483,-0.9477,-3.7929,0.3735
2843371.0,-2.0638,0.644,6.0238,-0.8455,-3.6077,0.3693
2843381.0,-1.5155,0.4381,6.098,-0.7567,-3.4805,0.3576
2843391.0,-0.8715,0.3903,5.5641,-0.6923,-3.4561,0.3517
2843401.0,-0.1652,0.2825,4.9225,-0.7327,-3.4667,0.3432
2843411.0,0.2251,0.1413,4.1563,-0.8173,-3.4518,0.3315
2843421.0,0.7733,-0.1676,3.3854,-0.8828,-3.4135,0.3267
2843431.0,1.4437,-0.6009,2.5139,-0.9025,-3.3167,0.3134
2843441.0,2.0925,-0.8595,1.8603,-0.8578,-3.123,0.2831
2843451.0,2.4493,-0.7614,1.7621,-0.7141,-2.8473,0.2602
2843461.0,2.8539,-0.6536,1.7023,-0.4198,-2.5573,0.2836
2843471.0,3.3423,-0.5555,1.4126,-0.0431,-2.2838,0.3453
2843481.0,3.8499,-0.5531,0.9242,0.2591,-2.0332,0.4097
2843491.0,3.9504,-0.6656,0.5004,0.3395,-1.8518,0.4422
2843501.0,4.1324,-0.7374,-0.1413,0.1985,-1.7767,0.4337
2843511.0,4.3574,-1.1277,-0.9792,-0.0958,-1.7459,0.3943
2843521.0,5.0685,-1.5897,-2.49,-0.4214,-1.6985,0.3246
2843531.0,5.4827,-1.9201,-4.2497,-0.7114,-1.4676,0.2251
2843541.0,5.8371,-1.9513,-5.7581,-0.7604,-0.9786,0.1293
2843551.0,5.9209,-1.5682,-6.4763,-0.5146,-0.2054,0.075
2843561.0,5.3486,-1.008,-5.9137,-0.099,0.6965,0.0734
2843571.0,4.64,-0.2179,-5.0781,0.3863,1.5144,0.1266
2843581.0,4.2425,0.2849,-4.5298,0.6816,2.1391,0.215
2843591.0,3.6607,0.0694,-3.4309,0.7269,2.651,0.3097
2843601.0,2.715,-0.1437,-3.1987,0.8727,3.189,0.3943
2843611.0,1.4629,-0.5267,-2.0806,1.0387,3.8924,0.447
2843621.0,-0.1437,-1.5969,1.0558,1.3122,4.7252,0.4789
2843631.0,-1.2426,-2.0614,3.7373,1.7326,5.3754,0.4486
2843641.0,-2.6504,-2.3942,7.1539,1.8507,5.708,0.3225
2843651.0,-3.553,-2.1237,10.5249,1.8145,5.7005,0.1618
2843661.0,-4.1683,-1.6113,12.4546,1.6927,5.3552,0.0176
2843671.0,-4.3574,-1.47,12.4666,1.3542,4.7438,-0.1048
2843681.0,-4.4269,-1.9728,11.6789,0.9057,4.2037,-0.2219
2843691.0,-4.604,-2.5881,11.0995,0.6449,3.9887,-0.3533
2843701.0,-5.0159,-2.8371,11.4778,0.7082,4.0893,-0.4911
2843711.0,-5.928,-2.399,12.5241,1.0254,4.2899,-0.6204
2843721.0,-6.6511,-1.5155,13.6589,1.3542,4.3543,-0.7343
2843731.0,-7.1275,-0.4286,14.1689,1.508,4.1872,-0.8296
2843741.0,-7.4867,0.4094,14.3485,1.4261,3.9073,-0.8993
2843751.0,-7.7476,0.8619,14.4418,1.2372,3.662,-0.9424
2843761.0,-8.0756,1.2857,14.8129,1.0866,3.5141,-0.9754
2843771.0,-8.5234,1.8603,15.6605,1.0094,3.4593,-0.9945
2843781.0,-8.9304,2.2913,17.4992,1.0163,3.4369,-0.9786
2843791.0,-9.3446,2.6025,20.0347,1.1153,3.3199,-0.9264
2843801.0,-9.5624,2.8515,22.369,1.2558,2.9671,-0.8556
2843811.0,-9.6486,3.1723,23.6667,1.3824,2.353,-0.7865
2843821.0,-9.5481,3.6919,23.3818,1.3931,1.5793,-0.7391
2843831.0,-9.1937,4.3814,21.8399,1.2435,0.8179,-0.7184
2843841.0,-8.9208,5.0973,20.0514,0.9073,0.2001,-0.7215
2843851.0,-8.7747,5.5857,18.7993,0.4528,-0.2464,-0.7269
2843861.0,-8.8346,5.8945,18.0571,0.0303,-0.5715,-0.7093
2843871.0,-9.0261,5.9903,17.6716,-0.2368,-0.8046,-0.6465
2843881.0,-8.8131,5.4827,17.8991,-0.2618,-0.9131,-0.5321
2843891.0,-8.667,5.2122,17.8488,-0.1277,-1.0201,-0.4166
2843901.0,-8.588,4.9967,18.2007,-0.0921,-1.2521,-0.3363
2843911.0,-8.4635,4.9775,17.9182,-0.0229,-1.5671,-0.2575
2843921.0,-8.1762,4.9225,17.3412,0.0569,-1.8518,-0.1767
2843931.0,-7.8626,5.1068,16.4889,0.075,-2.1072,-0.1128
2843941.0,-7.6782,5.3846,15.7395,-0.058,-2.3759,-0.0623
2843951.0,-7.4843,5.5043,15.0547,-0.2847,-2.6659,-0.0053
2843961.0,-7.2018,5.4133,14.4586,-0.5177,-2.933,0.067
2843971.0,-6.7325,5.1499,13.7906,-0.6949,-3.1576,0.1469
2843981.0,-6.4548,4.8722,12.8353,-0.8684,-3.3763,0.215
2843991.0,-6.0166,4.3742,11.8345,-1.0664,-3.6003,0.2751
2844001.0,-5.2864,3.7134,10.7093,-1.1978,-3.7514,0.3294
2844011.0,-4.6735,3.0287,9.8426,-1.2574,-3.8009,0.3602
2844021.0,-4.063,2.5091,9.0812,-1.2515,-3.7945,0.3682
2844031.0,-3.45,2.2027,8.1977,-1.2153,-3.7631,0.3592
2844041.0,-2.9616,2.0494,7.355,-1.2286,-3.7301,0.339
2844051.0,-2.3727,1.9297,6.6128,-1.3271,-3.6998,0.3108
2844061.0,-1.8842,1.8148,6.1316,-1.4117,-3.6412,0.2937
2844071.0,-1.3767,1.6137,5.782,-1.4117,-3.5487,0.3028
2844081.0,-0.984,1.3024,5.8658,-1.2851,-3.4087,0.3406
2844091.0,-0.5459,0.8978,5.7413,-1.0137,-3.2688,0.4065
2844101.0,-0.0838,0.4549,5.2553,-0.7646,-3.2118,0.464
2844111.0,0.4142,0.0886,4.5059,-0.6199,-3.2129,0.4885
2844121.0,0.9218,-0.1125,3.316,-0.5486,-3.2001,0.489
2844131.0,1.3815,-0.2179,2.4852,-0.571,-3.1065,0.4645
2844141.0,1.7861,-0.0335,1.7549,-0.6439,-2.9788,0.4284
2844151.0,2.0231,-0.1389,1.8435,-0.7928,-2.858,0.3943
2844161.0,2.3272,-0.2394,1.7645,-0.828,-2.7909,0.3773
2844171.0,2.7509,-0.4357,0.929,-0.7317,-2.7372,0.3815
2844181.0,3.4141,-0.6895,-0.3424,-0.5912,-2.6137,0.381
2844191.0,4.1324,-0.7039,-1.743,-0.439,-2.3365,0.3618
2844201.0,4.7477,-0.6416,-3.0047,-0.2857,-1.9098,0.3443
2844211.0,5.1739,-0.656,-3.9145,-0.1666,-1.3846,0.3326
2844221.0,5.1739,-0.656,-3.9145,-0.1666,-1.3846,0.3326
2844231.0,5.6551,-0.7901,-4.446,-0.0734,-0.7971,0.3235
2844241.0,5.7772,-0.8691,-4.4891,0.0059,-0.1501,0.3102
2844251.0,5.6982,-1.1923,-3.9887,0.0633,0.4816,0.2953
2844261.0,5.5474,-1.5826,-2.976,0.1916,1.1164,0.2708
2844271.0,5.1978,-1.6783,-1.6735,0.4821,1.7858,0.2325
2844281.0,4.446,-1.3168,-0.1317,0.803,2.411,0.1804
2844291.0,3.5314,-0.8499,1.7621,1.0254,2.8872,0.1426
2844301.0,2.6791,-0.2538,2.9784,1.2031,3.1985,0.1368
2844311.0,1.9154,0.2155,4.2545,1.2744,3.4348,0.1564
2844321.0,1.3527,0.2035,5.1882,1.21,3.5609,0.1979
2844331.0,1.1564,-0.4046,5.3893,0.9073,3.5125,0.2139
2844341.0,0.7733,-1.4676,5.4061,0.4182,3.4353,0.1639
2844351.0,0.0646,-2.5067,5.6312,0.0394,3.513,0.0654
2844361.0,-0.6464,-3.6847,8.2863,0.0186,3.9078,-0.0543
2844371.0,-1.2953,-3.7086,10.9391,0.5406,4.316,-0.1852
2844381.0,-2.3032,-2.8012,13.2663,1.0722,4.4181,-0.339
2844391.0,-2.8108,-1.5443,14.3868,1.3388,4.1627,-0.4613
2844401.0,-3.0694,-0.7494,14.5711,1.276,3.7248,-0.539
2844411.0,-3.316,-0.3663,13.7475,1.0302,3.265,-0.5992
2844421.0,-3.6847,-0.1508,12.5169,0.8083,3.0139,-0.6588
2844431.0,-3.8235,-0.5195,12.8808,0.7189,3.1304,-0.7088
2844441.0,-4.4604,-0.3998,14.4442,0.854,3.4231,-0.7737
2844451.0,-5.5091,0.4405,16.3261,0.9104,3.4577,-0.8615
2844461.0,-5.9161,0.9098,18.1073,0.7987,3.1592,-0.919
2844471.0,-6.0238,1.5634,18.682,0.7588,2.7712,-0.9328
2844481.0,-6.201,2.2553,19.0171,0.6933,2.3977,-0.9323
2844491.0,-6.3997,2.9616,18.9645,0.6135,2.0465,-0.9046
2844501.0,-6.4763,3.2585,19.0531,0.4911,1.7507,-0.8514
2844511.0,-6.6343,3.213,19.6229,0.3549,1.4665,-0.7934
2844521.0,-6.6463,2.9832,20.3938,0.2719,1.152,-0.7418
2844531.0,-6.5314,2.9592,20.966,0.2815,0.8067,-0.7056
2844541.0,-6.596,3.213,21.0474,0.2895,0.3837,-0.6768
2844551.0,-6.4835,3.5267,20.4417,0.1767,-0.1511,-0.6588
2844561.0,-6.1555,3.881,19.2542,-0.0351,-0.6928,-0.6433
2844571.0,-5.952,4.1037,17.911,-0.2921,-1.1275,-0.6188
2844581.0,-5.7413,4.1539,16.6876,-0.5321,-1.4591,-0.5784
2844591.0,-5.5115,4.0055,15.7395,-0.705,-1.6857,-0.5215
2844601.0,-5.2768,3.711,15.0907,-0.7939,-1.8305,-0.4518
2844611.0,-5.0159,3.5482,14.3461,-0.7987,-1.9555,-0.3778
2844621.0,-4.7764,3.3782,13.6733,-0.7955,-2.0848,-0.299
2844631.0,-4.2832,3.0885,13.0723,-0.7689,-2.1838,-0.2171
2844641.0,-3.7876,2.8754,12.378,-0.7354,-2.2556,-0.1405
2844651.0,-3.5099,2.4972,11.7507,-0.7732,-2.3429,-0.0825
2844661.0,-3.1867,1.9872,11.2887,-0.8328,-2.4248,-0.0426
2844671.0,-2.8635,1.5203,11.1785,-0.8466,-2.4573,-0.0181
2844681.0,-2.5474,1.221,11.4419,-0.7205,-2.42,0.0016
2844691.0,-2.3439,1.4078,11.157,-0.5444,-2.4318,0.0239
2844701.0,-2.1189,1.5036,10.7356,-0.5417,-2.5669,0.0479
2844711.0,-1.7837,1.4078,9.7276,-0.647,-2.7489,0.0777
2844721.0,-1.1851,0.929,8.7532,-0.7593,-2.8367,0.1059
2844731.0,-0.6201,0.4166,8.0325,-0.7843,-2.784,0.1133
2844741.0,-0.2298,0.0766,7.7859,-0.7077,-2.6201,0.1011
2844751.0,0.0742,0.0048,7.865,-0.5731,-2.4365,0.0819
2844761.0,0.3352,0.0958,7.9487,-0.447,-2.3056,0.067
2844771.0,0.4645,0.2346,8.2289,-0.3634,-2.2354,0.0633
2844781.0,0.6177,0.3687,8.3893,-0.2416,-2.1928,0.0894
2844791.0,0.9122,0.3903,8.169,-0.1203,-2.1886,0.1357
2844801.0,1.1708,0.3136,7.2975,-0.1421,-2.2737,0.1681
2844811.0,1.4772,0.1245,5.9544,-0.3613,-2.4041,0.1628
2844821.0,2.0016,-0.2466,4.8961,-0.6582,-2.42,0.1256
2844831.0,2.4852,-0.4501,4.4939,-0.8333,-2.2625,0.0702
2844841.0,2.8299,-0.2801,4.2449,-0.8514,-2.0598,0.0133
2844851.0,2.9209,0.395,3.8211,-0.8226,-1.9039,-0.0218
2844861.0,3.0837,0.9266,3.45,-0.7646,-1.7507,-0.0011
2844871.0,3.4429,1.2761,2.5833,-0.6683,-1.6038,0.0862
2844881.0,3.8092,1.1277,1.6328,-0.6183,-1.4537,0.2006
2844891.0,4.2042,0.8475,0.328,-0.5204,-1.2217,0.3134
2844901.0,4.3766,0.395,-1.1516,-0.3539,-0.8141,0.4177
2844911.0,4.549,-0.5267,-2.1093,-0.191,-0.2176,0.4954
2844921.0,4.6878,-1.7406,-1.7358,-0.0931,0.48,0.4975
2844931.0,4.6424,-2.5235,-0.3663,-0.016,1.1361,0.406
2844941.0,3.9121,-2.6288,1.6185,0.0702,1.6719,0.2629
2844951.0,3.2106,-2.4708,3.541,0.2198,2.022,0.1415
2844961.0,2.8946,-2.3343,4.7956,0.4741,2.2338,0.0601
2844971.0,2.6288,-2.1739,5.5019,0.7274,2.3785,-0.0122
2844981.0,2.332,-1.7238,5.7461,0.8477,2.4498,-0.1038
2844991.0,1.9632,-1.1564,5.861,0.8051,2.4584,-0.1985
2845001.0,1.5131,-0.6321,5.9616,0.7274,2.5121,-0.2661
2845011.0,1.1708,-0.1652,6.4212,0.7035,2.6568,-0.2975
2845021.0,0.8906,0.2777,7.2592,0.729,2.8399,-0.2932
2845031.0,0.5507,0.7063,8.0038,0.7029,2.9484,-0.2687
2845041.0,0.2394,1.0678,8.7029,0.5369,2.9309,-0.2336
2845051.0,-0.0479,1.2953,9.0333,0.3028,2.8548,-0.1772
2845061.0,-0.8236,1.3527,9.0621,0.1022,2.8069,-0.091
2845071.0,-1.257,0.5411,9.6726,0.0537,2.8979,0.0255
2845081.0,-1.5802,-0.3879,10.5919,0.274,3.1203,0.1187
2845091.0,-2.1165,-1.1492,12.0117,0.5364,3.2996,0.1341
2845101.0,-2.4924,-1.4868,13.4027,0.7668,3.323,0.0756
2845111.0,-3.0047,-1.2043,14.3221,0.9211,3.207,-0.0261
2845121.0,-3.2968,-0.7039,15.0428,0.9424,2.9931,-0.1442
2845131.0,-3.5075,0.2179,14.9326,0.9025,2.7361,-0.2543
2845141.0,-3.8451,1.4054,14.7052,0.7343,2.5015,-0.3475
2845151.0,-4.4029,2.5498,14.8632,0.5023,2.3386,-0.3852
2845161.0,-5.102,3.1196,15.6533,0.3283,2.2445,-0.3326
2845171.0,-5.3391,2.4756,17.2718,0.3028,2.17,-0.2097
2845181.0,-5.3032,1.7071,18.3683,0.4294,1.9885,-0.1096
2845191.0,-5.3367,1.3216,19.0219,0.4741,1.6405,-0.0926
2845201.0,-5.2672,1.4653,18.7705,0.4422,1.2239,-0.1208
2845211.0,-5.2648,1.743,18.172,0.2953,0.8301,-0.1666
2845221.0,-5.1834,2.1141,17.4082,0.0293,0.4688,-0.2246
2845231.0,-5.1763,2.6264,16.8648,-0.2916,0.1852,-0.2804
2845241.0,-5.4636,2.9305,17.0539,-0.5715,-0.0154,-0.2953
2845251.0,-5.6455,2.7821,17.4274,-0.6715,-0.1979,-0.2442
2845261.0,-5.4516,2.2338,17.7506,-0.6274,-0.4113,-0.1671
2845271.0,-5.296,1.8627,17.5926,-0.5438,-0.6907,-0.1075
2845281.0,-5.0949,1.4269,17.3436,-0.473,-1.0131,-0.0654
2845291.0,-4.7692,1.1109,16.2614,-0.3677,-1.3228,-0.0341
2845301.0,-4.4939,0.9553,15.1673,-0.3315,-1.5708,-0.041
2845311.0,-4.1635,1.087,14.1713,-0.3576,-1.7368,-0.0713
2845321.0,-3.9696,1.3048,13.69,-0.4156,-1.8235,-0.099
2845331.0,-3.8475,1.5802,13.4051,-0.4922,-1.9119,-0.107
2845341.0,-3.6296,1.6807,13.374,-0.6024,-2.0401,-0.0931
2845351.0,-3.3734,1.6472,13.0891,-0.6737,-2.2061,-0.0521
2845361.0,-3.1484,1.2594,12.7132,-0.7338,-2.4046,0.0016
2845371.0,-2.9185,0.735,11.9806,-0.7524,-2.6068,0.0516
2845381.0,-2.624,0.1053,11.1953,-0.7301,-2.7633,0.0819
2845391.0,-2.0063,-0.51,10.6853,-0.5938,-2.808,0.0878
2845401.0,-1.5443,-0.5076,9.8162,-0.3778,-2.7861,0.067
2845411.0,-1.1756,-0.2346,9.2009,-0.2943,-2.7904,0.0261
2845421.0,-0.7542,0.1867,8.6838,-0.306,-2.8127,-0.0074
2845431.0,-0.4286,0.577,7.9871,-0.3416,-2.8245,-0.0069
2845441.0,0.0335,0.577,7.2544,-0.4358,-2.8441,0.0197
2845451.0,0.3687,0.2274,6.4907,-0.5422,-2.8372,0.0484
2845461.0,0.7685,-0.2442,5.7389,-0.5773,-2.7441,0.0649
2845471.0,1.2594,-0.7661,5.5929,-0.4917,-2.5249,0.0692
2845481.0,1.6065,-0.8906,5.466,-0.2783,-2.2631,0.0553
2845491.0,1.7358,-0.8332,5.6431,-0.1,-2.0465,0.0298
2845501.0,2.0399,-0.6416,5.8395,0.1272,-1.8448,0.0239
2845511.0,2.2553,-0.261,5.5474,0.3448,-1.6682,0.0388
2845521.0,2.624,-0.17,5.3822,0.4049,-1.5474,0.0607
2845531.0,3.1436,-0.17,4.8387,0.3613,-1.4681,0.0729
2845541.0,3.3399,-0.2825,4.3646,0.1809,-1.3893,0.0569
2845551.0,3.4836,-0.5315,3.7876,-0.0793,-1.3202,0.0218
2845561.0,3.802,-1.0989,3.7828,-0.3661,-1.2185,-0.0351
2845571.0,4.3287,-1.3479,3.79,-0.522,-1.0844,-0.1197
2845581.0,4.6711,-1.1851,3.8188,-0.5614,-0.936,-0.2134
2845591.0,4.5442,-0.5531,3.5721,-0.4986,-0.7971,-0.274
2845601.0,4.549,0.1963,2.9401,-0.381,-0.6524,-0.2767
2845611.0,4.7262,0.7949,2.0686,-0.2677,-0.4608,-0.2283
2845621.0,4.853,1.3815,1.1947,-0.1979,-0.2144,-0.1495
2845631.0,4.7477,1.9489,0.2682,-0.1873,0.0686,-0.049
2845641.0,4.4484,2.2577,-0.8619,-0.2102,0.4081,0.0798
2845651.0,4.2042,1.9992,-1.6376,-0.2288,0.8865,0.2267
2845661.0,3.8858,1.2857,-1.3743,-0.1878,1.5325,0.3581
2845671.0,3.1843,0.6704,-0.4717,-0.0937,2.1934,0.4518
2845681.0,2.2984,-0.0024,0.9409,-0.0463,2.7303,0.5034
2845691.0,1.4341,-0.759,2.7007,-0.0218,3.1464,0.5188
2845701.0,0.8356,-1.5897,4.7908,0.0846,3.4571,0.5076
2845711.0,0.2083,-2.15,6.4236,0.3464,3.67,0.4661
2845721.0,-0.3879,-2.5929,8.0349,0.6832,3.8466,0.389
2845731.0,-0.9864,-2.4636,8.9926,1.0323,3.952,0.2735
2845741.0,-1.6065,-2.2601,10.0245,1.1749,3.9334,0.1309
2845751.0,-1.9489,-2.2529,10.75,1.1228,3.7908,-0.0197
2845761.0,-2.308,-2.1739,11.0684,0.9434,3.5811,-0.1889
2845771.0,-2.648,-2.0255,11.3437,0.7386,3.4082,-0.3608
2845781.0,-3.1651,-1.7382,11.6981,0.646,3.3576,-0.5108
2845791.0,-3.6943,-1.5131,12.4977,0.6907,3.4215,-0.6332
2845801.0,-4.3263,-0.8667,13.5201,0.8333,3.5316,-0.7455
2845811.0,-5.4229,0.1269,14.8033,0.8961,3.5455,-0.8445
2845821.0,-5.8849,1.1756,16.9342,0.8407,3.4092,-0.8987
2845831.0,-6.1076,2.3152,18.8184,0.8668,3.1858,-0.8626
2845841.0,-6.529,3.1627,20.5087,0.9067,2.8191,-0.7524
2845851.0,-6.6295,3.5961,21.4018,0.961,2.3243,-0.597
2845861.0,-6.4404,3.8259,21.5957,1.0062,1.806,-0.4353
2845871.0,-7.0964,4.1037,21.294,0.9743,1.3021,-0.2959
2845881.0,-6.8019,4.1659,20.6045,0.8695,0.8397,-0.1485
2845891.0,-6.5984,3.5554,20.8798,0.704,0.4975,-0.0223
2845901.0,-6.3829,3.1268,20.4944,0.5912,0.1634,0.0532
2845911.0,-6.2584,2.7102,20.8631,0.3304,-0.2416,0.0474
2845921.0,-6.1268,2.7916,20.6931,0.1288,-0.6939,0.017
2845931.0,-6.0765,2.9592,20.5925,0.0192,-1.1036,0.0011
2845941.0,-5.8562,3.2729,19.8623,-0.0202,-1.5213,0.0133
2845951.0,-5.7389,3.5314,18.9549,-0.1203,-1.9656,0.0383
2845961.0,-5.5282,3.7565,17.5088,-0.2474,-2.394,0.0819
2845971.0,-5.1954,3.7038,16.0459,-0.4119,-2.7505,0.1383
2845981.0,-4.7716,3.4955,14.4322,-0.5667,-3.0224,0.1921
2845991.0,-4.2114,3.1795,13.046,-0.7327,-3.1991,0.2304
2846001.0,-3.6895,2.8802,11.9758,-0.8695,-3.289,0.248
2846011.0,-3.3471,2.6312,11.3485,-0.9504,-3.3172,0.2607
2846021.0,-2.8419,2.4181,10.8984,-0.912,-3.3097,0.2841
2846031.0,-2.4445,2.3487,10.2783,-0.8024,-3.2927,0.3177
2846041.0,-2.0925,2.2051,9.4212,-0.7625,-3.33,0.3496
2846051.0,-1.4557,2.1691,8.2959,-0.8077,-3.3949,0.3656
2846061.0,-0.8284,2.0758,7.197,-0.9206,-3.4156,0.3735
2846071.0,-0.3376,1.9632,6.3255,-1.0169,-3.347,0.3863
2846081.0,0.2107,1.6735,5.7964,-1.0286,-3.1927,0.4161
2846091.0,0.8619,1.1779,5.5043,-0.9663,-2.9985,0.4534
2846101.0,1.391,0.735,5.1499,-0.8567,-2.8032,0.4709
2846111.0,1.6783,0.4501,5.0374,-0.7806,-2.6382,0.4645
2846121.0,1.9752,0.1748,5.2936,-0.6614,-2.4733,0.4566
2846131.0,2.308,0.103,5.2122,-0.4752,-2.3376,0.4486
2846141.0,2.4828,0.2634,4.6448,-0.4198,-2.304,0.4289
2846151.0,2.6552,0.4334,4.0055,-0.5236,-2.3503,0.4033
2846161.0,2.9951,0.5674,2.9209,-0.6258,-2.3631,0.4012
2846171.0,3.3662,0.4573,1.8531,-0.6795,-2.2604,0.4236
2846181.0,3.8834,0.2969,0.917,-0.6401,-2.0183,0.4592
2846191.0,4.4628,0.0982,-0.0239,-0.5678,-1.699,0.4917
2846201.0,4.8123,-0.0287,-0.8308,-0.5465,-1.359,0.5055
2846211.0,5.0542,-0.146,-1.5227,-0.5587,-0.9807,0.5146
2846221.0,5.1715,-0.5004,-1.47,-0.5582,-0.5135,0.5273
2846231.0,5.217,-0.893,-1.1181,-0.473,-0.0282,0.5444
2846241.0,5.3151,-1.4245,-0.4764,-0.3374,0.4379,0.5491
2846251.0,5.4133,-2.0279,0.3567,-0.1245,0.8801,0.5321
2846261.0,5.3247,-2.375,1.0774,0.1596,1.3164,0.4858
2846271.0,4.9009,-2.3248,1.9585,0.3922,1.7044,0.4023
2846281.0,4.1875,-1.9297,2.9784,0.5741,2.0124,0.3102
2846291.0,3.6871,-1.2546,3.5674,0.7764,2.2498,0.2543
2846301.0,3.1771,-0.8284,4.0725,0.9062,2.4461,0.2373
2846311.0,3.0742,-0.7063,4.1204,0.879,2.5536,0.2261
2846321.0,2.8802,-0.9936,4.0821,0.696,2.6254,0.1921
2846331.0,2.3607,-1.2857,3.7709,0.4991,2.759,0.1235
2846341.0,1.8459,-1.5945,4.5011,0.3794,3.0714,0.0293
2846351.0,1.2163,-1.3886,5.6264,0.4683,3.4758,-0.0623
2846361.0,0.2705,-0.8045,7.6088,0.6556,3.8504,-0.1304
2846371.0,-0.3998,0.1365,9.2751,0.8817,4.0457,-0.1431
2846381.0,-1.2809,1.0104,10.4627,0.9557,4.0153,-0.1059
2846391.0,-2.1069,1.245,10.9319,0.8828,3.8488,-0.0101
2846401.0,-2.2865,0.1077,11.643,0.8386,3.8041,0.1128
2846411.0,-2.3918,-1.245,12.7898,0.8535,3.8828,0.1522
2846421.0,-2.8252,-2.217,14.9326,0.8482,3.9158,0.0564
2846431.0,-3.3998,-2.0063,16.417,0.8652,3.7658,-0.124
2846441.0,-4.0127,-1.2809,17.8368,0.7753,3.4641,-0.3209
2846451.0,-4.4341,-0.2011,18.2893,0.6258,3.0368,-0.473
2846461.0,-4.8554,0.7901,18.081,0.3693,2.5494,-0.5752
2846471.0,-5.3271,1.4653,17.5447,0.1266,2.1551,-0.6114
2846481.0,-5.6,1.4006,17.9828,0.0596,2.0204,-0.5827
2846491.0,-5.7892,1.2594,19.1799,0.2246,2.0156,-0.5353
2846501.0,-6.1411,1.4102,20.3675,0.4188,1.8496,-0.5161
2846511.0,-6.3973,1.9992,20.9325,0.5348,1.4729,-0.5119
2846521.0,-6.3925,2.6767,20.5997,0.5694,1.0275,-0.4911
2846531.0,-6.292,3.146,20.0179,0.5013,0.6066,-0.4539
2846541.0,-6.1986,3.4165,19.2877,0.3315,0.223,-0.4124
2846551.0,-6.1387,3.3926,18.8448,0.0553,-0.1181,-0.3799
2846561.0,-6.0525,3.2657,18.6628,-0.241,-0.4512,-0.3608
2846571.0,-5.9233,3.2465,18.433,-0.4502,-0.762,-0.3437
2846581.0,-5.9687,3.3447,18.263,-0.6119,-1.0701,-0.3203
2846591.0,-5.8706,3.3854,18.1528,-0.7157,-1.3984,-0.2719
2846601.0,-5.7604,3.4524,17.3747,-0.7253,-1.732,-0.1916
2846611.0,-5.521,3.201,16.4242,-0.7434,-2.0492,-0.0952
2846621.0,-5.1643,2.8204,15.3037,-0.7444,-2.3227,0.0048
2846631.0,-4.7238,2.3391,14.0276,-0.7513,-2.5419,0.0857
2846641.0,-4.2689,1.8675,12.785,-0.7779,-2.6946,0.1336
2846651.0,-3.7661,1.4772,11.7603,-0.8285,-2.7718,0.1474
2846661.0,-3.304,1.2043,11.0038,-0.9168,-2.8138,0.132
2846671.0,-2.8539,0.9481,10.5752,-1.0195,-2.8441,0.1027
2846681.0,-2.4804,0.7398,10.4244,-1.0844,-2.8601,0.074
2846691.0,-2.1644,0.6967,10.1179,-1.1169,-2.9096,0.0537
2846701.0,-1.798,0.668,9.7348,-1.1063,-2.9889,0.0516
2846711.0,-1.549,0.6297,8.9783,-1.028,-3.0495,0.0766
2846721.0,-1.087,0.2945,8.3103,-0.8929,-3.0304,0.1266
2846731.0,-0.5243,-0.1197,7.6136,-0.7428,-2.9617,0.1644
2846741.0,-0.0263,-0.4429,7.1682,-0.6391,-2.875,0.166
2846751.0,0.3543,-0.3855,6.517,-0.5795,-2.7915,0.1415
2846761.0,0.7326,-0.4022,6.4835,-0.5885,-2.6813,0.1123
2846771.0,1.1061,-0.1963,6.4763,-0.5635,-2.5813,0.0952
2846781.0,1.4317,-0.1006,6.3207,-0.5837,-2.5579,0.0905
2846791.0,1.8627,-0.103,5.7174,-0.6391,-2.5956,0.0995
2846801.0,2.2936,-0.237,5.0733,-0.7013,-2.5972,0.1091
2846811.0,2.7533,-0.4788,4.3862,-0.7093,-2.51,0.1192
2846821.0,3.1795,-0.6081,3.5578,-0.7205,-2.3945,0.1101
2846831.0,3.5698,-0.7494,2.8539,-0.8306,-2.3009,0.0761
2846841.0,3.9456,-0.8308,2.1117,-0.9647,-2.1806,0.0287
2846851.0,4.2306,-0.9457,1.7286,-1.0509,-1.9944,-0.0133
2846861.0,4.5083,-1.0032,1.6568,-1.028,-1.7762,-0.0357
2846871.0,4.64,-0.9122,1.4964,-0.8381,-1.5314,-0.0351
2846881.0,4.9273,-0.7949,1.2378,-0.4624,-1.2286,0.0085
2846891.0,5.296,-0.7159,0.5842,0.0197,-0.8551,0.0878
2846901.0,5.5665,-0.7183,-0.079,0.4374,-0.4353,0.1618
2846911.0,5.5952,-0.5698,-0.5219,0.6933,-0.016,0.2027
2846921.0,5.387,-0.3711,-0.735,0.7758,0.3879,0.216
2846931.0,5.0398,-0.2011,-0.644,0.7412,0.7779,0.216
2846941.0,4.9799,0.0335,-0.6728,0.629,1.118,0.2134
2846951.0,4.8459,0.1796,-0.4836,0.4268,1.4223,0.2118
2846961.0,4.1827,0.3615,-0.1365,0.3384,1.8065,0.2458
2846971.0,3.4309,0.2131,1.0127,0.4864,2.3434,0.3304
2846981.0,2.8371,0.0215,2.49,0.7795,2.8883,0.4305
2846991.0,2.2817,-0.146,4.0294,1.0632,3.2821,0.5055
2847001.0,1.6735,0.0455,4.9871,1.2542,3.5221,0.5545
2847011.0,0.9697,0.1293,5.7509,1.2159,3.621,0.5795
2847021.0,0.5052,-0.0934,5.6216,0.8663,3.505,0.5843
2847031.0,-0.0192,-1.1995,5.7126,0.3384,3.3837,0.5694
2847041.0,-0.2203,-2.5402,6.2704,0.1059,3.5449,0.531
2847051.0,-0.7374,-3.6057,8.0517,0.2735,3.985,0.4432
2847061.0,-1.5275,-3.7373,10.319,0.6359,4.3516,0.29
2847071.0,-2.4756,-2.9257,12.1027,0.9035,4.4192,0.1054
2847081.0,-3.055,-1.9201,13.4937,0.9285,4.226,-0.0458
2847091.0,-3.5051,-1.154,13.805,0.7583,3.8599,-0.1362
2847101.0,-3.8092,-0.9697,13.1897,0.4475,3.4422,-0.1868
2847111.0,-4.0869,-1.233,12.0309,0.1655,3.1927,-0.2251
2847121.0,-4.5657,-1.7621,12.3493,0.0974,3.3332,-0.2629
2847131.0,-5.2648,-1.9273,15.2535,0.4736,3.8206,-0.2948
2847141.0,-6.2968,-1.1516,19.1728,1.2122,4.2111,-0.3028
2847151.0,-7.094,-0.0838,22.5462,1.7352,3.9935,-0.3044
2847161.0,-7.0677,0.838,24.3131,1.8507,3.2118,-0.2996
2847171.0,-6.8378,1.4724,24.4879,1.7879,2.3168,-0.2826
2847181.0,-6.6918,1.9178,23.6475,1.6432,1.5181,-0.2724
2847191.0,-6.6248,2.4708,21.962,1.3659,0.8088,-0.2927
2847201.0,-6.4883,2.8826,20.1352,0.9408,0.232,-0.3315
2847211.0,-6.3231,2.9066,18.8974,0.456,-0.1522,-0.3714
2847221.0,-6.1651,2.7797,18.7442,0.0649,-0.3719,-0.4076
2847231.0,-6.1962,2.818,18.5575,-0.1447,-0.5454,-0.4252
2847241.0,-6.2177,2.7198,18.8184,-0.3187,-0.7875,-0.4284
2847251.0,-6.0597,2.6935,18.8472,-0.3996,-1.1031,-0.4097
2847261.0,-5.9687,2.7366,18.3085,-0.3368,-1.4122,-0.3618
2847271.0,-5.861,2.8012,17.3915,-0.2437,-1.7129,-0.2985
2847281.0,-5.6048,2.7797,16.2662,-0.2075,-1.997,-0.2373
2847291.0,-5.2577,2.8659,14.9733,-0.2065,-2.2301,-0.182
2847301.0,-4.889,2.9808,14.0923,-0.2559,-2.3887,-0.1288
2847311.0,-4.4341,2.9808,13.4794,-0.3102,-2.4818,-0.0708
2847321.0,-4.1587,2.964,12.8162,-0.4262,-2.6105,-0.0208
2847331.0,-3.7757,2.8252,12.0237,-0.6588,-2.8223,0.0101
2847341.0,-3.3184,2.5594,10.908,-0.9296,-3.0267,0.0293
2847351.0,-2.8994,2.1141,9.7995,-1.2122,-3.1586,0.0303
2847361.0,-2.3846,1.6735,8.8801,-1.4362,-3.2097,0.0112
2847371.0,-2.0446,1.4174,8.3318,-1.5437,-3.1778,-0.0122
2847381.0,-1.6712,1.1372,7.8338,-1.4867,-3.0815,-0.0085
2847391.0,-1.1037,0.9792,7.3526,-1.2984,-2.9405,0.0202
2847401.0,-0.5555,0.8571,7.0413,-1.1393,-2.817,0.0532
2847411.0,-0.0239,0.8475,6.2489,-0.9998,-2.7361,0.0905
2847421.0,0.5076,0.7853,5.1547,-0.9802,-2.6654,0.1192
2847431.0,1.0582,0.4214,4.4772,-1.0988,-2.5541,0.1336
2847441.0,1.4006,-0.0168,4.3718,-1.1792,-2.362,0.1368
2847451.0,1.798,-0.5171,4.6304,-1.1063,-2.105,0.1368
2847461.0,2.1237,-0.8068,5.0925,-0.9088,-1.8592,0.1341
2847471.0,2.3703,-0.8116,5.2385,-0.7226,-1.7203,0.1229
2847481.0,2.5881,-0.7254,5.1715,-0.6178,-1.6863,0.1149
2847491.0,2.9137,-0.6129,4.616,-0.5215,-1.674,0.1208
2847501.0,3.2178,-0.486,3.8786,-0.4135,-1.6043,0.1421
2847511.0,3.5099,-0.2969,2.9066,-0.2985,-1.4857,0.1735
2847521.0,3.8403,-0.0838,1.9848,-0.2176,-1.3154,0.2081
2847531.0,4.063,0.1748,0.8332,-0.1628,-1.0802,0.2496
2847541.0,4.2737,0.3807,-0.0646,-0.1612,-0.7854,0.3044
2847551.0,4.4748,0.3112,-1.008,-0.2097,-0.4507,0.3677
2847561.0,4.719,-0.0072,-1.798,-0.2996,-0.0553,0.4257
2847571.0,4.8483,-0.6776,-2.296,-0.4289,0.4076,0.4629
2847581.0,4.7357,-1.5371,-1.9728,-0.5199,0.9376,0.4667
2847591.0,4.1228,-2.138,-0.905,-0.3991,1.5335,0.4486
2847601.0,3.4788,-2.727,0.9313,-0.0325,2.1593,0.4299
2847611.0,2.909,-2.9568,2.7102,0.5007,2.7154,0.3996
2847621.0,2.2745,-2.9042,4.3646,0.9594,3.0692,0.3336
2847631.0,1.9106,-2.4493,4.9464,1.2584,3.206,0.2437
2847641.0,1.3958,-1.9824,5.1116,1.2797,3.2251,0.1405
2847651.0,0.9912,-1.7765,5.0494,1.0813,3.1815,0.0261
2847661.0,0.2658,-1.3431,4.4748,0.8556,3.2092,-0.0899
2847671.0,-0.1748,-1.3551,4.616,0.6753,3.4071,-0.1772
2847681.0,-0.8691,-0.9744,5.3798,0.6939,3.7705,-0.2517
2847691.0,-2.0686,0.0096,6.7756,0.8562,4.1728,-0.2953
2847701.0,-3.1627,1.0391,8.6479,1.0531,4.4719,-0.2682
2847711.0,-3.9792,1.968,10.2783,1.2483,4.6124,-0.1697
2847721.0,-5.0206,2.636,11.9255,1.3452,4.6092,-0.0261
2847731.0,-5.6599,2.6049,13.5081,1.4058,4.5246,0.1506
2847741.0,-6.1603,2.0063,15.0907,1.5016,4.425,0.3145
2847751.0,-6.5505,1.1229,16.9462,1.5639,4.2638,0.4103
2847761.0,-6.7708,0.3855,18.7251,1.6075,3.9988,0.4182
2847771.0,-6.8666,0.1053,19.745,1.5639,3.5848,0.3384
2847781.0,-6.8881,0.2729,20.5111,1.3308,3.0517,0.1836
2847791.0,-7.0844,1.0271,20.6883,1.0163,2.4945,0.017
2847801.0,-7.4244,1.7861,20.6165,0.6572,1.9481,-0.1171
2847811.0,-7.6375,2.3942,20.1927,0.3411,1.4622,-0.1985
2847821.0,-7.8554,2.4636,20.3531,0.1181,1.1297,-0.224
2847831.0,-8.0278,2.2769,21.2078,0.0788,0.8817,-0.2144
2847841.0,-8.2001,2.4373,21.6268,0.1799,0.5534,-0.1926
2847851.0,-8.2887,2.6456,21.5742,0.2687,0.124,-0.1607
2847861.0,-8.0469,3.1268,20.9421,0.3028,-0.3352,-0.1219
2847871.0,-7.8769,3.5147,20.2382,0.2155,-0.7748,-0.0798
2847881.0,-7.6399,3.8188,19.2997,0.0287,-1.2116,-0.0303
2847891.0,-7.3765,3.7038,18.5814,-0.2336,-1.6123,0.0218
2847901.0,-7.1539,3.3806,18.0738,-0.456,-1.9592,0.0772
2847911.0,-6.9576,2.9233,17.6477,-0.6162,-2.3088,0.1298
2847921.0,-6.6343,2.4995,16.9438,-0.7152,-2.6834,0.1729
2847931.0,-6.2465,2.1117,15.9645,-0.7668,-3.0352,0.2075
2847941.0,-5.8682,1.664,14.8464,-0.8205,-3.3661,0.232
2847951.0,-5.3391,1.2067,13.2304,-0.8945,-3.6971,0.2315
2847961.0,-4.7166,0.8523,11.2982,-1.0025,-3.9669,0.1985
2847971.0,-4.0318,0.7805,9.4188,-1.1132,-4.1037,0.1458
2847981.0,-3.3782,0.5483,7.9272,-1.152,-4.0733,0.0968
2847991.0,-2.6121,0.5626,6.4787,-1.1451,-3.9419,0.0484
2848002.0,-1.9393,0.5578,5.7892,-1.126,-3.7216,0.0048
2848011.0,-1.3982,0.6704,5.5929,-1.0493,-3.4343,-0.0181
2848021.0,-0.8595,0.6009,5.794,-0.9216,-3.1586,-0.008
2848031.0,-0.3472,0.5171,5.8586,-0.7779,-2.982,0.0181
2848041.0,0.1389,0.3304,5.8419,-0.6497,-2.8537,0.0474
2848051.0,0.4956,0.2921,5.6288,-0.48,-2.7053,0.0851
2848061.0,0.8499,0.2227,5.3965,-0.3336,-2.5733,0.1272
2848071.0,1.2522,0.0862,4.7812,-0.2384,-2.4828,0.166
2848081.0,1.8794,-0.2322,4.2377,-0.2219,-2.3663,0.1815
2848091.0,2.5043,-0.3903,3.6416,-0.2602,-2.2253,0.1607
2848101.0,2.7031,-0.3615,3.3136,-0.4076,-2.1024,0.1032
2848111.0,2.8922,-0.182,3.1268,-0.5694,-2.0007,0.0426
2848121.0,3.1771,0.1532,2.8515,-0.6604,-1.881,0.0128
2848131.0,3.2489,0.4094,2.4828,-0.7269,-1.7693,0.017
2848141.0,3.4979,0.51,1.9393,-0.7412,-1.6682,0.0548
2848151.0,3.8403,0.4812,0.9888,-0.646,-1.5155,0.1245
2848161.0,4.2569,0.4142,-0.2227,-0.4901,-1.2632,0.2022
2848171.0,4.5681,0.3807,-1.4629,-0.3129,-0.8987,0.274
2848181.0,4.7381,0.3184,-2.5762,-0.1783,-0.4496,0.331
2848191.0,4.6831,0.0072,-3.4309,-0.1245,0.0564,0.3709
2848201.0,4.7501,-0.7638,-3.7421,-0.1086,0.6481,0.3879
2848211.0,4.6519,-1.585,-3.2202,-0.0601,1.3356,0.3544
2848221.0,3.9624,-1.9585,-1.9201,0.0266,2.0034,0.2645
2848231.0,3.1532,-1.889,-0.2753,0.1809,2.5669,0.1596
2848241.0,2.2434,-1.5586,1.2617,0.3794,3.0171,0.074
2848251.0,1.549,-1.0798,2.2338,0.5859,3.3454,0.0122
2848261.0,0.9409,-0.3136,2.8132,0.7082,3.595,-0.0378
2848271.0,0.067,0.6871,3.2872,0.6556,3.7604,-0.0649
2848281.0,-1.1085,1.7597,3.6512,0.5358,3.8977,-0.0378
2848291.0,-2.6169,2.5474,3.9385,0.4917,4.1436,0.0724
2848301.0,-3.9552,2.0279,4.9823,0.5034,4.523,0.2501
2848311.0,-4.2353,0.5435,7.3981,0.5912,4.9917,0.3991
2848321.0,-4.8315,-0.4764,10.2975,0.6353,5.2828,0.415
2848331.0,-5.8873,-0.8643,13.5081,0.5236,5.2493,0.3278
2848341.0,-6.675,-0.486,15.5336,0.4619,4.9619,0.2256
2848351.0,-7.1467,0.1867,16.2279,0.4055,4.5474,0.1511
2848361.0,-7.6998,0.8978,16.4601,0.3363,4.1973,0.1112
2848371.0,-8.4443,1.4988,16.9964,0.3996,4.06,0.1266
2848381.0,-8.9711,1.1779,19.0291,0.5992,4.0989,0.1889
2848391.0,-9.1123,0.2729,22.2326,0.9158,4.076,0.2421
2848401.0,-9.1051,-0.2131,25.0841,1.1036,3.6492,0.1937
2848411.0,-8.7484,0.0622,26.1734,1.0781,2.7771,0.0649
2848421.0,-8.3629,0.7422,25.5629,0.9323,1.8007,-0.0793
2848431.0,-8.2839,1.798,24.1982,0.7301,1.002,-0.1963
2848441.0,-8.2744,2.6456,22.8479,0.3986,0.3118,-0.2751
2848451.0,-8.169,3.2729,21.2533,0.0399,-0.2953,-0.3044
2848461.0,-8.0565,3.5554,19.9844,-0.2208,-0.6933,-0.2799
2848471.0,-7.908,3.5434,19.3811,-0.3257,-0.9009,-0.2043
2848481.0,-7.7524,3.4237,19.0674,-0.2969,-1.0589,-0.099
2848491.0,-7.5441,3.1723,18.8663,-0.2528,-1.2717,0.0165
2848501.0,-7.1826,2.6073,18.658,-0.2586,-1.5596,0.1229
2848511.0,-6.8761,2.0039,17.9685,-0.3576,-1.9544,0.1857
2848521.0,-6.4212,1.4868,16.9031,-0.5465,-2.4185,0.1953
2848531.0,-5.8682,1.0439,15.4163,-0.7673,-2.8346,0.1634
2848541.0,-5.2984,0.7566,13.8696,-0.9679,-3.1421,0.1043
2848551.0,-4.7453,0.7925,12.3637,-1.1323,-3.3427,0.0303
2848561.0,-4.1994,0.7326,11.054,-1.2324,-3.4337,-0.0234
2848571.0,-3.4931,0.6919,9.8402,-1.2744,-3.4353,-0.0607
2848581.0,-2.9712,0.5842,9.2464,-1.3015,-3.3837,-0.0819
2848591.0,-2.4732,0.3855,8.6311,-1.2435,-3.3454,-0.0782
2848601.0,-1.9273,-0.0215,7.9535,-1.0834,-3.273,-0.0596
2848611.0,-1.3815,-0.1556,7.0749,-0.8461,-3.1474,-0.0468
2848621.0,-0.9433,-0.2729,6.3686,-0.6747,-3.0054,-0.05
2848631.0,-0.2514,-0.3974,5.8921,-0.5321,-2.8234,-0.0644
2848641.0,0.2586,-0.2274,5.7102,-0.3799,-2.5653,-0.0873
2848651.0,0.498,0.1006,5.9592,-0.3113,-2.3344,-0.108
2848661.0,0.6704,0.3735,6.3829,-0.29,-2.2008,-0.1064
2848671.0,0.984,0.5076,6.6439,-0.2288,-2.1162,-0.0697
2848681.0,1.2426,0.4022,6.7971,-0.1038,-2.0183,-0.0074
2848691.0,1.3264,0.2562,6.8546,0.0255,-1.9358,0.0521
2848701.0,1.6424,0.0742,7.1156,0.0867,-1.9156,0.0883
2848711.0,1.901,0.1652,6.7995,0.0937,-1.9736,0.1032
2848721.0,2.1763,0.3639,6.3351,-0.0138,-2.0864,0.1043
2848731.0,2.4541,0.6057,5.296,-0.1708,-2.2168,0.1107
2848741.0,2.8635,0.6752,4.1037,-0.3672,-2.3035,0.1266
2848751.0,3.2705,0.6656,2.6983,-0.514,-2.2971,0.1532
2848761.0,3.5434,0.6608,1.6592,-0.5454,-2.1061,0.1969
2848771.0,3.6559,0.656,1.4006,-0.4326,-1.7565,0.265
2848781.0,3.723,0.6488,1.4844,-0.1841,-1.3952,0.3565
2848791.0,3.7972,0.6536,1.2306,0.0846,-1.1414,0.4629
2848801.0,3.9911,0.5387,0.5578,0.2895,-0.9248,0.5672
2848811.0,4.3574,0.1293,-0.5171,0.4113,-0.6875,0.6534
2848821.0,4.8147,-0.4238,-2.0638,0.3847,-0.3986,0.687
2848831.0,5.1571,-1.2737,-2.9281,0.2469,0.041,0.6566
2848841.0,5.1571,-1.8411,-3.2298,0.2405,0.6864,0.5747
2848851.0,4.5705,-1.9082,-2.545,0.2836,1.4122,0.4502
2848861.0,3.6224,-1.5347,-1.1229,0.3342,2.03,0.3288
2848871.0,2.5929,-0.9792,0.2538,0.505,2.5621,0.2602
2848881.0,1.403,-0.589,1.7909,0.7545,3.0453,0.2517
2848891.0,0.6728,-0.6608,3.0622,0.9929,3.4092,0.2772
2848901.0,0.0958,-0.9625,4.2377,1.1419,3.6668,0.2762
2848911.0,-0.5052,-1.1253,5.3032,1.242,3.8866,0.2352
2848921.0,-1.4174,-1.1205,6.2106,1.2824,4.0909,0.1543
2848931.0,-2.2505,-0.9361,7.5705,1.21,4.2457,0.0463
2848941.0,-3.2465,-0.4334,9.0549,1.1318,4.3585,-0.0569
2848951.0,-4.2306,0.1437,10.9463,1.0828,4.4384,-0.1224
2848961.0,-4.9991,0.4525,13.0388,1.0786,4.4235,-0.141
2848971.0,-5.6743,0.7207,14.5998,1.0967,4.2617,-0.1352
2848981.0,-6.0047,0.5076,15.9238,1.0467,3.9978,-0.1314
2848991.0,-6.2704,0.261,16.6804,1.011,3.7046,-0.1474
2849001.0,-6.4045,0.0311,17.3101,0.9541,3.4087,-0.2017
2849011.0,-6.5721,0.2322,17.5878,0.8961,3.1427,-0.2895
2849021.0,-6.9145,0.7183,18.4832,0.8312,2.9383,-0.3799
2849031.0,-7.2065,1.3838,19.4146,0.8333,2.7367,-0.4385
2849041.0,-7.4819,2.2194,20.1281,0.7976,2.4546,-0.4715
2849051.0,-7.6543,2.7892,20.6763,0.6359,2.0518,-0.4794
2849061.0,-7.7237,3.0478,20.8894,0.4672,1.6182,-0.4592
2849071.0,-7.4412,2.7964,21.2126,0.3416,1.2372,-0.4225
2849081.0,-7.3526,2.6121,21.3826,0.2554,0.8679,-0.4023
2849091.0,-7.3239,2.739,21.3994,0.1059,0.406,-0.4129
2849101.0,-7.1443,2.8084,21.1647,-0.0585,-0.0862,-0.4188
2849111.0,-7.003,2.8898,20.5183,-0.19,-0.5566,-0.4108
2849121.0,-6.8163,2.9353,19.5151,-0.3374,-1.0291,-0.4033
2849131.0,-6.4165,3.0598,18.0427,-0.4842,-1.4681,-0.3938
2849141.0,-6.1076,3.0502,16.7139,-0.6284,-1.7783,-0.3746
2849151.0,-5.6383,2.9664,15.5623,-0.721,-1.9885,-0.3395
2849161.0,-5.2409,2.9281,14.6381,-0.7928,-2.1593,-0.3017
2849171.0,-4.9416,2.806,13.7116,-0.8455,-2.3136,-0.2512
2849181.0,-4.7022,2.5043,12.8449,-0.8828,-2.4488,-0.1932
2849191.0,-4.3862,2.1907,11.8082,-0.8897,-2.5669,-0.1415
2849201.0,-3.9289,1.7142,10.9559,-0.8817,-2.6387,-0.1064
2849211.0,-3.3184,1.3503,9.8881,-0.8418,-2.6446,-0.0921
2849221.0,-2.7581,1.1037,9.0597,-0.8562,-2.5972,-0.1027
2849231.0,-2.2482,0.8954,8.5784,-0.8929,-2.5068,-0.1261
2849241.0,-1.7334,0.5219,8.6742,-0.8913,-2.3769,-0.1458
2849251.0,-1.2306,0.3998,8.8155,-0.77,-2.2253,-0.1607
2849261.0,-1.0894,0.4932,8.9639,-0.6236,-2.1093,-0.1671
2849271.0,-1.0894,0.577,8.995,-0.5497,-2.0891,-0.1623
2849281.0,-0.7039,0.3759,8.9232,-0.5135,-2.1178,-0.1474
2849291.0,-0.2083,0.1437,8.5281,-0.4933,-2.1322,-0.1405
2849301.0,0.1101,-0.0575,8.2456,-0.564,-2.1433,-0.1644
2849311.0,0.3543,-0.0407,7.8817,-0.6577,-2.1625,-0.1995
2849321.0,0.6201,0.0215,7.6112,-0.7024,-2.146,-0.223
2849331.0,0.9505,0.067,7.501,-0.6055,-2.0305,-0.2128
2849341.0,1.2833,0.2634,7.1922,-0.4544,-1.8906,-0.1836
2849351.0,1.2258,0.5483,6.9192,-0.4544,-1.8395,-0.1602
2849361.0,1.5107,0.6584,7.0701,-0.506,-1.8188,-0.1235
2849371.0,1.7358,0.7638,7.0078,-0.4752,-1.7613,-0.0564
2849381.0,1.719,0.7925,6.5003,-0.5199,-1.7991,0.0133
2849391.0,2.1261,0.3519,5.6431,-0.6641,-1.93,0.075
2849401.0,2.7892,-0.0862,4.2737,-0.7274,-1.931,0.1219
2849411.0,3.1029,-0.4214,3.3255,-0.6955,-1.723,0.1447
2849421.0,3.2441,-0.4956,2.4086,-0.5976,-1.4516,0.1602
2849431.0,3.5841,-0.6297,1.3982,-0.5459,-1.1941,0.1729
2849441.0,3.9696,-0.996,0.3759,-0.5832,-0.8929,0.1767
2849451.0,4.2425,-1.7909,0.1006,-0.6726,-0.5146,0.1554
2849461.0,4.5107,-2.308,-0.2131,-0.6965,-0.1139,0.0942
2849471.0,4.4843,-2.6839,-0.4549,-0.6965,0.299,0.0059
2849481.0,4.3263,-2.9018,-0.3208,-0.6268,0.7875,-0.0889
2849491.0,3.7373,-3.1891,1.2546,-0.3618,1.4128,-0.165
2849501.0,3.0167,-3.1244,3.158,0.182,2.0263,-0.2134
2849511.0,2.1404,-2.8706,4.9057,0.7109,2.4568,-0.2591
2849521.0,1.6855,-2.4972,5.9185,1.069,2.6398,-0.3161
2849531.0,1.2857,-2.2769,6.7277,1.1834,2.7122,-0.3895
2849541.0,0.984,-2.1261,8.023,1.1632,2.7883,-0.4794
2849551.0,0.4836,-1.4892,9.3087,1.144,2.8351,-0.5821
2849561.0,-0.0383,-0.6823,10.5824,1.0515,2.7792,-0.6678
2849571.0,-0.407,0.1915,11.6598,0.9285,2.6366,-0.7093
2849581.0,-0.7494,1.0558,12.3373,0.8088,2.4514,-0.6981
2849591.0,-1.2186,1.6305,12.9167,0.6854,2.2466,-0.6311
2849601.0,-1.3886,1.6352,13.2016,0.629,2.0508,-0.5199
2849611.0,-1.4581,1.1947,13.2639,0.6194,1.8986,-0.4108
2849621.0,-1.3886,0.407,13.4961,0.6321,1.8028,-0.3416
2849631.0,-1.3695,0.0144,13.4243,0.6439,1.7118,-0.3437
2849641.0,-1.4796,0.012,13.453,0.571,1.5974,-0.4039
2849651.0,-1.6376,0.3831,13.3046,0.4534,1.466,-0.4784
2849661.0,-1.9489,0.8188,12.8808,0.3134,1.3505,-0.5364
2849671.0,-2.1955,0.8547,12.876,0.199,1.3015,-0.5619
2849681.0,-2.2458,0.4693,13.465,0.2155,1.3659,-0.5656
2849691.0,-2.4852,0.3879,14.1809,0.3347,1.4271,-0.5917
2849701.0,-2.8012,0.7829,15.1002,0.4353,1.3787,-0.6348
2849711.0,-2.9401,1.3264,15.9502,0.5475,1.2691,-0.6534
2849721.0,-3.0981,1.9776,16.4123,0.654,1.1206,-0.6412
2849731.0,-3.2753,2.4588,16.9438,0.6455,0.8939,-0.6135
2849741.0,-3.3543,2.9281,16.8121,0.5513,0.5869,-0.5757
2849751.0,-3.3088,3.2537,16.5583,0.3539,0.2698,-0.5369
2849761.0,-3.3591,3.2489,16.2494,0.1442,0.0213,-0.4832
2849771.0,-3.2777,2.9449,16.5415,0.0016,-0.1314,-0.4236
2849781.0,-3.304,2.7988,16.8695,-0.0569,-0.2969,-0.3783
2849791.0,-3.3184,2.7126,17.0419,-0.1123,-0.5507,-0.3352
2849801.0,-3.1029,2.49,16.6565,-0.1884,-0.8817,-0.2959
2849811.0,-2.8611,2.3272,15.8281,-0.2815,-1.2191,-0.2692
2849821.0,-2.7342,2.1763,15.1337,-0.3704,-1.4819,-0.2565
2849831.0,-2.6169,2.2386,14.3508,-0.39,-1.6825,-0.2373
2849841.0,-2.3918,2.2577,13.5081,-0.3672,-1.8342,-0.2022
2849851.0,-2.2027,2.2625,12.4618,-0.3762,-1.9656,-0.158
2849861.0,-1.8723,2.0782,11.7172,-0.4464,-2.0736,-0.1176
2849871.0,-1.403,1.8196,11.0516,-0.48,-2.1077,-0.0766
2849881.0,-1.1301,1.5634,10.4627,-0.4943,-2.1061,-0.042
2849891.0,-0.7949,1.1923,9.9335,-0.5412,-2.1444,-0.0223
2849901.0,-0.4286,0.7518,9.1842,-0.6034,-2.1912,-0.0186
2849911.0,0.0718,0.1963,8.7724,-0.654,-2.1801,-0.0362
2849921.0,0.3519,-0.0431,8.4851,-0.6263,-2.0976,-0.0788
2849931.0,0.5124,-0.1173,8.9902,-0.5209,-1.972,-0.1272
2849941.0,0.7709,0.3543,8.983,-0.2996,-1.8858,-0.1495
2849951.0,0.7518,0.8667,8.9208,-0.2097,-1.9252,-0.1485
2849961.0,0.9146,1.1923,7.9224,-0.2272,-2.0795,-0.1117
2849971.0,1.4222,0.8428,6.6391,-0.3187,-2.1716,-0.0553
2849981.0,1.9968,0.3855,5.2529,-0.4385,-2.1274,-0.0282
2849991.0,2.4469,0.0144,4.4101,-0.5906,-1.9752,-0.05
2850001.0,2.6743,-0.1652,3.7948,-0.7237,-1.7629,-0.0952
2850011.0,2.9736,-0.3735,3.7038,-0.7944,-1.5075,-0.1421
2850021.0,3.3016,-0.3472,3.5602,-0.7913,-1.2616,-0.1846
2850031.0,3.2968,-0.0407,3.5913,-0.7673,-1.0472,-0.2187
2850041.0,3.4357,0.4166,3.3279,-0.679,-0.8572,-0.2155
2850051.0,3.6751,0.7135,2.9018,-0.53,-0.6396,-0.1671
2850061.0,4.0007,0.8787,2.1332,-0.3608,-0.389,-0.0931
2850071.0,4.2856,1.0463,1.3695,-0.2634,-0.0921,-0.0287
2850081.0,4.3263,1.2163,1.1109,-0.2277,0.2698,0.0282
2850091.0,4.0342,1.2689,1.4198,-0.1884,0.6886,0.1
2850101.0,3.735,0.9002,2.2697,-0.1027,1.1015,0.1932
2850111.0,3.3639,0.4429,3.1292,0.0378,1.4516,0.2772
2850121.0,3.1244,-0.4286,4.1204,0.1266,1.7299,0.3283
2850131.0,2.988,-1.4293,5.4324,0.2144,1.9635,0.3214
2850141.0,2.8156,-1.8196,6.4117,0.39,2.1588,0.2512
2850151.0,2.375,-1.7861,7.6734,0.5199,2.3072,0.1357
2850161.0,1.9201,-1.1037,8.5497,0.6236,2.3514,0.0154
2850171.0,1.4772,-0.0982,9.1435,0.6369,2.3136,-0.0798
2850181.0,1.0942,1.0319,9.3661,0.5715,2.2343,-0.1213
2850191.0,0.5411,2.1165,9.1051,0.4709,2.1912,-0.0937
2850201.0,-0.0048,2.4541,9.2249,0.3251,2.2455,0.0059
2850211.0,-0.2969,1.9417,9.9742,0.2565,2.4174,0.1437
2850221.0,-0.735,1.5155,10.9056,0.2666,2.5861,0.2453
2850231.0,-1.3048,1.2258,12.1027,0.2304,2.6457,0.3028
2850241.0,-2.0686,1.2977,12.7587,0.1857,2.5749,0.3416
2850251.0,-2.6073,0.9385,13.5201,0.1219,2.4578,0.3895
2850261.0,-2.6384,-0.091,14.2383,0.1958,2.4009,0.439
2850271.0,-2.727,-0.8021,14.8441,0.3358,2.3578,0.4214
2850281.0,-2.8802,-0.893,15.1337,0.3938,2.2099,0.3241
2850291.0,-3.0598,-0.4022,14.9111,0.3304,1.9965,0.1974
2850301.0,-3.2465,0.3089,14.6238,0.1405,1.7874,0.0809
2850311.0,-3.5554,1.0056,14.5017,-0.0761,1.6432,0.0053
