time_ms,ax,ay,az,gx,gy,gz
1267511.0,-2.3846,2.7581,10.228,1.1744,0.6992,-0.0176
1267521.0,-2.3439,2.9233,10.2472,0.9514,0.629,0.0117
1267531.0,-2.241,2.7557,9.9144,0.629,0.5119,0.0357
1267541.0,-2.1069,2.2697,9.493,0.1719,0.3629,0.0357
1267551.0,-1.8699,1.4102,9.5217,-0.2634,0.274,0.0117
1267561.0,-1.6089,0.5243,9.6271,-0.4725,0.2879,-0.0362
1267571.0,-1.7286,0.1915,9.9024,-0.4619,0.3837,-0.1149
1267581.0,-2.1332,0.6728,10.2065,-0.357,0.4784,-0.2027
1267591.0,-2.4852,1.2402,10.568,-0.2826,0.5071,-0.2437
1267601.0,-2.5043,1.5275,10.7452,-0.2235,0.4789,-0.2341
1267611.0,-2.5809,1.8196,10.5536,-0.1501,0.4432,-0.2011
1267621.0,-2.66,1.7669,10.4459,-0.0931,0.4209,-0.1532
1267631.0,-2.4684,1.1564,10.6183,0.0027,0.455,-0.1016
1267641.0,-2.4086,0.5171,11.1761,0.1229,0.4858,-0.099
1267651.0,-2.5163,0.4908,11.6071,0.2549,0.4443,-0.1511
1267661.0,-2.7557,1.2019,11.7316,0.3704,0.3427,-0.2224
1267671.0,-2.8922,2.399,11.3868,0.4597,0.2166,-0.2597
1267681.0,-2.9928,3.5123,10.8601,0.4539,0.091,-0.2458
1267691.0,-2.9904,4.5705,10.0197,0.3453,-0.0234,-0.1804
1267701.0,-2.5139,4.6064,9.2608,0.165,-0.099,-0.075
1267711.0,-2.6576,5.3989,9.0501,0.0005,-0.1043,0.0059
1267721.0,-2.0255,5.193,8.6359,-0.0314,-0.0362,0.1681
1267731.0,-1.9656,4.3742,8.9399,-0.0628,0.0633,0.3124
1267741.0,-1.7573,4.276,8.9807,-0.0431,0.1022,0.3762
1267751.0,-1.6975,4.6591,8.5808,-0.0521,0.1059,0.4076
1267761.0,-1.6065,4.7836,8.1092,-0.1368,0.1128,0.4555
1267771.0,-1.6281,4.7621,7.7835,-0.2533,0.1591,0.5103
1267781.0,-1.6328,4.2904,7.7979,-0.3464,0.248,0.5741
1267791.0,-1.5347,3.9289,8.2097,-0.2985,0.4188,0.6321
1267801.0,-1.889,4.118,9.0908,-0.125,0.6619,0.6768
1267811.0,-2.296,4.2138,10.3573,0.0367,0.8269,0.737
1267821.0,-2.5618,4.2306,11.5616,0.1032,0.8466,0.7939
1267831.0,-2.7294,4.1156,12.5456,-0.0053,0.7173,0.8258
1267841.0,-2.7964,3.7541,13.3046,-0.2086,0.481,0.8386
1267851.0,-2.7461,3.3327,13.6517,-0.3544,0.2288,0.8397
1267861.0,-2.8204,2.6935,13.872,-0.4039,0.0064,0.8418
1267871.0,-2.9928,1.9058,13.9031,-0.3342,-0.1905,0.8359
1267881.0,-3.0861,1.3815,13.6517,-0.2011,-0.4124,0.8014
1267891.0,-3.0478,1.2929,12.6534,-0.0122,-0.6194,0.7572
1267901.0,-2.8778,1.3312,11.3078,0.1777,-0.7412,0.7221
1267911.0,-2.6647,1.3072,9.9024,0.2868,-0.7785,0.6875
1267921.0,-2.6193,0.9744,8.7867,0.2682,-0.7662,0.646
1267931.0,-2.2098,0.0335,8.1427,0.1926,-0.7008,0.5986
1267941.0,-1.9273,-0.9218,7.7333,0.1437,-0.5864,0.5124
1267951.0,-1.5874,-1.482,7.343,0.1123,-0.4672,0.3773
1267961.0,-1.5155,-1.2785,6.9911,0.0617,-0.2943,0.1979
1267971.0,-1.8004,-0.5459,7.3789,-0.0798,-0.067,0.0112
1267981.0,-2.3367,0.1628,8.5114,-0.3507,0.1032,-0.1527
1267991.0,-2.8539,0.486,9.9264,-0.7503,0.0873,-0.2841
1268001.0,-3.122,0.1365,11.1761,-1.1249,-0.1006,-0.3746
1268011.0,-3.1029,-0.4764,11.7364,-1.2882,-0.3459,-0.4459
1268021.0,-2.8946,-1.0343,11.7747,-1.2042,-0.5438,-0.5114
1268031.0,-2.7054,-1.0654,11.2863,-0.911,-0.63,-0.5651
1268041.0,-2.5714,-0.6321,10.896,-0.5513,-0.6529,-0.6167
1268051.0,-2.3607,0.5914,9.8881,-0.2134,-0.6657,-0.6588
1268061.0,-2.0877,1.6281,9.1171,-0.0867,-0.6236,-0.6689
1268071.0,-1.9393,2.3511,8.9735,-0.2123,-0.5896,-0.6561
1268081.0,-2.1045,2.636,9.0237,-0.4901,-0.6412,-0.6247
1268091.0,-1.9585,2.0949,8.9256,-0.7992,-0.7779,-0.5715
1268101.0,-1.6352,1.1564,8.4755,-1.0078,-0.9232,-0.5316
1268111.0,-1.3671,0.2753,7.9535,-1.0238,-0.9631,-0.5204
1268121.0,-0.9625,-0.316,7.5058,-0.8301,-0.8615,-0.5247
1268131.0,-0.7733,-0.3543,6.845,-0.5757,-0.746,-0.5571
1268141.0,-0.6416,-0.146,5.782,-0.4454,-0.6875,-0.596
1268151.0,-0.3232,-0.3759,4.7573,-0.4895,-0.6396,-0.6231
1268161.0,0.1891,-0.3663,3.5865,-0.638,-0.5683,-0.6689
1268171.0,0.4238,-0.0958,2.9568,-0.796,-0.3959,-0.7066
1268181.0,0.4453,0.6608,2.6025,-0.8285,-0.158,-0.6928
1268191.0,0.0527,0.7997,2.3583,-0.6907,0.1538,-0.6194
1268201.0,-0.0646,1.0726,1.0774,-0.4842,0.4055,-0.5337
1268211.0,-0.1556,1.5347,-0.5411,-0.3134,0.779,-0.4417
1268221.0,-0.5818,2.5379,-1.4581,-0.2389,1.3798,-0.3533
1268231.0,-1.2665,2.9808,0.0096,-0.282,2.0603,-0.224
1268241.0,-2.466,3.5745,1.81,-0.191,2.6308,-0.0479
1268251.0,-3.5841,3.1173,4.063,-0.0984,2.9192,0.1767
1268261.0,-4.0486,1.5538,5.8945,0.2698,3.082,0.4401
1268271.0,-4.6974,0.6225,5.5833,0.8668,3.0804,0.6247
1268281.0,-5.0087,-0.2729,3.3567,1.433,3.0357,0.721
1268291.0,-5.3247,-0.4334,0.5195,1.9177,3.4066,0.6875
1268301.0,-7.2736,-0.5626,0.9936,2.0146,4.1781,0.5444
1268311.0,-9.177,-1.98,5.8155,1.9731,4.9971,0.3618
1268321.0,-10.4555,-1.2186,10.9319,2.112,5.4031,0.0649
1268331.0,-11.5688,1.482,16.4984,2.2008,5.3946,-0.2267
1268341.0,-13.0125,5.1451,20.1376,2.245,4.8986,-0.3358
1268351.0,-11.1977,7.0485,21.239,2.1157,3.9579,-0.2623
1268361.0,-11.7819,7.8386,20.1281,1.7959,3.1474,-0.0521
1268371.0,-11.0684,7.2401,18.1672,1.2574,2.4898,0.1
1268381.0,-11.3389,6.1292,18.7251,0.4299,2.2072,0.1383
1268391.0,-11.7938,4.6376,21.5239,-0.3507,1.9576,0.1006
1268401.0,-11.9447,3.292,24.1862,-0.861,1.3611,0.0101
1268411.0,-11.3054,2.9305,24.5597,-1.0025,0.5507,-0.0921
1268421.0,-10.8721,3.4165,23.8367,-0.9041,-0.1948,-0.1751
1268431.0,-10.3525,4.7333,21.792,-0.5875,-0.8195,-0.1846
1268441.0,-9.7085,6.1531,19.2374,-0.2501,-1.2531,-0.1091
1268451.0,-9.1435,6.9528,16.9486,-0.0883,-1.5463,0.0325
1268461.0,-8.5712,6.8785,15.1218,-0.1272,-1.7762,0.1995
1268471.0,-8.1116,5.7724,13.8816,-0.2528,-1.9417,0.3656
1268481.0,-7.5848,3.723,12.7922,-0.3432,-2.0774,0.4922
1268491.0,-6.7708,1.2713,11.3988,-0.4252,-2.2189,0.5103
1268501.0,-5.8419,-0.5219,10.2352,-0.5555,-2.304,0.3714
1268511.0,-5.4277,-0.917,9.2703,-0.6838,-2.3115,0.1261
1268521.0,-5.1308,-0.3017,8.6287,-0.7748,-2.2524,-0.132
1268531.0,-5.0781,1.3048,8.3582,-0.8599,-2.1614,-0.3331
1268541.0,-5.3415,2.8946,8.7939,-0.9764,-2.0939,-0.4156
1268551.0,-5.5306,3.6368,9.2344,-1.0584,-2.1439,-0.3602
1268561.0,-5.3726,3.225,8.9878,-1.0248,-2.3078,-0.2081
1268571.0,-4.9752,1.8292,7.5226,-0.8498,-2.4451,-0.033
1268581.0,-4.4891,-0.3184,5.5785,-0.6795,-2.4717,0.066
1268591.0,-3.4931,-2.0039,3.5817,-0.5917,-2.3285,0.0165
1268601.0,-2.8084,-2.7246,2.8204,-0.6726,-1.9938,-0.182
1268611.0,-2.5474,-2.3631,3.7469,-0.8594,-1.6006,-0.4475
1268621.0,-2.7988,-1.0654,5.4684,-0.9871,-1.3058,-0.6859
1268631.0,-2.9736,0.5914,6.9049,-1.028,-1.1999,-0.8264
1268641.0,-3.0909,1.9082,7.7405,-1.0499,-1.2664,-0.853
1268651.0,-2.9305,2.4373,8.0134,-1.0366,-1.4218,-0.7854
1268661.0,-2.4517,2.4876,7.6854,-0.8934,-1.5309,-0.6721
1268671.0,-2.1691,2.6576,6.7277,-0.6513,-1.5665,-0.5539
1268681.0,-1.834,2.5618,5.2792,-0.4784,-1.5357,-0.4438
1268691.0,-1.3144,2.3631,4.0366,-0.5284,-1.4154,-0.3799
1268701.0,-1.1636,2.1859,3.7302,-0.8077,-1.2404,-0.373
1268711.0,-1.1205,1.5083,4.2832,-1.0962,-1.0802,-0.3831
1268721.0,-0.7614,1.2115,4.5035,-1.1866,-0.9631,-0.4092
1268731.0,-0.6967,1.403,4.4149,-1.1047,-0.8721,-0.423
1268741.0,-0.6393,2.6025,3.9672,-0.7918,-0.7689,-0.3762
1268751.0,-0.316,3.316,1.8459,-0.2208,-0.5651,-0.232
1268761.0,0.1197,2.6288,-0.4238,0.2677,-0.232,-0.0314
1268771.0,0.8164,3.1053,-2.6911,0.5044,0.1272,0.1064
1268781.0,0.6033,4.0199,-4.8411,0.6433,0.687,0.2251
1268791.0,0.0168,3.2441,-5.0757,0.6763,1.4356,0.4087
1268801.0,-0.419,1.3096,-4.0797,0.7482,2.1998,0.5555
1268811.0,-1.5419,1.2594,-2.1045,0.7838,2.8558,0.5906
1268821.0,-3.2346,-0.747,0.929,0.7274,3.2539,0.6125
1268831.0,-3.6272,-2.4708,2.1476,0.8572,3.3645,0.5747
1268841.0,-3.8188,-2.6671,1.9034,1.1015,3.4619,0.4124
1268851.0,-4.8267,-2.0949,2.387,1.3335,3.8046,0.2347
1268861.0,-5.9975,-0.9625,3.9935,1.59,4.2415,0.0734
1268871.0,-7.5776,1.0487,5.8586,1.7852,4.6235,-0.0734
1268881.0,-9.663,3.237,8.8705,1.6112,4.8683,-0.1745
1268891.0,-9.9359,4.4221,11.8609,1.1249,4.7645,-0.1937
1268901.0,-10.6518,3.5793,16.5439,0.6524,4.5645,-0.1681
1268911.0,-12.2104,4.197,19.8815,0.5321,4.2143,-0.1064
1268921.0,-12.9957,4.3191,21.9309,0.4507,3.38,-0.042
1268931.0,-12.8545,5.3822,20.1783,0.6923,2.6058,0.074
1268941.0,-12.7372,6.4189,18.1744,0.7705,2.1433,0.1788
1268951.0,-12.8497,6.6391,17.3795,0.5454,1.9614,0.2815
1268961.0,-12.6941,5.205,19.0291,0.0484,1.8092,0.3432
1268971.0,-12.6845,4.0031,21.1432,-0.397,1.4457,0.3315
1268981.0,-12.3493,2.6408,22.8814,-0.5917,0.886,0.3076
1268991.0,-11.6598,2.4397,22.4744,-0.4087,0.2176,0.2847
1269001.0,-10.9774,3.0885,20.1999,-0.1197,-0.4023,0.2873
1269011.0,-10.149,3.2585,17.6644,0.0202,-0.8493,0.3315
1269021.0,-9.3805,3.0622,15.3804,-0.0197,-1.1297,0.3826
1269031.0,-8.8466,2.5115,13.8912,-0.1841,-1.2781,0.4135
1269041.0,-8.3222,1.7717,13.1226,-0.3682,-1.3611,0.4177
1269051.0,-7.9607,1.0678,12.4666,-0.5523,-1.4559,0.3852
1269061.0,-7.5681,0.012,12.1386,-0.7258,-1.5761,0.3166
1269071.0,-7.1826,-0.9888,11.7843,-0.8115,-1.6932,0.2022
1269081.0,-6.8522,-1.4916,11.3988,-0.754,-1.7767,0.0452
1269091.0,-6.6822,-1.5131,10.7883,-0.6087,-1.8358,-0.1304
1269101.0,-6.3255,-0.7039,9.809,-0.5071,-1.9023,-0.3065
1269111.0,-6.1531,0.4693,9.2488,-0.5566,-1.9262,-0.4592
1269121.0,-5.9999,1.4245,9.1937,-0.7024,-1.9502,-0.5534
1269131.0,-5.8131,2.2721,9.1554,-0.8493,-2.0289,-0.5928
1269141.0,-5.7197,2.5738,8.9519,-0.9386,-2.138,-0.5699
1269151.0,-5.6407,2.3296,8.2384,-0.9434,-2.2647,-0.5092
1269161.0,-5.2672,1.4293,7.0725,-0.8716,-2.3509,-0.4507
1269171.0,-4.5657,0.8906,5.5043,-0.77,-2.3285,-0.4496
1269181.0,-4.3981,0.4429,4.7764,-0.729,-2.1508,-0.4959
1269191.0,-3.9863,0.0982,4.8315,-0.6673,-1.9161,-0.571
1269201.0,-3.5889,0.7566,4.6639,-0.6029,-1.7363,-0.6827
1269211.0,-3.395,1.7741,4.7812,-0.68,-1.6096,-0.7795
1269221.0,-3.1771,2.7629,4.9991,-0.82,-1.5405,-0.8189
1269231.0,-2.8611,3.4261,5.0087,-0.9371,-1.5144,-0.7955
1269241.0,-2.7007,3.7637,4.8459,-0.9786,-1.4665,-0.7189
1269251.0,-2.6887,3.7924,4.8219,-0.9408,-1.3984,-0.6045
1269261.0,-2.6695,3.0287,5.1236,-0.7497,-1.2749,-0.4528
1269271.0,-2.5211,1.506,5.5186,-0.4044,-1.1435,-0.3161
1269281.0,-2.0063,0.7183,5.3247,-0.008,-1.0818,-0.2661
1269291.0,-1.7885,0.9697,4.7908,0.3171,-1.0206,-0.2762
1269301.0,-1.6544,1.6568,4.0247,0.53,-0.9546,-0.2868
1269311.0,-1.3862,2.3822,2.6217,0.5566,-0.911,-0.281
1269321.0,-0.9266,2.739,1.1756,0.3379,-0.8269,-0.2671
1269331.0,-0.7566,3.0335,0.1772,-0.0346,-0.6396,-0.2543
1269341.0,-0.7063,3.3327,-0.1748,-0.4401,-0.4033,-0.2261
1269351.0,-0.5219,3.5937,-0.0168,-0.6992,-0.1139,-0.1511
1269361.0,-0.7159,3.6727,0.6895,-0.7247,0.2128,-0.0122
1269371.0,-0.9864,3.3471,0.9529,-0.4943,0.455,0.1852
1269381.0,-1.0774,3.0765,-0.3879,-0.0734,0.6609,0.3874
1269391.0,-1.1827,2.7869,-2.8252,0.2293,0.9583,0.547
1269401.0,-1.3551,2.3607,-5.3008,0.1932,1.4026,0.6407
1269411.0,-1.5826,1.5706,-6.4189,-0.2038,1.989,0.6625
1269421.0,-2.2889,0.1269,-4.8291,-0.6311,2.7207,0.6588
1269431.0,-3.6679,-0.8978,-1.9513,-0.6449,3.4119,0.6465
1269441.0,-5.3678,-0.9888,0.1652,-0.223,3.9025,0.6439
1269451.0,-6.6942,-1.0774,2.1069,0.4746,4.3596,0.6694
1269461.0,-8.4156,-0.8499,4.5131,1.3771,4.9247,0.687
1269471.0,-10.4459,0.0742,7.8889,2.2253,5.4361,0.6588
1269481.0,-12.2272,1.245,12.1745,2.8085,5.7144,0.6029
1269491.0,-14.4155,4.1396,15.4234,3.0469,5.5239,0.5529
1269501.0,-13.3932,2.7342,17.9637,2.8963,4.9917,0.5545
1269511.0,-14.7339,2.5139,19.3284,2.6292,4.4985,0.489
1269521.0,-15.3181,1.5826,21.6196,2.1375,3.8301,0.3129
1269531.0,-15.2104,1.9441,21.555,1.7049,3.1687,0.0798
1269541.0,-14.9566,2.66,22.472,0.9057,2.4589,-0.2224
1269551.0,-14.6358,4.1683,23.1136,-0.0277,1.6809,-0.4895
1269561.0,-14.1114,4.9775,24.0737,-0.8615,0.854,-0.6231
1269571.0,-13.2447,5.3175,23.4033,-1.292,0.0122,-0.6002
1269581.0,-12.1434,5.0853,21.8208,-1.4112,-0.738,-0.472
1269591.0,-11.1163,4.8914,19.0985,-1.2255,-1.2973,-0.2857
1269601.0,-10.1059,4.3144,16.2303,-0.9126,-1.615,-0.0718
1269611.0,-9.1411,3.3232,13.6637,-0.621,-1.7299,0.1144
1269621.0,-8.4587,2.5977,11.5257,-0.4656,-1.7389,0.223
1269631.0,-7.865,1.506,10.1035,-0.5066,-1.7065,0.2623
1269641.0,-7.118,0.2658,9.2488,-0.6087,-1.641,0.2235
1269651.0,-6.5673,-0.4453,9.3613,-0.6518,-1.5022,0.1091
1269661.0,-6.4428,-0.4525,9.9958,-0.5561,-1.3808,-0.0213
1269671.0,-6.6248,-0.0215,10.3046,-0.3225,-1.3622,-0.1171
1269681.0,-6.5146,0.1245,10.2065,-0.0734,-1.4319,-0.1676
1269691.0,-6.2058,0.6943,9.5529,0.1538,-1.4968,-0.2123
1269701.0,-6.2656,1.6472,8.8035,0.241,-1.5234,-0.2543
1269711.0,-6.1363,2.5618,8.5832,0.1783,-1.5405,-0.2719
1269721.0,-6.0861,3.553,8.2887,0.0442,-1.5421,-0.2607
1269731.0,-6.292,3.8164,8.2384,-0.241,-1.616,-0.2155
1269741.0,-6.0023,3.6655,7.8841,-0.5385,-1.7592,-0.1607
1269751.0,-5.6862,3.3782,7.3789,-0.738,-1.8384,-0.1123
1269761.0,-5.6216,2.5594,7.2401,-0.8051,-1.7975,-0.0628
1269771.0,-5.3367,1.8699,7.4077,-0.7609,-1.7389,-0.0447
1269781.0,-5.138,1.8627,7.6638,-0.6726,-1.7086,-0.0623
1269791.0,-5.0733,2.1524,8.0876,-0.5491,-1.6884,-0.0665
1269801.0,-5.0206,2.6695,8.4228,-0.3666,-1.707,-0.0383
1269811.0,-4.9201,3.371,7.9511,-0.19,-1.79,0.0266
1269821.0,-4.8195,3.6081,7.3646,-0.1346,-1.8816,0.125
1269831.0,-4.3239,3.4213,6.3351,-0.1495,-1.9433,0.2309
1269841.0,-3.8379,2.9497,5.4253,-0.232,-1.9231,0.3097
1269851.0,-3.5674,2.4517,4.8578,-0.3342,-1.8017,0.3544
1269861.0,-3.4357,2.0159,4.4412,-0.4784,-1.6724,0.3618
1269871.0,-3.1077,1.3671,4.2042,-0.7157,-1.5772,0.3411
1269881.0,-2.6025,0.4908,4.2928,-0.9871,-1.4734,0.2852
1269891.0,-2.2553,-0.1628,4.968,-1.1605,-1.3361,0.1932
1269901.0,-2.1763,-0.1844,5.5809,-1.1754,-1.2207,0.0952
1269911.0,-2.0375,0.2227,5.7461,-1.061,-1.1871,0.0341
1269921.0,-1.7573,0.6919,5.0925,-0.8934,-1.177,0.0181
1269931.0,-1.5514,1.2641,4.2425,-0.7492,-1.1089,0.0346
1269941.0,-1.664,1.6616,3.2753,-0.6502,-0.9775,0.0873
1269951.0,-1.4772,1.6664,2.2051,-0.6279,-0.8147,0.1532
1269961.0,-1.2426,1.3815,1.4341,-0.6513,-0.5678,0.2123
1269971.0,-1.1085,0.6345,1.6448,-0.5912,-0.1836,0.2666
1269981.0,-1.1803,0.067,2.2793,-0.3374,0.2288,0.3038
1269991.0,-1.3982,-0.4334,2.7461,0.0192,0.5539,0.3262
1270001.0,-1.6592,0.4238,2.9688,0.4028,0.8333,0.3342
1270011.0,-1.6041,-1.6759,2.5522,0.7295,1.126,0.357
1270021.0,-1.0032,-2.3439,2.569,0.7902,1.3739,0.2373
1270031.0,-1.6616,-1.1444,3.0215,0.6726,1.6229,0.0074
1270041.0,-2.3942,0.158,3.7828,0.4762,1.84,-0.1405
1270051.0,-3.0622,1.1013,4.0486,0.2299,1.8661,-0.1937
1270061.0,-3.4046,1.6735,2.7605,-0.0069,1.7757,-0.166
1270071.0,-3.7493,1.7837,0.6129,-0.083,1.8938,-0.0729
1270081.0,-4.0462,0.6345,-0.7446,0.0681,2.4312,0.0553
1270091.0,-4.6783,-1.0439,0.7039,0.3166,3.3071,0.0963
1270101.0,-6.1699,-1.4054,4.7621,0.5481,4.0808,0.0011
1270111.0,-7.8123,-0.4645,8.9711,0.7987,4.383,-0.1245
1270121.0,-8.655,0.8595,12.0357,1.1228,4.2606,-0.1799
1270131.0,-9.0118,2.5331,13.2375,1.6091,3.9664,-0.1437
1270141.0,-9.3206,4.2617,13.2088,2.187,3.7253,-0.0223
1270151.0,-9.9216,5.8538,12.7084,2.6717,3.6088,0.1564
1270161.0,-10.8002,6.122,12.9215,2.8511,3.5934,0.3517
1270171.0,-11.5281,5.138,14.4011,2.6148,3.5444,0.4592
1270181.0,-11.9542,3.7637,17.1353,1.9465,3.2672,0.4049
1270191.0,-12.153,2.8539,19.8384,1.151,2.709,0.2256
1270201.0,-12.0093,2.557,21.6963,0.5002,1.9337,0.0096
1270211.0,-11.6789,3.2777,21.6077,0.1543,1.0882,-0.1692
1270221.0,-11.3294,4.6519,20.1616,0.0218,0.3448,-0.2586
1270231.0,-11.1354,5.8299,17.8823,-0.0527,-0.2389,-0.2373
1270241.0,-10.7978,5.9783,15.7155,-0.1437,-0.646,-0.1256
1270251.0,-10.4076,5.1044,13.9007,-0.2043,-0.8673,0.0122
1270261.0,-9.845,3.395,12.8425,-0.2283,-0.9482,0.1139
1270271.0,-9.347,1.9249,12.1242,-0.1905,-0.9823,0.1261
1270281.0,-8.746,0.9553,11.8321,-0.1336,-1.0041,0.0559
1270291.0,-8.2648,0.7733,11.4898,-0.0516,-1.0366,-0.0559
1270301.0,-7.865,1.1349,11.1905,-0.0154,-1.0977,-0.1761
1270311.0,-7.7812,1.9273,10.7763,-0.0702,-1.1999,-0.2772
1270321.0,-7.7955,2.4205,10.307,-0.2086,-1.3367,-0.3294
1270331.0,-7.5202,2.3535,9.8067,-0.3581,-1.4564,-0.3469
1270341.0,-7.2568,2.2242,9.4379,-0.4959,-1.5314,-0.3645
1270351.0,-7.2951,1.9824,9.3996,-0.5976,-1.5697,-0.3852
1270361.0,-7.264,1.4293,9.4786,-0.6263,-1.6288,-0.3986
1270371.0,-6.7756,0.8691,9.1794,-0.5513,-1.724,-0.4268
1270381.0,-6.2872,0.9074,8.3653,-0.4252,-1.7799,-0.4784
1270391.0,-6.0047,1.3048,7.8314,-0.3374,-1.7783,-0.5321
1270401.0,-5.703,1.9082,6.9599,-0.3124,-1.7746,-0.5672
1270411.0,-5.3439,2.3703,6.4907,-0.4395,-1.7389,-0.589
1270421.0,-5.2194,2.9736,6.7181,-0.6518,-1.6692,-0.5997
1270431.0,-5.3582,3.1029,7.5178,-0.8663,-1.6346,-0.5678
1270441.0,-5.3893,2.7701,7.9248,-0.9924,-1.7155,-0.5114
1270451.0,-5.1523,2.4708,7.6471,-1.0099,-1.8507,-0.456
1270461.0,-4.7836,2.1308,6.699,-0.9328,-1.947,-0.4044
1270471.0,-4.2928,1.743,5.3582,-0.8232,-1.9422,-0.3661
1270481.0,-3.6248,1.4341,4.5226,-0.7364,-1.7767,-0.3597
1270491.0,-3.3279,1.5826,4.5226,-0.6758,-1.5096,-0.3794
1270501.0,-3.3351,1.64,5.1739,-0.6705,-1.2904,-0.3964
1270511.0,-3.2346,1.7717,6.0597,-0.6981,-1.1744,-0.4076
1270521.0,-3.2154,1.9249,7.0294,-0.7322,-1.1531,-0.4023
1270531.0,-3.1771,2.1356,7.7835,-0.687,-1.2068,-0.3677
1270541.0,-3.1173,2.6312,7.6878,-0.5433,-1.3218,-0.2975
1270551.0,-3.0215,3.1412,6.8378,-0.3863,-1.4479,-0.182
1270561.0,-2.5402,3.0742,5.2194,-0.3129,-1.5665,-0.0388
1270571.0,-1.9465,2.7007,3.2872,-0.3193,-1.5894,0.091
1270581.0,-1.3767,2.3535,2.1141,-0.3097,-1.3856,0.1932
1270591.0,-1.1205,1.9728,1.4437,-0.2331,-1.0504,0.29
1270601.0,-1.1396,1.7095,0.8691,-0.1703,-0.7646,0.357
1270611.0,-1.0151,1.8148,0.5387,-0.0963,-0.472,0.4108
1270621.0,-1.0343,1.8794,0.4525,0.1048,-0.1016,0.4959
1270631.0,-1.245,1.7095,0.2825,0.4007,0.2554,0.6039
1270641.0,-1.3144,1.3096,-0.6632,0.7152,0.5183,0.7152
1270651.0,-1.2881,0.5363,-2.15,1.0536,0.8179,0.8077
1270661.0,-1.6352,-0.3711,-4.2904,1.434,1.2851,0.854
1270671.0,-1.7741,-1.5275,-6.0693,1.682,1.9741,0.7902
1270681.0,-2.8443,-1.5012,-5.6814,1.6426,2.8761,0.5976
1270691.0,-4.7908,-2.7725,-2.5809,1.2664,3.6285,0.3406
1270701.0,-5.8035,-2.3152,1.0032,1.0046,4.0941,0.025
1270711.0,-7.1946,-0.5435,4.2665,1.1334,4.4043,-0.2352
1270721.0,-8.4779,1.81,6.9408,1.5719,4.5666,-0.3368
1270731.0,-9.5074,4.3503,8.3246,2.1817,4.5857,-0.2889
1270741.0,-10.4722,6.9504,7.9176,2.7069,4.5331,-0.1362
1270751.0,-11.5233,7.2496,7.8554,2.8223,4.6283,0.0649
1270761.0,-12.4738,5.5091,10.7955,2.485,4.8933,0.1666
1270771.0,-13.5248,4.1946,15.8831,1.897,4.9316,0.0676
1270781.0,-14.6908,3.869,20.966,1.2845,4.4958,-0.1399
1270791.0,-12.7683,4.3862,22.8455,0.7833,3.5566,-0.3358
1270801.0,-14.4251,6.0501,24.6148,0.3459,2.6909,-0.5108
1270811.0,-14.2407,8.3342,24.045,0.1123,1.7794,-0.5326
1270821.0,-14.7555,9.019,22.6084,-0.2144,0.8163,-0.4145
1270831.0,-14.0492,9.2656,20.4345,-0.4438,0.1426,-0.2389
1270841.0,-13.2567,7.9511,19.508,-0.7843,-0.3735,-0.0623
1270851.0,-12.5648,6.2465,19.3164,-0.9424,-0.7625,0.0596
1270861.0,-12.0093,4.7836,19.4002,-0.9456,-1.1653,0.125
1270871.0,-11.3677,3.7038,18.7227,-0.7971,-1.6267,0.1575
1270881.0,-10.5991,2.8347,17.1568,-0.6412,-2.129,0.157
1270891.0,-9.8306,2.4565,14.8225,-0.5848,-2.5579,0.1086
1270901.0,-9.3374,2.5379,12.7922,-0.6768,-2.8159,0.0234
1270911.0,-9.1698,2.6576,11.5281,-0.9073,-2.9836,-0.058
1270921.0,-9.0405,2.6097,10.8266,-1.1451,-3.1283,-0.1171
1270931.0,-8.837,1.889,10.41,-1.276,-3.2677,-0.1421
1270941.0,-8.4539,0.8404,9.4379,-1.2286,-3.4215,-0.1676
1270951.0,-7.5992,0.2658,7.2496,-1.127,-3.5992,-0.2469
1270961.0,-6.6272,0.2705,4.4508,-1.085,-3.6125,-0.373
1270971.0,-5.6048,0.4812,2.9928,-1.1249,-3.3379,-0.522
1270981.0,-5.1499,1.2019,2.8395,-1.2164,-2.9405,-0.6662
1270991.0,-5.0374,2.0039,3.7326,-1.3404,-2.626,-0.77
1271001.0,-5.1499,2.4588,4.9464,-1.4016,-2.4397,-0.7998
1271011.0,-5.0996,2.4469,6.5673,-1.2659,-2.3477,-0.7556
1271021.0,-5.1739,2.5235,7.8506,-0.7795,-2.3072,-0.6518
1271031.0,-5.2505,3.2489,6.6559,-0.149,-2.4706,-0.5082
1271041.0,-4.4388,3.5602,3.7637,0.3352,-2.6026,-0.3299
1271051.0,-3.3279,3.6224,0.6033,0.5358,-2.461,-0.1836
1271061.0,-2.4995,3.4477,-1.2354,0.356,-2.0343,-0.1123
1271071.0,-2.1715,3.213,-0.5507,-0.1325,-1.4697,-0.1235
1271081.0,-2.3463,3.1316,2.2146,-0.6694,-1.0227,-0.166
1271091.0,-2.7414,3.3902,4.6184,-0.9903,-0.8445,-0.1719
1271101.0,-2.7126,3.3136,5.9927,-1.0999,-0.9062,-0.1133
1271111.0,-2.3559,3.0861,6.0166,-0.9871,-1.0121,-0.0048
1271121.0,-1.9345,2.7988,5.0661,-0.7593,-1.0493,0.1192
1271131.0,-1.4102,2.2458,4.2162,-0.5241,-0.9498,0.2373
1271141.0,-1.2761,1.5969,3.7589,-0.2778,-0.7482,0.3283
1271151.0,-1.233,0.6393,3.6895,-0.0165,-0.5092,0.3943
1271161.0,-1.1803,1.0415,3.4979,0.2634,-0.2857,0.4193
1271171.0,-1.336,-0.4764,3.1029,0.3954,-0.0766,0.4252
1271181.0,-0.9385,-0.5243,3.0646,0.4337,0.1117,0.3421
1271191.0,-1.2617,0.4453,2.624,0.5422,0.3778,0.2453
1271201.0,-1.415,0.8571,2.5594,0.5768,0.6859,0.2075
1271211.0,-1.3862,0.3567,2.794,0.5624,0.9802,0.1948
1271221.0,-1.3575,-0.0814,3.2992,0.5364,1.2616,0.149
1271231.0,-1.6281,0.0622,3.8283,0.5449,1.4995,0.0798
1271241.0,-1.7502,0.2897,4.197,0.6093,1.6793,0.0367
1271251.0,-1.8531,0.7278,4.0701,0.7524,1.8241,0.0223
1271261.0,-2.3655,1.4676,2.9544,0.8865,1.9396,0.0346
1271271.0,-2.8036,1.2474,1.3431,0.8844,2.0731,0.0803
1271281.0,-2.8994,0.7159,-0.6033,0.8184,2.3243,0.0958
1271291.0,-3.8595,0.7063,-2.1117,0.7066,2.7659,0.0564
1271301.0,-4.7692,-0.0838,-1.3934,0.754,3.4343,0.0293
1271311.0,-5.9999,0.2753,-0.4477,1.2334,4.1904,-0.017
1271321.0,-7.8554,0.7374,1.166,1.8033,4.8922,-0.0734
1271331.0,-8.9376,1.3264,3.6727,2.2929,5.5233,-0.1618
1271341.0,-10.3621,4.0558,6.4907,2.3945,5.85,-0.3267
1271351.0,-12.1003,6.5457,10.0628,2.0391,5.8554,-0.4033
1271361.0,-13.1154,7.5609,14.303,1.6006,5.651,-0.3251
1271371.0,-13.9941,7.003,18.5168,1.3276,5.2227,-0.1532
1271381.0,-14.8153,5.2625,22.0267,1.4473,4.6139,0.0378
1271391.0,-15.1146,4.5346,22.8431,1.9491,3.8488,0.1447
1271401.0,-15.0619,4.877,21.1719,2.3631,3.0447,0.1272
1271411.0,-14.6836,6.5984,18.2965,2.2689,2.4445,-0.0234
1271421.0,-14.8728,8.5329,17.3053,1.334,2.0513,-0.2597
1271431.0,-15.4498,9.4667,19.2637,-0.0729,1.6863,-0.473
1271441.0,-15.9933,9.7276,22.7497,-1.2664,1.177,-0.5875
1271451.0,-16.4937,10.2017,25.4935,-1.8289,0.4789,-0.5555
1271461.0,-16.4937,10.7404,26.2835,-1.765,-0.373,-0.3475
1271471.0,-16.2351,11.1067,24.3155,-1.3117,-1.2084,-0.008
1271481.0,-15.8568,10.4244,21.8231,-0.853,-1.84,0.3826
1271491.0,-15.0547,8.916,19.2302,-0.4273,-2.2264,0.7242
1271501.0,-14.2551,7.8195,17.3364,-0.2293,-2.4557,0.9248
1271511.0,-13.8481,7.343,16.4075,-0.3512,-2.6723,0.9961
1271521.0,-13.386,6.3997,15.8233,-0.738,-3.0373,1.003
1271531.0,-12.6701,5.0542,15.4234,-1.1632,-3.4476,0.9562
1271541.0,-12.1625,4.6232,14.8584,-1.4282,-3.7993,0.8615
1271551.0,-12.2056,4.6998,13.7786,-1.5708,-4.1659,0.7742
1271561.0,-11.722,4.6783,12.2296,-1.6671,-4.5368,0.7189
1271571.0,-11.3102,5.0757,10.2615,-1.7416,-4.8257,0.6816
1271581.0,-11.1474,4.7357,9.1818,-1.7874,-4.9572,0.6928
1271591.0,-10.6662,4.0462,7.8937,-1.6591,-5.0306,0.738
1271601.0,-9.7564,3.6679,6.043,-1.5277,-5.1062,0.7593
1271611.0,-8.9807,3.5554,3.5961,-1.5681,-5.1375,0.7487
1271621.0,-7.8482,2.9401,1.403,-1.8193,-5.0849,0.7066
1271631.0,-6.7014,2.1691,-0.0215,-2.1465,-4.8885,0.6125
1271641.0,-5.7461,1.5754,-0.395,-2.3823,-4.5873,0.4746
1271651.0,-5.126,1.4269,-0.4094,-2.3892,-4.2574,0.3395
1271661.0,-4.6424,1.5514,-0.3256,-2.195,-3.9728,0.248
1271671.0,-4.0031,2.0063,-1.0151,-1.8257,-3.7439,0.2246
1271681.0,-2.9688,2.2434,-2.6887,-1.3782,-3.4651,0.2772
1271691.0,-1.64,1.7334,-3.8906,-0.9966,-3.0102,0.3586
1271701.0,-0.7973,1.3048,-4.2329,-0.6864,-2.4195,0.4044
1271711.0,-0.4501,0.7015,-3.1149,-0.4954,-1.8406,0.4119
1271721.0,-0.3926,0.1772,-1.6807,-0.2873,-1.3899,0.3911
1271731.0,-0.1676,-0.4286,-0.2203,-0.0367,-1.0695,0.356
1271741.0,0.0814,-0.9625,0.8356,0.2927,-0.8338,0.3028
1271751.0,0.4669,-1.0175,1.1779,0.6146,-0.6486,0.2128
1271761.0,0.8332,-0.1173,1.2163,0.7609,-0.4848,0.0878
1271771.0,0.8643,1.0965,1.6185,0.687,-0.3278,-0.0154
1271781.0,0.893,2.0446,2.2745,0.5199,-0.1862,-0.0585
1271791.0,0.8715,2.6432,2.9928,0.299,-0.1261,-0.0506
1271801.0,1.1253,3.1556,3.1699,0.1155,-0.1245,0.0064
1271811.0,1.257,3.4141,3.1053,-0.0229,-0.0984,0.1038
1271821.0,1.166,3.146,3.0933,-0.1091,-0.0548,0.2432
1271831.0,1.233,2.2649,2.1811,-0.0798,-0.0617,0.4001
1271841.0,1.561,0.8092,0.3807,0.0266,-0.0021,0.5172
1271851.0,1.8483,-0.3783,-1.8603,0.1777,0.2336,0.5385
1271861.0,1.7023,-0.9601,-4.3048,0.2719,0.6274,0.4629
1271871.0,1.7214,-1.403,-6.2944,0.1873,1.1632,0.315
1271881.0,1.3024,-1.822,-5.5881,0.1357,1.9236,0.1309
1271891.0,0.1221,-1.585,-3.1867,0.5534,2.7675,-0.0314
1271901.0,-1.2163,-0.2011,-1.8052,1.4016,3.4236,-0.133
1271911.0,-2.4732,1.5514,-1.743,2.2881,3.9132,-0.1591
1271921.0,-3.723,3.1603,-1.9513,2.983,4.4676,-0.1261
1271931.0,-5.1834,4.0414,-0.7733,3.3837,5.1354,-0.0798
1271941.0,-7.1227,4.5538,2.2553,3.5433,5.816,-0.0745
1271951.0,-9.505,4.8961,7.0629,3.3864,6.1853,-0.132
1271961.0,-11.2456,5.2816,11.2599,3.1283,6.0741,-0.2182
1271971.0,-12.1266,5.9616,14.0995,2.908,5.6963,-0.3251
1271981.0,-12.6653,6.9384,15.8352,2.7377,5.2844,-0.4374
1271991.0,-12.8473,8.0349,17.3891,2.5392,4.9412,-0.5593
1272001.0,-13.4794,9.5816,19.8623,2.2471,4.7188,-0.6864
1272011.0,-14.777,11.3198,23.9253,1.7624,4.4048,-0.7854
1272021.0,-13.2184,11.8345,27.1718,1.0818,3.6099,-0.8131
1272031.0,-15.1553,13.0652,30.1526,0.3597,2.6121,-0.8115
1272041.0,-14.2,12.7372,29.7025,-0.3288,1.3202,-0.7072
1272051.0,-14.8967,11.9303,31.1797,-1.0781,-0.0197,-0.6742
1272061.0,-13.4195,12.9047,24.7297,-1.0919,-1.2122,-0.5263
1272071.0,-12.5049,11.6334,23.3602,-1.5458,-1.9124,-0.3874
1272081.0,-11.7843,11.643,20.4201,-1.6538,-2.3823,-0.2288
1272091.0,-11.7843,11.643,20.4201,-1.6538,-2.3823,-0.2288
1272101.0,-11.1378,10.5153,19.6037,-1.7985,-2.7702,-0.0357
1272111.0,-10.5991,9.7899,17.9565,-1.715,-3.1725,0.1767
1272121.0,-9.9982,8.8059,15.9095,-1.6224,-3.6545,0.4039
1272131.0,-9.0525,7.6495,12.6055,-1.4601,-4.085,0.629
1272141.0,-7.7644,6.2177,8.6239,-1.4282,-4.3857,0.7971
1272151.0,-6.4404,4.8219,5.0135,-1.5394,-4.4511,0.8753
1272161.0,-5.2936,3.3399,2.5043,-1.7453,-4.2729,0.8647
1272171.0,-4.3742,1.6376,1.3982,-1.9683,-3.9467,0.7705
1272181.0,-2.9377,0.2849,1.8196,-2.1199,-3.5806,0.597
1272191.0,-3.6607,-0.0455,2.2434,-2.1497,-3.2932,0.3757
1272201.0,-2.6121,-0.2155,2.8443,-2.0949,-3.1826,0.1687
1272211.0,-2.1284,0.8595,1.9441,-1.8001,-3.0714,0.0074
1272221.0,-1.5754,1.4557,0.8116,-1.3862,-2.8218,-0.0426
1272231.0,-0.656,1.6209,-0.1963,-0.9823,-2.428,-0.0282
1272241.0,-0.182,1.5945,0.0048,-0.763,-1.9608,-0.0144
1272251.0,-0.012,1.2977,1.2689,-0.6252,-1.5075,-0.0048
1272261.0,-0.0072,0.9505,2.885,-0.4746,-1.1802,-0.0037
1272271.0,-0.0766,0.7853,4.537,-0.2826,-0.9876,-0.009
1272281.0,-0.2873,1.0104,5.3558,-0.0202,-0.9381,-0.0096
1272291.0,-0.2227,1.336,4.2329,0.1804,-1.0211,0.0011
1272301.0,0.3879,1.0582,2.6097,0.1761,-1.0121,0.0016
1272311.0,0.9074,0.8308,1.5658,0.0271,-0.7753,-0.0506
1272321.0,0.9529,0.5052,2.6193,-0.1942,-0.3608,-0.1389
1272331.0,0.6249,0.3184,5.0996,-0.3475,0.0096,-0.2426
1272341.0,0.17,0.9074,7.082,-0.4305,0.066,-0.3448
1272351.0,0.079,1.913,7.5034,-0.481,-0.1027,-0.3927
1272361.0,0.2825,2.8036,6.8067,-0.5007,-0.2735,-0.3629
1272371.0,0.5267,3.213,5.6312,-0.4677,-0.2873,-0.2687
1272381.0,0.5028,2.9544,4.8866,-0.4246,-0.1086,-0.1421
1272391.0,0.3807,1.7621,5.1356,-0.4326,0.1559,-0.0303
1272401.0,0.395,0.4932,5.9855,-0.455,0.4049,0.0011
1272411.0,0.2682,-0.0192,6.9097,-0.4746,0.5502,-0.0516
1272421.0,0.0575,-0.0431,7.7764,-0.3996,0.6635,-0.1187
1272431.0,-0.0718,0.1101,8.2935,-0.1719,0.7466,-0.1623
1272441.0,-0.0551,0.5794,7.8195,0.1032,0.7891,-0.1916
1272451.0,-0.1724,0.9697,7.3239,0.2171,0.8524,-0.2203
1272461.0,-0.2825,1.1109,6.9504,0.1554,0.9083,-0.2506
1272471.0,-0.3903,1.3838,6.2968,-0.0511,0.9253,-0.2937
1272481.0,-0.5698,1.719,5.7126,-0.3975,0.9243,-0.3267
1272491.0,-0.5746,1.4174,5.2218,-0.7024,0.9706,-0.3097
1272501.0,-0.7087,0.6273,5.0111,-0.8115,1.1185,-0.2645
1272511.0,-0.6967,0.0575,4.2401,-0.6407,1.2441,-0.2097
1272521.0,-0.5578,-0.012,1.233,-0.1995,1.3776,-0.1463
1272531.0,-0.2418,0.4788,-3.3303,0.265,1.7304,-0.0793
1272541.0,-0.9697,0.5291,-6.5625,0.6561,2.6058,-0.0096
1272551.0,-2.9353,0.8188,-6.6798,1.1297,4.0334,0.0202
1272561.0,-6.7516,1.0319,-2.6528,1.4766,5.5079,0.0074
1272571.0,-10.2759,0.2251,3.7852,1.6724,6.5109,-0.0378
1272581.0,-12.2727,-1.0989,10.6781,1.9757,7.0372,-0.1559
1272591.0,-13.872,-0.7063,17.8009,2.4392,7.1207,-0.3991
1272601.0,-14.4825,1.6352,22.7042,3.1272,6.7307,-0.6236
1272611.0,-14.516,3.9121,26.8725,3.7477,6.0491,-0.803
1272621.0,-14.9709,9.0764,27.8709,4.0898,5.1477,-0.9605
1272631.0,-15.3205,13.6709,28.8238,3.4284,3.9834,-1.036
1272641.0,-15.5408,17.4442,28.5413,1.9853,2.7069,-0.9945
1272651.0,-16.0005,18.0307,29.2117,-0.0367,1.3436,-0.8391
1272661.0,-15.7658,16.192,28.4192,-1.7826,-0.0388,-0.5832
1272671.0,-14.9518,13.0891,26.6451,-2.8127,-1.2132,-0.3006
1272681.0,-13.6158,10.4076,23.614,-2.8633,-1.9385,-0.0218
1272691.0,-12.5049,9.1435,20.6045,-2.2998,-2.2013,0.2214
1272701.0,-11.7388,8.7508,18.2654,-1.6267,-2.2397,0.4502
1272711.0,-10.9295,8.2959,16.69,-1.1105,-2.2381,0.6763
1272721.0,-10.2759,7.2233,15.8233,-0.8966,-2.2833,0.862
1272731.0,-9.7707,5.2744,15.761,-0.9615,-2.4461,0.9599
1272741.0,-9.2177,3.2633,15.7491,-1.1733,-2.7803,0.9301
1272751.0,-8.7628,2.1428,15.3325,-1.4165,-3.2752,0.7833
1272761.0,-8.5449,2.1739,13.9319,-1.5165,-3.8142,0.6066
1272771.0,-8.1523,2.8539,11.6717,-1.4218,-4.2516,0.4911
1272781.0,-7.7452,3.4979,8.8035,-1.1988,-4.5203,0.4704
1272791.0,-7.2425,3.8427,5.9544,-0.9573,-4.5916,0.5252
1272801.0,-5.9664,3.395,3.7254,-0.7652,-4.4969,0.6199
1272811.0,-6.3039,2.5067,2.9066,-0.6215,-4.2191,0.6891
1272821.0,-5.0326,2.1165,1.1277,-0.4597,-3.9988,0.738
1272831.0,-3.984,0.8763,0.5148,-0.5731,-3.7509,0.7215
1272841.0,-3.5721,1.0894,0.0,-0.7157,-3.3896,0.629
1272851.0,-3.5051,0.5866,1.2737,-1.0403,-3.1448,0.5135
1272861.0,-3.2465,0.0359,1.9561,-1.1456,-3.0298,0.4145
1272871.0,-2.6959,-0.8212,2.4253,-1.0121,-2.9607,0.3108
1272881.0,-1.9752,-1.1013,1.5706,-0.6997,-2.8963,0.1846
1272891.0,-1.2546,-0.6656,0.103,-0.4544,-2.7776,0.0346
1272901.0,-0.5171,0.2634,-1.1612,-0.3549,-2.5605,-0.0979
1272911.0,0.3089,1.2689,-2.411,-0.373,-2.2471,-0.183
1272921.0,0.8547,1.7861,-2.7031,-0.4927,-1.823,-0.2075
1272931.0,1.2139,1.3671,-1.3144,-0.5571,-1.3127,-0.1793
1272941.0,1.4605,0.6704,0.486,-0.3751,-0.8759,-0.1304
1272951.0,1.7454,0.1437,1.664,0.0048,-0.5603,-0.0894
1272961.0,2.3104,-0.3926,2.7845,0.4363,-0.2746,-0.0798
1272971.0,2.557,-0.0192,3.3639,0.8232,-0.0404,-0.1149
1272981.0,2.5307,0.7374,3.8116,1.0126,0.1245,-0.1554
1272991.0,2.6193,1.087,4.2808,1.0413,0.2543,-0.166
1273001.0,2.624,0.8859,4.616,0.9525,0.3799,-0.1767
1273011.0,2.5546,0.1724,5.9256,0.7854,0.5252,-0.2187
1273021.0,2.1691,-0.4693,7.6423,0.6662,0.6455,-0.3001
1273031.0,1.8866,-0.7326,8.7388,0.5406,0.5518,-0.423
1273041.0,1.8962,-0.2562,8.1834,0.373,0.2895,-0.5624
1273051.0,2.1811,0.4788,6.8498,0.1543,0.1096,-0.6806
1273061.0,2.1715,1.1396,5.7581,-0.0835,0.1086,-0.762
1273071.0,1.9465,1.9441,5.193,-0.2251,0.2474,-0.7944
1273081.0,1.336,2.8659,4.8602,-0.2756,0.4007,-0.7726
1273091.0,0.6488,4.2377,3.201,-0.2852,0.422,-0.688
1273101.0,0.577,5.9664,-1.5945,-0.4347,0.3656,-0.5348
1273111.0,2.4253,6.4021,-7.4436,-1.0286,0.538,-0.3225
1273121.0,-0.2921,6.4236,-10.6087,-1.7384,1.3814,-0.0665
1273131.0,-0.0431,3.5745,-10.5034,-1.9316,2.7696,0.2863
1273141.0,-2.5642,-0.2442,-5.4851,-1.5208,4.5033,0.5475
1273151.0,-6.1244,-2.4541,1.8196,-0.7061,5.7495,0.6194
1273161.0,-8.2073,-5.1451,7.1754,0.4406,6.2858,0.5513
1273171.0,-8.9016,-5.5091,10.4052,1.7368,6.4737,0.2836
1273181.0,-10.0126,-2.1739,11.8681,2.9053,6.6408,-0.1309
1273191.0,-13.5655,3.2561,14.9925,3.6045,6.9473,-0.4991
1273201.0,-12.3421,8.0134,20.4345,3.6519,6.9403,-0.7125
1273211.0,-14.947,13.4219,26.523,2.9937,6.504,-0.7508
1273221.0,-14.8153,15.4426,33.526,1.798,5.2823,-0.5321
1273231.0,-14.8393,14.6597,36.5283,0.762,3.5928,-0.141
1273241.0,-13.7499,11.813,35.8556,-0.1192,1.6522,0.2118
1273251.0,-12.2751,9.4044,31.4047,-0.6401,-0.0021,0.423
1273261.0,-11.169,8.0972,26.1926,-0.9743,-1.1222,0.5007
1273271.0,-10.082,7.2856,21.1863,-1.2122,-1.7757,0.53
1273281.0,-8.8992,6.3087,17.5136,-1.4277,-2.0465,0.5433
1273291.0,-7.9918,5.3343,15.8544,-1.5633,-2.0412,0.5406
1273301.0,-7.4292,4.4843,15.6365,-1.533,-1.9401,0.5412
1273311.0,-7.185,3.4668,16.3931,-1.3819,-1.9411,0.5491
1273321.0,-6.8761,2.6169,16.4865,-1.1845,-2.1673,0.5438
1273331.0,-6.6774,1.8651,16.1537,-1.0201,-2.5238,0.514
1273341.0,-6.5338,1.5562,14.6166,-0.8812,-2.9474,0.4619
1273351.0,-6.1531,1.4533,12.3756,-0.8546,-3.3566,0.3884
1273361.0,-5.7102,1.5419,9.9623,-0.9227,-3.6482,0.307
1273371.0,-5.2433,1.6305,7.8338,-0.9658,-3.795,0.2426
1273381.0,-4.537,1.6161,5.6144,-0.9094,-3.7918,0.2075
1273391.0,-3.7852,1.7454,3.4644,-0.8168,-3.6476,0.1921
1273401.0,-2.9568,1.6089,1.7597,-0.7907,-3.4124,0.1873
1273411.0,-2.0351,1.6903,0.0503,-0.829,-3.1272,0.1745
1273421.0,0.158,1.4365,-0.9625,-0.9163,-2.7281,0.1575
1273431.0,-1.5921,1.1588,-0.8284,-0.9706,-2.1428,0.1357
1273441.0,0.2274,-0.0311,-1.2091,-1.0552,-1.7655,0.0984
1273451.0,0.8452,-1.0582,-0.3735,-1.1898,-1.2946,-0.0271
1273461.0,0.9457,-1.8004,2.2817,-1.0898,-0.6784,-0.1809
1273471.0,0.7422,-1.5107,4.8267,-0.8035,-0.3666,-0.34
1273481.0,0.4549,-0.3304,6.201,-0.389,-0.282,-0.4459
1273491.0,0.4693,0.5938,6.9599,0.0724,-0.2575,-0.4486
1273501.0,0.4717,1.3288,6.8809,0.514,-0.2661,-0.389
1273511.0,0.5076,2.1237,5.9376,0.779,-0.3012,-0.3102
1273521.0,0.6177,2.3607,5.2768,0.779,-0.2666,-0.2304
1273531.0,0.6536,1.7933,5.6886,0.6279,-0.1224,-0.166
1273541.0,0.5483,0.9864,7.1635,0.4651,0.008,-0.1501
1273551.0,0.565,0.4884,8.6,0.3677,0.0005,-0.1761
1273561.0,0.6177,0.2203,9.5074,0.3815,-0.1272,-0.2091
1273571.0,0.6943,0.5004,9.1004,0.5034,-0.3108,-0.2336
1273581.0,0.9625,0.7159,8.0062,0.6077,-0.4278,-0.2379
1273591.0,1.1109,0.8906,6.8642,0.6194,-0.4528,-0.248
1273601.0,1.1061,1.3048,5.8251,0.4965,-0.4278,-0.2799
1273611.0,0.9194,1.7238,5.4492,0.2959,-0.3597,-0.3108
1273621.0,0.7111,2.4924,4.9967,0.1399,-0.3145,-0.3076
1273631.0,0.5171,3.2202,3.802,0.0543,-0.2975,-0.2442
1273641.0,0.4932,3.6224,1.4629,-0.0516,-0.274,-0.1362
1273651.0,0.7781,4.1468,-2.2434,-0.2698,-0.1543,-0.0208
1273661.0,2.4493,4.1922,-5.7197,-0.712,0.207,0.0942
1273671.0,-0.1173,3.7876,-8.7604,-1.2388,0.8764,0.2363
1273681.0,1.6257,1.7478,-10.9678,-1.7022,1.6256,0.3773
1273691.0,-0.4764,0.4214,-10.9463,-1.6724,2.9889,0.4895
1273701.0,-2.4373,-2.2745,-6.3997,-1.0334,4.632,0.596
1273711.0,-5.4923,-3.6488,-1.5586,0.0825,5.8894,0.5864
1273721.0,-8.6694,-3.8786,2.3822,1.4085,6.6892,0.455
1273731.0,-10.9487,-4.0247,5.0925,2.8239,7.2601,0.2363
1273741.0,-13.1346,-2.1979,6.8738,4.1601,7.7561,-0.1208
1273751.0,-15.9478,1.0151,10.6805,5.1993,8.3888,-0.5593
1273761.0,-17.6501,6.1555,16.9031,5.6553,8.8203,-1.0174
1273771.0,-20.5734,12.1817,25.0074,5.1418,8.4883,-1.3574
1273781.0,-20.2789,15.9071,31.5029,3.8339,7.0888,-1.442
1273791.0,-18.6077,17.1257,34.5028,2.1327,5.1971,-1.3308
1273801.0,-17.923,16.6636,35.913,0.4943,3.3959,-1.0754
1273811.0,-16.4721,14.4777,33.593,-0.7359,1.7129,-0.7609
1273821.0,-16.8288,11.9997,33.8037,-1.8257,0.2639,-0.5513
1273831.0,-15.0883,10.8386,26.1997,-1.7507,-0.9126,-0.2629
1273841.0,-14.0875,7.9942,23.796,-1.8523,-1.5522,-0.0883
1273851.0,-13.1178,8.6838,18.2366,-1.4505,-1.8831,0.0266
1273861.0,-12.2535,7.6686,16.3787,-1.2004,-1.8645,0.165
1273871.0,-11.0852,6.9264,14.6429,-0.7774,-1.6751,0.3086
1273881.0,-10.4339,5.9472,15.4498,-0.5337,-1.4436,0.3911
1273891.0,-10.386,5.6192,16.8312,-0.3991,-1.4234,0.4246
1273901.0,-10.477,5.1547,17.9014,-0.4491,-1.7762,0.439
1273911.0,-10.1969,4.5849,17.2071,-0.5901,-2.3913,0.4315
1273921.0,-9.5529,3.9744,15.5503,-0.8359,-3.0346,0.3863
1273931.0,-8.9447,3.6823,13.3932,-1.019,-3.4986,0.3203
1273941.0,-8.5688,3.9504,11.248,-1.1334,-3.7854,0.2559
1273951.0,-8.2959,4.367,9.0022,-1.2031,-3.9408,0.2352
1273961.0,-7.5465,4.221,7.0485,-1.2372,-3.9743,0.2719
1273971.0,-6.517,3.8523,5.6599,-1.1898,-3.8163,0.3304
1273981.0,-5.9041,3.3184,5.4875,-1.1068,-3.5173,0.3826
1273991.0,-5.4923,2.569,6.8402,-0.9865,-3.1948,0.4225
1274001.0,-5.5258,2.4756,7.9368,-0.8865,-3.098,0.4289
1274011.0,-5.4564,2.624,8.1977,-0.9684,-3.322,0.4108
1274021.0,-5.0661,2.7869,7.0366,-1.1116,-3.6375,0.4028
1274031.0,-4.5801,2.7581,5.2744,-1.2435,-3.8323,0.4076
1274041.0,-3.9049,2.5283,3.4596,-1.3143,-3.8509,0.4172
1274051.0,-3.1125,2.387,2.0135,-1.317,-3.695,0.4284
1274061.0,-3.1939,2.1261,2.0159,-1.2654,-3.4082,0.4374
1274071.0,-2.6911,1.798,0.9002,-1.0435,-3.1794,0.4794
1274081.0,-1.0199,0.4932,0.3328,-0.887,-2.9511,0.4943
1274091.0,-0.5938,0.498,0.17,-0.6098,-2.4876,0.4459
1274101.0,-0.5219,0.3687,0.7949,-0.3975,-2.105,0.3852
1274111.0,-0.0383,0.4525,0.5004,-0.2575,-1.9145,0.3246
1274121.0,0.565,0.6081,-0.3472,-0.1751,-1.7145,0.2618
1274131.0,1.221,0.4788,-0.8954,-0.1128,-1.3941,0.2059
1274141.0,1.4916,0.498,-0.5339,-0.0415,-0.9237,0.1383
1274151.0,1.4006,0.6991,0.2969,-0.0074,-0.53,0.0649
1274161.0,1.4868,0.8356,0.3687,-0.0676,-0.3416,-0.0069
1274171.0,1.9249,0.5291,0.0622,-0.2091,-0.2054,-0.083
1274181.0,2.2841,0.4166,-0.3567,-0.2176,0.0729,-0.1586
1274191.0,2.1308,0.8715,-0.1125,-0.1096,0.4837,-0.2224
1274201.0,1.798,1.7909,0.6105,0.0447,0.8876,-0.2448
1274211.0,1.3671,2.6001,1.4461,0.1522,1.1962,-0.2086
1274221.0,1.1875,2.9305,2.2434,0.1517,1.376,-0.132
1274231.0,1.1301,2.9257,3.0047,0.0644,1.4591,-0.0442
1274241.0,0.7901,2.9329,3.632,0.009,1.5064,0.0532
1274251.0,0.498,2.6887,3.1077,-0.0085,1.4117,0.1575
1274261.0,0.5411,2.8228,-0.5339,-0.1155,1.2164,0.2352
1274271.0,1.0223,2.9066,-5.9256,-0.6327,1.1611,0.2714
1274281.0,1.2809,2.9137,-10.9343,-1.4096,1.5612,0.298
1274291.0,0.4788,2.739,-13.5272,-1.9773,2.6568,0.3932
1274301.0,-2.2242,1.8028,-10.3453,-1.98,4.3702,0.6157
1274311.0,-6.5793,0.3807,-2.7916,-1.1616,6.1491,0.9371
1274321.0,-10.5489,-0.9936,5.284,0.0357,7.2362,1.2239
1274331.0,-13.0628,-2.3535,11.892,1.1403,7.5443,1.367
1274341.0,-13.7834,-4.3455,16.2782,2.0726,7.3969,1.3085
1274351.0,-12.6869,-7.5369,19.3475,2.6909,7.2005,0.9477
1274361.0,-13.1633,-8.3797,23.5613,2.4568,6.9361,0.1059
1274371.0,-15.5025,-5.0494,29.1686,1.1547,6.2002,-1.0147
1274381.0,-16.5631,-0.419,34.8979,-0.7577,4.7491,-1.9656
1274391.0,-16.5966,3.4069,37.6105,-2.3509,2.8649,-2.4578
1274401.0,-15.9837,6.9073,37.2514,-2.7787,1.3409,-2.4216
1274411.0,-15.5144,9.4762,34.8165,-2.1364,0.3124,-1.9433
1274421.0,-14.8441,9.9264,30.9762,-1.1249,-0.506,-1.2228
1274431.0,-13.6493,8.2576,25.9053,-0.2677,-1.2244,-0.513
1274441.0,-12.062,5.5833,20.6835,0.2038,-1.698,0.0027
1274451.0,-10.5177,2.5355,17.0778,0.2554,-1.8273,0.2368
1274461.0,-9.6486,0.6416,15.5072,0.025,-1.7528,0.1948
1274471.0,-9.3254,0.4717,15.3708,-0.423,-1.7762,-0.0117
1274481.0,-9.0429,1.0918,15.4115,-0.961,-2.0289,-0.2299
1274491.0,-8.7532,1.6065,15.3684,-1.3431,-2.3807,-0.3576
1274501.0,-8.351,1.8603,14.5017,-1.4037,-2.7526,-0.373
1274511.0,-8.0038,1.4868,12.7132,-1.1877,-3.0756,-0.3049
1274521.0,-7.2544,0.6488,9.8904,-0.8205,-3.3124,-0.2214
1274531.0,-6.1818,0.0359,6.7109,-0.4794,-3.3576,-0.1969
1274541.0,-5.2601,0.182,4.3072,-0.2841,-3.1443,-0.2379
1274551.0,-4.6663,0.6129,3.4285,-0.2581,-2.8,-0.2953
1274561.0,-4.1348,0.9744,3.1939,-0.332,-2.4791,-0.3331
1274571.0,-3.5267,0.9481,3.2753,-0.4938,-2.2705,-0.356
1274581.0,-3.1532,0.8859,3.5195,-0.6673,-2.1008,-0.3778
1274591.0,-2.9137,0.8954,4.1683,-0.7455,-1.9507,-0.3831
1274601.0,-2.5091,0.6225,4.3718,-0.6284,-1.8289,-0.3597
1274611.0,-2.2721,0.4741,4.5155,-0.447,-1.7054,-0.3358
1274621.0,-1.9417,0.8667,4.3431,-0.2618,-1.6293,-0.3118
1274631.0,-1.5514,1.6328,3.7565,-0.0601,-1.5298,-0.2533
1274641.0,-1.2115,2.1883,3.4069,0.1277,-1.3063,-0.1298
1274651.0,-0.8021,1.585,4.1156,0.2347,-1.0254,0.0255
1274661.0,-0.7949,1.3647,4.5394,0.2921,-0.8466,0.1479
1274671.0,-0.8188,0.5507,5.5115,0.1346,-0.7976,0.2235
1274681.0,-0.6225,-0.5507,6.0717,-0.042,-0.8514,0.2517
1274691.0,-0.4022,-1.8723,6.6439,-0.1666,-0.9328,0.207
1274701.0,-0.0479,-2.9137,6.6487,-0.1735,-1.0057,0.0958
1274711.0,0.2897,-3.0646,6.2465,-0.1165,-1.0594,-0.0846
1274721.0,0.3998,-2.0183,5.1068,-0.0809,-1.0828,-0.2799
1274731.0,0.3591,-0.6129,4.3359,-0.1591,-1.0137,-0.4182
1274741.0,0.3041,0.5076,4.2976,-0.2416,-0.8519,-0.4571
1274751.0,0.2394,1.1205,4.8147,-0.2347,-0.6971,-0.4023
1274761.0,0.3639,1.4437,5.3056,-0.0931,-0.6071,-0.2826
1274771.0,0.3567,1.4605,5.5234,0.1314,-0.5736,-0.1293
1274781.0,0.3663,1.1875,4.9967,0.3539,-0.6412,0.0234
1274791.0,0.5986,0.972,3.3447,0.4709,-0.7748,0.1325
1274801.0,0.6488,0.9673,1.2833,0.4044,-0.8264,0.1793
1274811.0,1.0223,1.1827,-0.7446,0.182,-0.7758,0.1852
1274821.0,0.395,1.5634,-1.968,-0.0862,-0.5545,0.1548
1274831.0,0.1796,3.5434,-5.6599,-0.3645,-0.3709,0.1809
1274841.0,1.4581,3.1412,-7.9272,-0.911,-0.083,0.2703
1274851.0,0.4621,3.8283,-10.6949,-1.1132,0.7077,0.3991
1274861.0,-0.4118,2.6959,-10.6183,-1.384,1.549,0.571
1274871.0,-1.3455,0.9792,-10.3238,-1.1456,2.478,0.7535
1274881.0,-2.8515,-0.3855,-9.414,-0.3209,3.7104,0.8801
1274891.0,-5.4157,-1.6472,-6.4189,0.7428,5.1365,0.9067
1274901.0,-8.6191,-2.15,-1.403,1.8448,6.5556,0.8131
1274911.0,-12.0811,-1.9537,6.019,2.7228,7.7444,0.6024
1274921.0,-16.5104,0.6416,14.4203,3.2182,8.4973,0.3086
1274931.0,-15.4689,2.32,24.792,2.9117,8.4973,0.0426
1274941.0,-17.6572,5.0278,35.7526,2.0188,7.8258,-0.1453
1274951.0,-17.346,5.7557,44.6088,0.738,6.0517,-0.1783
1274961.0,-16.5966,4.4269,46.1961,-0.4981,3.496,-0.0612
1274971.0,-17.4657,1.2306,44.355,-1.317,0.9722,0.0846
1274981.0,-13.7355,1.5897,36.5307,-0.7418,-0.5326,0.2597
1274991.0,-13.4027,-0.9242,31.5939,-0.4262,-1.6751,0.4039
1275001.0,-11.1546,0.1437,22.0171,0.2645,-2.1859,0.4539
1275011.0,-9.8881,-0.6177,19.2015,0.29,-2.0752,0.3986
1275021.0,-8.9304,0.3615,16.0627,0.3219,-1.7507,0.3001
1275031.0,-8.7652,0.2251,17.5615,-0.1628,-1.5649,0.1591
1275041.0,-8.6335,0.6919,17.8799,-0.5209,-1.7602,0.0426
1275051.0,-8.1858,0.8332,17.4058,-0.8221,-2.1918,-0.0426
1275061.0,-7.4939,0.9984,15.4881,-0.9849,-2.6494,-0.091
1275071.0,-6.7086,0.8978,13.0029,-1.0264,-2.9548,-0.1155
1275081.0,-4.8483,0.3687,11.2432,-0.9291,-3.0479,-0.1293
1275091.0,-6.3398,0.8811,8.6574,-0.6811,-2.9899,-0.1368
1275101.0,-4.4676,0.0934,6.7325,-0.5449,-2.9527,-0.1346
1275111.0,-4.1779,0.0479,4.8914,-0.3778,-2.6478,-0.1692
1275121.0,-3.6727,-0.2251,4.47,-0.315,-2.3152,-0.2272
1275131.0,-3.0311,0.0503,3.972,-0.2474,-1.9997,-0.3081
1275141.0,-2.7869,0.5914,4.4245,-0.2299,-1.6735,-0.3863
1275151.0,-2.5953,1.2163,4.7573,-0.2522,-1.4463,-0.4321
1275161.0,-2.4349,1.731,5.205,-0.3336,-1.2845,-0.4438
1275171.0,-2.5833,1.9034,6.031,-0.4124,-1.1621,-0.4129
1275181.0,-2.5235,1.7358,6.8235,-0.3996,-1.093,-0.3469
1275191.0,-2.466,1.4006,7.1395,-0.3028,-1.0972,-0.2735
1275201.0,-2.1189,0.9888,6.948,-0.1761,-1.1478,-0.2144
1275211.0,-1.6712,0.8691,6.11,-0.0745,-1.1738,-0.182
1275221.0,-1.1756,1.0463,5.3247,-0.0543,-1.1116,-0.1671
1275231.0,-0.9361,1.4581,5.1715,-0.066,-0.9269,-0.1421
1275241.0,-0.826,1.7382,5.7197,-0.1165,-0.7173,-0.0846
1275251.0,-0.9026,1.6783,6.7612,-0.1729,-0.5726,0.0005
1275261.0,-1.0199,1.2498,7.8051,-0.2293,-0.5433,0.0926
1275271.0,-0.9002,0.328,8.9519,-0.2368,-0.5965,0.1724
1275281.0,-0.8068,-0.3232,9.256,-0.1713,-0.7215,0.207
1275291.0,-0.7302,-0.7709,9.2081,-0.132,-0.92,0.1969
1275301.0,-0.5004,-0.8164,8.2863,-0.0708,-1.135,0.1655
1275311.0,-0.1484,-0.6752,6.9168,-0.0266,-1.2797,0.1245
1275321.0,0.2682,-0.51,5.7485,0.0197,-1.2909,0.0921
1275331.0,0.5339,-0.2442,5.0637,0.1266,-1.1611,0.0676
1275341.0,0.5076,0.1963,4.9943,0.241,-0.9583,0.0548
1275351.0,0.3184,0.5387,5.3558,0.2629,-0.8445,0.0607
1275361.0,0.3136,0.7135,5.284,0.2166,-0.8716,0.0819
1275371.0,0.656,0.6512,4.6232,0.141,-0.9206,0.1064
1275381.0,1.0271,0.3352,4.2545,0.0447,-0.8897,0.1309
1275391.0,1.0582,-0.182,4.209,-0.0282,-0.8328,0.1453
1275401.0,1.1971,-0.8691,3.8618,-0.0543,-0.8775,0.1368
1275411.0,1.5969,-1.0271,1.6568,-0.0676,-1.0424,0.0873
1275421.0,3.6751,-1.1732,-0.9433,-0.1969,-1.0813,-0.0037
1275431.0,0.5555,0.1772,-4.1779,-0.3602,-0.8626,-0.099
1275441.0,1.9082,1.0511,-8.1714,-0.7152,-0.7136,-0.1405
1275451.0,1.4174,2.5067,-13.7882,-1.193,-0.2352,-0.1405
1275461.0,1.482,3.3303,-17.8129,-1.7938,0.6348,-0.0537
1275471.0,0.261,3.4668,-19.9174,-1.798,2.2184,0.1586
1275481.0,-3.0742,2.4612,-17.2359,-0.9871,4.4921,0.4502
1275491.0,-7.7357,0.747,-10.4507,0.3767,6.8914,0.7295
1275501.0,-14.4969,-0.9505,0.4214,1.7389,8.7687,0.8482
1275511.0,-16.9677,-1.0032,11.0253,3.0426,9.7701,0.7955
1275521.0,-17.7003,-2.0207,21.8088,3.6466,9.958,0.5545
1275531.0,-18.3132,0.4214,30.5069,3.2634,9.0672,0.091
1275541.0,-17.6405,3.486,35.4988,2.0518,7.2655,-0.3576
1275551.0,-16.283,5.6192,37.8715,0.5816,5.4121,-0.5901
1275561.0,-15.2654,4.8243,38.8603,-0.8035,3.6269,-0.6002
1275571.0,-16.4913,2.9568,38.98,-1.5298,2.1072,-0.4768
1275581.0,-14.5567,3.4046,36.5499,-1.1898,1.002,-0.2634
1275591.0,-14.0803,1.3479,33.9115,-0.7806,-0.2081,0.0181
1275601.0,-12.1194,1.9249,26.4224,0.049,-0.9344,0.2442
1275611.0,-11.2312,0.838,23.5326,0.3049,-1.1323,0.3608
1275621.0,-10.4938,1.0199,20.4968,0.3624,-1.1893,0.3773
1275631.0,-10.2089,-0.0838,20.7075,-0.0442,-1.3409,0.3092
1275641.0,-9.6079,-0.6225,19.6492,-0.3789,-1.7065,0.1841
1275651.0,-9.0261,-1.0175,18.8328,-0.7008,-2.1348,0.0229
1275661.0,-8.6263,-0.7494,16.9509,-0.8556,-2.5632,-0.133
1275671.0,-8.1355,-0.4094,14.6645,-0.9706,-2.9687,-0.2522
1275681.0,-7.3741,-0.067,11.6262,-0.9589,-3.2464,-0.315
1275691.0,-6.2968,0.1365,8.8322,-0.8801,-3.2911,-0.3294
1275701.0,-5.5665,0.0934,7.1395,-0.7327,-3.0831,-0.3134
1275711.0,-5.8514,-0.079,5.5713,-0.5268,-2.8064,-0.2677
1275721.0,-4.3407,-1.3479,4.9368,-0.4257,-2.569,-0.2437
1275731.0,-3.6966,-1.7789,4.8291,-0.2528,-2.1657,-0.2863
1275741.0,-3.5099,-2.2075,6.3039,-0.1373,-1.815,-0.3789
1275751.0,-3.2944,-2.1213,7.1898,-0.0319,-1.6799,-0.4991
1275761.0,-3.122,-1.7549,7.9464,-0.0463,-1.6985,-0.6396
1275771.0,-2.8994,-1.1085,7.8961,-0.1485,-1.8198,-0.77
1275781.0,-2.8012,-0.316,7.4268,-0.3432,-1.972,-0.8801
1275791.0,-2.8036,0.4118,7.0677,-0.5507,-2.0705,-0.936
1275801.0,-2.624,0.7853,6.7636,-0.6188,-2.1002,-0.9227
1275811.0,-2.4038,0.826,7.015,-0.4507,-1.9832,-0.8514
1275821.0,-2.3296,0.6153,7.7261,-0.1298,-1.8166,-0.7503
1275831.0,-2.5067,0.3424,8.3917,0.1708,-1.756,-0.6641
1275841.0,-1.9944,-0.0168,8.6814,0.3272,-1.8358,-0.6247
1275851.0,0.7685,-0.2873,8.1331,0.2517,-2.0545,-0.6651
1275861.0,-2.1715,1.257,6.517,-0.0218,-2.2301,-0.7609
1275871.0,-0.0982,1.5969,4.5155,-0.365,-2.3881,-0.7732
1275881.0,0.3041,1.7741,3.6176,-0.5736,-2.105,-0.7551
1275891.0,0.3448,1.6017,5.6479,-0.5289,-1.5532,-0.6912
1275901.0,-0.1269,1.6568,7.8027,-0.216,-1.1659,-0.5848
1275911.0,-0.4022,1.6041,10.0461,0.0713,-1.1254,-0.4683
1275921.0,-0.3974,1.8794,10.7021,0.3948,-1.2957,-0.3272
1275931.0,-0.3328,1.8914,10.4794,0.6343,-1.5516,-0.1783
1275941.0,0.2011,2.0518,8.4467,0.8109,-1.798,-0.0341
1275951.0,0.8787,1.8028,6.1962,0.7412,-1.9199,0.0692
1275961.0,2.7964,0.8499,4.6663,0.4768,-1.8523,0.1133
1275971.0,0.5531,0.498,4.1204,0.174,-1.6613,0.0947
1275981.0,2.3032,-0.9768,3.1292,-0.0303,-1.5921,0.0521
1275991.0,2.6145,-0.9433,1.8364,-0.1612,-1.3532,-0.0729
1276001.0,2.6911,-0.3879,1.664,-0.298,-1.0685,-0.2011
1276011.0,3.4093,0.4597,0.5842,-0.2932,-0.7913,-0.2735
1276021.0,2.4373,1.9632,-1.1684,-0.3773,-0.4981,-0.298
1276031.0,3.2825,2.5235,-3.0861,-0.7263,-0.2698,-0.2682
1276041.0,3.5721,3.3686,-5.5498,-1.2329,0.0692,-0.224
1276051.0,2.4756,4.0534,-7.7069,-1.9475,0.4161,-0.1431
1276061.0,2.5211,4.0677,-10.4052,-2.5196,0.8349,0.0223
1276071.0,2.1811,3.62,-12.5672,-2.6084,1.6597,0.2836
1276081.0,0.6991,2.3008,-12.3708,-2.0002,3.0549,0.6162
1276091.0,-1.9417,1.2905,-9.8043,-0.8642,4.6831,0.9275
1276101.0,-5.5138,0.5315,-5.1787,0.3773,6.1533,1.1632
1276111.0,-9.1363,0.4166,0.0479,1.5447,7.2585,1.3085
1276121.0,-12.0117,0.6847,5.3247,2.4461,8.0046,1.3505
1276131.0,-15.512,1.1588,10.8673,2.9745,8.5143,1.3037
1276141.0,-14.6717,0.8284,16.9222,2.9112,8.5883,1.1563
1276151.0,-15.7706,0.0527,25.606,2.3243,8.5159,0.879
1276161.0,-16.69,-0.486,35.9202,1.3415,7.796,0.5119
1276171.0,-16.8408,-1.0056,43.9528,0.1559,6.0453,0.1442
1276181.0,-16.4721,-1.0965,46.7228,-0.9376,3.5471,-0.157
1276191.0,-14.9087,-0.5339,42.4276,-1.5602,0.9195,-0.323
1276201.0,-12.9814,0.2777,34.2012,-1.6852,-1.002,-0.3555
1276212.0,-11.4443,1.3192,25.4887,-1.5325,-1.9779,-0.298
1276221.0,-10.3214,2.0255,18.6652,-1.3707,-2.1987,-0.183
1276231.0,-9.3206,1.6783,14.6381,-1.2771,-1.9662,-0.0378
1276241.0,-8.6143,0.4884,13.8912,-1.1557,-1.5117,0.099
1276251.0,-8.2504,-0.4573,14.7674,-0.8775,-1.1041,0.19
1276261.0,-8.0876,-0.9481,16.453,-0.5928,-0.961,0.2336
1276271.0,-7.9966,-0.7087,17.2383,-0.3815,-1.1786,0.2543
1276281.0,-7.6375,-0.407,16.6565,-0.3624,-1.6809,0.2703
1276291.0,-7.0102,-0.5148,14.8536,-0.4959,-2.2599,0.2788
1276301.0,-6.201,-0.9385,12.1027,-0.6768,-2.7462,0.2671
1276311.0,-5.1643,-1.6161,9.1219,-0.8407,-3.0091,0.2182
1276321.0,-4.3191,-2.1117,6.5841,-1.0046,-3.0442,0.1128
1276331.0,-3.6536,-2.2098,5.2313,-1.1233,-2.8883,-0.0229
1276341.0,-3.3471,-1.9345,4.8985,-1.0334,-2.5621,-0.1288
1276351.0,-3.1484,-1.6807,5.3223,-0.7934,-2.2296,-0.1756
1276361.0,-2.8347,-1.4964,5.9376,-0.5002,-1.9715,-0.1862
1276371.0,-2.8156,-0.984,6.4117,-0.2943,-1.8257,-0.191
1276381.0,-2.8419,-0.8236,7.0605,-0.2852,-1.8549,-0.1937
1276391.0,-2.7605,-1.0367,6.948,-0.2629,-1.9901,-0.182
1276401.0,-2.1332,-1.7047,6.0669,-0.1591,-2.096,-0.1777
1276411.0,-1.2306,-2.4229,5.272,0.0218,-1.9917,-0.2086
1276421.0,-0.7925,-2.4134,5.7724,0.1948,-1.715,-0.299
1276431.0,-0.9744,-1.2641,6.699,0.2517,-1.5479,-0.3996
1276441.0,-1.0606,0.2203,7.1994,0.1729,-1.5921,-0.4363
1276451.0,-0.8787,1.1708,7.0988,0.0468,-1.6873,-0.3682
1276461.0,-0.3974,1.1516,7.1395,-0.0357,-1.7028,-0.2208
1276471.0,-0.1125,0.4836,7.2568,0.0053,-1.6416,-0.0564
1276481.0,0.1149,-0.7925,7.8219,0.0968,-1.5128,0.0713
1276491.0,0.2035,-2.4014,9.7013,0.1602,-1.3595,0.108
1276501.0,0.0646,-3.4644,11.6981,0.174,-1.4351,0.0287
1276511.0,-0.3136,-3.5243,13.137,0.1751,-1.7485,-0.1266
1276521.0,-0.6536,-2.375,12.9263,0.2666,-2.212,-0.2687
1276531.0,-0.8906,-0.735,10.9846,0.4097,-2.6685,-0.3304
1276541.0,-0.249,0.2634,8.4276,0.5444,-2.9399,-0.2836
1276551.0,0.6393,0.3663,6.1579,0.6891,-2.9399,-0.1783
1276561.0,1.1516,0.2251,4.3646,0.8024,-2.7409,-0.0905
1276571.0,1.5275,-0.3041,3.8595,0.7503,-2.5094,-0.0559
1276581.0,1.7095,-0.8571,3.9169,0.6912,-2.3099,-0.074
1276591.0,2.1811,-0.6321,3.3878,0.5539,-2.3078,-0.1607
1276601.0,2.9066,0.0503,0.3352,0.2565,-2.5435,-0.2772
1276611.0,4.3311,2.2194,-5.794,-0.3996,-2.8553,-0.4289
1276621.0,4.1611,4.9632,-12.1793,-1.3026,-2.7994,-0.4991
1276631.0,4.9728,8.2217,-17.9876,-1.8597,-2.1561,-0.3592
1276641.0,2.8443,8.9208,-21.8351,-1.9773,-1.0664,0.0527
1276651.0,2.9209,6.1914,-24.6938,-1.7996,-0.2448,0.5076
1276661.0,2.0494,6.5529,-32.19,-0.6162,0.9312,0.8493
1276671.0,-1.391,5.3343,-34.9194,0.7146,2.8223,1.1057
1276681.0,-6.3662,4.525,-38.4964,1.906,5.0295,1.2004
1276691.0,-9.8234,3.3375,-33.5906,1.9736,7.4799,1.0695
1276701.0,-19.721,8.0421,-16.1561,2.353,10.3922,0.9381
1276711.0,-28.6825,12.3062,-0.9792,3.7205,12.4094,1.293
1276721.0,-34.4454,11.5233,17.595,4.5464,13.2523,1.8241
1276731.0,-34.1629,9.7157,29.3338,5.0604,13.2129,2.2876
1276741.0,-35.4916,2.8706,47.7811,4.3761,12.3493,2.3833
1276751.0,-29.9922,-3.9887,51.0635,3.5763,9.594,2.0534
1276761.0,-24.0498,-9.4547,50.6972,1.8198,6.4327,1.1621
1276771.0,-20.5135,-10.2687,44.4747,1.2153,4.2963,0.1724
1276781.0,-18.5383,-5.8969,38.3623,1.3313,3.4231,-0.7317
1276791.0,-19.6372,1.1037,38.6041,1.3415,3.463,-1.3947
1276801.0,-21.8758,7.5489,43.6918,1.0658,3.3502,-1.6437
1276811.0,-22.9795,11.1259,49.5504,0.4965,2.1567,-1.4979
1276821.0,-21.8184,11.5712,49.5743,0.3767,0.3097,-0.9945
1276831.0,-19.8048,8.9256,44.5657,0.5513,-1.5075,-0.3927
1276841.0,-17.3939,5.5043,35.822,0.5412,-3.1038,-0.0096
1276851.0,-15.2056,2.5929,27.3538,0.1804,-4.225,0.049
1276861.0,-13.046,0.6871,19.5534,-0.2671,-4.8326,-0.1389
1276871.0,-11.2575,0.3807,13.1083,-0.721,-5.0343,-0.4832
1276881.0,-9.5217,2.3894,7.7907,-1.1568,-4.9252,-0.8631
1276891.0,-8.4372,4.9895,4.5633,-1.5724,-4.5043,-1.1174
1276901.0,-7.7859,6.6152,3.4309,-1.8949,-3.9706,-1.1648
1276911.0,-6.7301,6.7828,3.4333,-2.0369,-3.5231,-1.0424
1276921.0,-5.7604,5.8921,3.9433,-1.8954,-3.0847,-0.8258
1276931.0,-5.2888,4.2689,4.9153,-1.5942,-2.7281,-0.6034
1276941.0,-4.6519,2.2314,5.5809,-1.293,-2.6052,-0.4555
1276951.0,-4.4173,1.1109,4.9392,-1.1137,-2.7058,-0.4502
1276961.0,-3.8906,1.3312,3.1987,-1.1446,-2.9112,-0.5497
1276971.0,-3.158,1.9249,1.7119,-1.2074,-2.8585,-0.6502
1276981.0,-2.8922,2.9497,1.2689,-1.2382,-2.5568,-0.7045
1276991.0,-2.7677,3.4907,2.2314,-1.2622,-2.2178,-0.6795
1277001.0,-3.0382,3.9409,4.276,-1.1164,-1.8869,-0.5715
1277011.0,-3.1939,3.9385,6.1507,-0.7758,-1.757,-0.3815
1277021.0,-2.7749,3.3016,6.6535,-0.2937,-1.7703,-0.1495
1277031.0,-2.2889,2.2003,6.6798,0.0367,-1.8225,0.0239
1277041.0,-1.6376,1.3431,6.1914,0.0639,-1.9614,0.0814
1277051.0,-1.2402,1.0271,5.1523,-0.1681,-2.0907,0.0357
1277061.0,-0.9744,0.6369,5.0757,-0.5938,-2.1253,-0.0649
1277071.0,-0.577,0.7446,4.8052,-0.8216,-2.1141,-0.1394
1277081.0,-0.4166,1.142,4.6974,-0.7061,-1.872,-0.1368
1277091.0,-0.3232,0.6847,6.0094,-0.4225,-1.5155,-0.0585
1277101.0,-0.2705,0.8284,6.5769,-0.0889,-1.325,0.0271
1277111.0,-0.1006,0.5578,7.1108,0.0165,-1.3063,0.1054
1277121.0,0.4741,-0.1652,6.9528,-0.0117,-1.3957,0.1532
1277131.0,0.8787,-0.5339,6.3111,-0.1346,-1.4755,0.1389
1277141.0,1.336,-1.2546,6.6415,-0.281,-1.4644,0.0915
1277151.0,1.5179,-1.4796,7.0198,-0.2038,-1.3244,0.0303
1277161.0,1.3144,-1.0606,7.5585,-0.1522,-1.2946,-0.041
1277171.0,1.2977,-0.4501,7.75,-0.0543,-1.3154,-0.0623
1277181.0,1.3647,-0.2682,7.5106,0.0937,-1.3287,-0.025
1277191.0,1.7119,-0.3136,6.4931,0.1628,-1.3729,0.0165
1277201.0,2.241,-0.4262,5.1284,0.0894,-1.3872,0.0255
1277211.0,2.8228,-0.1748,4.0462,-0.0506,-1.267,0.0053
1277221.0,2.9808,-0.0934,4.0797,-0.1187,-0.9695,-0.0021
1277231.0,2.9736,-0.7063,5.7964,0.0176,-0.5353,0.0213
1277241.0,2.6336,-0.9457,7.5848,0.306,-0.2277,0.0367
1277251.0,2.3631,-1.1516,8.8801,0.5039,-0.1932,0.0277
1277261.0,2.4373,-1.0343,9.1794,0.5965,-0.3145,-0.0059
1277271.0,2.4732,-0.6249,8.9423,0.5752,-0.4182,-0.0506
1277281.0,2.5426,-0.0144,8.406,0.4358,-0.5236,-0.0915
1277291.0,2.4062,0.4621,7.5609,0.1735,-0.621,-0.1176
1277301.0,2.885,-0.2729,7.8841,-0.1117,-0.6545,-0.1224
1277311.0,3.134,-0.2322,8.0182,-0.0692,-0.5215,-0.1314
1277321.0,2.7988,0.2155,8.7724,0.0399,-0.3714,-0.1314
1277331.0,2.4756,0.5818,9.1889,0.1086,-0.357,-0.0958
1277341.0,2.4612,0.4525,9.2416,0.1325,-0.447,-0.0447
1277351.0,2.7677,0.2059,8.7939,0.2102,-0.4991,0.0027
1277361.0,3.0023,-0.4525,8.7676,0.4284,-0.4033,0.049
1277371.0,3.1795,-0.6297,8.7676,0.7412,-0.2437,0.0564
1277381.0,2.9784,-0.0311,8.8825,0.8971,-0.1437,0.0122
1277391.0,2.8491,0.4118,9.505,0.8588,-0.0905,-0.0388
1277401.0,2.7007,0.7207,10.3645,0.696,-0.1107,-0.0984
1277411.0,2.3798,1.5897,10.5824,0.4443,-0.2714,-0.1612
1277421.0,2.2745,2.0327,10.1969,0.1543,-0.4832,-0.1751
1277431.0,2.4157,1.7549,9.6893,-0.042,-0.6412,-0.1426
1277441.0,2.8299,1.4222,8.7963,0.0495,-0.6667,-0.0788
1277451.0,3.0382,1.2163,8.4683,0.4475,-0.3986,0.0122
1277461.0,2.885,0.7518,9.7133,0.9041,-0.0213,0.1165
1277471.0,2.2649,0.3567,12.0596,1.2984,0.2554,0.191
1277481.0,1.5586,0.3903,14.4131,1.4729,0.1772,0.2097
1277491.0,1.1013,0.3136,15.7227,1.3931,-0.2847,0.1926
1277501.0,1.0511,0.1293,15.5839,1.2707,-0.8998,0.1623
1277511.0,1.3336,0.2298,13.8026,1.1722,-1.475,0.1219
1277521.0,1.5802,0.2586,11.8154,1.0493,-1.8528,0.0889
1277531.0,2.32,-0.1724,10.0724,0.911,-2.1082,0.0644
1277541.0,3.1891,-0.4429,8.2313,0.9424,-2.1529,0.0378
1277551.0,3.2609,-1.0391,7.4555,1.0408,-1.98,-0.0005
1277561.0,3.1173,-1.166,7.1227,1.1148,-1.8879,-0.0857
1277571.0,2.6887,0.1149,4.8483,1.0227,-2.0556,-0.2299
1277581.0,2.715,1.8651,0.4932,0.4278,-2.4594,-0.398
1277591.0,2.5929,5.0925,-5.9352,-0.5374,-2.7154,-0.5571
1277601.0,4.5155,9.8881,-13.532,-2.0236,-2.801,-0.6316
1277611.0,-0.3328,14.3939,-21.3994,-3.9116,-2.7148,-0.4379
1277621.0,0.2538,16.2327,-30.8014,-5.3217,-2.6505,0.0921
1277631.0,1.5227,14.3987,-41.9919,-4.7433,-1.4825,1.0084
1277641.0,-0.8906,8.588,-48.6167,-2.1726,1.4213,2.0231
1277651.0,-4.4724,5.4372,-54.2454,1.1632,4.8922,2.709
1277661.0,-16.2878,1.2234,-48.9686,4.3149,9.5706,2.9958
1277671.0,-29.4583,-4.9871,-33.6002,6.5764,13.8951,2.7665
1277681.0,-38.5778,-12.8904,-10.2951,7.4182,17.0127,1.6762
1277691.0,-48.9854,-4.3335,13.623,6.463,17.4357,-0.2975
1277701.0,-44.8554,6.766,28.3306,3.3135,15.3413,-1.8964
1277711.0,-47.0508,13.7331,41.4173,-0.0335,12.4424,-2.4557
1277721.0,-39.557,16.4075,40.0263,-0.5231,9.9787,-1.8603
1277731.0,-35.1684,11.6358,42.6886,0.381,8.948,-0.928
1277741.0,-31.4694,8.0421,42.2553,2.6861,8.6995,-0.241
1277751.0,-28.2516,7.3143,43.9551,4.1095,8.2488,-0.149
1277761.0,-26.0585,10.8218,45.2815,3.8227,7.1819,-0.555
1277771.0,-25.8263,13.9175,49.1003,1.5926,5.4403,-1.0999
1277781.0,-23.3099,13.2615,52.512,-0.9328,2.8745,-1.3771
1277791.0,-22.709,13.6709,46.9335,-2.0348,0.1027,-1.2702
1277801.0,-19.1392,13.0173,35.0798,-1.8267,-2.0061,-0.812
1277811.0,-14.9805,11.7867,21.0355,-0.8466,-2.6004,-0.2246
1277821.0,-11.7316,7.5322,13.8313,-0.1724,-1.7677,0.2251
1277831.0,-9.8306,2.32,12.5696,-0.0298,-0.5507,0.3315
1277841.0,-9.7133,-1.9345,16.8839,-0.4933,0.2224,0.0298
1277851.0,-10.0365,-2.6528,21.2222,-0.9088,0.2277,-0.4885
1277861.0,-10.3406,0.2777,22.4768,-1.2691,-0.4135,-0.9945
1277871.0,-10.1921,4.5777,21.5334,-1.8847,-1.3308,-1.3282
1277881.0,-10.1514,6.8331,20.2047,-2.6818,-2.2562,-1.4053
1277891.0,-9.9766,7.1132,17.6644,-3.1751,-3.1198,-1.2728
1277901.0,-9.1913,5.679,13.7427,-3.1879,-3.7956,-1.0185
1277911.0,-7.6806,3.0502,9.2225,-2.6957,-4.0393,-0.7476
1277921.0,-6.4117,0.7566,5.4061,-1.9284,-3.7886,-0.5832
1277931.0,-5.6312,-0.9697,3.2441,-1.3015,-3.3475,-0.572
1277941.0,-5.2074,-1.2905,1.5658,-1.0068,-2.9612,-0.7045
1277951.0,-4.5681,-0.4908,1.2067,-1.1265,-2.6281,-0.9179
1277961.0,-4.6639,0.7997,2.5881,-1.3973,-2.2232,-1.1132
1277971.0,-5.2098,1.9225,5.2289,-1.682,-1.9912,-1.235
1277981.0,-5.6838,3.1939,7.1754,-1.8416,-2.113,-1.2595
1277991.0,-5.7078,4.1827,7.2712,-1.7496,-2.4137,-1.1547
1278001.0,-4.9752,4.2665,6.1483,-1.4367,-2.6164,-0.9402
1278011.0,-4.3144,4.0007,4.3551,-1.0397,-2.585,-0.6955
1278021.0,-3.9049,3.0478,3.8188,-0.8062,-2.3887,-0.4778
1278031.0,-3.7254,1.5778,4.1396,-0.6518,-2.1865,-0.3251
1278041.0,-3.4548,0.6009,3.9121,-0.5401,-2.1061,-0.2581
1278051.0,-3.1532,0.1149,3.6966,-0.5055,-2.014,-0.2591
1278061.0,-2.909,0.0359,3.6416,-0.5013,-1.8608,-0.2927
1278071.0,-2.4924,-0.0311,4.1659,-0.5369,-1.6778,-0.3331
1278081.0,-2.2362,-0.0622,5.4444,-0.5342,-1.4426,-0.3677
1278091.0,-2.3487,0.1676,7.3167,-0.5284,-1.3218,-0.3911
1278101.0,-2.4205,0.3065,8.9376,-0.4315,-1.35,-0.3698
1278111.0,-2.411,0.486,9.414,-0.2788,-1.5218,-0.3182
1278121.0,-2.4588,0.8739,8.7125,-0.2288,-1.7826,-0.2629
1278131.0,-2.1739,0.7925,7.422,-0.3416,-2.0375,-0.207
1278141.0,-1.6448,0.3112,5.9448,-0.4417,-2.1056,-0.1591
1278151.0,-1.2186,-0.2083,5.6168,-0.4853,-1.9507,-0.1389
1278161.0,-1.1492,-0.5698,6.3111,-0.4331,-1.7549,-0.1314
1278171.0,-0.9936,-0.7997,6.857,-0.2341,-1.6591,-0.1144
1278181.0,-0.6009,-0.838,6.4428,-0.0122,-1.6692,-0.1027
1278191.0,-0.1006,-1.0104,6.0645,0.1442,-1.649,-0.1043
1278201.0,0.1748,-1.0654,5.9304,0.3288,-1.4936,-0.1155
1278211.0,0.407,-1.3288,6.438,0.4353,-1.2962,-0.1394
1278221.0,0.316,-1.2809,7.2544,0.3868,-1.1893,-0.1958
1278231.0,0.2873,-1.1851,8.3893,0.1681,-1.2382,-0.2703
1278241.0,0.2035,-0.7733,8.9136,0.0271,-1.3654,-0.3225
1278251.0,0.0144,-0.0886,8.8011,-0.0064,-1.5123,-0.3374
1278261.0,-0.1149,0.9026,7.9464,0.0335,-1.6464,-0.3028
1278271.0,0.1006,1.482,6.4979,0.1155,-1.707,-0.2091
1278281.0,0.6177,1.0056,5.4827,0.1767,-1.6022,-0.0803
1278291.0,1.0223,0.1915,5.2146,0.2363,-1.351,0.0239
1278301.0,1.4102,-0.9002,5.7293,0.2485,-1.1153,0.075
1278311.0,1.8866,-1.8771,6.8953,0.3214,-0.8732,0.0761
1278321.0,1.9321,-2.6863,9.1435,0.5593,-0.5646,0.0479
1278331.0,1.7166,-2.9305,11.5329,0.8546,-0.447,-0.0096
1278341.0,1.3144,-2.3727,12.4929,1.0477,-0.6864,-0.0931
1278351.0,1.2354,-0.7685,11.0804,1.0062,-1.1813,-0.1804
1278361.0,2.3248,0.395,8.0038,0.7237,-1.6432,-0.2277
1278371.0,3.5769,1.4653,4.628,0.4241,-1.6836,-0.2288
1278381.0,3.8954,2.217,3.1292,0.1219,-1.2286,-0.1783
1278391.0,4.1946,1.2594,4.3239,-0.2591,-0.6699,-0.0915
1278401.0,4.1324,-0.0862,7.0006,-0.5289,-0.2086,-0.0378
1278411.0,3.4093,-1.142,10.829,-0.5938,-0.0133,-0.0234
1278421.0,3.1508,-1.8268,13.3381,-0.1325,-0.0761,0.0255
1278431.0,2.7653,-1.4485,13.635,0.7066,-0.2134,0.1
1278441.0,2.4708,-0.9888,12.7348,1.3595,-0.455,0.1671
1278451.0,2.7461,-1.2833,10.8793,1.6331,-0.7455,0.191
1278461.0,3.1675,-1.1468,8.6598,1.4814,-0.9658,0.1016
1278471.0,3.3591,-0.5363,7.1395,1.0562,-1.0493,-0.05
1278481.0,3.5745,0.1245,6.5003,0.6784,-0.9376,-0.1703
1278491.0,3.6536,0.8859,6.8714,0.4454,-0.7407,-0.2299
1278501.0,3.486,1.506,7.9033,0.3581,-0.5954,-0.215
1278511.0,3.1651,1.992,7.9559,0.3586,-0.6987,-0.1346
1278521.0,2.9808,2.5139,5.6886,0.2602,-1.0366,-0.041
1278531.0,2.2146,4.3694,-0.4788,-0.3065,-1.6171,0.0069
1278541.0,2.2649,5.9089,-8.4084,-1.7549,-2.3259,0.0181
1278551.0,0.723,6.7947,-19.3212,-3.4752,-2.9506,0.0899
1278561.0,1.6161,7.92,-35.0846,-4.5852,-3.3193,0.2634
1278571.0,2.0662,10.1227,-53.1393,-3.8158,-1.4734,0.7098
1278581.0,-1.3288,11.5664,-60.9372,-2.1327,2.1896,1.3446
1278591.0,-10.3094,13.8888,-58.1312,-0.165,6.7908,2.1242
1278601.0,-26.8917,9.9718,-38.4269,2.2524,12.1524,3.107
1278611.0,-40.316,-1.2067,-11.8513,5.2142,15.8623,3.8227
1278621.0,-46.3039,-4.2114,6.9504,8.053,17.4357,3.5343
1278631.0,-47.2089,-8.7676,28.0696,8.359,17.4357,2.3817
1278641.0,-45.9687,-5.1212,47.6422,6.4412,15.5792,0.6433
1278651.0,-41.1731,2.4517,54.3077,3.4875,11.4457,-0.9791
1278661.0,-36.3009,7.4915,51.9853,0.1607,7.108,-1.9731
1278671.0,-31.558,9.6845,46.4858,-1.6942,4.1063,-2.1657
1278681.0,-28.2109,13.0915,38.8124,-0.8088,3.3156,-1.6506
1278691.0,-26.6116,14.4035,34.352,0.9748,3.7716,-0.8375
1278701.0,-25.7712,14.3173,33.9258,1.9853,4.1499,-0.1399
1278711.0,-25.0793,12.0021,37.6153,1.9023,4.0584,0.3155
1278721.0,-23.9205,7.5346,42.8921,1.251,3.3273,0.5247
1278731.0,-22.2996,3.2513,45.8945,0.3773,1.7874,0.4432
1278741.0,-20.6117,0.9266,43.9623,-0.613,-0.455,0.1304
1278751.0,-18.093,0.8475,36.5116,-1.3989,-2.7175,-0.2458
1278761.0,-15.9262,2.4325,27.0257,-1.7959,-4.1542,-0.5348
1278771.0,-13.9941,3.8259,19.065,-1.9028,-4.698,-0.6556
1278781.0,-12.0907,4.4293,12.6558,-1.7831,-4.5703,-0.6353
1278791.0,-10.9774,3.6488,10.2855,-1.7496,-4.1037,-0.5869
1278801.0,-9.8952,2.3415,9.5385,-1.6277,-3.7141,-0.5624
1278811.0,-9.2512,1.4293,9.1722,-1.5144,-3.4827,-0.6188
1278821.0,-8.8298,1.6328,9.0333,-1.5724,-3.4614,-0.7646
1278831.0,-8.4851,2.9137,8.0589,-1.8528,-3.6168,-0.9461
1278841.0,-8.4132,3.7086,7.7452,-2.395,-3.8695,-1.1036
1278851.0,-8.2361,4.1683,7.2736,-2.7005,-4.1148,-1.1855
1278861.0,-7.8314,4.391,5.9783,-2.5866,-4.2878,-1.1696
1278871.0,-7.252,4.3024,4.7333,-2.1694,-4.3202,-1.0706
1278881.0,-6.8067,4.3335,2.7342,-1.5218,-4.2202,-0.8977
1278891.0,-5.4779,4.2114,1.0965,-0.9807,-4.026,-0.7045
1278901.0,-5.0853,4.367,0.6919,-0.6263,-3.646,-0.5135
1278911.0,-4.7238,3.948,0.644,-0.6157,-3.4582,-0.3384
1278921.0,-3.8571,2.8922,0.1796,-0.9445,-3.5034,-0.2336
1278931.0,-2.8922,1.7142,-0.8452,-1.384,-3.5774,-0.2198
1278941.0,-2.2242,0.6033,-1.0918,-1.6767,-3.4545,-0.2607
1278951.0,-1.4868,-0.7494,0.3615,-1.4995,-3.0687,-0.2921
1278961.0,-1.3527,-0.9864,0.893,-0.9142,-2.7414,-0.3124
1278971.0,-1.0487,-0.9816,1.2498,-0.3906,-2.5488,-0.3171
1278981.0,-0.589,-1.0798,1.0894,0.0176,-2.3642,-0.3065
1278991.0,0.0479,-1.4222,1.1253,0.1932,-2.1593,-0.3177
1279001.0,0.3424,-0.7949,1.7166,0.0878,-1.9821,-0.389
1279011.0,0.0934,0.3065,3.1412,-0.1942,-1.8709,-0.4534
1279021.0,0.1413,1.3216,4.051,-0.3815,-1.9209,-0.4331
1279031.0,0.4621,1.8124,3.5745,-0.3496,-2.0071,-0.3102
1279041.0,1.403,1.2617,2.5666,-0.1405,-1.9603,-0.1133
1279051.0,1.8699,-0.0048,2.0973,0.2389,-1.6155,0.0926
1279061.0,2.1835,-1.9034,2.7725,0.5768,-1.1871,0.232
1279071.0,2.4708,-3.4477,3.565,0.6944,-0.928,0.2325
1279081.0,2.5881,-3.8068,4.1587,0.5491,-0.8562,0.0952
1279091.0,2.5809,-3.2465,4.8937,0.3299,-0.7689,-0.0846
1279101.0,2.2386,-1.9896,5.8442,0.1713,-0.6572,-0.2283
1279111.0,1.9321,-1.2354,6.9408,0.0878,-0.6284,-0.281
1279121.0,2.296,-1.1396,7.1371,0.216,-0.6705,-0.249
1279131.0,2.6863,-1.4605,7.0174,0.5906,-0.5885,-0.1719
1279141.0,2.7701,-1.6831,7.0294,1.0525,-0.365,-0.107
1279151.0,2.4325,-1.3431,7.3526,1.3282,-0.2139,-0.0905
1279161.0,2.3296,-0.8164,7.367,1.3335,-0.2272,-0.1
1279171.0,2.5283,-0.6393,6.9432,1.1047,-0.2932,-0.1219
1279181.0,2.6935,-0.6871,6.4667,0.7279,-0.2889,-0.1628
1279191.0,2.7126,-1.1013,6.7349,0.2187,-0.2756,-0.2293
1279201.0,2.9161,-1.7573,7.4962,-0.1634,-0.2565,-0.2921
1279211.0,2.7246,-2.3966,8.6862,-0.0819,-0.1522,-0.3294
1279221.0,2.5283,-2.5235,9.7229,0.4214,-0.0181,-0.3416
1279231.0,1.9082,-2.3703,10.7811,1.1111,0.0676,-0.3469
1279241.0,1.1229,-1.3455,10.7093,1.6655,-0.0756,-0.3794
1279251.0,1.415,-0.4453,8.9759,1.839,-0.5177,-0.4273
1279261.0,2.3822,0.6967,5.2864,1.8587,-0.8519,-0.4768
1279271.0,3.1819,1.8603,2.2027,1.7911,-0.6774,-0.5066
1279281.0,3.2441,2.7054,1.2665,1.607,-0.1527,-0.5055
1279291.0,2.6887,3.0526,2.5115,1.2781,0.364,-0.4821
1279301.0,2.3942,1.7693,5.5282,0.9424,0.6971,-0.447
1279311.0,2.138,0.5004,8.7915,0.9253,0.8508,-0.4571
1279321.0,1.3479,0.3496,11.3246,1.177,0.7795,-0.5236
1279331.0,0.6249,0.6297,12.3828,1.4904,0.4534,-0.5949
1279341.0,0.2059,1.4988,11.3844,1.6613,-0.0867,-0.6811
1279351.0,0.0622,2.4612,8.7317,1.5399,-0.6896,-0.7779
1279361.0,0.4621,3.6871,4.4939,1.2217,-1.1158,-0.8727
1279371.0,0.7207,4.8363,0.9601,0.6412,-1.1781,-0.9647
1279381.0,0.7638,6.1124,-1.3096,-0.0921,-1.0057,-1.0275
1279391.0,0.9457,6.6056,-2.1883,-0.8434,-0.7396,-1.0248
1279401.0,-0.1269,6.1842,-1.3719,-1.392,-0.4917,-0.9631
1279411.0,-0.5938,7.0629,-3.96,-1.4266,-0.5768,-0.8189
1279421.0,1.0989,6.4404,-10.2089,-1.1126,-0.7535,-0.5683
1279431.0,0.6081,6.6319,-22.3475,-0.4204,-0.5023,-0.2841
1279441.0,1.2737,6.6343,-37.3711,0.2011,0.4667,-0.0708
1279451.0,-3.0574,8.5281,-48.1809,0.7258,3.0634,0.0931
1279461.0,-11.0588,10.6255,-50.113,1.3196,6.6259,0.3246
1279471.0,-22.7258,7.252,-39.5546,2.4701,10.8439,0.6774
1279481.0,-36.9425,5.2313,-20.6213,4.1968,14.5698,0.7716
1279491.0,-50.623,8.8083,-2.5498,6.2225,16.8653,0.5731
1279501.0,-53.6469,8.7532,18.5024,7.8268,17.4357,0.2219
1279511.0,-56.5319,17.6141,35.5826,8.377,17.4357,-0.5321
1279521.0,-55.9693,26.3697,54.9062,6.0751,15.65,-1.2132
1279531.0,-46.2584,27.349,65.084,2.7542,11.5181,-1.2845
1279541.0,-41.1755,19.3763,69.5348,-0.4443,7.0856,-1.0334
1279551.0,-33.0855,11.1091,67.222,-1.3282,3.4023,-0.6949
1279561.0,-27.1502,8.8274,53.3548,-0.4651,0.3719,-0.5146
1279571.0,-21.8327,13.805,35.585,0.0553,-1.5761,-0.5513
1279581.0,-17.2909,16.496,25.5198,0.0032,-1.8911,-0.3932
1279591.0,-14.6166,18.2079,19.8934,0.0814,-0.9599,0.0144
1279601.0,-14.6884,15.4905,24.7776,-0.3789,-0.0564,0.5018
1279611.0,-14.3532,11.7627,27.8996,-0.5326,-0.273,0.9817
1279621.0,-13.2591,7.3837,26.8103,-0.8264,-1.4825,1.2952
1279631.0,-10.6829,3.158,20.0131,-1.3122,-2.9878,1.3595
1279641.0,-8.0134,0.51,11.1498,-1.9172,-3.9344,1.1669
1279651.0,-5.1356,0.2179,3.96,-2.4754,-4.0925,0.8344
1279661.0,-5.9616,0.1413,-1.1732,-2.7074,-3.5715,0.5683
1279671.0,-3.5889,-0.6728,-3.9863,-2.6505,-2.7633,0.3794
1279681.0,-3.2417,-0.7661,-3.8547,-2.3833,-1.6331,0.1815
1279691.0,-3.2609,-0.1413,-1.1061,-2.1008,-0.6135,-0.0176
1279701.0,-3.9863,0.9361,2.4014,-1.9651,-0.0357,-0.1889
1279711.0,-4.5705,1.9728,5.4013,-1.9582,0.0979,-0.3028
1279721.0,-4.9752,3.0358,6.8498,-1.9709,-0.0814,-0.3507
1279731.0,-4.5514,2.9233,7.094,-1.8831,-0.3597,-0.3145
1279741.0,-4.4173,2.2841,6.1555,-1.6203,-0.4635,-0.2634
1279751.0,-4.3024,1.142,6.2441,-1.4841,-0.514,-0.2724
1279761.0,-4.3383,0.0982,6.2177,-1.234,-0.4699,-0.3278
1279771.0,-4.4293,-0.7685,7.185,-0.9695,-0.3863,-0.4491
1279781.0,-4.6519,-0.3065,8.2025,-0.6641,-0.3155,-0.6162
1279791.0,-5.4851,1.4988,9.3494,-0.5087,-0.3645,-0.7886
1279801.0,-6.1268,3.4955,10.082,-0.5741,-0.6071,-0.8902
1279811.0,-6.4524,4.7956,10.0389,-0.7817,-1.0211,-0.8982
1279821.0,-6.3925,5.4708,8.4396,-0.9748,-1.4484,-0.8269
1279831.0,-5.7006,5.138,6.608,-1.0578,-1.6405,-0.6923
1279841.0,-4.9464,3.9744,5.77,-0.9014,-1.4335,-0.5326
1279851.0,-4.8147,2.3679,7.355,-0.6188,-1.0158,-0.415
1279861.0,-5.1404,1.233,10.0197,-0.2166,-0.7625,-0.3682
1279871.0,-5.387,0.9697,11.2575,0.1979,-0.8759,-0.3773
1279881.0,-5.4516,1.3072,11.3701,0.4417,-1.1728,-0.4331
1279891.0,-5.5737,2.4325,10.489,0.5279,-1.475,-0.5007
1279901.0,-5.679,3.7421,8.8083,0.4321,-1.7416,-0.531
1279911.0,-5.4923,4.2042,7.1156,0.1724,-1.9204,-0.5098
1279921.0,-4.7214,4.3742,5.2553,-0.0697,-1.9183,-0.4576
1279931.0,-4.2737,3.9744,4.5945,-0.2559,-1.6261,-0.3911
1279941.0,-4.288,3.3686,5.9496,-0.4161,-1.2404,-0.3448
1279951.0,-4.5274,2.9544,8.0804,-0.4369,-1.0009,-0.3118
1279961.0,-4.853,2.4588,9.7181,-0.3044,-1.0094,-0.2778
1279971.0,-4.8219,2.3367,9.7516,-0.0479,-1.2079,-0.2522
1279981.0,-4.4125,2.5474,8.3294,0.2261,-1.4,-0.2331
1279991.0,-3.7972,3.0526,6.5697,0.4135,-1.4117,-0.2102
1280001.0,-3.4333,3.5506,5.7485,0.4736,-1.202,-0.1804
1280011.0,-3.2944,3.8044,6.0118,0.406,-0.9365,-0.1346
1280021.0,-3.2657,3.8714,6.845,0.2373,-0.7641,-0.0862
1280031.0,-3.2633,3.8618,7.5298,0.0218,-0.7258,-0.0394
1280041.0,-3.1915,3.8331,7.6782,-0.19,-0.7944,0.0069
1280051.0,-3.0526,3.632,7.2042,-0.3677,-0.8673,0.0516
1280061.0,-2.7988,3.2801,6.6894,-0.48,-0.8535,0.091
1280071.0,-2.7485,2.6791,6.3901,-0.5529,-0.7646,0.1075
1280081.0,-2.5929,1.8818,6.4212,-0.6252,-0.6678,0.0825
1280091.0,-2.3056,1.0942,6.5577,-0.6673,-0.5859,0.009
1280101.0,-2.0255,0.9505,6.8187,-0.6705,-0.5119,-0.1096
1280111.0,-1.9848,1.5227,6.924,-0.6737,-0.4677,-0.2325
1280121.0,-1.8818,2.3296,6.9073,-0.7152,-0.4683,-0.3187
1280131.0,-1.8818,3.0813,6.6631,-0.8008,-0.4874,-0.3517
1280141.0,-1.8004,3.4213,6.3446,-0.9163,-0.5092,-0.3342
1280151.0,-1.8555,3.1556,6.0334,-1.0115,-0.5098,-0.282
1280161.0,-1.7861,2.2817,5.9903,-1.0243,-0.4592,-0.232
1280171.0,-1.6448,1.1444,6.6511,-0.9163,-0.3746,-0.2139
1280181.0,-1.5155,0.249,7.3215,-0.6034,-0.2836,-0.2299
1280191.0,-1.3719,0.1341,7.8578,-0.1809,-0.2224,-0.2778
1280201.0,-1.4317,0.9074,7.6231,0.2102,-0.2575,-0.3288
1280211.0,-1.3695,1.8603,7.0294,0.5002,-0.3076,-0.332
1280221.0,-1.1253,2.4301,6.2656,0.713,-0.2943,-0.2783
1280231.0,-0.9242,2.6145,5.9352,0.8567,-0.2192,-0.1958
1280241.0,-0.9337,2.5953,5.9065,0.9232,-0.1298,-0.1165
1280251.0,-0.9601,2.5786,5.7652,0.8546,-0.1463,-0.066
1280261.0,-0.826,2.6839,5.0685,0.6439,-0.2964,-0.0436
1280271.0,-0.6321,2.6073,3.802,0.3911,-0.4214,-0.0282
1280281.0,-0.3136,2.4397,2.3942,0.0963,-0.4432,-0.0346
1280291.0,-0.3855,2.4972,1.3001,-0.2692,-0.4087,-0.0756
1280301.0,-0.8691,3.6057,-0.7518,-0.7215,-0.4842,-0.1277
1280311.0,1.9848,4.5107,-4.5107,-1.2659,-0.647,-0.1006
1280321.0,-1.8747,5.3391,-8.2265,-1.7544,-0.4874,0.067
1280331.0,-0.5339,7.9918,-17.1449,-1.9353,-0.506,0.3517
1280341.0,-1.7382,8.7676,-26.6307,-1.7507,0.3815,0.8631
1280351.0,-4.7357,9.2775,-33.1812,-0.5805,2.7324,1.5554
1280361.0,-10.7188,5.1595,-31.728,0.7551,5.7319,2.1519
1280371.0,-17.7219,-0.3663,-23.3602,2.1896,8.7831,2.4254
1280381.0,-25.436,-5.964,-11.7579,3.7439,11.3771,2.1769
1280391.0,-29.645,-8.1642,4.9656,4.6033,13.1256,1.2941
1280401.0,-35.5683,-1.1588,24.5454,5.0333,13.9781,0.1612
1280411.0,-38.3384,9.2632,45.7197,4.7975,13.4013,-0.6614
1280421.0,-39.7916,19.3547,62.6108,3.7024,10.8056,-0.8663
1280431.0,-35.3432,21.215,66.8102,1.8533,6.0959,-0.4576
1280441.0,-29.2715,17.4585,57.9325,0.1995,1.3686,0.1948
1280451.0,-24.2054,11.7675,42.2194,-0.3948,-1.8358,0.8232
1280461.0,-18.5168,6.1435,24.6459,-0.041,-3.2012,1.2691
1280471.0,-11.576,2.2003,12.0189,0.5209,-2.7952,1.3776
1280481.0,-11.9399,1.9106,8.9543,0.961,-0.97,1.2058
1280491.0,-11.0588,2.229,12.3972,0.8716,0.4576,0.936
1280501.0,-11.4802,2.8539,18.7945,0.074,0.6731,0.6199
1280511.0,-11.3988,3.3208,21.5047,-0.6561,-0.1415,0.3847
1280521.0,-10.6805,3.2274,19.8719,-1.2276,-1.425,0.2315
1280531.0,-9.4355,3.0981,13.9247,-1.492,-2.56,0.1426
1280541.0,-7.6854,2.3631,6.7516,-1.5692,-3.0863,0.0878
1280551.0,-6.292,1.2641,1.2641,-1.5415,-2.8793,0.0106
1280561.0,-5.5474,0.5028,-2.4972,-1.5038,-2.2695,-0.1101
1280571.0,-4.6448,-0.1604,-3.79,-1.6522,-1.5484,-0.2873
1280581.0,-4.4365,-0.3424,-1.8962,-1.7661,-0.654,-0.4954
1280591.0,-5.1404,0.0694,1.7861,-1.7985,0.042,-0.7013
1280601.0,-5.9664,1.1468,5.9783,-1.8592,0.2464,-0.8828
1280611.0,-6.3853,2.727,8.3318,-1.7799,0.0016,-0.9706
1280621.0,-6.529,4.1539,8.1379,-1.5309,-0.4033,-0.9328
1280631.0,-6.2944,5.2265,6.1746,-1.2936,-0.7322,-0.8083
1280641.0,-5.8466,5.5115,3.8906,-1.1627,-0.8349,-0.6385
1280651.0,-5.8083,5.1571,2.4301,-1.1142,-0.6582,-0.4693
1280661.0,-5.9448,4.0438,2.7198,-1.1382,-0.3437,-0.3331
1280671.0,-6.0094,2.7438,4.209,-1.1291,-0.067,-0.2533
1280681.0,-6.0717,1.8411,6.2968,-0.9663,0.1453,-0.2315
1280691.0,-6.2249,1.7813,8.5066,-0.6412,0.2405,-0.2379
1280701.0,-6.4787,2.4493,9.572,-0.348,0.1149,-0.2506
1280711.0,-6.4667,3.1891,9.5002,-0.3475,-0.2538,-0.2623
1280721.0,-6.1962,3.6775,8.3031,-0.5789,-0.6737,-0.2618
1280731.0,-5.9592,3.8499,6.4021,-0.9312,-0.9727,-0.2512
1280741.0,-5.7126,3.4524,4.8602,-1.3085,-1.0695,-0.2304
1280751.0,-5.5067,2.6097,4.3646,-1.5639,-0.9642,-0.2043
1280761.0,-5.6144,1.8842,5.0709,-1.5511,-0.7189,-0.1724
1280771.0,-5.8442,1.0606,6.5673,-1.1973,-0.4715,-0.1128
1280781.0,-5.8778,0.4286,7.6327,-0.5789,-0.3326,-0.049
1280791.0,-5.8035,0.1484,7.9248,0.0144,-0.3033,-0.0271
1280801.0,-5.7197,0.3136,8.011,0.3783,-0.3219,-0.0569
1280811.0,-5.8634,1.0487,8.0254,0.5018,-0.3656,-0.1165
1280821.0,-6.0358,1.7837,8.2001,0.3491,-0.4475,-0.1815
1280831.0,-6.3039,2.5426,8.2361,0.0106,-0.6018,-0.2325
1280841.0,-6.3925,2.7677,7.9344,-0.4299,-0.8088,-0.2496
1280851.0,-6.1699,2.3176,7.7955,-0.7913,-0.944,-0.2384
1280861.0,-6.1244,1.9441,7.9631,-0.8987,-0.9307,-0.2139
1280871.0,-6.1986,1.403,8.5042,-0.7785,-0.8716,-0.1751
1280881.0,-6.2441,0.668,9.2751,-0.4762,-0.829,-0.1341
1280891.0,-6.1148,0.3496,9.5744,-0.0548,-0.8572,-0.1181
1280901.0,-6.0166,0.7661,9.1506,0.3198,-0.9307,-0.132
1280911.0,-5.8682,1.2713,8.5545,0.4709,-1.0137,-0.158
1280922.0,-5.7724,1.8555,8.2935,0.4145,-1.1068,-0.1916
1280931.0,-5.6886,2.5738,7.7381,0.2873,-1.1829,-0.2049
1280941.0,-5.5091,2.7461,7.6255,0.0846,-1.2249,-0.1868
1280951.0,-5.3606,2.727,7.7979,-0.0676,-1.251,-0.1495
1280961.0,-5.2146,2.3056,8.0254,-0.1123,-1.2659,-0.0952
1280971.0,-5.0949,1.4413,8.655,-0.0069,-1.2457,-0.0399
1280981.0,-4.7453,0.4836,9.2464,0.2565,-1.2521,-0.0144
1280991.0,-4.4819,0.1891,9.153,0.5534,-1.3255,-0.0442
1281001.0,-4.2449,0.6656,8.3917,0.7024,-1.4814,-0.1171
1281011.0,-3.9025,1.5036,7.1395,0.6657,-1.6389,-0.191
1281021.0,-3.5674,2.1739,5.7413,0.4417,-1.7267,-0.2517
1281031.0,-3.3662,2.7222,4.2641,0.0239,-1.7799,-0.3049
1281041.0,-2.7964,2.5283,3.5578,-0.4954,-1.7655,-0.3379
1281051.0,-2.399,1.9154,3.5626,-0.7897,-1.5479,-0.3464
1281061.0,-2.3463,0.8475,4.7501,-0.8264,-1.2159,-0.348
1281071.0,-2.4157,-0.3639,6.2752,-0.7125,-0.9844,-0.3789
1281081.0,-2.32,-1.3336,7.944,-0.5571,-0.9339,-0.4693
1281091.0,-2.1069,-1.4533,8.5234,-0.3326,-1.0163,-0.6008
1281101.0,-2.0183,-1.1851,8.9232,-0.0984,-1.1084,-0.7274
1281111.0,-1.9345,-0.7183,9.4284,0.2006,-1.1621,-0.8163
1281121.0,-2.1141,0.1748,9.73,0.588,-1.2451,-0.8519
1281131.0,-2.66,0.9098,9.5241,0.9706,-1.3989,-0.8386
1281141.0,-2.7366,1.6616,7.9942,1.1887,-1.7198,-0.8072
1281151.0,-2.5594,2.15,5.6096,1.1855,-2.038,-0.7897
1281161.0,-2.2817,3.0335,2.6145,0.9738,-2.2338,-0.8067
1281171.0,-1.6855,3.5889,1.0415,0.5513,-2.3115,-0.8471
1281181.0,-2.2338,4.0654,-0.1963,0.2948,-2.3397,-0.8764
1281191.0,-3.893,8.0182,-6.8714,0.2395,-2.7138,-0.8306
1281201.0,-2.3559,10.7715,-22.9532,-0.1506,-3.3853,-0.6226
1281211.0,1.9441,10.7643,-42.7293,-0.6247,-2.8441,-0.2607
1281221.0,-0.4525,14.5711,-56.3116,-0.3347,0.6843,0.2373
1281231.0,-9.8043,17.0922,-50.5248,0.0905,5.9458,0.9844
1281241.0,-24.4616,11.9135,-30.4926,0.7678,10.6002,1.9858
1281251.0,-33.6194,8.0852,-9.845,1.7703,13.0229,2.7372
1281261.0,-37.4597,3.8283,9.5984,3.149,14.4522,3.0437
1281271.0,-38.901,1.4222,28.5413,4.2361,14.7555,2.8841
1281281.0,-35.743,3.3255,44.5609,4.4373,13.3459,2.3541
1281291.0,-35.2163,10.1825,55.9836,3.9062,10.9775,1.8294
1281301.0,-32.3289,9.821,59.6036,2.4647,7.3261,1.6405
1281311.0,-26.839,6.1483,53.5583,0.4571,3.2544,1.4543
1281321.0,-22.879,2.4684,44.8889,-0.9402,0.2038,1.2148
1281331.0,-19.2973,1.6616,32.6761,-0.6385,-1.2686,1.0722
1281341.0,-17.3364,2.7964,22.2757,0.0825,-1.5958,0.9418
1281351.0,-14.3844,3.8666,14.4203,0.572,-1.2936,0.8349
1281361.0,-12.3637,3.7541,12.3325,0.5406,-0.4129,0.6891
1281371.0,-12.4906,3.7996,15.1673,0.0388,0.4342,0.4523
1281381.0,-12.7276,2.8515,19.4625,-0.82,0.4353,0.1761
1281391.0,-12.0093,1.4245,21.3467,-1.7757,-0.4214,-0.1394
1281401.0,-11.394,0.7949,21.2868,-2.4381,-1.5139,-0.4645
1281411.0,-11.0349,1.8627,17.243,-2.3264,-2.4472,-0.6774
1281421.0,-10.0269,2.478,10.7883,-1.9646,-3.0836,-0.7646
1281431.0,-8.4491,2.8563,4.2569,-1.6836,-3.2203,-0.8157
1281441.0,-7.4579,3.7326,-0.3448,-1.5751,-2.8032,-0.8711
1281451.0,-6.7133,3.9504,-1.8771,-1.6921,-2.1056,-0.9003
1281461.0,-6.5649,3.644,-0.486,-1.814,-1.3595,-0.9179
1281471.0,-6.4979,3.5338,2.0351,-1.8523,-0.8647,-0.9365
1281481.0,-6.45,3.3471,4.7262,-1.8071,-0.629,-0.9472
1281491.0,-6.292,3.3806,6.0238,-1.7884,-0.7013,-0.9615
1281501.0,-5.7748,2.9377,6.4811,-2.0162,-1.0403,-0.9993
1281511.0,-5.6479,2.6049,6.2776,-2.1338,-1.3915,-1.0371
1281521.0,-5.3893,2.8156,3.869,-1.8571,-1.6346,-1.0291
1281531.0,-4.6998,3.1603,1.2306,-1.4287,-1.5602,-0.9754
1281541.0,-4.4532,3.984,-0.17,-1.003,-1.0717,-0.895
1281551.0,-4.8818,4.8123,0.644,-0.8711,-0.5108,-0.7987
1281561.0,-5.2529,4.6591,3.1173,-1.0089,-0.174,-0.6784
1281571.0,-5.3319,3.5865,5.5138,-1.0983,-0.083,-0.5491
1281581.0,-5.375,2.478,7.276,-1.0089,-0.1144,-0.4539
1281591.0,-5.387,1.6065,8.2313,-0.804,-0.2187,-0.4007
1281601.0,-5.363,1.4581,7.9416,-0.6465,-0.4193,-0.3975
1281611.0,-5.1811,1.2426,7.5369,-0.6614,-0.6204,-0.4209
1281621.0,-5.2194,1.3862,6.6942,-0.6683,-0.6875,-0.456
1281631.0,-5.2481,1.6305,6.4428,-0.7508,-0.6699,-0.4874
1281641.0,-5.3391,1.585,7.1706,-0.7423,-0.5422,-0.4837
1281651.0,-5.6527,1.719,8.0325,-0.6311,-0.4448,-0.4592
1281661.0,-5.8371,1.8699,8.7101,-0.5683,-0.5018,-0.422
1281671.0,-5.6958,1.901,8.2408,-0.5726,-0.7035,-0.3751
1281681.0,-5.3463,1.2426,7.6255,-0.6593,-0.8695,-0.3368
1281691.0,-5.1236,0.7111,7.0366,-0.6726,-0.8961,-0.3288
1281701.0,-5.0853,0.4046,6.9576,-0.596,-0.8184,-0.3395
1281711.0,-4.9416,0.3136,7.1443,-0.4704,-0.7019,-0.3528
1281721.0,-5.0254,0.4717,7.7907,-0.4236,-0.5981,-0.3741
1281731.0,-5.1284,0.3855,9.0668,-0.4443,-0.5773,-0.3911
1281741.0,-5.3343,0.6393,9.8761,-0.4278,-0.6534,-0.4049
1281751.0,-5.5617,1.1636,10.1634,-0.4315,-0.8498,-0.4071
1281761.0,-5.6647,1.5251,9.3541,-0.4587,-1.1238,-0.3741
1281771.0,-5.3032,1.2641,8.3318,-0.4874,-1.3047,-0.315
1281781.0,-4.9105,0.5914,7.5753,-0.414,-1.2696,-0.2565
1281791.0,-4.8339,0.079,7.6902,-0.3225,-1.1265,-0.2336
1281801.0,-4.6543,-0.4501,8.3606,-0.2442,-1.0264,-0.2379
1281811.0,-4.5633,-0.838,9.2344,-0.2027,-1.0131,-0.2751
1281821.0,-4.7429,-0.7781,10.6422,-0.1548,-1.0828,-0.3384
1281831.0,-5.1212,-0.1604,11.3318,0.0442,-1.268,-0.3767
1281841.0,-5.4133,0.7973,10.5082,0.2629,-1.591,-0.3698
1281851.0,-5.1954,1.3671,8.5617,0.3459,-1.9236,-0.3187
1281861.0,-4.6448,1.4341,6.3997,0.3225,-2.0529,-0.249
1281871.0,-4.1803,1.0942,5.0781,0.2341,-1.956,-0.1916
1281881.0,-3.8475,0.1077,4.8985,0.1117,-1.7198,-0.1618
1281891.0,-3.5003,-1.5969,5.8538,-0.0351,-1.492,-0.2001
1281901.0,-3.0119,-3.3615,7.2089,-0.1586,-1.3782,-0.3421
1281911.0,-2.7629,-4.6304,8.9543,-0.2448,-1.3452,-0.5928
1281921.0,-3.1987,-4.5083,10.9822,-0.2437,-1.4559,-0.9035
1281931.0,-3.7421,-3.2082,12.3493,-0.0772,-1.7618,-1.1701
1281941.0,-4.2114,-1.3767,11.734,0.2815,-2.1625,-1.318
1281951.0,-4.2617,-0.1604,10.4938,0.5608,-2.5632,-1.3569
1281961.0,-3.8786,0.838,8.7556,0.8195,-2.8356,-1.3186
1281971.0,-3.6272,1.4341,7.003,1.0424,-2.9564,-1.2249
1281981.0,-2.9281,0.9936,5.782,1.2265,-2.9287,-1.0967
1281991.0,-2.1787,0.4046,4.9464,1.3643,-2.8516,-1.0004
1282001.0,-1.4892,-0.577,4.9249,1.4771,-2.6983,-0.9461
1282011.0,-0.9098,-1.9058,5.8179,1.6559,-2.4844,-0.9456
1282021.0,-0.8164,-2.5402,6.2489,1.8102,-2.4493,-1.0366
1282031.0,-0.9768,-1.9872,5.2481,1.7373,-2.6345,-1.2318
1282041.0,-1.221,0.2131,3.4548,1.2664,-2.9708,-1.4889
1282051.0,-1.3982,4.4149,-1.6089,0.4252,-3.4811,-1.7166
1282061.0,-5.6575,8.3965,-8.734,-1.1494,-4.0882,-1.8347
1282071.0,-3.6488,12.1482,-25.9124,-3.2054,-5.2823,-1.7592
1282081.0,0.4645,10.4507,-47.3382,-4.5043,-5.5148,-1.4436
1282091.0,4.5801,13.0077,-65.1367,-3.0724,-2.7005,-0.9253
1282101.0,-6.5936,19.6636,-63.3003,-0.389,3.4327,-0.323
1282111.0,-17.9805,24.507,-51.358,2.8468,8.5766,0.5901
1282121.0,-33.6984,25.7137,-39.0949,6.4013,12.8681,1.7331
1282131.0,-47.0868,19.5894,-20.9373,8.4271,16.2475,2.5946
1282141.0,-56.2973,12.572,-1.2498,9.0661,17.4357,2.6622
1282151.0,-59.0913,12.6988,19.6995,7.3474,17.4357,1.8773
1282161.0,-60.1376,12.7635,46.2608,3.0948,17.2011,0.9386
1282171.0,-51.0516,10.1323,62.1343,-0.8077,12.884,0.5289
1282181.0,-41.5753,8.0421,65.2372,-2.6813,8.3712,0.596
1282191.0,-34.7518,10.1706,55.4138,-2.2487,4.7113,1.0243
1282201.0,-30.1023,8.3749,41.0749,-0.5646,2.643,1.6527
1282211.0,-23.7337,0.9002,31.6274,1.4271,2.427,2.1141
1282221.0,-19.8384,-2.4086,26.7839,3.562,3.7248,2.0172
1282231.0,-19.2518,-5.1954,34.8931,3.8254,5.0024,1.3212
1282241.0,-20.3675,-0.407,46.8138,2.8596,4.4016,0.3219
1282251.0,-20.5422,4.4053,52.3205,1.5091,1.8869,-0.3523
1282261.0,-18.5311,6.4284,47.0054,0.0596,-1.6251,-0.6439
1282271.0,-16.5535,7.4651,34.1796,-0.9945,-4.5889,-0.7173
1282281.0,-14.4227,7.6782,19.0147,-1.5532,-6.238,-0.6492
1282291.0,-12.2439,6.4093,5.6551,-1.7975,-6.6147,-0.5204
1282301.0,-9.0237,4.4245,-6.0118,-1.9933,-6.1241,-0.4518
1282311.0,-4.2401,1.9872,-10.8769,-2.2652,-4.764,-0.5316
1282321.0,-6.9623,2.1907,-10.0149,-2.0923,-2.7872,-0.6816
1282331.0,-5.5234,2.8467,-6.1866,-2.0029,-1.59,-0.8221
1282341.0,-5.8706,4.889,-1.6592,-1.9417,-0.8274,-0.8977
1282351.0,-6.6607,6.347,3.5147,-1.8257,-0.5491,-0.8333
1282361.0,-6.8378,7.118,4.8076,-1.4622,-0.8125,-0.6321
1282371.0,-6.4452,6.1316,3.6703,-1.1962,-1.2521,-0.3938
1282381.0,-5.533,4.8243,0.3998,-0.9833,-1.5586,-0.216
1282391.0,-4.5538,3.1819,-2.5618,-0.7817,-1.3979,-0.1181
1282401.0,-4.1683,1.9513,-3.5961,-0.6071,-0.8216,-0.1123
1282411.0,-4.2784,1.0199,-2.2051,-0.5326,-0.1485,-0.1804
1282421.0,-4.719,0.7039,0.7278,-0.5146,0.4124,-0.298
1282431.0,-5.442,1.1349,4.4652,-0.4794,0.7274,-0.4225
1282441.0,-5.8371,2.1644,7.446,-0.2794,0.7822,-0.4906
1282451.0,-6.2393,3.8666,8.7412,-0.1123,0.6279,-0.5071
1282461.0,-6.541,4.8195,9.5409,-0.2219,0.3118,-0.4581
