time_ms,ax,ay,az,gx,gy,gz
1173431.0,4.9608,15.093,53.2854,-3.5029,-0.2735,0.7008
1173441.0,6.4835,14.2311,54.4058,-3.2906,-1.5027,1.218
1173451.0,6.3015,13.7906,52.5288,-3.4513,-2.4759,1.7256
1173461.0,7.5369,12.7372,50.5847,-3.0048,-3.504,2.2503
1173471.0,7.671,10.8505,46.888,-2.8356,-4.292,2.6983
1173481.0,8.7819,7.3358,43.4691,-1.93,-4.6022,3.0437
1173491.0,8.9352,4.1946,38.8435,-0.6939,-3.9302,3.3257
1173501.0,10.8601,0.3926,35.7502,0.8306,-2.8867,3.3209
1173511.0,11.7795,-2.3942,32.7527,1.7815,-1.7762,2.9362
1173521.0,11.7986,-3.8211,32.111,2.4642,-0.8876,2.2684
1173531.0,11.1091,-2.6911,28.9028,2.179,-0.2203,1.5123
1173541.0,10.5919,-0.7087,28.4335,2.162,0.828,0.9083
1173551.0,9.596,3.6679,26.8246,2.0625,2.344,0.622
1173561.0,8.0732,7.0485,29.7456,1.715,3.6641,0.7295
1173571.0,6.79,8.4851,34.17,1.7922,4.7278,1.1222
1173581.0,6.5122,9.1363,37.723,1.9773,5.5281,1.666
1173591.0,5.8802,8.0924,41.6687,2.1923,6.1491,2.1678
1173601.0,4.9033,6.1387,44.9248,2.5861,6.562,2.5297
1173611.0,4.3383,4.4819,48.1426,3.0421,6.7834,2.7234
1173621.0,4.3958,3.055,50.9773,3.5268,6.8536,2.726
1173631.0,3.2465,2.2218,52.6341,3.7333,6.5471,2.6052
1173641.0,2.0111,2.4995,53.2758,3.6317,6.1544,2.3876
1173651.0,1.6568,2.806,53.7642,3.5396,5.883,2.2024
1173661.0,0.8045,3.6296,53.3045,2.7856,5.5223,2.0082
1173671.0,-0.0096,3.3806,54.3867,1.7155,4.9699,1.8113
1173681.0,-0.2777,2.3463,55.4497,0.6848,4.3021,1.558
1173691.0,-1.0534,1.0726,56.6372,-0.5587,3.438,1.202
1173701.0,-1.5419,-0.2011,57.0778,-1.5777,2.395,0.729
1173711.0,-1.4174,-0.7374,56.9245,-2.5291,1.499,0.1618
1173721.0,-1.0056,-0.5842,55.3444,-3.3427,0.6768,-0.4257
1173731.0,-1.0534,0.3926,54.6931,-4.1345,0.1229,-0.9594
1173741.0,-1.8196,2.0303,54.0323,-4.7667,-0.4821,-1.3319
1173751.0,-2.6911,3.1603,53.5822,-5.2642,-1.086,-1.5234
1173761.0,-3.0071,3.5721,52.9502,-5.601,-1.6001,-1.5453
1173771.0,-2.9401,2.624,53.2183,-5.5882,-1.9842,-1.5155
1173781.0,-2.8922,1.0822,53.927,-5.037,-2.311,-1.5362
1173791.0,-3.0071,-0.2777,53.2375,-4.2479,-2.6281,-1.6453
1173801.0,-2.7294,-0.9673,53.1034,-3.2203,-2.8888,-1.7661
1173811.0,-2.3846,-0.2203,50.3644,-2.2136,-3.1198,-1.9066
1173821.0,-1.8675,1.4078,47.6829,-1.8629,-3.2539,-2.0055
1173831.0,-2.241,2.8443,45.6239,-1.9869,-3.4539,-2.0646
1173841.0,-2.4708,4.1946,44.2353,-2.6015,-3.7051,-2.0678
1173851.0,-1.8579,4.5011,43.6319,-3.207,-3.9605,-2.0332
1173861.0,-1.7909,4.1851,43.4979,-3.5306,-4.134,-1.9422
1173871.0,-1.4557,3.3806,43.8809,-3.5279,-4.2548,-1.8539
1173881.0,-0.9768,2.7102,44.6279,-3.1123,-4.3974,-1.79
1173891.0,-0.0862,2.2218,44.3981,-2.3482,-4.5778,-1.7549
1173901.0,0.7183,2.4325,43.1339,-1.6958,-4.7736,-1.7384
1173911.0,1.5514,3.0167,41.3239,-1.3473,-5.0125,-1.7171
1173921.0,2.375,3.8307,38.8435,-1.4734,-5.2716,-1.7091
1173931.0,2.7869,4.1659,36.5068,-1.9752,-5.5856,-1.6873
1173941.0,3.2465,4.2808,34.8883,-2.5334,-5.7649,-1.7602
1173951.0,4.0127,4.3096,33.1262,-2.9154,-5.7622,-1.7629
1173961.0,4.4915,4.3096,32.6761,-3.1027,-5.6633,-1.7262
1173971.0,4.6064,4.1946,32.6952,-2.7468,-5.5276,-1.6692
1173981.0,5.2385,4.1755,32.1206,-2.1849,-5.3924,-1.557
1173991.0,6.3207,3.9744,32.0536,-1.2888,-5.2764,-1.4186
1174001.0,7.288,4.3958,29.6115,-0.7221,-5.1583,-1.3324
1174011.0,7.671,4.8267,27.744,-0.3741,-5.0285,-1.2489
1174021.0,8.1307,5.3917,25.0434,-0.1724,-4.8561,-1.185
1174031.0,8.3989,6.4739,22.4959,-0.1687,-4.4687,-1.0786
1174041.0,9.1554,7.1922,20.1783,-0.29,-3.8999,-0.92
1174051.0,9.8354,7.4699,19.259,-0.5593,-3.314,-0.7673
1174061.0,10.0556,7.106,19.6516,-0.7923,-2.842,-0.6444
1174071.0,10.4387,7.0868,19.4218,-0.8083,-2.4179,-0.5124
1174081.0,11.2049,7.3167,19.4026,-0.738,-1.8097,-0.3634
1174091.0,11.1953,6.8283,19.8527,-0.481,-1.1903,-0.1628
1174101.0,11.1378,6.2537,19.7186,-0.2187,-0.6396,-0.0372
1174111.0,11.2911,6.79,19.1919,0.1666,-0.0048,0.083
1174121.0,11.3485,8.1594,17.267,0.4092,0.9104,0.2677
1174131.0,11.0612,9.7971,16.6541,0.323,2.0066,0.6247
1174141.0,10.6973,9.7396,18.7801,0.3251,3.272,1.0791
1174151.0,9.8354,9.2129,21.4329,0.1905,4.2053,1.5208
1174161.0,8.4851,7.9679,25.1774,-0.1958,4.5847,1.8741
1174171.0,8.0349,7.2975,29.305,-0.3384,4.7321,2.2274
1174181.0,8.0732,6.9911,31.6513,-0.4688,4.6682,2.6074
1174191.0,6.5793,5.1523,34.5148,-0.0851,4.5453,3.0187
1174201.0,7.9104,3.7637,33.538,0.796,4.8321,3.3342
1174211.0,7.5657,2.7294,32.5133,1.2851,5.4941,3.5492
1174221.0,6.8474,1.9345,32.8484,1.7065,6.2172,3.6833
1174231.0,6.7708,2.2601,33.6721,1.6724,6.8541,3.7647
1174241.0,6.1962,2.2793,36.3248,1.3154,7.257,3.828
1174251.0,5.3534,2.1548,38.7382,0.8375,7.2947,3.8834
1174261.0,5.0661,1.6664,41.525,0.4699,7.1202,3.9265
1174271.0,4.4819,0.8523,43.2106,0.4033,7.0877,3.9589
1174281.0,3.6966,0.1437,44.6662,0.6236,7.1995,3.9978
1174291.0,2.9018,-0.4884,46.6103,1.0046,7.3336,3.9589
1174301.0,2.1069,-1.2163,48.4682,1.4181,7.3006,3.9195
1174311.0,1.81,-1.2163,49.2056,1.7879,7.0425,3.7839
1174321.0,1.81,-0.4501,49.0428,1.5431,6.62,3.5721
1174331.0,1.1205,-0.0575,48.8226,0.9876,6.023,3.3704
1174341.0,0.8619,1.063,46.2368,0.2975,5.5106,3.1975
1174351.0,-0.0383,1.4844,43.9863,-0.5779,5.3695,3.0463
1174361.0,-1.0056,1.743,43.5936,-1.0967,5.535,2.9687
1174371.0,-1.9154,2.6528,43.2967,-1.3601,5.9863,2.9421
1174381.0,-3.1316,3.5051,44.6567,-1.3415,6.4572,3.065
1174391.0,-4.3287,3.7637,46.8402,-1.2521,6.8164,3.2943
1174401.0,-5.3056,2.9305,49.129,-0.9514,6.9004,3.5348
1174411.0,-6.0813,2.2122,49.9335,-0.9684,6.7919,3.6428
1174421.0,-7.0581,1.7813,50.6038,-1.0275,6.5439,3.6881
1174431.0,-8.1786,1.6376,49.3301,-1.3457,6.4125,3.6838
1174441.0,-9.9695,1.4557,48.6885,-1.6868,6.4646,3.6524
1174451.0,-10.8888,1.6472,49.0045,-1.8911,6.8871,3.6418
1174461.0,-11.9519,2.2793,51.2742,-2.1114,7.2431,3.6013
1174471.0,-13.2447,2.6911,55.4114,-2.5392,7.0297,3.6349
1174481.0,-13.4841,3.9073,58.9069,-2.9846,6.3657,3.7173
1174491.0,-13.5799,5.0853,60.7361,-3.4406,5.3717,3.9014
1174501.0,-14.3844,5.1811,62.3929,-4.0457,4.2468,4.1707
1174511.0,-15.0164,3.9169,63.0345,-4.3607,3.1607,4.4958
1174521.0,-15.1314,1.7142,63.0633,-4.1851,2.2173,4.7635
1174531.0,-15.1122,-0.5746,61.598,-3.8775,1.3478,4.8731
1174541.0,-15.0547,-2.0399,60.0466,-3.5604,0.6923,4.8742
1174551.0,-14.4993,-2.5953,58.0929,-3.2156,0.1761,4.8619
1174561.0,-13.8385,-3.055,56.3308,-3.1804,-0.298,4.8401
1174571.0,-13.3022,-3.5051,54.1856,-3.4076,-0.7599,4.7997
1174581.0,-13.1011,-4.118,51.9925,-3.9967,-1.1669,4.781
1174591.0,-13.2064,-5.2289,50.6038,-4.7816,-1.508,4.7177
1174601.0,-12.4307,-7.2688,51.2072,-5.1493,-1.7086,4.6698
1174611.0,-14.1354,-10.9271,54.6357,-4.715,-1.8305,4.4703
1174621.0,-13.4458,-12.2775,55.0858,-3.6551,-2.0422,4.3165
1174631.0,-12.5073,-14.3269,56.5702,-2.7585,-2.5424,4.0786
1174641.0,-11.0133,-14.4706,55.1241,-2.0071,-3.2065,3.7583
1174651.0,-9.6055,-13.3788,52.5288,-2.1221,-3.8328,3.43
1174661.0,-10.8218,-13.0915,52.4809,-2.1625,-4.6022,3.1373
1174671.0,-10.1514,-11.0708,48.3246,-2.5201,-5.2615,3.073
1174681.0,-9.6343,-11.9519,47.4435,-2.9883,-5.8703,3.09
1174691.0,-8.9926,-13.6757,45.1259,-3.1969,-6.3156,3.057
1174701.0,-8.2361,-16.0986,43.5936,-3.2235,-6.6323,2.9053
1174711.0,-7.2975,-18.0523,41.5442,-2.8569,-6.8717,2.6632
1174721.0,-6.3973,-19.01,38.6424,-2.5068,-6.968,2.3487
1174731.0,-5.296,-19.2877,36.1716,-2.0843,-6.8605,2.0055
1174741.0,-4.4149,-18.2055,33.5571,-1.5532,-6.554,1.7741
1174751.0,-4.1851,-17.6979,32.1589,-1.0243,-6.2582,1.532
1174761.0,-3.0742,-15.8688,29.0656,-0.9743,-6.006,1.3367
1174771.0,-2.6336,-14.9207,27.5908,-1.4755,-5.9474,1.177
1174781.0,-1.992,-14.8919,27.1311,-1.4766,-5.6702,1.0802
1174791.0,-0.8045,-15.1122,24.5262,-1.4037,-5.2477,1.0323
1174801.0,-0.7853,-16.8456,25.9436,-0.7662,-4.6241,0.8732
1174811.0,0.0192,-16.8169,23.2429,0.0112,-3.9451,0.696
1174821.0,1.6759,-17.1712,22.3523,0.1091,-3.1741,0.4523
1174831.0,2.806,-17.5926,22.8311,0.4534,-2.5116,0.1245
1174841.0,3.4764,-16.4913,22.7832,0.4124,-1.9991,-0.2533
1174851.0,3.1987,-15.2846,23.5781,0.1969,-1.7895,-0.5875
1174861.0,2.8922,-13.9055,23.1854,0.1282,-1.6192,-0.821
1174871.0,2.1165,-12.6127,22.2661,0.1187,-1.2632,-0.9376
1174881.0,2.5187,-12.22,22.0075,0.4135,-0.5465,-0.9573
1174891.0,3.3327,-12.8042,22.5821,0.8838,0.3134,-0.9951
1174901.0,3.0358,-12.9383,24.0857,1.4112,0.9078,-1.0972
1174911.0,3.1412,-12.22,24.6794,1.6644,1.367,-1.1664
1174921.0,4.4245,-11.9327,25.752,1.7384,1.64,-1.1903
1174931.0,2.9018,-11.9997,25.934,1.6964,1.5213,-1.3058
1174941.0,4.1372,-12.3828,25.1391,1.2914,1.5218,-1.4793
1174951.0,3.869,-14.3748,25.4552,1.59,1.7586,-1.7804
1174961.0,3.9744,-13.3022,22.9939,1.6735,2.1891,-2.1226
1174971.0,3.7924,-13.6469,23.5877,1.6017,2.7313,-2.4914
1174981.0,3.2561,-12.4403,22.6108,1.8044,3.4039,-2.8048
1174991.0,2.0111,-11.2719,22.5246,1.5905,4.2127,-3.1161
1175001.0,1.81,-9.8928,24.2197,1.4346,4.8742,-3.3406
1175011.0,0.4501,-8.4755,26.3075,0.9919,5.2621,-3.5194
1175021.0,-0.6991,-7.7955,29.2093,0.9206,5.4158,-3.6285
1175031.0,-1.8387,-6.3398,29.3338,0.9333,5.5936,-3.7099
1175041.0,-3.237,-5.3917,29.6306,0.8998,5.9373,-3.6514
1175051.0,-4.4532,-5.6599,30.6745,1.1536,6.5386,-3.546
1175061.0,-5.0278,-5.9568,31.9482,1.4372,7.2484,-3.5433
1175071.0,-6.1483,-5.4971,34.9266,1.6708,7.8375,-3.6056
1175081.0,-7.1443,-4.0318,38.0391,1.8294,8.0477,-3.5609
1175091.0,-8.169,-3.4764,42.2624,1.6889,7.8625,-3.4561
1175101.0,-8.9256,-4.118,45.2504,1.6049,7.1963,-3.3773
1175111.0,-9.2703,-4.6352,45.9782,1.442,6.446,-3.3821
1175121.0,-9.5577,-5.3917,45.9016,1.3526,6.1071,-3.4907
1175131.0,-10.2759,-6.0908,46.3517,1.5942,6.064,-3.6412
1175141.0,-11.1091,-5.5258,46.9072,2.0231,6.2098,-3.803
1175151.0,-11.6837,-4.0797,47.7021,2.3189,6.2486,-3.8647
1175161.0,-12.5935,-2.7869,49.8664,2.3328,5.9958,-3.8328
1175171.0,-12.8042,-2.0016,51.8967,2.105,5.3376,-3.7397
1175181.0,-12.7946,-2.5379,51.868,1.7597,4.4799,-3.6945
1175191.0,-12.3828,-3.2944,50.69,1.3883,3.8371,-3.7413
1175201.0,-12.6031,-4.1276,49.3876,1.193,3.6354,-3.8823
1175211.0,-12.8233,-4.7788,49.4738,1.2787,3.5582,-4.0494
1175221.0,-13.8193,-4.5011,49.4163,1.375,3.3523,-4.1797
1175231.0,-13.7619,-3.2178,49.5791,1.1483,3.0437,-4.2569
1175241.0,-14.1928,-2.7869,50.2495,0.9732,2.5499,-4.2202
1175251.0,-14.0204,-3.2082,49.1003,0.6902,2.038,-4.2298
1175261.0,-13.3118,-4.2042,47.2041,0.6008,2.0268,-4.3027
1175271.0,-13.1106,-4.6831,46.3039,0.7082,2.3557,-4.4485
1175281.0,-13.8864,-4.5681,46.7827,0.7487,2.6419,-4.6517
1175291.0,-14.461,-3.3519,47.9415,0.9115,2.7388,-4.838
1175301.0,-15.457,-1.3216,49.3206,0.986,2.5956,-4.897
1175311.0,-16.5583,0.1149,50.623,1.0254,2.3168,-4.8396
1175321.0,-16.5775,0.4118,51.303,1.2483,2.0215,-4.6597
1175331.0,-16.4338,0.498,51.6764,1.4963,1.7618,-4.5059
1175341.0,-16.3763,0.565,51.303,1.4404,1.4074,-4.4
1175351.0,-16.1465,0.5076,50.4315,1.1408,1.0057,-4.3862
1175361.0,-15.8209,0.5842,50.5943,0.6742,0.6385,-4.4075
1175371.0,-16.1561,0.3735,51.0827,0.1719,0.2176,-4.49
1175381.0,-16.022,0.9098,52.7107,-0.0335,-0.2778,-4.5496
1175391.0,-16.3763,2.4804,52.9214,0.1266,-0.8248,-4.4517
1175401.0,-16.5487,3.3998,51.8297,0.3315,-1.1834,-4.2117
1175411.0,-16.4242,3.8211,50.69,0.7482,-1.4144,-3.8653
1175421.0,-15.5336,3.6009,49.0907,0.8695,-1.6267,-3.5534
1175431.0,-15.0356,2.1931,48.0851,0.8003,-1.8337,-3.3731
1175441.0,-14.1641,1.5514,46.8306,0.547,-2.1034,-3.3193
1175451.0,-13.5225,1.2929,46.0166,0.0223,-2.3732,-3.3385
1175461.0,-12.9478,1.0534,45.2791,-0.2964,-2.5791,-3.3651
1175471.0,-12.6127,1.8387,45.2983,-0.3347,-2.626,-3.3188
1175481.0,-12.0189,2.241,45.4611,-0.124,-2.6818,-3.1895
1175491.0,-11.5688,2.624,44.446,0.1123,-2.7585,-2.9655
1175501.0,-10.6015,2.0207,43.2584,0.2219,-2.7484,-2.7494
1175511.0,-10.2089,0.9481,42.8562,0.1788,-2.7383,-2.6473
1175521.0,-9.1746,-0.1245,42.5402,-0.1554,-2.9005,-2.6579
1175531.0,-8.5234,-1.0822,42.4061,-0.6476,-3.1075,-2.8516
1175541.0,-7.7189,-1.5993,42.9232,-0.7966,-3.1698,-3.1022
1175551.0,-7.1251,-0.7566,44.0916,-0.4108,-3.3332,-3.2837
1175561.0,-7.2401,1.1971,42.4731,-0.2043,-3.455,-3.3587
1175571.0,-6.6559,2.3942,41.1803,-0.1937,-3.4646,-3.3576
1175581.0,-6.3303,3.2848,40.6919,-0.274,-3.3736,-3.3034
1175591.0,-6.292,4.0701,40.529,-0.4784,-3.2161,-3.273
1175601.0,-6.2058,4.549,41.5729,-0.3336,-3.1262,-3.1368
1175611.0,-6.3973,5.1236,42.6168,-0.0442,-3.0522,-2.9373
1175621.0,-6.8187,5.6886,44.2257,0.6093,-3.207,-2.6611
1175631.0,-6.6176,7.039,42.4444,1.1185,-3.3832,-2.2753
1175641.0,-6.0047,7.6902,41.1803,1.2244,-3.4736,-1.8826
1175651.0,-5.3439,7.6327,39.9161,1.1121,-3.471,-1.491
1175661.0,-4.616,6.9623,39.1308,0.7801,-3.4758,-1.1621
1175671.0,-3.9935,5.9089,38.3551,0.472,-3.5247,-0.9248
1175681.0,-3.3902,5.1427,38.4605,0.0724,-3.6056,-0.7625
1175691.0,-2.7677,4.6926,38.0103,-0.2889,-3.7328,-0.6151
1175701.0,-2.5187,3.6105,37.7709,-0.4959,-3.7844,-0.5002
1175711.0,-2.2793,2.739,37.8858,-0.5018,-3.853,-0.4145
1175721.0,-1.7526,2.7773,36.7941,-0.4017,-3.9632,-0.3113
1175731.0,-1.8292,2.1739,36.2099,-0.2373,-3.8855,-0.1719
1175741.0,-1.4557,1.5036,35.9418,0.2373,-3.8062,-0.0362
1175751.0,-0.6512,1.5514,34.0934,0.5422,-3.6439,0.1006
1175761.0,0.1053,1.2163,32.5133,0.7003,-3.3773,0.2097
1175771.0,1.2546,1.5802,30.7703,0.6002,-2.9958,0.2469
1175781.0,1.3599,1.7909,30.052,0.3347,-2.5951,0.281
1175791.0,2.1739,2.3463,29.305,-0.049,-2.245,0.3288
1175801.0,2.3463,2.4517,29.42,-0.5321,-1.922,0.4049
1175811.0,2.2793,2.4229,30.2244,-0.8365,-1.6245,0.5076
1175821.0,2.1261,1.7526,31.9099,-0.6486,-1.3611,0.6646
1175831.0,2.3846,1.494,31.7567,-0.34,-1.1653,0.8046
1175841.0,2.6432,1.1875,32.044,0.0516,-0.9466,0.944
1175851.0,3.2561,1.1396,30.8852,0.3837,-0.5715,1.0653
1175861.0,4.0989,1.3408,29.6881,0.4177,-0.1447,1.127
1175871.0,3.9552,1.6281,29.9084,0.199,0.1767,1.1797
1175881.0,3.5243,2.0399,29.8318,-0.3246,0.3507,1.2356
1175891.0,3.0167,2.3367,29.9563,-0.8631,0.4826,1.26
1175901.0,2.8539,2.7773,30.1478,-1.1105,0.629,1.3494
1175911.0,2.4038,3.8116,30.5309,-1.1526,0.8939,1.5415
1175921.0,1.9345,3.9073,30.1669,-1.0115,1.3079,1.8289
1175931.0,2.1356,3.9169,30.3297,-0.9062,1.8794,2.1668
1175941.0,2.3272,2.9592,31.5268,-0.7662,2.4355,2.4908
1175951.0,2.1931,2.0111,33.0687,-0.5827,2.7915,2.7457
1175961.0,1.8771,0.9768,34.2658,-0.605,2.9213,2.9005
1175971.0,1.4269,0.2298,34.7447,-0.7737,2.9442,2.9777
1175981.0,0.8811,-0.1628,35.3863,-0.9088,2.9857,3.0602
1175991.0,-0.7566,-0.929,35.4055,-0.9786,3.1161,3.1224
1176001.0,-1.0918,-1.7813,35.8939,-0.7386,3.4055,3.1528
1176011.0,-1.6664,-2.5379,35.7406,-0.5098,3.794,3.1224
1176021.0,-2.0016,-3.2848,36.9761,-0.5348,4.0973,2.9931
1176031.0,-1.9441,-3.8116,38.3072,-0.6625,4.2361,2.7696
1176041.0,-2.5091,-3.4764,39.9544,-0.9514,4.2271,2.4935
1176051.0,-3.3902,-2.1356,40.7876,-1.3244,3.994,2.2806
1176061.0,-4.3862,-0.3735,41.5538,-1.7698,3.7902,2.2306
1176071.0,-5.114,0.747,42.7604,-1.9039,3.7466,2.3636
1176081.0,-6.177,1.1301,43.3063,-1.9539,3.6934,2.5392
1176091.0,-6.9528,1.4365,44.1395,-2.1354,3.571,2.7095
1176101.0,-7.3933,1.8962,45.1642,-2.2375,3.3864,2.9181
1176111.0,-7.9871,2.49,46.3709,-2.2248,3.1517,3.2108
1176121.0,-8.6574,2.1931,46.5145,-1.9555,2.9564,3.5492
1176131.0,-8.6862,1.8771,45.7388,-1.6905,2.8995,3.9004
1176141.0,-9.0692,0.6895,44.762,-1.5756,2.9463,4.1595
1176151.0,-9.2991,-0.498,44.6183,-1.5437,3.0905,4.3404
1176161.0,-9.481,-1.0439,44.331,-1.7634,3.1363,4.4591
1176171.0,-9.7875,-1.6281,45.5569,-2.1183,3.0341,4.5261
1176181.0,-10.0652,-1.743,46.3517,-2.3434,2.8,4.632
1176191.0,-10.477,-2.5474,46.7635,-2.6643,2.5488,4.764
1176201.0,-10.726,-4.3862,48.1235,-2.6281,2.27,4.8204
1176211.0,-10.6877,-6.0142,48.0564,-2.4371,2.1151,4.7997
1176221.0,-10.7452,-6.6846,47.7883,-2.2508,1.9582,4.7023
1176231.0,-10.7164,-6.6559,47.8553,-2.2093,1.7634,4.5836
1176241.0,-10.9942,-6.359,47.6638,-2.1572,1.4755,4.5171
1176251.0,-10.9654,-5.8227,46.8593,-2.2439,1.2755,4.4948
1176261.0,-11.4634,-6.2824,47.1754,-2.2168,1.06,4.582
1176271.0,-11.7507,-7.8913,47.2903,-2.014,0.854,4.6714
1176281.0,-12.0189,-10.3334,47.137,-1.7384,0.6774,4.6741
1176291.0,-11.1187,-14.0779,47.635,-1.4383,0.5518,4.4969
1176301.0,-9.7013,-17.6884,49.0428,-0.9844,0.306,4.0121
1176311.0,-9.6343,-18.1672,48.4395,-0.6024,-0.3906,3.347
1176321.0,-8.9735,-17.3723,46.8976,-0.5837,-0.9679,2.685
1176331.0,-9.0118,-15.3133,44.4747,-0.6795,-1.4351,2.1769
1176341.0,-10.1993,-13.1011,41.4867,-0.9599,-1.6511,1.9145
1176351.0,-10.2663,-11.7603,39.0351,-1.11,-1.5,1.8124
1176361.0,-10.0269,-11.157,36.9761,-1.318,-1.0504,1.7847
1176371.0,-10.6111,-10.9846,37.1101,-1.4926,-0.4571,1.7922
1176381.0,-11.7507,-11.3677,38.8148,-1.3643,0.249,1.8305
1176391.0,-11.9519,-12.6318,43.6702,-0.7125,0.9722,1.8906
1176401.0,-11.9519,-13.4554,49.2439,0.4837,1.1095,1.9103
1176411.0,-12.0285,-13.0436,51.3413,1.1515,0.4645,1.8624
1176421.0,-11.9902,-12.0668,51.7626,1.1717,-0.3022,1.8502
1176431.0,-12.1242,-12.1817,51.6669,1.0786,-0.8865,1.8299
1176441.0,-12.038,-12.7276,51.0731,0.8876,-1.2936,1.7751
1176451.0,-11.6167,-13.0628,50.7092,0.7764,-1.7576,1.6942
1176461.0,-10.8984,-13.0628,50.3165,0.4805,-2.2322,1.5128
1176471.0,-10.3717,-12.9478,51.2838,0.2735,-2.7532,1.3393
1176481.0,-10.2951,-12.6127,50.6805,-0.0016,-3.363,1.1462
1176491.0,-9.9216,-13.0149,50.6134,-0.3406,-4.126,0.8982
1176501.0,-8.9926,-13.1873,49.56,-0.3182,-4.8087,0.6417
1176511.0,-8.3222,-11.8369,46.4858,-0.0788,-5.2078,0.4358
1176521.0,-7.4124,-9.979,43.5649,0.2155,-5.1886,0.3374
1176531.0,-6.8761,-8.1116,40.9408,0.5124,-4.9976,0.381
1176541.0,-6.1962,-6.541,39.6671,0.7263,-4.69,0.5406
1176551.0,-6.608,-5.794,38.6807,0.6891,-4.5251,0.7726
1176561.0,-6.3303,-7.2113,38.2115,0.5465,-4.483,0.928
1176571.0,-4.8459,-8.5234,37.9433,0.4555,-4.4655,0.9248
1176581.0,-3.9073,-9.912,37.5315,0.3299,-4.4309,0.7769
1176591.0,-3.1603,-10.6494,36.2291,0.1905,-4.3995,0.5577
1176601.0,-2.8156,-10.2759,35.9034,-0.0138,-4.3027,0.3028
1176611.0,-2.4804,-10.1706,35.4725,0.0974,-4.1622,0.1235
1176621.0,-2.4804,-9.4906,34.9937,0.381,-3.9563,-0.0096
1176631.0,-2.3367,-8.9256,35.2522,0.8668,-3.6977,-0.0569
1176641.0,-2.3846,-8.0254,34.1317,1.3287,-3.4821,0.0085
1176651.0,-2.4517,-7.8817,32.475,1.3351,-3.438,0.0271
1176661.0,-1.1779,-7.7764,31.3736,0.8812,-3.3853,0.0223
1176671.0,-0.182,-9.232,30.6554,0.3326,-3.3465,-0.0548
1176681.0,1.0726,-11.0899,29.7743,-0.1208,-3.2948,-0.257
1176691.0,2.2793,-12.2104,29.0943,-0.4236,-3.0777,-0.58
1176701.0,3.2178,-12.7084,28.2803,-0.3975,-2.5467,-0.8971
1176711.0,3.3423,-12.3445,28.9315,-0.05,-1.938,-1.1866
1176721.0,3.122,-11.3964,28.7496,0.3395,-1.4963,-1.4085
1176731.0,3.2657,-9.9599,28.8741,0.4704,-1.2148,-1.5692
1176741.0,3.304,-8.7436,28.0122,0.448,-0.9924,-1.6714
1176751.0,3.6009,-7.6423,27.1215,0.2107,-0.7705,-1.6708
1176761.0,4.3766,-8.0637,25.5797,-0.1905,-0.4033,-1.6889
1176771.0,5.0182,-9.6534,24.9763,-0.4597,0.1687,-1.7985
1176781.0,5.1906,-10.5919,24.8327,-0.5055,0.9764,-1.9965
1176791.0,5.1427,-11.1282,25.752,-0.423,1.9151,-2.2173
1176801.0,4.4053,-11.3772,28.2228,-0.017,2.7281,-2.4344
1176811.0,3.4477,-10.6207,31.1438,0.6039,3.4114,-2.5962
1176821.0,2.5283,-10.0461,32.9251,1.2441,3.8275,-2.6882
1176831.0,1.7813,-10.0844,33.7774,1.4096,3.9062,-2.8016
1176841.0,1.6185,-11.3294,34.3616,1.1557,3.9302,-3.0926
1176851.0,1.8866,-12.22,35.3767,0.9817,4.0393,-3.562
1176861.0,1.3791,-11.5401,35.8268,0.7913,4.3277,-4.0212
1176871.0,-0.0862,-10.4004,36.9952,0.6407,4.6618,-4.4548
1176881.0,-1.5036,-8.5042,38.9968,0.3954,4.8757,-4.747
1176891.0,-2.6528,-6.2345,41.7453,0.2102,4.8401,-4.8742
1176901.0,-3.8403,-4.0414,44.1778,-0.0516,4.4304,-4.8188
1176911.0,-5.3151,-3.984,46.256,-0.1937,3.6694,-4.6049
1176921.0,-4.3574,-5.3056,44.264,-0.1389,2.9484,-4.4894
1176931.0,-3.553,-6.7804,41.1803,-0.0218,2.9075,-4.5517
1176941.0,-3.6679,-7.9296,38.5562,0.3485,3.5673,-4.7177
1176951.0,-4.4149,-7.7764,37.7709,0.8152,4.5464,-4.9726
1176961.0,-5.8035,-6.8187,40.7972,1.3601,5.402,-5.1822
1176971.0,-7.288,-4.2138,43.8043,1.8917,5.8101,-5.2844
1176981.0,-8.3318,-1.8771,46.8306,2.047,5.7245,-5.2418
1176991.0,-8.7915,-0.7278,49.3972,2.0619,5.2408,-5.1211
1177001.0,-8.849,-0.6033,50.058,1.7751,4.581,-5.0364
1177011.0,-8.5234,-1.0343,50.0292,1.3223,4.0696,-5.079
1177021.0,-8.3701,-0.4693,49.5312,1.1451,3.9238,-5.1338
1177031.0,-8.8873,0.3926,50.6805,1.0648,3.9696,-5.1514
1177041.0,-9.9024,1.4365,52.7203,1.0334,3.8419,-5.1147
1177051.0,-11.0804,2.4517,54.9996,0.9477,3.372,-4.9854
1177061.0,-11.4251,2.988,56.2159,0.9301,2.7404,-4.7789
1177071.0,-11.9614,2.9305,56.2925,0.8849,2.0433,-4.6171
1177081.0,-12.0668,2.3942,55.8902,0.9078,1.5075,-4.4846
1177091.0,-11.8178,2.0494,54.9134,1.0594,1.201,-4.408
1177101.0,-11.6837,1.9345,53.6205,0.9865,0.9573,-4.4059
1177111.0,-11.4826,1.992,53.1992,0.6822,0.7423,-4.4405
1177121.0,-11.5305,2.5474,52.9406,0.2118,0.5023,-4.4948
1177131.0,-12.0093,3.5626,54.4825,-0.2464,0.1745,-4.4958
1177141.0,-12.1242,4.2138,56.7234,-0.4017,-0.2841,-4.375
1177151.0,-12.5456,4.6639,58.5239,-0.1373,-0.8524,-4.1664
1177162.0,-12.5839,4.7501,58.3036,0.4539,-1.5532,-3.8695
1177171.0,-12.287,4.4053,56.5319,0.8429,-2.0912,-3.5981
1177181.0,-11.4539,3.8499,53.5056,1.0153,-2.4546,-3.438
1177191.0,-10.3525,3.3615,50.9295,0.7072,-2.6664,-3.3874
1177201.0,-9.5193,3.4764,48.6885,-0.0287,-2.7702,-3.4843
1177211.0,-9.2799,3.6488,48.0851,-1.2084,-2.9346,-3.5992
1177221.0,-8.7819,3.553,49.8473,-2.5004,-3.1065,-3.7147
1177231.0,-9.2512,2.4708,55.9764,-2.635,-3.4545,-3.7365
1177241.0,-8.8681,2.9305,59.788,-1.5713,-4.3277,-3.5705
1177251.0,-8.7915,3.4093,58.8207,-0.5912,-5.2727,-3.2916
1177261.0,-7.9296,3.802,54.9134,0.158,-6.0592,-3.0298
1177271.0,-6.7995,3.4572,49.8473,0.232,-6.5189,-2.8511
1177281.0,-6.0142,2.308,45.9399,-0.3225,-6.9105,-2.834
1177291.0,-5.0374,1.8387,40.3471,-1.8667,-7.1878,-3.0224
1177301.0,-3.6871,1.4461,37.9242,-3.9169,-7.315,-3.3789
1177311.0,-3.1987,0.4405,37.723,-5.7154,-7.1872,-3.7471
1177321.0,-2.4995,0.0,42.0422,-6.2278,-7.0457,-3.993
1177331.0,-2.3176,0.6608,45.7867,-5.6872,-6.9409,-4.0116
1177341.0,-2.5474,1.561,49.7036,-3.8025,-7.2979,-3.7136
1177351.0,-1.2929,2.7102,47.1562,-1.9034,-7.5927,-3.2166
1177361.0,0.3256,3.0454,42.6838,-0.4273,-7.631,-2.7186
1177371.0,2.0877,2.9592,36.66,0.1517,-7.3825,-2.3764
1177381.0,3.5147,1.9632,32.4366,-0.3299,-7.076,-2.2876
1177391.0,5.0087,1.5514,30.3681,-1.3957,-6.7371,-2.3823
1177401.0,5.7461,1.3216,32.0536,-2.1684,-6.5237,-2.5696
1177411.0,6.11,2.9497,33.538,-2.2147,-6.52,-2.6223
1177421.0,6.2632,4.5203,34.7734,-1.615,-6.4332,-2.4254
1177431.0,6.4452,6.4643,34.103,-0.4342,-6.3848,-1.9874
1177441.0,7.3741,7.3933,30.4351,0.5002,-6.1257,-1.4495
1177451.0,7.3646,8.1786,28.6921,1.3255,-5.5138,-0.8971
1177461.0,7.3933,8.5042,25.4073,1.7927,-4.7762,-0.34
1177471.0,8.8011,7.8817,24.1048,1.5862,-4.2133,0.1022
1177481.0,8.6191,7.2113,23.8175,1.0105,-3.7721,0.3964
1177491.0,7.9583,6.6942,25.8191,0.8125,-3.5385,0.5736
1177501.0,8.6479,8.4372,25.3402,0.8152,-3.3012,0.8274
1177511.0,9.6534,9.6247,25.2062,0.646,-3.1373,1.1664
1177521.0,11.0995,9.9024,24.3251,0.7077,-2.9197,1.5915
1177531.0,9.6726,10.4866,22.0075,0.4592,-2.5573,2.046
1177541.0,9.8067,9.7683,20.8104,-0.0106,-2.1348,2.4898
1177551.0,10.0269,8.1403,20.1688,-0.6689,-1.6277,2.8463
1177561.0,10.1514,5.5354,21.6819,-0.7476,-1.0014,3.0916
1177571.0,10.0844,3.7637,22.3618,-0.4326,-0.4986,3.2203
1177581.0,10.2759,3.6392,22.7545,-0.2661,-0.2011,3.322
1177591.0,11.1761,4.5873,22.2852,-0.1378,0.2868,3.4683
1177601.0,11.9997,4.8746,22.4576,0.1213,0.8934,3.7227
1177611.0,11.6071,5.2289,22.3714,0.3485,1.4819,4.0297
1177621.0,10.5919,5.5545,21.3084,0.1479,2.0188,4.3553
1177631.0,10.908,4.6064,21.2222,-0.1277,2.6068,4.664
1177641.0,10.0844,3.5626,21.6819,-0.2038,3.3422,4.8891
1177651.0,9.5289,3.2657,22.0554,-0.4736,4.1675,5.1455
1177661.0,9.1075,2.2122,24.2964,-0.6928,5.0013,5.4009
1177671.0,8.0924,1.0343,28.06,-0.4039,5.7867,5.6681
1177681.0,8.1786,0.1149,31.1629,-0.2022,6.305,5.9299
1177691.0,6.1579,-2.375,35.3863,0.2687,6.4843,6.1315
1177701.0,6.0047,-3.3615,36.6504,0.7748,6.7461,6.1576
1177711.0,5.3056,-4.5298,38.3455,0.8205,6.8893,6.1427
1177721.0,3.8499,-5.6982,40.5386,0.7662,6.8392,6.0267
1177731.0,2.241,-5.4109,42.2146,0.6694,6.7052,5.8586
1177741.0,2.5666,-3.869,42.7221,0.6008,6.7302,5.7819
1177751.0,1.4365,-2.6528,43.6894,-0.1942,6.5732,5.8022
1177761.0,0.4501,-2.5857,47.252,-0.6087,6.1475,5.883
1177771.0,-0.4118,-1.3599,47.3669,-0.7982,5.7138,6.0171
1177781.0,-1.6664,-1.6089,47.9894,-1.259,5.162,6.2502
1177791.0,-2.9209,-3.869,49.1769,-1.1962,4.6767,6.4231
1177801.0,-2.6719,-5.8514,48.3246,-0.8434,4.4591,6.5035
1177811.0,-3.3519,-7.7285,48.4203,-0.3549,4.3506,6.4189
1177821.0,-3.869,-7.5561,46.9359,0.1378,4.1936,6.2433
1177831.0,-3.3998,-5.114,44.3789,0.0963,4.1494,6.1321
1177841.0,-4.0223,-3.1699,43.1052,-0.2442,4.2244,6.1661
1177851.0,-5.114,-1.992,42.3965,-0.8157,4.2489,6.3242
1177861.0,-6.8378,-1.8196,43.7756,-1.1254,4.2388,6.5705
1177871.0,-7.853,-2.6624,44.1012,-0.8711,4.3772,6.8871
1177881.0,-8.4084,-5.0661,46.256,-0.0069,4.7911,7.1314
1177891.0,-10.3813,-6.6942,47.7212,1.2776,5.1663,7.2431
1177901.0,-10.228,-6.9049,48.9662,2.6638,5.2982,7.3384
1177911.0,-10.2663,-6.0047,47.386,3.322,5.3291,7.4097
1177921.0,-10.1993,-6.4069,47.4148,3.3023,5.2429,7.4278
1177931.0,-9.7588,-6.1866,48.6598,3.3518,5.1498,7.3623
1177941.0,-9.1937,-5.612,49.3397,3.1027,5.0875,7.3793
1177951.0,-9.7109,-6.7325,51.619,2.8814,4.6693,7.4267
1177961.0,-9.7013,-8.7915,52.2319,2.5275,3.9382,7.3299
1177971.0,-9.8641,-11.6741,51.4083,1.7432,3.0602,6.9952
1177981.0,-9.6151,-14.5376,48.8034,0.7487,2.4844,6.3806
1177991.0,-9.4044,-16.2135,48.8034,-0.2049,2.2902,5.5702
1178001.0,-9.7588,-15.6964,51.1306,-0.4528,2.0864,4.7741
1178011.0,-10.2472,-12.9861,52.4426,-0.4278,1.7522,4.2154
1178021.0,-11.2432,-10.2472,53.0459,-0.2645,1.3457,3.9488
1178031.0,-11.3389,-8.2744,52.3085,0.009,1.1307,3.8754
1178041.0,-11.5496,-7.604,53.0938,0.1708,1.1568,3.8924
1178051.0,-11.6741,-8.2839,55.7657,0.5428,1.2047,3.8599
1178061.0,-11.7699,-7.8434,59.1847,1.0924,0.9738,3.8089
1178071.0,-13.4746,-7.5848,61.4544,0.696,-0.2565,3.7349
1178081.0,-13.7906,-8.0828,60.6403,0.0537,-2.0321,3.571
1178091.0,-13.1011,-8.2265,55.5934,-0.6694,-3.1772,3.2794
1178101.0,-12.9383,-8.4563,52.6341,-1.2201,-3.653,2.9878
1178111.0,-12.4115,-8.2265,49.56,-1.1877,-3.8014,2.7734
1178121.0,-11.8944,-7.7476,47.6925,-1.3734,-3.6524,2.5919
1178131.0,-11.6837,-7.039,48.0947,-1.0382,-3.5338,2.5472
1178141.0,-10.6398,-5.8514,47.3286,-0.6651,-3.3731,2.5962
1178151.0,-11.2527,-6.5218,48.1522,-0.6433,-3.3912,2.701
1178161.0,-10.2855,-7.671,49.7898,-0.1974,-3.6705,2.7617
1178171.0,-10.1706,-8.3414,48.2863,0.3427,-4.0105,2.7814
1178181.0,-9.5864,-9.1171,45.2887,0.4619,-4.4128,2.6797
1178191.0,-8.4755,-9.8258,42.7796,0.3507,-4.5022,2.4568
1178201.0,-7.6327,-10.3525,40.395,0.2214,-4.3623,2.1769
1178211.0,-6.7038,-10.1514,39.0638,-0.2256,-4.1095,1.848
1178221.0,-5.9472,-9.8545,39.8395,-0.4353,-3.9903,1.5399
1178231.0,-5.861,-9.0501,39.6671,-0.7806,-3.9062,1.3159
1178241.0,-7.0868,-9.7396,42.3965,-0.5454,-4.0329,1.177
1178251.0,-6.6655,-9.8162,40.9408,0.3954,-4.1861,1.1217
1178261.0,-6.3303,-10.1706,38.1923,0.9285,-4.052,1.0477
1178271.0,-5.3056,-10.7452,35.9513,1.3425,-3.8163,0.8258
1178281.0,-4.2521,-9.6726,32.5324,1.1217,-3.4944,0.5694
1178291.0,-3.4381,-8.6574,31.3162,0.5513,-3.181,0.3767
1178301.0,-1.9632,-8.3222,30.4638,-0.0335,-2.7303,0.2352
1178311.0,-1.0247,-9.3087,31.3736,-0.6188,-2.278,0.1628
1178321.0,-0.2873,-11.5879,33.787,-0.6987,-1.9305,-0.0777
1178331.0,0.6321,-11.5879,34.783,-0.5507,-1.6793,-0.3757
1178341.0,0.6225,-11.2144,35.8939,-0.5853,-1.8299,-0.5859
1178351.0,0.996,-11.655,36.8037,-0.282,-1.9614,-0.8062
1178361.0,1.6089,-11.5975,35.166,0.3379,-1.872,-0.994
1178371.0,2.241,-11.4922,33.2698,0.6859,-1.5245,-1.1919
1178381.0,2.7581,-11.8561,32.4175,0.92,-1.0632,-1.4229
1178391.0,3.2944,-11.6358,32.2738,0.9775,-0.6407,-1.7214
1178401.0,3.5051,-11.2815,32.475,0.6635,-0.4023,-2.0465
1178411.0,3.553,-11.1187,34.1126,0.1527,-0.4459,-2.4328
1178421.0,3.6966,-10.343,34.6393,-0.4651,-0.7125,-2.8308
1178431.0,3.2753,-9.3948,34.8596,-0.9179,-0.9982,-3.165
1178441.0,2.6719,-8.6383,34.8787,-0.8769,-1.1318,-3.3912
1178451.0,3.1029,-8.1307,33.2698,-0.4427,-1.0121,-3.5045
1178461.0,3.6296,-8.0924,31.364,0.0937,-0.5342,-3.6679
1178471.0,3.9073,-7.3741,29.9467,0.7253,0.2794,-3.8711
1178481.0,3.553,-6.0717,30.052,1.0908,1.0695,-4.0185
1178491.0,2.7007,-4.6256,30.9331,1.1669,1.6405,-4.1499
1178501.0,2.1548,-3.4477,32.1015,0.9993,1.9475,-4.2665
1178511.0,1.4365,-2.2601,33.4709,0.6843,2.1652,-4.2899
1178521.0,0.6991,-1.7047,35.1948,0.3874,2.2907,-4.3224
1178531.0,0.4597,-1.8483,36.9761,0.3688,2.3754,-4.342
1178541.0,-0.1053,-1.5036,39.3798,0.7652,2.544,-4.3649
1178551.0,-0.3256,-0.565,40.3471,1.3505,2.6717,-4.3644
1178561.0,-0.4884,0.8523,41.5059,1.7224,2.693,-4.2851
1178571.0,-0.5555,1.8771,42.5306,1.8592,2.4919,-4.2048
1178581.0,-0.814,2.9305,42.6455,1.6868,2.0364,-4.1015
1178591.0,-0.8236,3.4381,41.027,0.9397,1.5564,-4.0526
1178601.0,-0.8428,3.4955,40.1939,0.1575,1.3319,-4.0031
1178611.0,-1.7334,3.5338,41.276,-0.0367,1.3989,-3.8983
1178621.0,-1.8962,2.873,41.6687,0.3714,1.5117,-3.7094
1178631.0,-1.494,1.7238,42.0805,0.9413,1.7751,-3.5699
1178641.0,-1.3886,1.1875,41.9943,1.5719,2.104,-3.4768
1178651.0,-1.2258,0.9002,43.0573,2.0194,2.3174,-3.479
1178661.0,-1.8866,0.814,43.833,2.0736,2.2056,-3.5678
1178671.0,-1.7909,1.1684,44.1108,1.765,1.9103,-3.6998
1178681.0,-2.375,2.0303,43.7277,1.1973,1.6394,-3.8152
1178691.0,-3.2274,2.4804,44.6471,0.8961,1.4175,-3.8424
1178701.0,-3.0454,3.1987,43.9192,0.655,1.3399,-3.8152
1178711.0,-3.2561,3.1029,44.3502,0.4262,1.4026,-3.7482
1178721.0,-3.1891,2.0973,45.758,0.53,1.4676,-3.6806
1178731.0,-3.62,1.1588,47.501,0.8705,1.3404,-3.6609
1178741.0,-3.3902,0.6704,47.4052,1.2723,1.052,-3.7067
1178751.0,-3.3423,0.2873,46.3805,1.3436,0.7673,-3.8541
1178761.0,-3.5721,1.1301,44.4555,1.119,0.4353,-4.0238
1178771.0,-3.3615,2.1548,41.7453,0.5039,0.3528,-4.1611
1178781.0,-3.6488,2.4517,41.027,0.0974,0.5859,-4.2367
1178791.0,-3.6966,2.9592,40.4429,-0.1117,0.9104,-4.2452
1178801.0,-4.0223,3.1699,40.5482,-0.364,1.3766,-4.2186
1178811.0,-4.2329,2.375,42.2816,-0.2708,1.8267,-4.1526
1178821.0,-4.3287,1.6951,44.2927,-0.1607,2.0438,-4.1526
1178831.0,-4.8171,1.0726,47.252,0.0772,2.0422,-4.1968
1178841.0,-5.2577,0.747,48.5065,0.4507,1.7852,-4.2851
1178851.0,-5.4492,1.0822,48.2671,0.5992,1.4857,-4.3968
1178861.0,-5.6503,2.0399,46.6965,0.5358,1.2898,-4.54
1178871.0,-5.8419,3.237,45.6048,0.166,1.2877,-4.6475
1178881.0,-6.0813,4.0989,45.8442,-0.3677,1.3133,-4.7065
1178891.0,-6.2728,5.1236,47.2903,-0.8189,1.1808,-4.7076
1178901.0,-6.7708,5.6695,49.6653,-1.1776,0.9073,-4.6347
1178911.0,-6.8953,5.2672,51.3891,-1.2095,0.3512,-4.548
1178921.0,-7.0773,4.7405,51.121,-1.118,-0.1777,-4.4692
1178931.0,-7.3933,4.0223,50.4698,-0.8226,-0.5832,-4.4469
1178941.0,-7.1156,4.0893,47.7021,-0.5848,-0.754,-4.5075
1178951.0,-6.6559,5.2289,45.1259,-0.8131,-0.6614,-4.5953
1178961.0,-6.8857,7.1347,44.4747,-1.3,-0.4651,-4.5831
1178971.0,-6.8378,7.9775,45.1068,-1.7315,-0.2873,-4.4804
1178981.0,-6.9432,8.0062,46.3517,-2.0396,-0.2442,-4.3085
1178991.0,-7.3358,7.4508,49.6845,-1.8193,-0.2432,-4.1207
1179001.0,-7.0294,6.6176,52.0308,-1.027,-0.4879,-3.9163
1179011.0,-7.2975,6.6367,51.6286,-0.4635,-0.8514,-3.7578
1179021.0,-7.2209,7.5178,50.2782,-0.1873,-1.1813,-3.6466
1179031.0,-6.9049,8.4276,48.6406,-0.2208,-1.4287,-3.4683
1179041.0,-6.0621,8.7149,47.3477,-0.4438,-1.5766,-3.3071
1179051.0,-5.8323,9.1171,46.639,-0.7934,-1.5703,-3.1607
1179061.0,-5.6216,9.1171,47.252,-1.0057,-1.6283,-2.9804
1179071.0,-5.1906,9.3661,48.315,-1.1387,-1.8172,-2.7643
1179081.0,-5.1427,8.4659,48.9949,-1.1291,-2.1247,-2.543
1179091.0,-4.7884,7.5465,48.5353,-0.9637,-2.5291,-2.3828
1179101.0,-3.8786,6.9432,46.9168,-1.0621,-2.8181,-2.3344
1179111.0,-3.6105,7.0198,45.5281,-1.1366,-2.9687,-2.2391
1179121.0,-3.4572,6.7229,44.1587,-1.1653,-3.0469,-2.1636
1179131.0,-2.873,7.4124,43.3063,-1.2169,-2.9548,-2.0752
1179141.0,-2.9305,7.5369,42.9807,-1.1611,-2.8793,-1.9215
1179151.0,-2.4325,8.0541,42.6359,-1.0967,-2.7893,-1.7272
1179161.0,-2.7102,7.9966,43.3638,-0.8812,-2.7452,-1.4729
1179171.0,-2.2122,7.2496,42.8466,-0.6455,-2.7611,-1.2563
1179181.0,-1.8771,7.1539,42.9041,-0.5608,-2.8021,-1.0967
1179191.0,-1.3408,6.8953,42.6359,-0.39,-2.8798,-0.911
1179201.0,-1.2258,6.4165,42.7221,-0.356,-2.8989,-0.7646
1179211.0,-0.5267,5.9185,42.5498,-0.2464,-2.9048,-0.6561
1179221.0,-0.2298,6.2345,42.9424,-0.2208,-2.8947,-0.5614
1179231.0,-0.067,6.5793,43.6798,-0.2857,-3.0309,-0.4464
1179241.0,0.0192,7.6327,44.6758,-0.4087,-3.3571,-0.3017
1179251.0,-0.2203,8.2648,46.0932,-0.5199,-3.9052,-0.0351
1179261.0,-0.8236,8.169,45.7293,-0.4837,-4.6996,0.2959
1179271.0,-0.3352,7.0964,43.0477,-0.4374,-5.3493,0.6157
1179281.0,0.2969,5.2002,39.5522,-0.356,-5.5728,0.8705
1179291.0,1.4078,2.7102,36.8324,-0.1846,-5.3296,0.9865
1179301.0,2.7294,0.9577,35.1469,0.1399,-4.9226,0.9472
1179311.0,3.6871,0.8523,35.1756,0.4427,-4.4064,0.8072
1179321.0,4.0606,2.0782,35.8268,0.4581,-4.1335,0.7795
1179331.0,4.118,3.0454,37.4932,0.2091,-4.3548,0.837
1179341.0,4.6831,3.3998,36.9665,-0.2134,-4.9151,0.9631
1179351.0,5.4205,2.6911,35.4821,-0.5374,-5.2732,1.0419
1179361.0,6.3398,1.7909,34.7063,-0.4725,-5.2014,1.1196
1179371.0,7.7572,0.5459,34.4382,-0.1229,-4.8726,1.1297
1179381.0,7.8913,-0.2777,35.166,0.415,-4.7268,1.0722
1179391.0,7.9104,0.8045,34.103,0.5672,-4.9992,1.0121
1179401.0,8.9256,2.1165,32.5228,0.4587,-5.2328,1.0227
1179411.0,9.9407,3.1029,29.7551,0.4177,-5.087,1.1744
1179421.0,10.5345,4.0797,27.6004,0.4954,-4.689,1.4138
1179431.0,11.0804,4.3479,26.2883,0.3916,-4.201,1.7246
1179441.0,11.6262,3.1412,25.5701,0.0032,-3.8717,1.9358
1179451.0,11.9806,2.2889,24.8327,-0.4113,-3.7019,2.0119
1179461.0,12.3158,1.8292,23.8175,-0.7907,-3.3688,2.0752
1179471.0,12.5935,1.3408,24.2868,-0.6646,-2.9436,2.1694
1179481.0,12.7372,1.3695,23.0897,-0.299,-2.5142,2.2732
1179491.0,13.149,1.3599,21.4233,-0.0979,-1.9427,2.4078
1179501.0,13.6853,1.3503,20.2166,-0.041,-1.2004,2.543
1179511.0,14.1449,0.9385,18.9717,-0.183,-0.3624,2.6223
1179521.0,14.212,0.2107,20.1209,-0.2852,0.5034,2.6595
1179531.0,14.2311,-0.4884,20.9253,-0.1799,1.3015,2.6792
1179541.0,13.6278,-0.6608,22.3523,-0.2022,1.8869,2.6489
1179551.0,12.8233,-1.0439,23.4536,-0.2767,2.3424,2.6372
1179561.0,12.9,-1.5227,23.1854,-0.3448,2.7739,2.6324
1179571.0,13.0915,-2.4612,23.2429,-0.4496,3.5098,2.5589
1179581.0,13.1106,-2.7869,23.6739,-0.3842,4.4415,2.4908
1179591.0,12.3253,-2.5379,25.6946,-0.2751,5.3137,2.4419
1179601.0,10.9654,-2.8252,28.06,-0.0527,6.0693,2.4573
1179611.0,10.41,-2.8252,31.1917,0.2538,6.6296,2.4839
1179621.0,9.4044,-3.2561,33.787,0.397,6.8201,2.4365
1179631.0,8.4946,-3.8499,36.344,0.365,6.6429,2.3482
1179641.0,8.6095,-3.869,36.3536,0.1133,6.3412,2.2173
1179651.0,8.9256,-3.6296,35.3959,-0.1628,6.5205,2.1002
1179661.0,8.4372,-3.4093,36.1429,-0.3416,7.1841,2.0124
1179671.0,6.5218,-3.7828,39.4948,-0.4943,7.6598,1.9779
1179681.0,4.6639,-3.7158,43.6894,-0.5928,7.5762,1.9342
1179691.0,3.9265,-3.9552,46.9072,-0.3453,7.316,1.9459
1179701.0,4.0031,-4.9512,48.7459,-0.0585,6.9318,1.9592
1179711.0,3.8786,-7.1443,50.4506,-0.1511,6.0177,1.757
1179721.0,4.1468,-8.6383,50.0101,-0.1889,5.0625,1.3133
1179731.0,4.9704,-7.92,47.0508,-0.2783,4.6853,0.8125
1179741.0,4.7788,-5.9089,44.6375,-0.4459,4.6868,0.3395
1179751.0,3.1699,-2.7677,44.1778,-0.7439,4.8486,0.0931
1179761.0,1.7621,-0.0383,45.2121,-0.7231,4.8933,0.1426
1179771.0,0.7183,1.5227,45.7101,-0.5422,4.9412,0.4305
1179781.0,0.0192,1.3408,46.5337,-0.2735,5.0466,0.7035
1179791.0,-0.2873,1.1205,46.505,0.0351,5.1987,0.9259
1179801.0,-1.0343,0.182,46.8785,0.0234,5.3775,1.0823
1179811.0,-1.5706,-0.6895,48.4012,-0.0463,5.4345,1.0977
1179821.0,-2.7677,-0.814,51.0156,-0.1123,5.344,1.0594
1179831.0,-3.4093,-0.1724,53.0076,-0.0341,5.0077,1.0632
1179841.0,-4.3479,-0.2777,53.9557,0.0043,4.6294,1.0972
1179851.0,-4.8076,-0.2586,55.6029,0.2389,4.259,1.1318
1179861.0,-5.1811,0.68,55.8519,0.6476,3.7913,1.1994
1179871.0,-5.9185,1.561,55.0858,0.6635,3.306,1.3095
1179881.0,-6.5697,1.9249,54.3388,0.4278,2.759,1.4261
1179891.0,-6.5793,1.5993,52.4043,-0.0442,2.2647,1.4771
1179901.0,-7.0773,0.747,51.7435,-0.6721,2.0327,1.4984
1179911.0,-7.2975,-0.7566,52.4426,-0.7572,1.9364,1.4692
1179921.0,-7.8338,-0.6895,52.6629,-0.7008,1.9204,1.4207
1179931.0,-7.9296,-0.2394,53.6493,-0.7678,1.782,1.4255
1179941.0,-8.3797,0.0862,55.5263,-0.6848,1.3835,1.5032
1179951.0,-8.7724,0.0096,56.4074,-0.4816,0.9456,1.6075
1179961.0,-8.2744,-0.4118,56.2063,-0.2996,0.4608,1.7193
1179971.0,-8.2169,-1.5514,55.9573,-0.1777,0.0415,1.7336
1179981.0,-8.2744,-2.4995,55.4401,-0.0654,-0.4395,1.6831
1179991.0,-8.2265,-2.8922,53.6588,-0.381,-0.9865,1.59
1180001.0,-7.0868,-4.5394,53.0364,-0.9472,-1.4117,1.4154
1180011.0,-6.2632,-5.3822,52.1744,-1.3303,-1.7645,1.1148
1180021.0,-6.2632,-5.2194,52.0404,-1.7746,-2.1061,0.8306
1180031.0,-6.3015,-4.7788,52.9023,-1.9225,-2.5584,0.6588
1180041.0,-6.0717,-4.5681,53.0747,-1.7123,-3.0075,0.5917
1180051.0,-6.1292,-4.5107,51.9733,-1.2531,-3.3555,0.5779
1180061.0,-5.0757,-4.3,50.2591,-0.7295,-3.4422,0.5672
1180071.0,-4.616,-4.0318,48.6693,-0.4736,-3.4587,0.5566
1180081.0,-4.3766,-3.7637,48.066,-0.4129,-3.6726,0.5295
1180091.0,-4.1372,-2.5857,46.4667,-0.6614,-4.0244,0.5161
1180101.0,-3.735,-2.3655,44.8673,-0.9317,-4.1744,0.5726
1180111.0,-3.3902,-2.241,43.833,-0.9668,-4.1127,0.647
1180121.0,-2.4229,-3.122,42.9616,-1.0243,-3.9573,0.7077
1180131.0,-2.1548,-4.5777,43.5362,-0.994,-3.8589,0.6997
1180141.0,-1.3216,-5.3247,44.6567,-0.7854,-3.9424,0.647
1180151.0,-1.0151,-6.3207,45.26,-0.5268,-4.1989,0.5193
1180161.0,-0.5267,-6.7133,45.1163,-0.2203,-4.5911,0.3773
1180171.0,0.1628,-6.8283,44.2257,-0.0101,-4.9561,0.216
1180181.0,0.814,-6.5505,42.4731,0.1245,-5.2679,0.0357
1180191.0,1.3791,-5.9472,39.8204,-0.0729,-5.5265,-0.166
1180201.0,1.8866,-4.9799,37.838,-0.3049,-5.6186,-0.3203
1180211.0,2.4229,-3.7445,36.1429,-0.5837,-5.593,-0.3193
1180221.0,2.8539,-3.5434,35.8651,-0.8216,-5.5393,-0.3086
1180231.0,3.3902,-3.9552,36.4972,-0.5805,-5.6691,-0.2277
1180241.0,4.3191,-4.7597,34.6202,-0.4427,-5.8288,-0.1532
1180251.0,5.6599,-5.6886,32.1206,-0.3586,-5.8202,-0.2033
1180261.0,6.9432,-5.8993,30.0137,-0.1022,-5.5276,-0.2607
1180271.0,7.1539,-5.7365,27.0066,0.0772,-5.0982,-0.2932
1180281.0,7.9104,-5.8035,25.7329,0.1634,-4.524,-0.3374
1180291.0,9.1363,-5.6503,24.3442,0.3358,-3.9217,-0.3975
1180301.0,9.6917,-5.8227,23.2812,0.472,-3.3119,-0.4496
1180311.0,10.2472,-5.7652,21.7394,0.3773,-2.6723,-0.5374
1180321.0,10.659,-5.9759,21.6149,0.1453,-2.0199,-0.6689
1180331.0,11.3677,-6.1387,21.0498,-0.0447,-1.409,-0.837
1180341.0,11.9327,-5.9855,20.5039,-0.2522,-0.7146,-1.0084
1180351.0,12.0668,-5.2385,21.3275,-0.2373,0.0926,-1.1339
1180361.0,11.8752,-3.9456,22.0267,-0.132,0.9285,-1.1866
1180371.0,11.6358,-3.3327,24.2293,0.0867,1.6368,-1.1611
1180381.0,10.9271,-2.2793,25.5605,0.4007,2.0976,-1.0376
1180391.0,10.3908,-1.5419,25.1391,0.4422,2.3716,-0.911
1180401.0,10.4196,-1.7047,24.938,0.2826,2.7404,-0.7982
1180411.0,10.3142,-2.375,23.7601,0.0686,3.3294,-0.7646
1180421.0,9.7109,-3.1412,24.3634,-0.133,4.1968,-0.7737
1180431.0,9.596,-4.0223,25.9148,-0.1836,5.137,-0.8397
1180441.0,8.0541,-4.8554,28.9698,-0.1485,5.8873,-0.9631
1180451.0,7.5369,-4.5873,32.0919,0.0734,6.3508,-1.085
1180461.0,6.7133,-3.9169,35.2522,0.1719,6.4785,-1.1387
1180471.0,4.9991,-3.8978,37.407,0.0404,6.1954,-1.2042
1180481.0,5.0087,-3.8403,37.8954,-0.1346,6.0161,-1.2851
1180491.0,4.4819,-4.1563,38.1827,-0.2416,6.2119,-1.376
1180501.0,3.5721,-4.3,39.2074,-0.2857,6.6855,-1.5437
1180511.0,2.2697,-3.1699,41.4388,-0.273,7.0297,-1.7022
1180521.0,0.6129,-1.494,44.1012,-0.4491,7.0516,-1.7453
1180531.0,-0.5746,0.6033,46.9072,-0.6635,6.7248,-1.6634
1180541.0,-1.1396,2.1931,50.0005,-0.8583,6.123,-1.4271
1180551.0,-2.1644,3.2753,49.6557,-1.1041,5.2211,-1.1616
1180561.0,-2.6432,3.8786,47.7883,-1.3329,4.7007,-0.8578
1180571.0,-3.1603,4.3479,46.1219,-1.2015,4.9337,-0.4113
1180581.0,-2.8252,1.9728,46.3517,-1.0099,5.5739,0.0096
1180591.0,-3.1603,-1.5993,49.1003,-0.8892,5.8101,0.107
1180601.0,-3.486,-3.371,51.9446,-0.9605,5.5281,0.0117
1180611.0,-3.1987,-4.3,53.4865,-1.0201,4.9609,-0.1261
1180621.0,-3.5051,-4.9033,53.0076,-1.1754,4.391,-0.332
1180631.0,-3.735,-5.0087,51.8584,-1.4489,3.8216,-0.5981
1180641.0,-4.4532,-3.0933,48.4108,-1.831,3.4593,-0.8918
1180651.0,-6.1196,-0.5171,44.3215,-2.4451,3.7067,-0.9344
1180661.0,-6.177,-1.0439,44.3981,-2.6893,4.6916,-0.7737
1180671.0,-6.0525,-5.2002,49.311,-2.1029,5.8022,-0.7311
1180681.0,-7.039,-7.4412,55.5263,-1.3101,6.1603,-0.9605
1180691.0,-7.671,-6.9623,60.7074,-0.7327,5.5547,-1.2372
1180701.0,-8.5234,-5.3439,62.5653,-0.5342,4.6049,-1.4378
1180711.0,-9.165,-3.8499,61.8087,-0.8695,3.6732,-1.5687
1180721.0,-9.414,-2.7869,60.7265,-1.4713,2.834,-1.7166
1180731.0,-9.6822,-1.9441,60.1519,-2.2413,2.1407,-1.8406
1180741.0,-10.8026,-0.8428,59.9508,-2.9069,1.3207,-1.9273
1180751.0,-12.2679,0.0766,58.3802,-3.4231,0.6178,-1.8869
1180761.0,-12.8138,0.1437,57.8056,-3.3619,0.3017,-1.6623
1180771.0,-11.9327,-1.5323,58.1887,-2.7292,0.3735,-1.442
1180781.0,-11.1282,-1.9824,59.2613,-1.9699,0.4225,-1.259
1180791.0,-11.8274,-0.7183,59.6156,-1.6905,-0.0357,-1.0323
1180802.0,-11.7412,-0.6225,59.9508,-2.146,-1.019,-0.7258
1180811.0,-11.6071,-1.8292,60.286,-2.2434,-2.0524,-0.5151
1180821.0,-11.6262,-2.4804,58.1983,-2.1577,-3.0038,-0.3911
1180831.0,-12.0285,-2.4995,54.4441,-1.9954,-3.7354,-0.2927
1180841.0,-11.8848,-2.9113,49.4451,-2.0848,-3.9743,-0.1745
1180851.0,-9.9216,-5.4588,48.4108,-2.0843,-3.6609,-0.1298
1180861.0,-10.0461,-9.5193,49.3301,-1.839,-3.4763,-0.381
1180871.0,-9.5002,-10.3908,51.3125,-1.5181,-3.5385,-0.7184
1180881.0,-9.4236,-10.7164,54.6644,-0.9456,-3.6939,-0.9621
1180891.0,-9.8067,-11.0612,57.8056,-0.1394,-4.1579,-1.2042
1180901.0,-10.4579,-10.7069,60.1711,0.6673,-5.1136,-1.5091
1180911.0,-10.8218,-7.7381,59.8263,1.2345,-6.4487,-1.7198
1180921.0,-12.2009,-5.296,57.9397,1.3441,-7.9939,-1.8166
1180931.0,-11.5113,-1.6759,52.1361,1.3989,-9.1071,-1.7868
1180941.0,-11.6262,1.5993,45.2217,0.4895,-9.6344,-1.5809
1180951.0,-11.4539,2.375,44.7333,-0.025,-9.5557,-1.3021
1180961.0,-10.477,4.9416,44.58,0.3874,-9.1114,-0.7662
1180971.0,-9.7013,4.5011,48.8034,1.1089,-8.8017,-0.0261
1180981.0,-10.5441,3.2848,52.7969,2.685,-9.2806,0.7152
1180991.0,-10.6494,3.6679,53.3811,3.7216,-10.2198,1.358
1181001.0,-10.3334,5.545,49.6653,4.3011,-11.317,2.1433
1181011.0,-10.5058,6.2058,45.8154,3.0384,-12.4142,2.7138
1181021.0,-8.5521,2.3942,45.3558,1.9135,-13.2927,2.9628
1181031.0,-8.2935,3.6871,43.1244,3.5258,-13.8908,3.397
1181041.0,-6.8857,7.4603,30.4542,1.3446,-13.3768,4.0542
1181051.0,-9.4715,0.8236,44.4172,1.8895,-13.3661,4.7523
1181061.0,-5.679,2.4708,37.6273,4.068,-13.464,5.7042
1181071.0,-5.1427,-4.3,39.9927,4.1095,-13.8695,6.4705
1181081.0,-2.0399,-10.9559,37.6464,6.0224,-15.0822,6.8541
1181091.0,0.6608,-14.9302,24.6603,4.5256,-16.5562,6.7647
1181101.0,5.3343,-26.6427,17.3149,2.1098,-17.4363,5.9059
1181111.0,12.8808,-35.3193,3.2274,0.804,-17.4363,4.1867
1181121.0,16.6158,-37.972,-5.1715,0.5146,-16.9073,2.0513
1181131.0,16.7307,-32.6569,-9.8067,2.9899,-14.1148,0.2735
1181141.0,14.6908,-18.5215,-14.1545,5.3855,-10.9056,-0.6008
1181151.0,11.6741,-3.8978,-11.5305,7.9242,-8.2493,-0.2655
1181161.0,7.8243,10.2568,-10.6973,9.5067,-7.1654,1.1483
1181171.0,11.2527,19.8431,-15.8305,6.835,-8.9688,3.0261
1181181.0,0.9098,22.1512,-21.7681,1.5463,-14.0887,4.8651
1181191.0,14.7962,13.8193,-78.4532,-7.2293,-17.4363,6.3156
1181201.0,17.5543,-16.0316,-78.4532,-10.8487,-17.4363,5.3983
1181211.0,23.875,-0.2298,-78.4532,-3.3731,-14.7273,3.6923
1181221.0,7.9487,12.0955,-78.4532,-2.6765,-2.4977,3.6184
1181231.0,-32.7431,33.3656,-78.4532,-1.4457,7.7188,4.1803
1181241.0,-37.6273,24.9188,-78.4532,-0.6029,17.4357,5.0157
1181251.0,-60.1519,12.2966,-78.4532,-4.7002,17.4357,6.0166
1181261.0,-78.4532,-7.9009,-78.4532,-3.7408,17.4357,6.6115
1181271.0,-78.4532,-20.8391,-78.4532,10.9828,17.4357,6.3369
1181281.0,-78.4532,-42.9424,16.3285,17.4357,17.4357,3.5417
1181291.0,-78.4532,-30.5404,78.4508,17.4357,17.4357,-2.7978
1181301.0,-78.4532,-9.414,78.4508,17.4357,17.4357,-7.5799
1181311.0,-78.4532,31.9961,78.4508,17.4357,17.4357,-9.0087
1181321.0,-78.4532,41.9656,78.4508,2.3865,17.4357,-8.534
1181331.0,-78.4532,27.7057,78.4508,3.3672,17.4357,-7.1175
1181341.0,-78.4532,27.3514,78.4508,-1.1387,2.8362,-5.8788
1181351.0,-78.4532,8.5329,78.4508,4.8284,-16.173,-4.4676
1181361.0,-78.4532,10.8984,78.4508,3.6279,-17.4363,-4.5613
1181371.0,-78.4532,2.4804,78.4508,1.9007,-17.4363,-5.6697
1181381.0,-78.4532,11.2719,78.4508,-1.6325,-17.4363,-6.8919
1181391.0,-70.7918,23.7984,67.9666,-7.6486,-17.4363,-7.6837
1181401.0,-54.1856,36.7749,45.7197,-8.2451,-17.4363,-6.7669
1181411.0,-41.3622,40.8738,37.4932,-8.1663,-15.5834,-4.9417
1181421.0,-35.6257,30.9139,52.5096,-4.0292,-10.7806,-3.0666
1181431.0,-30.8277,22.63,54.0515,-0.7748,-8.5069,-1.8097
1181441.0,-27.4471,13.0915,61.9907,0.7343,-7.9099,-1.4468
1181451.0,-26.4703,11.8465,64.6339,2.3019,-7.8024,-1.6256
1181461.0,-28.3761,18.081,67.9666,1.4112,-8.5777,-1.7427
1181471.0,-27.0066,20.9541,73.5116,-0.5044,-11.6416,-1.7278
1181481.0,-25.2732,24.8135,72.3336,-3.0123,-15.8314,-1.8635
1181491.0,-28.4144,33.1357,64.4615,-5.8272,-17.4363,-1.5197
1181501.0,-27.6004,35.099,57.3268,-6.9829,-17.4363,-0.4539
1181511.0,-28.2899,30.4734,44.2736,-6.3274,-17.4363,0.9599
1181521.0,-25.7137,18.6556,31.0001,-5.0753,-17.4363,1.931
1181531.0,-22.2948,10.094,14.7291,-4.0861,-17.4363,2.3051
1181541.0,-18.3683,4.3287,2.9975,-3.8823,-17.4363,2.1678
1181551.0,-13.7331,4.3287,-6.8091,-3.7163,-17.4363,1.8746
1181561.0,-9.8928,6.6272,-17.9757,-5.5127,-17.4363,1.8305
1181571.0,-2.9497,2.6624,-17.8416,-6.6615,-16.9744,1.7469
1181581.0,5.0278,-1.4461,-15.1888,-5.5217,-13.7445,1.6325
1181591.0,4.4628,-4.1276,-6.8187,-4.4384,-12.328,1.3947
1181601.0,6.3398,-4.549,-1.8196,-2.2476,-11.5442,1.3963
1181611.0,7.0868,-4.9129,-2.0207,-0.5428,-11.1387,1.5415
1181621.0,8.4467,-4.9416,-5.6503,0.3911,-10.8498,1.6613
1181631.0,12.1051,-5.7269,-10.3525,0.3432,-10.0058,1.798
1181641.0,14.7483,-8.0924,-11.0325,0.0415,-8.9815,1.7703
1181651.0,17.8703,-7.422,-10.2951,-0.6657,-7.9886,1.6639
1181661.0,22.7832,-7.8147,-10.228,-1.7815,-7.5145,1.7427
1181671.0,28.1271,-11.0708,-9.3757,-3.5135,-7.1894,1.7336
1181681.0,31.613,-17.2766,-3.7733,-3.5652,-6.9909,1.4979
1181691.0,33.4997,-20.0634,-3.4764,-1.707,-6.5381,1.1403
1181701.0,33.6625,-20.5039,-7.0677,0.6204,-5.8335,0.6933
1181711.0,34.7542,-17.7937,-15.5623,2.0869,-4.6539,0.2687
1181721.0,34.2945,-14.0683,-18.8472,2.7414,-2.6185,-0.0271
1181731.0,33.5571,-9.6917,-18.1576,2.6632,-0.8881,-0.1953
1181741.0,31.8142,-6.0621,-12.9574,2.0715,0.067,-0.2352
1181751.0,32.609,-4.0318,-9.8162,1.4452,0.3698,-0.1963
1181761.0,33.3464,1.3216,-9.3661,0.8663,0.4262,-0.1091
1181771.0,31.2395,10.6494,-9.2608,-0.2379,-0.5651,0.3033
1181781.0,23.0035,20.5614,-15.7155,-1.6107,-3.2991,1.1456
1181791.0,4.0893,34.5244,-31.115,-2.2338,-6.6237,2.5036
1181801.0,-8.983,44.2065,-64.0114,0.2581,-8.6713,4.7097
1181811.0,-10.0365,53.5056,-78.4532,-0.2368,-9.719,6.785
1181821.0,-11.5305,66.4247,-78.4532,-6.719,-5.9038,9.204
1181831.0,-32.8772,53.4099,-78.4532,-7.7641,6.521,11.7006
1181841.0,-61.7991,46.4954,-78.4532,-7.0425,17.4357,13.9664
1181851.0,-78.4532,19.3164,-78.4532,1.1419,17.4357,16.0262
1181861.0,-78.4532,-6.2824,-78.4532,8.8533,17.4357,16.4726
1181871.0,-78.4532,-30.9714,-78.4532,17.4357,17.4357,14.2287
1181881.0,-78.4532,-45.4515,-51.3221,17.4357,17.4357,8.1211
1181891.0,-78.4532,-25.6467,20.2645,17.4357,17.4357,-1.665
1181901.0,-78.4532,49.5695,78.4508,17.4357,17.4357,-7.3559
1181911.0,-78.4532,78.4508,78.4508,16.8791,17.4357,-6.488
1181921.0,-78.4532,78.4508,78.4508,3.6162,17.4357,-2.6281
1181931.0,-78.4532,42.8849,78.4508,-3.6992,17.4357,0.2698
1181941.0,-78.4532,-30.4542,78.4508,3.4359,8.725,2.56
1181951.0,-78.4532,-33.9977,78.4508,17.4357,-11.8741,3.0426
1181961.0,-78.4532,-35.7598,78.4508,10.7817,-17.4363,-0.0883
1181971.0,-78.4532,-29.1997,78.4508,2.6957,-17.4363,-4.6469
1181981.0,-78.4532,-3.2178,78.4508,-7.4336,-17.4363,-8.2919
1181991.0,-78.118,24.4687,78.4508,-9.66,-17.4363,-8.7368
1182001.0,-58.725,48.3341,55.172,-9.6094,-17.4363,-5.948
1182011.0,-41.3431,37.5315,44.3598,-7.8098,-17.4363,-2.287
1182021.0,-25.8478,14.9877,30.3872,-3.4598,-17.4363,0.2645
1182031.0,-18.6939,-7.8913,16.1561,-1.0105,-14.4511,1.044
1182041.0,-9.2703,-32.3888,13.5033,0.7082,-9.9228,0.0303
1182051.0,-4.4436,-49.3014,16.8743,1.3319,-5.8772,-2.9096
1182061.0,-5.8993,-47.75,30.4255,0.0484,-4.4612,-6.9648
1182071.0,-10.4004,-25.1487,43.3638,-0.1655,-4.4304,-10.1857
1182081.0,-15.9454,8.1594,49.9622,-1.0935,-4.2862,-11.3963
1182091.0,-20.9062,34.3233,60.4584,-2.279,-5.1418,-10.729
1182101.0,-21.069,52.8736,67.0855,-5.0998,-7.2756,-8.8682
1182111.0,-24.1144,60.104,78.4508,-6.3359,-10.2857,-5.7665
1182121.0,-28.0984,51.0156,78.4508,-4.1766,-14.8443,-2.4158
1182131.0,-24.871,31.2874,70.2746,-2.8553,-17.4363,-0.2826
1182141.0,-21.0498,8.3893,52.5575,-1.2457,-17.4363,0.1862
1182151.0,-15.275,-3.0454,30.5117,-0.4826,-17.4363,-0.7875
1182161.0,-14.528,-0.9673,20.1688,-2.3796,-16.9084,-2.3424
1182171.0,-15.3325,10.8314,22.8215,-3.5002,-15.3882,-3.091
1182181.0,-14.5184,24.8039,27.5908,-4.0281,-14.5219,-2.4653
1182191.0,-15.457,29.7647,33.8636,-4.1505,-15.3477,-0.8908
1182201.0,-14.4418,25.6467,36.6217,-3.3422,-17.1335,0.8838
1182211.0,-12.9287,15.9741,30.3297,-1.2302,-17.4363,2.3636
1182221.0,-8.3989,7.5657,12.1051,-0.1086,-17.4363,3.1927
1182231.0,-3.4477,0.0096,-6.608,-0.0926,-17.4363,3.4305
1182241.0,3.8307,-3.6583,-22.8407,-0.9573,-15.9309,3.1458
1182251.0,6.2058,-4.9416,-25.1583,-2.3216,-13.3794,2.6952
1182261.0,10.5345,-4.7022,-23.6068,-4.0723,-11.3718,2.4009
1182271.0,14.9111,-7.7859,-15.0739,-4.0036,-9.9819,2.2929
1182281.0,16.587,-11.9327,-12.4786,-3.2251,-9.9,2.1923
1182291.0,20.0347,-15.7155,-17.6405,-2.2125,-9.8867,1.8518
1182301.0,21.9883,-18.3109,-23.1471,-0.5236,-8.7836,1.3702
1182311.0,22.9939,-18.1289,-32.5611,1.1557,-7.5161,0.7742
1182321.0,23.2046,-14.5759,-42.5114,1.9741,-5.402,0.2171
1182331.0,23.7792,-7.2018,-50.7954,2.1215,-2.6824,-0.0208
1182341.0,27.0066,-2.3846,-50.058,2.1811,0.5236,0.2506
1182351.0,26.8917,0.5076,-48.2575,2.1237,2.751,0.6359
1182361.0,24.7656,4.1946,-49.4163,-1.201,2.9585,0.9035
1182371.0,22.3906,5.5258,-46.7252,-4.2101,1.7267,1.0685
1182381.0,13.9917,12.5743,-56.0722,-4.3378,0.298,1.3798
1182391.0,-2.6336,24.9667,-78.4532,-5.3621,0.0756,2.2386
1182401.0,-13.1585,32.791,-78.4532,-6.3167,2.5994,3.6673
1182411.0,-30.8756,41.9464,-78.4532,-6.2906,8.0296,5.4983
1182421.0,-59.0697,53.1513,-78.4532,-6.0826,15.1152,8.5521
1182431.0,-78.4532,43.0765,-78.4532,-1.9502,17.4357,12.2524
1182441.0,-78.4532,25.005,-78.4532,5.3291,17.4357,14.8103
1182451.0,-78.4532,-5.5162,-78.4532,13.6407,17.4357,15.3158
1182461.0,-78.4532,-45.0972,-65.9842,17.4357,17.4357,12.0641
1182471.0,-78.4532,-61.2916,44.829,17.4357,17.4357,3.7716
1182481.0,-78.4532,-0.7853,78.4508,17.4357,17.4357,-4.1143
1182491.0,-78.4532,71.7111,78.4508,17.4357,17.4357,-6.164
1182501.0,-78.4532,78.4508,78.4508,13.961,17.4357,-4.4804
1182511.0,-78.4532,60.2956,78.4508,-9.6509,17.4357,-2.9266
1182521.0,-78.4532,28.0984,78.4508,-0.2309,12.3881,0.7535
1182531.0,-78.4532,22.8694,78.4508,-0.7982,-14.5607,3.5646
1182541.0,-78.4532,-9.2703,78.4508,2.2173,-17.4363,4.5873
1182551.0,-78.4532,-11.5879,78.4508,-0.1623,-17.4363,3.7918
1182561.0,-78.4532,-26.8725,78.4508,-6.6833,-17.4363,1.4058
1182571.0,-75.9728,-25.3977,35.1948,-7.2383,-17.4363,-0.9961
1182581.0,-46.4571,-15.3133,-27.0736,-10.2458,-17.4363,-3.0059
1182591.0,-26.2596,-12.4403,-31.3257,-5.534,-17.4363,-3.8887
1182601.0,-24.44,8.0158,-33.6721,-0.8413,-10.9142,-3.7828
1182611.0,-15.0164,5.7269,-2.0111,0.945,-3.1299,-2.8766
1182621.0,-16.338,7.5657,19.6899,4.8688,-0.6401,-2.2397
1182631.0,-15.8017,9.4906,39.1213,3.5769,-1.3611,-1.7517
1182641.0,-14.5663,5.4875,52.0499,4.6576,-3.8674,-1.4074
1182651.0,-13.1011,3.2848,45.26,1.8523,-6.6009,-1.4942
1182661.0,-9.8067,-2.375,43.3638,0.4044,-8.2307,-2.1226
1182671.0,-7.4029,3.7254,31.6322,-1.8124,-8.5787,-2.6632
1182681.0,-6.3015,8.0541,29.0943,-3.6806,-8.4691,-2.8133
1182691.0,-5.9664,13.3788,27.2077,-4.4384,-8.078,-2.4711
1182701.0,-6.6942,14.1928,28.1175,-4.0951,-8.0445,-1.757
1182711.0,-5.2481,14.1449,24.8518,-2.5047,-7.5954,-0.8391
1182721.0,-4.7214,9.8354,19.9198,-0.5747,-6.7334,0.1187
1182731.0,-0.2777,2.9018,14.3556,1.1281,-4.9316,0.5795
1182741.0,2.1165,-2.2505,12.8329,1.4234,-3.1203,0.4943
1182751.0,3.486,-3.9744,17.1808,0.1463,-2.8622,0.0112
1182761.0,3.0263,-1.3503,20.1113,-2.5403,-4.3298,-0.522
1182771.0,0.7566,2.4421,21.1456,-4.9087,-6.4785,-0.7173
1182781.0,0.9098,2.7007,18.1576,-3.9797,-7.3378,-0.4496
1182791.0,1.5514,2.2505,6.5218,-1.0568,-5.8421,-0.033
1182801.0,2.4995,0.3065,-3.7637,1.2936,-2.9639,0.3214
1182811.0,4.7214,-2.3463,-8.8394,2.9511,0.7732,0.4459
1182821.0,4.9129,-4.7309,-4.5777,3.5359,4.855,0.223
1182831.0,4.2521,-5.2098,10.6207,4.1021,8.2717,-0.1612
1182841.0,0.1724,0.6895,25.4647,3.3342,9.5376,-0.4597
1182851.0,-2.4134,4.3383,44.762,1.6506,8.9315,-0.4417
1182861.0,-3.4189,8.6862,58.2461,0.9972,6.935,-0.0708
1182871.0,-3.5817,9.165,64.8446,-0.0777,4.3005,0.5646
1182881.0,-3.4381,4.2521,66.4918,-0.1059,1.6586,1.0153
1182891.0,-1.6089,1.5323,58.5143,-0.6306,0.0383,1.177
1182901.0,-1.3503,-2.5953,53.611,-0.7146,-0.8237,1.1664
1182911.0,0.5171,-3.3519,45.4324,-0.8838,-0.6891,0.9402
1182921.0,0.0096,-3.3519,43.4308,-0.9791,-0.2655,0.7657
1182931.0,0.2394,-2.059,40.9408,-0.8642,0.2006,0.6965
1182941.0,-0.2682,-3.0742,42.2337,-0.7455,0.5736,0.6321
1182951.0,-0.3735,-3.8978,42.4444,-0.2692,0.895,0.5545
1182961.0,-0.4501,-5.1044,43.9958,0.2735,1.4431,0.3975
1182971.0,-1.4269,-4.5298,45.6143,0.5582,1.5261,0.1963
1182981.0,-2.2122,-2.3176,47.5584,0.0841,1.2106,0.0649
1182991.0,-2.5474,-1.1013,50.4315,-0.0772,0.6933,0.0298
1183001.0,-2.6719,0.5746,51.2934,-0.0218,-0.0112,0.0878
1183011.0,-2.7294,2.2889,48.2096,-0.4188,-1.0818,0.2421
1183021.0,-2.1165,2.059,44.2448,-0.9573,-1.624,0.4076
1183031.0,-1.6951,0.6033,38.9489,-1.2451,-1.6756,0.5252
1183041.0,-0.9481,-0.6129,35.7789,-1.5155,-0.9908,0.5571
1183051.0,-1.2833,-2.6528,35.6832,-0.7019,0.0633,0.6077
1183061.0,-1.2929,-4.6543,36.7271,-0.0271,1.1488,0.5151
1183071.0,-1.9728,-5.8227,40.5769,0.3773,1.6442,0.2623
1183081.0,-2.1931,-4.6352,44.331,0.3815,1.5713,0.0011
1183091.0,-3.0454,-2.059,46.9647,-0.0772,0.911,-0.1666
1183101.0,-3.5817,0.1245,49.4451,-0.34,-0.0404,-0.183
1183111.0,-3.8595,1.7813,48.7076,-0.1969,-0.8088,-0.0575
1183121.0,-3.4668,3.4572,46.0644,0.1804,-1.0967,0.1852
1183131.0,-3.3519,3.7828,43.1148,0.605,-0.9711,0.5044
1183141.0,-1.81,3.1603,41.1898,0.7114,-0.705,0.7146
1183151.0,-1.5323,1.9441,39.6192,0.5997,-0.5023,0.8099
1183161.0,-0.8045,0.4884,39.6097,0.2799,-0.4534,0.7992
1183171.0,0.3639,-0.4405,38.3264,-0.1176,-0.4518,0.6832
1183181.0,0.8332,-1.0439,38.1061,-0.5672,-0.3863,0.5268
1183191.0,0.4501,-0.4788,36.4206,-0.9998,-0.3214,0.4071
1183201.0,0.3926,-0.067,36.5642,-1.2616,0.033,0.4049
1183211.0,0.2394,-1.2354,38.2689,-0.8971,0.5087,0.4299
1183221.0,-0.0192,-1.6185,39.5522,-0.5731,0.6939,0.4268
1183231.0,0.0766,-2.7294,41.1132,-0.0027,0.7561,0.4326
1183241.0,0.5363,-2.624,40.0789,0.447,0.8663,0.3778
1183251.0,0.814,-2.1165,39.6384,0.1011,0.9754,0.2937
1183261.0,-0.0479,-1.2737,40.4429,-0.282,0.9663,0.2426
1183271.0,-0.2586,-1.0056,41.5155,-0.5821,1.0302,0.2331
1183281.0,-0.9098,-1.1779,43.6894,-0.4922,0.9434,0.2708
1183291.0,-1.1588,-1.6185,43.5074,-0.3986,0.7359,0.281
1183301.0,-1.4269,-2.241,44.264,-0.357,0.646,0.2873
1183311.0,-1.3886,-2.49,44.2927,-0.2166,0.538,0.224
1183321.0,-1.4844,-2.5474,45.2504,-0.2368,0.3129,0.1086
1183331.0,-1.81,-2.0782,45.6718,0.0176,0.0729,0.0399
1183341.0,-1.6568,-1.0151,44.2353,0.1086,-0.2176,0.0266
1183351.0,-1.7526,-0.2203,43.7181,0.2128,-0.3821,0.0314
1183361.0,-1.1971,0.2011,40.9983,0.0293,-0.3608,0.1112
1183371.0,-1.0056,-0.929,40.5961,-0.2698,-0.3161,0.1117
1183381.0,-0.4214,-1.743,39.6192,-0.4507,-0.1612,0.0521
1183391.0,-0.5746,-2.4804,40.5099,-0.4661,-0.0686,-0.0341
1183401.0,-0.3735,-2.2027,40.5003,-0.3565,0.0756,-0.1006
1183411.0,-0.5842,-2.1739,41.3622,-0.0223,0.1405,-0.1357
1183421.0,-0.68,-1.5514,40.644,0.0319,0.1288,-0.1554
1183431.0,-0.7853,-1.7717,40.1364,-0.1208,0.0623,-0.2416
1183441.0,-0.7853,-1.6281,39.3032,-0.4023,0.0484,-0.3384
1183451.0,-0.5555,-0.7949,39.3128,-0.6348,0.2528,-0.4071
1183461.0,-0.7661,-0.0192,40.778,-0.2889,0.3847,-0.3624
1183471.0,-0.9098,1.0726,40.1843,-0.1538,0.5199,-0.2373
1183481.0,-0.9098,0.9577,40.5003,-0.1208,0.6146,-0.0947
1183491.0,-0.7661,0.8906,41.0366,-0.1905,0.7428,0.05
1183501.0,-1.2546,-0.0766,42.4444,-0.2581,0.7583,0.191
1183511.0,-1.3216,-1.7142,43.5649,-0.1272,0.6598,0.2272
1183521.0,-0.5459,-3.9456,44.0054,0.2347,0.5683,0.0873
1183531.0,-0.1915,-4.4053,42.9903,0.2198,0.555,-0.1485
1183541.0,-0.4214,-3.6966,43.1722,0.0825,0.4555,-0.4454
1183551.0,-0.498,-1.6472,42.9999,-0.158,0.3533,-0.6258
1183561.0,-1.3886,0.5555,43.7181,-0.4257,0.1607,-0.63
1183571.0,-1.3024,2.4038,42.8754,-0.6939,-0.0527,-0.5177
1183581.0,-1.4269,3.2561,42.7221,-0.6306,-0.099,-0.2826
1183591.0,-1.2546,2.873,41.8315,-0.5135,-0.0106,-0.0027
1183601.0,-0.9768,1.6089,41.5729,-0.4299,0.116,0.1713
1183611.0,-0.814,0.6129,42.0996,-0.3555,0.2522,0.2634
1183621.0,-0.7374,-1.1109,42.6359,-0.2687,0.2437,0.2703
1183631.0,-0.6033,-1.6951,43.201,-0.2405,0.1096,0.1852
1183641.0,0.2777,-1.6855,42.952,-0.2661,-0.0708,0.0926
1183651.0,-0.565,-1.4748,43.1818,-0.3581,-0.3054,0.0032
1183661.0,-0.249,-0.6608,41.9368,-0.3315,-0.6082,-0.0404
1183671.0,-0.3926,-0.2298,40.4524,-0.3672,-0.6912,-0.0165
1183681.0,-0.3352,-0.2586,39.399,-0.1224,-0.5651,-0.0064
1183691.0,0.0,-0.2873,38.5945,0.0793,-0.3166,0.0176
1183701.0,-0.2682,0.3639,37.5124,0.1474,-0.1208,0.05
1183711.0,-0.0383,0.5938,37.0335,-0.0192,0.0878,0.1038
1183721.0,-0.8811,-0.0766,37.9146,-0.1394,0.1783,0.1815
1183731.0,0.0192,-1.1301,37.8667,-0.0921,0.2804,0.1756
1183741.0,-0.1437,-1.7142,37.8475,-0.0319,0.5332,0.0995
1183751.0,0.0287,-1.8675,38.6233,0.0846,0.8551,0.0218
1183761.0,-0.3448,-1.7526,39.964,0.2325,1.0115,-0.0607
1183771.0,-0.5171,-1.1971,40.3184,0.1692,1.0376,-0.1373
1183781.0,-0.6033,-1.312,41.391,0.0617,1.035,-0.1692
1183791.0,-1.0726,-1.2067,41.6974,0.0261,0.9232,-0.2501
1183801.0,-1.1205,-0.1341,41.6591,-0.0431,0.8567,-0.2485
1183811.0,-1.4365,0.4597,42.023,-0.1559,0.8626,-0.2336
1183821.0,-1.5036,0.6991,42.2816,-0.1703,0.8503,-0.1836
1183831.0,-1.312,0.8906,42.4444,-0.0479,0.978,-0.0788
1183841.0,-1.5514,0.7757,43.2584,0.1995,1.1036,0.0037
1183851.0,-1.245,0.431,43.1818,0.124,1.0429,0.0506
1183861.0,-1.6664,-0.2298,43.8713,-0.0649,1.0185,0.0404
1183871.0,-1.5706,-0.2777,45.0876,-0.1708,0.8631,0.0218
1183881.0,-2.0016,-0.2394,45.3174,-0.2496,0.5784,0.0239
1183891.0,-2.3367,-0.3831,45.1642,-0.3821,0.2895,0.0277
1183901.0,-2.0016,-0.7183,44.6088,-0.3214,0.0974,0.0106
1183911.0,-1.6855,-0.6129,43.0573,-0.2953,0.1011,-0.009
1183921.0,-1.5993,-1.0151,42.1571,-0.3852,0.2453,-0.0862
1183931.0,-1.2354,-1.063,42.3965,-0.2905,0.3698,-0.1713
1183941.0,-1.6185,-0.6895,42.6934,-0.2214,0.4613,-0.1937
1183951.0,-1.7142,0.0575,43.2872,-0.2565,0.4715,-0.1979
1183961.0,-1.6855,0.7853,43.1627,-0.3645,0.4374,-0.1394
1183971.0,-2.2793,0.8045,44.2544,-0.4236,0.3092,-0.0899
1183981.0,-2.0111,0.7183,44.3023,-0.4715,0.1288,-0.0357
1183991.0,-2.1548,0.498,44.2353,-0.4305,-0.0234,0.0293
1184001.0,-1.9728,0.2682,43.8809,-0.3432,-0.0734,0.0495
1184011.0,-1.9154,-0.4788,43.6415,-0.2948,-0.1501,0.0372
1184021.0,-1.5323,-0.814,43.3829,-0.2107,-0.2171,0.0122
1184031.0,-1.2163,-0.7661,42.7604,-0.2144,-0.3054,-0.0442
1184041.0,-0.9577,-0.498,41.8219,-0.3177,-0.3054,-0.0846
1184051.0,-1.3312,-0.3926,42.0996,-0.3416,-0.2857,-0.0937
1184171.0,-0.8045,-1.6089,39.2553,0.1894,0.0899,0.0458
1184181.0,-0.0192,-2.4325,39.3511,0.0713,0.2347,-0.0878
1184191.0,-0.6033,-2.5379,38.585,-0.1086,0.3469,-0.2607
1184201.0,-0.8715,-2.2218,39.1021,-0.3241,0.5199,-0.414
1184211.0,-0.7278,-1.2163,40.1077,-0.241,0.7412,-0.4991
1184221.0,-1.0726,-0.2203,41.3048,-0.0053,0.9339,-0.4826
1184231.0,-1.6568,1.1205,42.2433,0.241,0.9259,-0.4188
1184241.0,-1.9441,1.5131,42.4636,0.1692,0.8253,-0.2794
1184251.0,-1.8292,1.4748,42.1858,0.1293,0.6694,-0.1671
1184261.0,-1.2833,0.3735,41.8411,-0.0479,0.704,-0.1336
1184271.0,-1.1779,-0.6895,41.6974,-0.307,0.7343,-0.1836
1184281.0,-0.9002,-1.2163,42.0901,-0.5358,0.8769,-0.3065
1184291.0,-1.0726,-1.4844,43.4212,-0.5757,0.9716,-0.3948
1184301.0,-1.3503,-1.2929,44.2065,-0.538,0.9158,-0.489
1184311.0,-1.6089,-0.9577,44.7907,-0.4805,0.796,-0.5358
1184321.0,-1.5419,-0.7278,44.6088,-0.2772,0.6391,-0.5428
1184331.0,-2.059,-1.0151,43.6415,-0.1548,0.5747,-0.5837
1184341.0,-3.2274,-1.0247,42.5498,-0.1921,0.6417,-0.5981
1184351.0,-1.743,-1.0056,41.0941,-0.4374,0.9131,-0.6614
1184361.0,-1.3024,-1.494,43.7373,-0.655,1.2467,-0.7497
1184371.0,-1.6376,-0.9002,44.3215,-0.8572,1.143,-0.8977
1184381.0,-2.1835,-0.3256,45.7676,-1.3175,0.9557,-0.9738
1184391.0,-2.0782,0.1628,46.7827,-1.35,0.7976,-0.9897
1184401.0,-2.3463,0.4597,47.9223,-1.325,0.4784,-0.9535
1184411.0,-2.9305,0.5938,48.0756,-1.2334,0.05,-0.8716
1184421.0,-3.1316,0.8523,46.7252,-1.226,-0.1767,-0.7354
1184431.0,-2.5857,0.3831,45.193,-1.4841,-0.3491,-0.6455
1184441.0,-0.9577,-1.0822,45.1834,-1.6948,-0.3709,-0.6455
1184451.0,-1.1013,-1.5036,45.5664,-1.79,-0.4103,-0.7274
1184461.0,-1.2641,-1.6472,46.4667,-1.6049,-0.4544,-0.7391
1184471.0,-1.0534,-1.4174,46.2177,-1.3228,-0.4741,-0.7609
1184481.0,-1.5323,-0.8236,47.1083,-0.9647,-0.5997,-0.7615
1184491.0,-1.2354,-0.2203,47.0796,-0.6018,-0.6439,-0.6577
1184501.0,-1.312,0.2586,46.8785,-0.2458,-0.6721,-0.5151
1184511.0,-1.0918,0.2969,47.884,-0.0692,-0.7237,-0.4065
1184521.0,-0.8906,0.6895,48.1905,-0.0399,-0.9993,-0.2794
1184531.0,-0.7949,0.929,48.0851,-0.4656,-1.4218,-0.1634
1184541.0,-0.6033,0.4788,48.3054,-0.8785,-1.831,-0.0442
1184551.0,-0.9098,0.0862,47.6063,-1.1664,-2.2067,0.0458
1184561.0,-0.747,-0.929,47.2137,-1.2542,-2.4908,0.1314
1184571.0,-1.0343,-1.7717,46.505,-1.0536,-2.7276,0.1926
1184581.0,-0.7566,-2.9975,45.0301,-0.7114,-2.8537,0.1815
1184591.0,-0.0766,-3.6966,43.3542,-0.149,-2.5722,0.1181
1184601.0,0.3926,-4.0701,42.272,0.4358,-2.0215,0.0293
1184611.0,1.1684,-3.735,41.774,0.571,-1.6059,-0.1612
1184621.0,1.1109,-2.4804,42.0039,0.282,-1.325,-0.323
1184631.0,0.6416,-1.2737,43.4404,-0.2543,-1.3186,-0.3895
1184641.0,0.0862,-0.8906,44.944,-0.7976,-1.5288,-0.3991
1184651.0,0.2298,-0.7566,45.4994,-1.2808,-1.8033,-0.4007
1184661.0,0.9481,-0.8236,46.3613,-1.4197,-1.9656,-0.3581
1184671.0,1.1779,-1.0247,46.8306,-1.0988,-2.0311,-0.3033
1184681.0,0.6129,-1.8196,47.0508,-0.6486,-2.0071,-0.2421
1184691.0,0.3543,-2.5953,47.2998,0.1453,-2.1029,-0.2363
1184701.0,1.1492,-2.2793,45.6431,0.4076,-2.2668,-0.2469
1184711.0,1.6185,-2.4038,44.3981,0.3187,-2.4344,-0.3241
1184721.0,2.5379,-2.3176,42.3391,0.0223,-2.4961,-0.4629
1184731.0,3.1125,-3.055,41.8411,-0.2794,-2.4419,-0.6226
1184741.0,3.1316,-2.7773,41.0845,-0.4236,-2.2514,-0.8147
1184751.0,3.8786,-2.4134,40.8451,-0.8838,-2.1221,-0.9951
1184761.0,3.2561,-2.4325,41.5825,-1.1611,-2.2822,-1.1291
1184771.0,3.3615,-3.6679,41.9177,-1.0946,-2.0747,-1.2622
1184781.0,3.3998,-3.6583,41.6974,-0.6417,-1.7831,-1.408
1184791.0,3.6966,-3.3423,41.6974,-0.8812,-1.6825,-1.5309
1184801.0,3.2848,-2.5187,41.2952,-1.1036,-1.8033,-1.6208
1184811.0,2.988,-0.2011,40.9121,-1.6911,-1.7874,-1.5985
1184821.0,-8.3989,4.9608,39.9449,-2.4541,-2.4163,-1.2302
1184831.0,4.0414,5.9568,41.1898,-4.1031,-2.8596,-0.6923
1184841.0,6.9528,2.0207,44.829,-3.2347,-2.7234,-0.166
1184851.0,3.0933,0.2969,43.584,-1.3643,-1.3957,0.2597
1184861.0,2.1644,-0.9098,44.762,-0.6018,-1.152,0.5279
1184871.0,4.0414,-4.1659,50.2112,-0.5901,-1.607,0.5997
1184881.0,3.8978,-5.8993,52.0691,-0.315,-2.2652,0.4496
1184891.0,3.2178,-7.0773,54.1281,-0.5598,-3.1357,0.1852
1184901.0,3.4668,-6.2728,53.994,-0.9887,-4.4187,-0.1612
1184911.0,3.5913,-5.1427,53.2854,-1.6623,-5.6654,-0.3975
1184921.0,2.3559,-2.6719,48.6981,-2.2961,-6.6807,-0.4842
1184931.0,5.1523,-0.8619,44.5322,-3.5396,-7.4815,-0.5215
1184941.0,4.2808,-1.1779,44.5896,-3.1879,-7.6065,-0.3177
1184951.0,4.8267,-0.3543,38.4988,-2.5744,-7.3495,-0.009
1184961.0,5.5929,-3.0454,37.7039,-1.8613,-6.8988,0.2735
1184971.0,7.5848,-4.4053,34.3329,-0.7524,-6.0703,0.4204
1184981.0,8.3222,-5.3822,34.2467,-0.216,-5.3594,0.39
1184991.0,9.4619,-4.3958,33.3273,-0.0905,-5.0508,0.3017
1185001.0,9.9695,-2.7964,33.2219,-0.3826,-4.7443,0.3161
1185011.0,10.1035,-2.1356,34.0072,-0.9041,-4.6682,0.3842
1185021.0,10.0652,-2.2314,35.1565,-1.3351,-4.6773,0.4757
1185031.0,10.4291,-2.739,36.6121,-1.201,-4.5905,0.6071
1185041.0,10.7835,-3.7924,37.4645,-0.6194,-4.5315,0.7386
1185051.0,11.1378,-5.612,37.6368,-0.0702,-4.4165,0.7764
1185061.0,11.6837,-7.2784,38.47,0.7609,-4.2766,0.6928
1185071.0,12.8042,-7.0006,36.9569,0.7364,-4.3053,0.4842
1185081.0,13.8098,-6.2249,37.158,-0.2272,-4.8305,0.2283
1185091.0,14.03,-5.1044,36.3153,-1.226,-5.3738,0.0314
1185101.0,15.3516,-4.0989,35.2905,-1.7395,-5.4978,-0.0532
1185111.0,16.1082,-3.1987,33.6529,-2.0944,-5.3366,-0.0192
1185121.0,15.8688,-2.9688,33.0974,-2.0774,-5.178,0.1171
1185131.0,16.3285,-2.873,32.4366,-1.8544,-4.8896,0.3155
1185141.0,16.52,-3.9552,32.044,-1.383,-4.5597,0.5342
1185151.0,17.5351,-5.1523,32.2355,-0.8721,-4.2377,0.6981
1185161.0,19.1919,-5.679,31.1629,-0.6098,-4.0488,0.7545
1185171.0,19.9676,-6.4165,29.9275,-0.5954,-3.9467,0.7317
1185181.0,21.2318,-6.3015,27.8685,-0.9578,-3.795,0.6146
1185251.0,22.2757,-7.355,33.3177,-0.6965,-2.1582,0.7865
1185261.0,22.0745,-7.7189,33.6337,-0.6742,-2.594,0.7391
1185271.0,22.9843,-7.8434,32.4558,-0.7199,-2.9889,0.6066
1185281.0,23.7313,-7.0485,30.2819,-0.9504,-3.2677,0.538
1185291.0,24.191,-6.3686,29.0848,-1.1536,-3.3294,0.5215
1185301.0,24.0474,-4.7309,28.4144,-1.1377,-3.3081,0.5619
1185311.0,24.124,-3.9265,27.5046,-1.1137,-3.4273,0.7407
1185321.0,23.444,-3.4477,27.4759,-0.9658,-3.7386,0.9775
1185331.0,22.5342,-2.7581,25.2732,-0.737,-4.1915,1.2829
1185341.0,24.1814,-3.1795,20.887,-0.6311,-4.4133,1.5836
1185351.0,25.8765,-3.0837,15.0547,-0.5114,-3.9712,1.8555
1185361.0,26.9587,-2.4612,10.9654,-0.4597,-2.8947,2.2067
1185371.0,26.9587,-2.7198,9.098,-0.5428,-1.6235,2.6302
1185381.0,26.2788,-5.296,10.8601,-0.3496,-0.555,3.0277
1185391.0,26.9779,-7.9966,12.0764,-0.3283,0.1995,3.2406
1185401.0,27.1694,-11.0229,14.4131,-0.3523,0.5289,3.2565
1185411.0,24.191,-12.6797,14.1928,-1.0355,0.2166,3.0586
1185421.0,22.0171,-12.2775,10.6973,-2.8883,-0.9573,2.7766
1185431.0,19.5271,-11.0804,1.9441,-6.4444,-2.5126,2.4483
1185441.0,21.9309,-10.0269,-5.8706,-10.0601,-3.8802,2.0422
1185451.0,23.2238,-6.2728,-13.5703,-12.0236,-4.316,1.7411
1185461.0,12.6031,1.3503,-13.1873,-11.1877,-4.814,1.458
1185471.0,-5.1427,22.9652,-21.9213,-6.4992,-7.4576,2.0247
1185481.0,-15.1026,38.3264,-48.1522,-1.9465,-8.9124,4.0425
1185491.0,-39.8587,45.5377,-78.4532,5.3855,-10.9711,6.2821
1185501.0,-27.4567,38.0774,-78.4532,3.6992,-6.8701,7.3639
1185511.0,-39.0063,29.1997,-78.4532,3.5811,4.938,7.282
1185521.0,-55.7945,31.9003,-78.4532,1.9518,17.4357,7.4703
1185531.0,-78.4532,30.0041,-78.4532,-1.292,17.4357,8.9831
1185541.0,-78.4532,5.4396,-78.4532,2.5967,17.4357,9.9984
1185551.0,-78.4532,-7.0677,-34.17,17.4357,17.4357,10.3533
1185561.0,-78.4532,-22.2182,20.0155,17.4357,17.4357,9.3604
1185571.0,-78.4532,-21.3467,78.4508,17.4357,17.4357,4.0063
1185581.0,-78.4532,39.8778,78.4508,17.4357,17.4357,-2.668
1185591.0,-78.4532,40.5865,78.4508,17.4357,17.4357,-4.026
1185601.0,-78.4532,74.2203,78.4508,17.4357,17.4357,-3.0745
1185611.0,-78.4532,57.8726,78.4508,3.7572,17.4357,-3.0655
1185621.0,-78.4532,38.4988,78.4508,3.5412,-14.3649,-1.5176
1185631.0,-78.4532,32.9442,78.4508,-4.1702,-17.4363,-1.2505
1185641.0,-78.4532,20.3507,78.4508,-5.5111,-17.4363,-1.4979
1185651.0,-78.4532,21.8064,78.4508,-5.5505,-17.4363,-1.3106
1185661.0,-78.4532,15.4761,54.4633,-5.9416,-17.4363,-1.7405
1185671.0,-60.2956,19.6803,-4.118,-6.1379,-17.4363,-2.2418
1185681.0,-39.3319,24.4496,-18.7801,-8.9911,-17.4363,-2.4318
1185691.0,-34.3424,26.6235,2.9209,-6.4875,-13.7876,-2.0172
1185701.0,-27.926,27.1886,23.7122,-5.0508,-8.6894,-0.9493
1185711.0,-26.5756,17.4394,46.3039,-1.9938,-8.4957,-0.397
1185721.0,-24.0186,13.532,50.1442,-1.4303,-10.7604,-0.2315
1185731.0,-19.393,3.1795,50.9965,-1.3936,-12.7648,-0.763
1185741.0,-14.8536,-0.6991,44.3981,-2.4621,-13.8711,-2.0194
1185751.0,-13.9343,2.5187,44.3885,-4.1047,-15.2849,-3.3475
1185761.0,-15.5623,12.1051,40.3854,-5.203,-17.2798,-3.9749
1185771.0,-14.5184,22.4289,34.917,-6.1225,-17.4363,-3.6977
1185781.0,-13.6182,30.2148,26.3362,-5.0529,-17.4363,-2.4477
1185791.0,-10.5728,32.3888,12.22,-5.154,-17.4363,-0.8062
1185801.0,-6.3686,26.4128,4.7692,-4.2207,-17.4363,0.7971
1185811.0,-3.1987,19.077,-5.5929,-3.0878,-16.7094,2.0236
1185821.0,2.4229,9.3182,-9.0309,-2.0449,-14.1728,2.6563
1185831.0,5.1619,2.2027,-8.8394,-0.7939,-11.6783,2.7712
1185841.0,6.1004,-0.7949,-2.9401,0.0777,-10.0085,2.6265
1185851.0,7.5657,1.9728,3.1316,0.5295,-9.37,2.6111
1185861.0,7.3071,5.4492,4.2138,-0.3507,-10.0319,2.9431
1185871.0,8.9735,6.0334,-5.3917,-4.3756,-11.8278,3.3715
1185881.0,14.03,-3.6009,-2.8922,-5.8463,-12.0428,3.4454
1185891.0,15.6677,-6.5218,-8.849,-3.3023,-10.5385,3.4481
1185901.0,16.2997,-8.3127,-12.3158,-0.8418,-8.7431,3.5024
1185911.0,17.4394,-10.2663,-18.2917,2.1141,-6.8307,3.5859
1185921.0,19.1249,-12.1817,-23.3866,3.5018,-4.3011,3.5774
1185931.0,21.2797,-16.0795,-19.3356,4.2755,-1.8597,3.231
1185941.0,23.195,-17.4394,-13.6469,4.3804,-0.4709,2.7989
1185951.0,25.7616,-16.4817,-9.663,2.916,-0.4821,2.1705
1185961.0,24.0378,-12.22,-3.7541,1.7336,-1.1722,1.7171
1185971.0,25.8765,-3.7062,-6.8283,1.1792,-2.2365,1.6857
1185981.0,22.2086,6.043,-12.0859,0.7045,-3.4619,2.2099
1185991.0,17.9374,20.3124,-31.4407,-1.6613,-6.4449,3.2794
1186001.0,11.2527,35.099,-57.2023,-3.5769,-9.2077,5.4494
1186011.0,-2.6049,44.58,-78.4532,-6.487,-10.3475,8.6968
1186021.0,-11.9902,33.4135,-78.4532,-5.9299,-5.8745,11.7251
1186031.0,-9.0214,6.5027,-78.4532,3.5556,5.6697,13.1719
1186041.0,-29.8988,-16.769,-78.4532,9.3205,17.4357,12.544
1186051.0,-67.2579,-41.6783,-78.4532,15.5792,17.4357,9.254
1186061.0,-78.4532,-62.2492,-78.4532,14.4894,17.4357,3.8105
1186071.0,-78.4532,-63.2261,-70.6098,17.0228,17.4357,-2.7856
1186081.0,-78.4532,-19.077,17.765,17.4357,17.4357,-7.9099
1186091.0,-78.4532,30.3585,78.4508,17.4357,17.4357,-10.2293
1186101.0,-78.4532,78.2138,78.4508,17.4357,17.4357,-9.2167
1186111.0,-78.4532,78.4508,78.4508,17.4357,17.4357,-5.9368
1186121.0,-78.4532,78.4508,78.4508,13.1772,17.4357,-3.2113
1186131.0,-78.4532,64.1646,78.4508,9.4908,17.4357,-1.3798
1186141.0,-78.4532,23.8079,78.4508,0.8274,17.4357,-0.9982
1186151.0,-78.4532,6.5122,78.4508,9.6855,0.5225,-1.0578
1186161.0,-78.4532,19.1632,78.4508,0.4087,-16.6211,-2.4701
1186171.0,-78.4532,11.157,78.4508,-2.7782,-17.4363,-3.8743
1186181.0,-78.4532,29.6306,78.4508,-6.984,-17.4363,-4.5272
1186191.0,-78.4532,29.736,78.4508,-8.1722,-17.4363,-4.2377
1186201.0,-78.4532,38.2976,65.2085,-5.9373,-17.4363,-2.982
1186211.0,-63.523,34.1988,26.4224,-6.2608,-17.4363,-1.5708
1186221.0,-41.6304,27.2652,-1.6281,-4.3122,-17.4363,-0.563
1186231.0,-32.4366,16.8935,-5.3917,-4.2223,-17.4363,-0.1155
1186241.0,-27.179,8.2361,3.4668,-3.9041,-14.4256,-0.3379
1186251.0,-22.6013,3.5051,17.3723,-3.7397,-11.8124,-0.9509
1186261.0,-22.7258,1.0247,32.6473,-2.768,-11.5724,-1.815
1186271.0,-20.6667,6.1004,36.9377,-2.685,-12.6483,-2.5366
1186281.0,-19.4696,10.7643,37.8858,-3.5008,-13.9552,-2.941
1186291.0,-15.7922,14.5759,37.8954,-4.292,-14.8624,-3.091
1186301.0,-15.0643,16.7786,35.1277,-5.1615,-15.5063,-2.8138
1186311.0,-15.1122,17.6692,35.597,-6.14,-16.6232,-2.3902
1186321.0,-12.8233,19.2877,31.6897,-6.2284,-17.4363,-1.6102
1186331.0,-12.6222,16.5679,23.3291,-6.1927,-17.4363,-0.8125
1186341.0,-8.3031,10.6398,12.9287,-6.1166,-17.4363,-0.2416
1186351.0,-4.8842,3.9552,2.9113,-5.0881,-17.4363,-0.0543
1186361.0,1.1205,-0.6991,-5.1811,-3.9632,-15.228,-0.1953
1186371.0,4.3096,-3.9073,-4.9512,-2.7643,-11.8533,-0.5156
1186381.0,6.4835,-2.4038,1.4557,-2.6834,-9.8925,-0.8524
1186391.0,6.1579,2.3367,12.469,-2.8394,-9.4913,-0.9051
1186401.0,6.4643,7.5657,20.0059,-2.5398,-10.0149,-0.422
1186411.0,5.0661,8.3701,23.1088,-2.1141,-11.4612,0.3065
1186421.0,5.1044,6.0525,15.773,-2.2439,-13.3768,0.9913
1186431.0,8.3031,-0.7566,6.857,-2.536,-14.101,1.293
1186441.0,11.2815,-6.0047,-2.6049,-1.1451,-12.9857,1.2819
1186451.0,12.3062,-8.0637,-10.3046,0.3065,-11.1004,1.0328
1186461.0,13.9534,-4.8267,-14.6717,1.4548,-9.1311,0.861
1186471.0,17.7554,-1.3503,-14.4322,2.1849,-7.1346,1.0413
1186481.0,17.6213,1.8771,-15.8209,1.8821,-6.6056,1.2765
1186491.0,20.3794,6.0238,-18.4545,0.2442,-6.4604,1.5687
1186501.0,18.4545,10.9559,-22.3618,-1.5772,-6.9505,2.079
1186511.0,16.271,15.3325,-32.8676,-3.9456,-8.3249,2.8505
1186521.0,11.9135,17.3149,-51.7818,-6.6184,-9.6876,3.8067
1186531.0,11.2144,14.8728,-71.4909,-6.8057,-9.387,4.6815
1186541.0,11.9327,15.5432,-78.4532,-3.2331,-6.1651,5.5074
1186551.0,11.4156,19.9581,-78.4532,-1.8491,-1.0701,6.2497
1186561.0,1.6568,22.8311,-78.4532,-1.3473,6.2225,6.8882
1186571.0,-13.4363,35.5491,-78.4532,1.6283,16.9829,8.1014
1186581.0,-52.7012,39.0351,-78.4532,3.0373,17.4357,10.2245
1186591.0,-78.4532,37.3687,-78.4532,6.2694,17.4357,12.4147
1186601.0,-78.4532,21.3467,-78.4532,9.1342,17.4357,13.9286
1186611.0,-78.4532,-3.6488,-78.4532,12.4158,17.4357,13.8844
1186621.0,-78.4532,-32.6473,-22.7066,16.62,17.4357,11.8368
1186631.0,-78.4532,-63.2165,34.9841,17.4357,17.4357,6.8834
1186641.0,-78.4532,-63.7049,78.4508,17.4357,17.4357,0.4502
1186651.0,-78.4532,-15.5336,78.4508,17.4357,17.4357,-4.2244
1186661.0,-78.4532,29.2667,78.4508,17.4357,17.4357,-5.2424
1186671.0,-78.4532,50.9869,78.4508,11.1951,17.4357,-3.2395
1186681.0,-78.4532,58.1599,78.4508,5.2488,17.4357,-0.2639
1186691.0,-78.4532,19.0291,78.4508,0.2751,17.4357,2.278
1186701.0,-78.4532,-20.14,78.4508,8.8682,4.9061,3.2438
1186711.0,-78.4532,-36.4876,78.4508,7.4586,-6.0693,1.2467
1186721.0,-78.4532,-50.6326,78.4508,5.4813,-16.488,-2.8638
1186731.0,-78.4532,-33.3752,78.4508,-1.0413,-17.4363,-7.2772
1186741.0,-78.4532,-15.1122,78.4508,-6.2736,-17.4363,-10.6258
1186751.0,-78.4532,15.6389,78.4508,-7.4921,-17.4363,-11.5298
1186761.0,-78.4532,38.4605,78.4508,-9.9026,-17.4363,-10.2751
1186771.0,-78.4532,40.8259,78.4508,-5.3743,-17.4363,-7.2915
1186781.0,-78.4532,30.2436,51.6956,-1.5985,-17.4363,-4.6001
1186791.0,-65.6107,12.5169,17.8129,-0.249,-17.4363,-3.5779
1186801.0,-47.2903,3.7541,-21.6244,-1.6123,-17.4363,-3.919
1186811.0,-32.1781,-0.2203,-41.4484,-3.0708,-17.4363,-5.0636
1186821.0,-24.5932,9.7109,-40.8068,-4.822,-17.4363,-5.9123
1186831.0,-20.1209,18.014,-20.4944,-4.8172,-16.637,-5.9038
1186841.0,-21.5478,31.3449,-5.679,-2.4099,-15.2668,-4.6911
1186851.0,-13.9821,29.6211,0.6321,-2.0577,-15.9597,-2.9745
1186861.0,-5.3056,19.4601,-1.0056,1.003,-15.0396,-1.7719
1186871.0,-3.802,16.6253,-12.3445,0.1368,-14.4596,-1.0967
1186881.0,1.6855,6.9911,-13.3788,-1.1552,-13.729,-1.0105
1186891.0,4.798,4.2329,-14.4418,-1.268,-11.5048,-1.3526
1186901.0,6.4069,4.9416,-7.6614,-1.2968,-9.52,-1.6123
1186911.0,7.0198,9.165,1.7717,-0.4363,-8.0083,-1.5772
1186921.0,3.2178,15.7155,10.343,-0.4427,-7.8641,-1.0451
1186931.0,1.7813,19.0962,9.5002,-1.5006,-9.6637,-0.0665
1186941.0,11.0229,13.8576,2.1452,-2.5004,-9.486,0.7423
1186951.0,15.2367,9.0501,-0.3735,-0.3251,-6.4843,1.2909
1186961.0,14.5089,8.7819,-1.4653,-0.2384,-4.5086,1.7613
1186971.0,15.9741,3.7828,6.7708,-0.6311,-3.4566,2.0433
1186981.0,17.1425,2.1644,12.22,-1.3159,-2.8532,2.1034
1186991.0,17.2478,-0.5938,22.448,-1.2132,-2.8989,2.1721
1187001.0,17.6596,0.2107,24.2389,-1.0977,-3.2076,2.2466
1187011.0,16.9031,-1.5227,30.9331,-0.7513,-3.9195,2.411
1187021.0,16.9701,-1.561,31.0097,0.7269,-4.6874,2.6414
1187031.0,17.4968,1.1013,27.3897,1.4724,-4.9428,3.0298
1187041.0,17.765,1.6951,23.5589,1.8347,-5.17,3.5747
1187051.0,20.571,0.5746,19.6037,1.7613,-4.6964,4.06
1187061.0,20.0826,-0.8332,19.575,1.7884,-4.0909,4.4687
1187071.0,18.7035,-1.2737,19.6612,1.3404,-3.9265,4.822
1187081.0,17.9086,-1.8771,21.95,1.1196,-3.9547,5.1572
1187091.0,16.338,-0.6991,22.9077,1.0499,-4.0387,5.5058
1187101.0,14.6046,1.4653,23.0801,0.5651,-4.407,5.9884
1187111.0,15.84,2.241,25.369,-0.5821,-5.0471,6.6599
1187121.0,13.9247,-5.2864,28.7208,-0.8328,-7.6566,7.1782
1187131.0,15.1218,-10.9367,15.3708,-1.9183,-10.9142,7.1692
1187141.0,17.5734,-16.1656,-3.6775,-3.3459,-13.2656,6.6152
1187151.0,20.4178,-17.8512,-32.2451,-3.5167,-13.7024,5.8165
1187161.0,20.0826,-14.1737,-67.5069,-4.5144,-11.7597,4.8608
1187171.0,19.2111,-7.0485,-78.4532,-5.4499,-7.8237,4.0488
1187181.0,15.1697,5.5258,-78.4532,-5.1743,-2.5605,3.8504
1187191.0,4.1372,16.3476,-78.4532,-3.6992,3.6354,4.4793
1187201.0,-15.6006,28.4527,-78.4532,-0.6651,9.4748,5.9331
1187211.0,-37.1101,29.9084,-78.4532,3.9477,17.4357,8.0546
1187221.0,-59.855,27.3418,-78.4532,11.0727,17.4357,9.3184
1187231.0,-78.4532,20.0251,-78.4532,15.3663,17.4357,9.6419
1187241.0,-78.4532,11.0038,-78.4532,17.4357,17.4357,8.7575
1187251.0,-78.4532,-1.8292,-78.4532,17.4357,17.4357,5.6138
1187261.0,-78.4532,10.5345,-25.12,17.4357,17.4357,1.1643
1187271.0,-78.4532,35.4725,47.4914,17.4357,17.4357,-2.652
1187281.0,-78.4532,62.1247,78.4508,17.4357,17.4357,-4.233
1187291.0,-78.4532,75.628,78.4508,13.7647,17.4357,-3.7104
1187301.0,-78.4532,72.4773,78.4508,11.052,17.4357,-2.0497
1187311.0,-78.4532,78.4508,78.4508,5.4153,17.4357,0.9386
1187321.0,-78.4532,17.9757,78.4508,-8.6224,17.4357,1.9896
1187331.0,-78.4532,42.2241,78.4508,14.6932,1.5602,6.769
1187341.0,-78.4532,7.4124,78.4508,-7.4139,-17.4363,6.6094
1187351.0,-78.4532,-26.9204,78.4508,3.902,-17.4363,6.1182
1187361.0,-78.4532,-16.6732,78.4508,-12.3557,-17.4363,3.347
1187371.0,-78.4532,-35.7215,78.4508,-8.0615,-17.4363,0.5438
1187381.0,-78.4532,0.6129,-8.3318,-10.9557,-17.4363,-0.4262
1187391.0,-60.104,-10.8314,-50.8337,-12.9309,-17.4363,-0.9929
1187401.0,-49.311,-6.8761,-78.4532,-5.8628,-17.4363,-1.2835
1187411.0,-20.4369,-8.169,-78.4532,-7.8997,-17.4363,-1.3968
1187421.0,-2.9688,-19.3835,-78.4532,-4.4697,-7.3634,-2.0508
1187431.0,-4.798,-19.1823,-41.2665,-4.4171,-1.0467,-3.065
1187441.0,-2.0207,-15.9262,-7.2975,-5.0769,0.3006,-4.0089
1187451.0,0.5171,-15.342,21.0115,-5.1184,0.2102,-4.7746
1187461.0,1.743,-13.7906,37.5794,-4.7778,-1.3271,-5.5888
1187471.0,1.6664,-9.7588,48.2863,-4.5357,-3.1927,-6.2635
1187481.0,-2.1356,-4.0127,49.8281,-4.8002,-6.5242,-6.6344
1187491.0,-1.0726,0.8715,42.5402,-6.0097,-9.2183,-6.8414
1187501.0,-0.2203,4.6448,35.7981,-4.7512,-9.6956,-6.6227
1187511.0,0.0,11.1187,23.8654,-3.7168,-9.1635,-6.0336
1187521.0,-0.067,15.4761,18.761,-3.4656,-8.2227,-5.1897
1187531.0,3.2561,18.5215,13.3596,-2.9256,-6.6897,-4.0643
1187541.0,4.5203,16.2518,16.6253,-2.6669,-4.7736,-2.9506
1187551.0,5.363,13.0819,21.5287,-2.0896,-3.5524,-2.005
1187561.0,5.0566,6.9815,28.5197,-2.6116,-3.2336,-1.3106
1187571.0,6.0717,-2.2889,35.3959,-2.7563,-3.845,-1.0876
1187581.0,7.422,-8.8681,37.723,-3.157,-4.6661,-1.434
1187591.0,8.3893,-12.5935,39.9736,-2.8053,-5.277,-2.0433
1187601.0,7.3933,-11.6167,38.8723,-2.3062,-5.6505,-2.6552
1187611.0,6.8474,-7.0198,37.407,-1.6671,-6.1081,-3.0639
1187621.0,5.3439,0.498,34.7255,-1.4223,-6.1752,-3.0809
1187631.0,5.7174,6.6942,32.3121,-1.0972,-6.3486,-2.543
1187641.0,7.2496,8.8107,29.736,-0.9434,-6.2129,-1.7091
1187651.0,8.6191,7.6902,28.1462,-0.6008,-5.9373,-0.8477
1187661.0,9.6151,4.2042,25.0529,-0.8115,-5.5515,-0.1325
1187671.0,11.6167,-3.7254,26.2117,-0.8578,-4.9465,0.2176
1187681.0,13.6469,-10.8505,26.7193,-0.4172,-4.2202,0.0793
1187691.0,15.208,-13.3788,27.428,-0.2543,-3.6668,-0.3709
1187701.0,15.0547,-14.2503,30.4351,-0.2975,-3.3055,-0.8514
1187711.0,14.8824,-12.5265,30.4638,-0.4427,-3.4667,-1.3409
1187721.0,14.5663,-10.2185,31.1534,-0.879,-3.6258,-1.6368
1187731.0,14.4514,-8.2744,31.1534,-0.8732,-3.7684,-1.8017
1187741.0,14.71,-5.7748,29.6402,-0.6907,-3.7769,-1.7916
1187751.0,15.9358,-4.2042,27.8015,-0.6226,-3.5582,-1.6804
1187761.0,16.0603,-2.7964,26.0489,-0.7391,-3.2869,-1.4463
1187771.0,16.7881,-3.2944,25.4552,-1.0366,-2.9772,-1.1685
1187781.0,17.1233,-6.3303,24.9667,-1.1488,-2.7021,-0.953
1187791.0,17.4011,-9.7205,25.1295,-0.9046,-2.2551,-0.9525
1187801.0,18.6843,-10.6781,24.3825,-0.5449,-1.5261,-1.126
1187811.0,18.4066,-9.8258,26.5086,0.2075,-0.6683,-1.2584
1187821.0,18.4832,-7.3837,29.6019,1.1547,0.1809,-1.2414
1187831.0,18.9046,-5.928,33.8349,1.815,0.5827,-1.1132
1187841.0,17.9374,-4.4341,37.589,1.6767,0.0138,-0.9903
1187851.0,17.9374,-3.5338,38.5658,0.9541,-1.0195,-0.8035
1187861.0,18.9908,-5.4492,37.9625,0.2863,-1.8507,-0.6316
1187871.0,21.3659,-8.5042,35.3384,-0.0601,-2.0774,-0.6848
1187881.0,22.199,-9.8833,35.5874,0.1171,-1.6224,-0.8955
1187891.0,21.7681,-10.2951,38.4317,0.7513,-1.2286,-1.0541
1187901.0,21.1839,-8.6479,40.5386,1.3409,-1.3718,-1.126
1187911.0,19.9964,-7.0868,42.4444,1.8837,-1.9491,-1.0568
1187921.0,19.2111,-4.9704,42.0709,2.2381,-2.7617,-0.8391
1187931.0,19.0004,-3.5817,40.1651,2.3823,-3.4545,-0.5619
1187941.0,17.6884,-2.9592,38.1157,2.2109,-4.3974,-0.216
1187951.0,18.5599,-2.5666,33.7199,1.3303,-5.8697,0.0851
1187961.0,18.7801,-4.2042,28.1367,0.1724,-7.4352,0.2543
1187971.0,18.4832,-5.1811,21.2988,-0.0181,-8.5856,0.3097
1187981.0,19.3835,-3.9648,10.1227,0.1719,-9.0491,0.3704
1187991.0,17.4106,-2.1739,-4.4341,-0.2565,-9.3428,0.497
1188001.0,16.3668,0.7757,-27.2556,-2.4094,-10.1123,0.6135
1188011.0,19.2685,0.0862,-49.2056,-4.3325,-8.3691,0.7205
1188021.0,18.8376,4.7692,-71.9122,-4.7927,-5.0774,0.8242
1188031.0,17.0084,9.2416,-78.4532,-5.1375,-1.4399,1.0531
1188041.0,9.0597,19.2685,-78.4532,-4.1148,3.1623,1.64
1188051.0,-7.1635,33.9689,-78.4532,-2.535,9.0821,2.7803
1188061.0,-22.5821,50.6709,-78.4532,2.1684,17.0244,4.9322
1188071.0,-49.6462,59.5773,-78.4532,10.4943,17.4357,7.6395
1188081.0,-78.4532,62.5078,-78.4532,17.4357,17.4357,10.009
1188091.0,-78.4532,49.5887,-78.4532,17.4357,17.4357,11.616
1188101.0,-78.4532,25.3594,-78.4532,17.4357,17.4357,10.6002
1188111.0,-78.4532,-11.8561,-56.1009,17.4357,17.4357,6.6035
1188121.0,-78.4532,-32.2355,37.1772,10.3868,17.4357,0.133
1188131.0,-78.4532,-48.3054,78.4508,4.838,17.4357,-5.7527
1188141.0,-78.4532,-9.5768,78.4508,5.0588,17.4357,-8.8091
1188151.0,-78.4532,23.8462,78.4508,8.2829,17.4357,-7.9966
1188161.0,-78.4532,68.522,78.4508,-3.2938,17.4357,-5.0556
1188171.0,-78.4532,32.5611,78.4508,0.8705,13.0543,-0.1485
1188181.0,-78.4532,27.9164,78.4508,3.4417,-10.5353,3.9525
1188191.0,-78.4532,-9.8545,78.4508,1.8017,-17.4363,5.451
1188201.0,-78.4532,-31.5364,78.4508,3.3135,-17.4363,4.806
1188211.0,-78.4532,-45.8825,78.4508,-1.9555,-17.4363,1.7187
1188221.0,-78.4532,-43.1627,58.1983,-3.4465,-17.4363,-2.1279
1188231.0,-64.3944,-22.7258,-3.8116,-9.0848,-17.4363,-5.2525
1188241.0,-55.9477,-12.8233,-15.0643,-10.2825,-17.4363,-7.3384
1188251.0,-36.9952,5.0566,-36.0663,-9.2316,-17.4363,-7.9035
1188261.0,-29.8318,12.8425,-23.2525,-6.4992,-16.1235,-7.4091
1188271.0,-22.7449,17.4394,-5.0566,-2.6723,-10.4241,-6.2997
1188281.0,-18.7322,16.8456,16.1082,-0.3746,-6.992,-5.2237
1188291.0,-16.0316,14.8919,35.032,0.6268,-6.3981,-4.4942
1188301.0,-14.9015,11.2432,51.7818,0.3911,-7.5124,-4.0845
1188311.0,-17.1904,7.2592,63.159,-0.5848,-10.9099,-4.0669
1188321.0,-15.7443,5.9089,63.6858,-2.1535,-15.2887,-4.3053
1188331.0,-16.1656,7.422,53.8408,-4.1856,-17.4363,-4.5937
1188341.0,-15.2654,10.6686,42.703,-5.8612,-17.4363,-4.6714
1188351.0,-15.8783,12.8617,31.048,-6.6477,-17.4363,-4.4469
