time_ms,ax,ay,az,gx,gy,gz
1360931.0,-1.0199,-4.0654,9.3111,-0.0702,0.0303,0.0133
1360941.0,-0.9936,-4.209,9.323,-0.0756,0.0346,0.0218
1360951.0,-0.9792,-4.276,9.3518,-0.0591,0.0458,0.0261
1360961.0,-0.9768,-4.288,9.3541,-0.0463,0.0532,0.0213
1360971.0,-0.9361,-4.2617,9.2943,-0.0399,0.0601,0.0138
1360981.0,-0.9816,-4.2593,9.3805,-0.0559,0.0649,0.0037
1360991.0,-0.9529,-4.2329,9.4547,-0.075,0.0692,-0.0043
1361001.0,-0.9912,-4.2377,9.6199,-0.0793,0.0734,-0.0101
1361011.0,-0.9505,-4.2353,9.6917,-0.0724,0.05,-0.0133
1361021.0,-0.8835,-4.1132,9.5984,-0.0633,0.0112,-0.0165
1361031.0,-0.9074,-3.9959,9.4475,-0.0575,-0.008,-0.0133
1361041.0,-0.8739,-3.9385,9.3589,-0.0607,-0.0085,0.0016
1361051.0,-0.8571,-4.0749,9.3206,-0.0793,-0.0133,0.016
1361061.0,-0.7757,-4.1468,9.2201,-0.074,-0.0106,0.0255
1361071.0,-0.7829,-4.221,9.2871,-0.067,0.017,0.0271
1361081.0,-0.7853,-4.1899,9.2273,-0.0521,0.0303,0.0229
1361091.0,-0.8092,-4.1156,9.1315,-0.0527,0.0388,0.016
1361101.0,-0.8475,-4.0223,9.0621,-0.0756,0.0447,0.0128
1361111.0,-0.8978,-4.0031,9.1578,-0.0995,0.0665,0.0208
1361121.0,-0.9481,-4.0127,9.268,-0.1038,0.0841,0.0346
1361131.0,-0.929,-4.1252,9.3182,-0.0968,0.0905,0.0479
1361141.0,-0.8523,-4.2042,9.3134,-0.0952,0.0798,0.0506
1361151.0,-0.9146,-4.1875,9.256,-0.0995,0.0702,0.0495
1361161.0,-0.9529,-4.1683,9.2344,-0.1,0.075,0.0532
1361171.0,-0.9697,-4.2234,9.3422,-0.0958,0.0878,0.0601
1361181.0,-1.0463,-4.2377,9.3996,-0.0708,0.1011,0.0713
1361191.0,-1.0678,-4.2952,9.4284,-0.049,0.1027,0.0782
1361201.0,-1.0606,-4.3048,9.4164,-0.0335,0.0984,0.0819
1361211.0,-1.1253,-4.3144,9.414,-0.0319,0.0942,0.0835
1361221.0,-1.063,-4.4173,9.4667,-0.0298,0.0921,0.0857
1361231.0,-0.984,-4.5442,9.4595,-0.0346,0.0862,0.0814
1361241.0,-0.9625,-4.6208,9.5984,-0.0399,0.0825,0.0665
1361251.0,-1.0199,-4.6304,9.6295,-0.0266,0.0851,0.049
1361261.0,-0.9888,-4.6735,9.5816,-0.0229,0.0633,0.0287
1361271.0,-0.9409,-4.6591,9.4403,-0.0335,0.0415,-0.0005
1361281.0,-0.9984,-4.5945,9.3613,-0.0585,0.0447,-0.0303
1361291.0,-1.0295,-4.5729,9.4667,-0.074,0.0596,-0.0516
1361301.0,-1.0511,-4.5298,9.6079,-0.0633,0.0702,-0.0686
1361311.0,-1.0439,-4.4269,9.6726,-0.0282,0.0639,-0.0798
1361321.0,-0.9553,-4.3431,9.5792,0.0117,0.0548,-0.0841
1361331.0,-0.8619,-4.2377,9.4715,0.0266,0.0458,-0.0905
1361341.0,-0.8954,-4.1659,9.3709,0.0085,0.0431,-0.0952
1361351.0,-0.9529,-4.0749,9.4212,-0.0218,0.0484,-0.0974
1361361.0,-1.0319,-4.0223,9.5002,-0.049,0.0596,-0.0974
1361371.0,-1.0439,-3.9025,9.6103,-0.0537,0.0617,-0.0899
1361381.0,-1.0822,-3.8595,9.6295,-0.0495,0.0521,-0.0718
1361391.0,-1.0702,-3.869,9.6798,-0.041,0.0372,-0.0479
1361401.0,-1.0942,-3.8858,9.6414,-0.0314,0.025,-0.0277
1361411.0,-1.087,-4.0079,9.5433,-0.0452,-0.0016,-0.0096
1361421.0,-1.0439,-4.1228,9.3853,-0.0543,-0.0208,0.0
1361431.0,-1.0151,-4.1779,9.1985,-0.0692,-0.025,0.0011
1361441.0,-0.9936,-4.2425,9.086,-0.0921,-0.0138,-0.0037
1361451.0,-0.9984,-4.276,9.0142,-0.1043,0.0106,-0.0074
1361461.0,-0.9864,-4.3742,9.1315,-0.0984,0.0399,-0.0106
1361471.0,-0.9816,-4.4508,9.2416,-0.0585,0.0788,-0.016
1361481.0,-0.9457,-4.4388,9.3302,-0.0011,0.1149,-0.0261
1361491.0,-0.929,-4.3,9.3422,0.0303,0.1219,-0.0367
1361501.0,-0.9601,-4.2329,9.414,0.0202,0.1272,-0.0458
1361511.0,-1.0175,-4.1324,9.4619,-0.0341,0.1123,-0.0553
1361521.0,-0.9864,-4.1755,9.6151,-0.1176,0.066,-0.0639
1361531.0,-0.9936,-4.2569,9.5864,-0.1517,0.033,-0.0665
1361541.0,-1.0319,-4.2114,9.5577,-0.1437,0.0128,-0.0681
1361551.0,-1.0247,-4.1252,9.4188,-0.1117,0.0016,-0.0628
1361561.0,-1.0032,-4.0318,9.3685,-0.0532,0.0341,-0.0447
1361571.0,-0.972,-4.027,9.4044,-0.0239,0.05,-0.0277
1361581.0,-0.9218,-4.1372,9.4212,-0.0314,0.0335,-0.0133
1361591.0,-0.8787,-4.2641,9.3637,-0.0325,0.0202,-0.0096
1361601.0,-0.8978,-4.3024,9.3422,-0.0314,0.0208,-0.0197
1361611.0,-0.8835,-4.2617,9.2368,-0.0346,0.0181,-0.033
1361621.0,-0.8188,-4.1851,9.2201,-0.0559,0.0117,-0.0468
1361631.0,-0.8475,-4.0725,9.1099,-0.0729,0.0176,-0.0537
1361641.0,-0.905,-4.0199,9.1363,-0.083,0.025,-0.05
1361651.0,-0.8452,-4.0749,9.1028,-0.0692,0.0399,-0.0346
1361661.0,-0.8739,-4.1108,9.1674,-0.0261,0.0878,-0.0186
1361671.0,-0.9385,-4.1946,9.2967,-0.0037,0.116,-0.0106
1361681.0,-0.8882,-4.2928,9.3134,-0.0154,0.0974,-0.017
1361691.0,-0.8619,-4.2689,9.3087,-0.0495,0.0772,-0.0394
1361701.0,-0.838,-4.1827,9.2703,-0.074,0.0803,-0.058
1361711.0,-0.8978,-4.0606,9.3063,-0.0772,0.0937,-0.0649
1361721.0,-0.9864,-3.9456,9.3996,-0.0782,0.0974,-0.0596
1361731.0,-1.0032,-3.9672,9.4786,-0.0596,0.1043,-0.0388
1361741.0,-1.0606,-4.1061,9.5936,-0.033,0.1011,-0.0144
1361751.0,-0.9984,-4.2665,9.5098,-0.0106,0.0846,-0.0032
1361761.0,-0.9649,-4.3814,9.4619,-0.0096,0.0772,-0.0069
1361771.0,-0.9098,-4.4077,9.4691,-0.0245,0.0686,-0.0234
1361781.0,-0.8882,-4.4221,9.3877,-0.0543,0.0468,-0.0458
1361791.0,-0.8499,-4.3646,9.3589,-0.0654,0.0442,-0.0718
1361801.0,-0.9457,-4.1779,9.3039,-0.0575,0.0708,-0.0915
1361811.0,-1.0558,-4.0558,9.3589,-0.0772,0.0766,-0.0968
1361821.0,-1.0582,-4.1132,9.4691,-0.0809,0.0835,-0.083
1361831.0,-1.0726,-4.2473,9.6391,-0.0644,0.0995,-0.0692
1361841.0,-1.0463,-4.2353,9.6678,-0.0239,0.1032,-0.0644
1361851.0,-0.9697,-4.2449,9.651,-0.017,0.0851,-0.0708
1361861.0,-0.8859,-4.1611,9.5074,-0.0596,0.0484,-0.0857
1361871.0,-0.9649,-4.1707,9.4475,-0.132,0.0351,-0.0984
1361881.0,-0.996,-4.209,9.4116,-0.1884,0.0293,-0.1064
1361891.0,-0.9529,-4.3215,9.4715,-0.2144,0.0234,-0.1117
1361901.0,-1.008,-4.312,9.4619,-0.2059,0.0271,-0.1192
1361911.0,-0.9577,-4.4125,9.6151,-0.1548,0.0442,-0.1149
1361921.0,-0.9146,-4.4604,9.6031,-0.0734,0.0511,-0.1133
1361931.0,-0.838,-4.3838,9.4786,-0.0074,0.0484,-0.1256
1361941.0,-0.8643,-4.2042,9.2871,-0.0043,0.0314,-0.1389
1361951.0,-0.8116,-4.0534,9.1195,-0.0607,0.0117,-0.1506
1361961.0,-0.8068,-3.9959,8.8442,-0.1479,0.0048,-0.1532
1361971.0,-0.8068,-4.1372,8.7173,-0.2522,0.0176,-0.1532
1361981.0,-0.8715,-4.3766,8.9759,-0.3219,0.074,-0.1554
1361991.0,-0.8882,-4.7046,9.3661,-0.3081,0.1282,-0.158
1362001.0,-0.8475,-4.9105,9.4906,-0.2469,0.1368,-0.1751
1362011.0,-0.7159,-4.9536,9.4116,-0.2187,0.1192,-0.2144
1362021.0,-0.7063,-4.8387,9.3446,-0.2597,0.1112,-0.2682
1362031.0,-0.7901,-4.6902,9.5624,-0.3283,0.1011,-0.3166
1362041.0,-0.8954,-4.4987,9.7516,-0.3533,0.0798,-0.3427
1362051.0,-0.9553,-4.3766,9.7659,-0.3251,0.0623,-0.3421
1362061.0,-0.917,-4.276,9.7827,-0.2735,0.0468,-0.323
1362071.0,-0.8643,-4.209,9.73,-0.2192,0.0277,-0.2953
1362081.0,-0.7709,-4.2234,9.5409,-0.174,0.0069,-0.2602
1362091.0,-0.7829,-4.3479,9.4906,-0.1628,-0.0101,-0.2331
1362101.0,-0.668,-4.3814,9.347,-0.1501,-0.0239,-0.2155
1362111.0,-0.7015,-4.4053,9.2512,-0.1261,-0.0032,-0.2001
1362121.0,-0.747,-4.2497,9.1171,-0.1006,0.0176,-0.1873
1362131.0,-0.7039,-4.1324,9.0716,-0.1144,0.0298,-0.1697
1362141.0,-0.7183,-4.1084,8.9639,-0.133,0.0527,-0.1442
1362151.0,-0.7638,-4.2737,9.0692,-0.1852,0.0745,-0.1213
1362161.0,-0.6584,-4.5059,9.1722,-0.2299,0.0857,-0.1101
1362171.0,-0.6512,-4.7094,9.2991,-0.2501,0.0947,-0.1123
1362181.0,-0.7207,-4.7621,9.4212,-0.2437,0.0931,-0.1256
1362191.0,-0.7422,-4.7573,9.5864,-0.1969,0.0968,-0.133
1362201.0,-0.8332,-4.6543,9.7636,-0.1043,0.1128,-0.1266
1362211.0,-0.838,-4.4772,9.6247,-0.0208,0.0958,-0.1171
1362221.0,-0.826,-4.3718,9.3111,-0.0309,0.0484,-0.1107
1362231.0,-0.735,-4.3359,9.1339,-0.1128,0.0208,-0.108
1362241.0,-0.6895,-4.5394,9.2584,-0.207,0.0197,-0.1048
1362251.0,-0.7015,-4.8435,9.3541,-0.248,0.0213,-0.1032
1362261.0,-0.5459,-5.1356,9.1794,-0.2373,0.0176,-0.1133
1362271.0,-0.3974,-5.4636,9.0716,-0.2634,0.0223,-0.1522
1362281.0,-0.4022,-5.5641,9.1051,-0.3448,0.033,-0.2182
1362291.0,-0.5076,-5.5474,9.2727,-0.4512,0.0133,-0.3022
1362301.0,-0.5195,-5.3558,9.347,-0.4981,-0.0197,-0.3709
1362311.0,-0.6321,-5.0973,9.2057,-0.4975,-0.0458,-0.4119
1362321.0,-0.6297,-4.8387,9.0788,-0.4688,-0.0617,-0.4252
1362331.0,-0.5698,-4.7118,8.9615,-0.3858,-0.0383,-0.4039
1362341.0,-0.6057,-4.8554,8.7771,-0.3012,-0.0011,-0.3645
1362351.0,-0.4908,-5.0422,8.6742,-0.2522,0.0362,-0.3459
1362361.0,-0.4381,-5.2744,8.667,-0.2772,0.0729,-0.3523
1362371.0,-0.3352,-5.5282,8.8705,-0.3379,0.0995,-0.3831
1362381.0,-0.249,-5.4636,9.0764,-0.3879,0.0974,-0.4363
1362391.0,-0.3639,-5.205,9.1602,-0.4369,0.0644,-0.4853
1362401.0,-0.3184,-4.8961,9.0166,-0.481,0.0021,-0.5103
1362411.0,-0.3711,-4.7333,8.8609,-0.4869,-0.0176,-0.4981
1362421.0,-0.3184,-4.7716,8.6646,-0.4305,0.0303,-0.456
1362431.0,-0.3184,-4.9249,8.7819,-0.4135,0.0665,-0.4214
1362441.0,-0.2562,-4.9871,9.0237,-0.3991,0.0846,-0.4033
1362451.0,-0.2753,-4.9392,9.2775,-0.3416,0.0905,-0.3826
1362461.0,-0.3687,-4.707,9.3589,-0.2176,0.0862,-0.3512
1362471.0,-0.3328,-4.367,9.1243,-0.1038,0.0676,-0.3054
1362481.0,-0.3448,-4.142,8.916,-0.0782,0.0415,-0.2501
1362491.0,-0.4238,-4.142,8.6191,-0.1203,0.0154,-0.1846
1362501.0,-0.2825,-4.4796,8.4396,-0.2027,0.0096,-0.1235
1362511.0,-0.2322,-4.9584,8.5042,-0.2724,0.0543,-0.0841
1362521.0,-0.2227,-5.272,8.7053,-0.3129,0.0958,-0.0761
1362531.0,-0.1604,-5.4181,8.9232,-0.3177,0.0921,-0.0894
1362541.0,-0.1413,-5.3271,9.007,-0.2698,0.0867,-0.0979
1362551.0,-0.2227,-5.0925,9.0812,-0.1884,0.0931,-0.0926
1362561.0,-0.3591,-4.8052,9.0812,-0.1086,0.0835,-0.0649
1362571.0,-0.328,-4.7645,8.9591,-0.0372,0.0639,-0.0133
1362581.0,-0.2777,-4.968,8.6431,0.0186,0.0713,0.0415
1362591.0,-0.1963,-5.1787,8.3917,-0.0069,0.0878,0.067
1362601.0,-0.1796,-5.5067,8.5377,-0.1144,0.1006,0.0649
1362611.0,-0.2251,-5.7628,8.7915,-0.1745,0.1187,0.0495
1362621.0,-0.1796,-5.9233,9.0573,-0.1527,0.1336,0.0261
1362631.0,-0.2107,-5.9687,9.1698,-0.0926,0.1298,0.0053
1362641.0,-0.2298,-5.8299,9.153,-0.0463,0.1054,-0.0229
1362651.0,-0.1867,-5.5929,9.0501,-0.0197,0.0873,-0.0479
1362661.0,-0.3089,-5.4181,8.9854,-0.0027,0.0862,-0.0575
1362671.0,-0.316,-5.2984,8.837,-0.0314,0.0772,-0.0601
1362681.0,-0.3448,-5.3271,8.8322,-0.1139,0.0601,-0.0617
1362691.0,-0.3328,-5.5162,9.0429,-0.1894,0.0442,-0.0665
1362701.0,-0.3328,-5.612,9.0046,-0.2011,0.0298,-0.075
1362711.0,-0.2298,-5.7509,8.9447,-0.1889,0.025,-0.0878
1362721.0,-0.1508,-5.8251,8.928,-0.1777,0.0282,-0.108
1362731.0,-0.1532,-5.7604,8.9543,-0.1708,0.025,-0.1378
1362741.0,-0.1365,-5.6,8.9615,-0.1277,0.0357,-0.1591
1362751.0,-0.2274,-5.3199,8.7963,-0.1,0.0351,-0.1703
1362761.0,-0.3615,-5.0996,8.6574,-0.1086,0.025,-0.1671
1362771.0,-0.2538,-5.1667,8.3893,-0.141,0.0293,-0.1453
1362781.0,-0.1508,-5.4636,8.4036,-0.2251,0.0564,-0.1341
1362791.0,-0.0694,-5.7772,8.7221,-0.3129,0.0761,-0.1517
1362801.0,-0.0359,-5.8873,9.0429,-0.3342,0.067,-0.182
1362811.0,-0.0718,-5.7269,8.9974,-0.2762,0.0378,-0.2097
1362821.0,-0.067,-5.4396,8.8801,-0.1916,0.033,-0.2171
1362831.0,-0.1508,-5.1595,8.8609,-0.1027,0.066,-0.1974
1362841.0,-0.328,-4.9847,9.0022,-0.0335,0.0931,-0.1618
1362851.0,-0.3855,-4.8171,9.0692,0.0261,0.0883,-0.1123
1362861.0,-0.3807,-4.8171,9.0309,0.0639,0.0585,-0.0548
1362871.0,-0.1556,-5.047,8.9016,0.0527,0.0202,-0.0069
1362881.0,-0.0144,-5.2816,8.6574,0.0016,0.0037,0.0101
1362891.0,0.0503,-5.4324,8.5281,-0.0809,-0.0074,0.0
1362901.0,0.0215,-5.4779,8.576,-0.1511,0.0,-0.0176
1362911.0,0.0551,-5.4875,8.5784,-0.1671,0.0234,-0.0325
1362921.0,-0.0359,-5.3534,8.5401,-0.1527,0.0495,-0.0415
1362931.0,-0.1149,-5.1404,8.5401,-0.1373,0.0745,-0.0383
1362941.0,-0.2155,-5.1188,8.6838,-0.1336,0.1022,-0.0165
1362951.0,-0.2179,-5.1882,8.8178,-0.1277,0.1027,0.0106
1362961.0,-0.182,-5.3486,8.7556,-0.1314,0.0851,0.0298
1362971.0,-0.1006,-5.5306,8.6574,-0.174,0.067,0.0341
1362981.0,-0.0335,-5.7006,8.837,-0.2139,0.0575,0.025
1362991.0,-0.091,-5.691,8.9376,-0.1953,0.0617,0.0144
1363001.0,-0.1221,-5.5378,8.9543,-0.1474,0.0617,0.0128
1363011.0,-0.1867,-5.3798,8.9423,-0.1016,0.0575,0.0266
1363021.0,-0.2586,-5.363,8.8538,-0.0681,0.0564,0.0511
1363031.0,-0.2442,-5.5569,8.8825,-0.0532,0.0559,0.0772
1363041.0,-0.1963,-5.8179,8.8633,-0.0569,0.0442,0.0851
1363051.0,-0.0694,-6.019,8.8681,-0.0788,0.0213,0.0654
1363061.0,-0.0479,-6.1746,8.7867,-0.1245,-0.0021,0.0277
1363071.0,0.0335,-6.1866,8.7604,-0.1602,-0.0106,-0.0218
1363081.0,-0.0096,-6.0071,8.7269,-0.1836,-0.0181,-0.0681
1363091.0,-0.0479,-5.7485,8.6886,-0.2049,-0.0309,-0.1054
1363101.0,-0.0838,-5.4803,8.6359,-0.2043,-0.0335,-0.1203
1363111.0,-0.1963,-5.3151,8.6095,-0.1825,-0.0234,-0.1139
1363121.0,-0.2466,-5.1978,8.6503,-0.1469,-0.0074,-0.091
1363131.0,-0.2203,-5.2816,8.746,-0.1059,0.0096,-0.0596
1363141.0,-0.0886,-5.4253,8.7843,-0.0511,0.0064,-0.0383
1363151.0,-0.0072,-5.2984,8.5258,-0.009,-0.0064,-0.0362
1363161.0,-0.0215,-5.0685,8.3869,-0.0112,0.009,-0.0388
1363171.0,-0.1053,-4.8171,8.4013,-0.049,0.0463,-0.0234
1363181.0,-0.1796,-4.8076,8.6455,-0.1048,0.058,0.0138
1363191.0,-0.2227,-4.8842,8.7388,-0.1171,0.0607,0.0665
1363201.0,-0.2538,-5.0925,8.8035,-0.1096,0.0575,0.1203
1363211.0,-0.0886,-5.4277,8.8059,-0.1,0.0346,0.1607
1363221.0,0.1293,-5.7174,8.7963,-0.0958,0.0101,0.1793
1363231.0,0.261,-5.8682,8.7173,-0.0575,0.0176,0.1756
1363241.0,0.3328,-5.849,8.6598,-0.0218,0.0314,0.1596
1363251.0,0.4022,-5.7174,8.4611,-0.0218,0.0255,0.1453
1363261.0,0.4142,-5.6934,8.2672,-0.0633,0.0303,0.1336
1363271.0,0.2682,-5.7389,8.2217,-0.1277,0.0527,0.1224
1363281.0,0.0934,-5.9304,8.3246,-0.1889,0.0718,0.1133
1363291.0,0.0,-6.1699,8.5042,-0.2006,0.0894,0.1
1363301.0,-0.0383,-6.2968,8.509,-0.1474,0.1149,0.074
1363311.0,-0.1963,-6.2584,8.521,-0.1075,0.132,0.0362
1363321.0,-0.182,-6.0549,8.5521,-0.0803,0.1511,0.0037
1363331.0,-0.2634,-5.8658,8.7101,-0.0878,0.1522,-0.0192
1363341.0,-0.3184,-5.6934,8.8083,-0.0905,0.1405,-0.0239
1363351.0,-0.4022,-5.6886,9.0405,-0.0766,0.1341,-0.0074
1363361.0,-0.4214,-5.7724,9.019,-0.0463,0.107,0.0122
1363371.0,-0.4501,-5.8131,8.8921,-0.0298,0.0607,0.0223
1363381.0,-0.5148,-5.9185,8.8705,-0.0261,0.0351,0.0266
1363391.0,-0.4908,-6.043,8.8178,-0.0197,0.0144,0.0282
1363401.0,-0.2993,-6.1651,8.8011,0.009,-0.0096,0.0165
1363411.0,-0.2729,-6.0885,8.5545,0.0431,-0.0218,-0.0053
1363421.0,-0.2227,-5.9759,8.2744,0.0165,-0.0431,-0.0357
1363431.0,-0.1963,-5.9807,8.1547,-0.0479,-0.0532,-0.0569
1363441.0,-0.1269,-6.0334,8.0924,-0.0835,-0.041,-0.0713
1363451.0,-0.067,-5.9879,7.932,-0.0835,0.0053,-0.0899
1363461.0,-0.1748,-5.9041,7.9535,-0.1219,0.0415,-0.1123
1363471.0,-0.2203,-5.7174,7.944,-0.1644,0.0697,-0.1298
1363481.0,-0.261,-5.6024,7.9272,-0.2198,0.0873,-0.1373
1363491.0,-0.2801,-5.679,8.2193,-0.2783,0.1043,-0.1298
1363501.0,-0.2729,-5.7317,8.4827,-0.24,0.1373,-0.1123
1363511.0,-0.3232,-5.6168,8.5784,-0.1261,0.1671,-0.0851
1363521.0,-0.1628,-5.6312,8.6119,-0.0399,0.166,-0.0548
1363531.0,-0.067,-5.636,8.4348,0.0149,0.1767,-0.0319
1363541.0,-0.0359,-5.5857,8.5042,0.016,0.2065,-0.0239
1363551.0,-0.0982,-5.5593,8.7819,-0.0452,0.2091,-0.0213
1363561.0,-0.1101,-5.5713,8.9399,-0.0915,0.182,-0.0192
1363571.0,-0.1125,-5.5617,8.9687,-0.1208,0.1442,-0.017
1363581.0,-0.146,-5.6479,9.0285,-0.1415,0.1016,-0.0149
1363591.0,-0.1676,-5.6886,9.1267,-0.1107,0.0793,-0.0059
1363601.0,-0.17,-5.7174,9.0956,-0.0245,0.0745,0.0074
1363611.0,-0.2035,-5.794,9.1818,0.0761,0.0697,0.0208
1363621.0,-0.1532,-5.7628,9.2105,0.1958,0.0596,0.0325
1363631.0,-0.1389,-5.6024,9.0022,0.3092,0.0479,0.0383
1363641.0,-0.1556,-5.4348,8.6455,0.3368,0.0303,0.0442
1363651.0,-0.1796,-5.4708,8.6048,0.2634,0.0059,0.0468
1363661.0,-0.1796,-5.5354,8.6,0.2224,0.0005,0.0506
1363671.0,-0.1365,-5.5234,8.4204,0.2192,0.0208,0.0516
1363681.0,-0.1484,-5.5881,8.3989,0.1969,0.0367,0.0495
1363691.0,-0.2346,-5.7269,8.6072,0.1884,0.0798,0.0452
1363701.0,-0.249,-5.8682,8.9878,0.2506,0.1325,0.0394
1363711.0,-0.3017,-5.8299,9.402,0.3741,0.1575,0.0287
1363721.0,-0.2993,-5.6719,9.6127,0.5193,0.1501,0.0197
1363731.0,-0.2993,-5.375,9.4332,0.63,0.1091,0.0112
1363741.0,-0.2203,-5.0877,9.007,0.63,0.0575,0.0021
1363751.0,-0.2777,-4.9416,8.6431,0.4906,0.0266,-0.0101
1363761.0,-0.2945,-4.9632,8.6694,0.2677,0.0186,-0.0293
1363771.0,-0.3663,-5.1092,9.0022,0.0899,0.0341,-0.0458
1363781.0,-0.4381,-5.3846,9.414,0.0245,0.0298,-0.0548
1363791.0,-0.4118,-5.4636,9.6534,0.1112,0.0197,-0.058
1363801.0,-0.4693,-5.2265,9.6367,0.3054,0.0378,-0.0516
1363811.0,-0.4238,-4.9177,9.4188,0.4555,0.0357,-0.0388
1363821.0,-0.3041,-4.6232,8.9495,0.5013,0.0043,-0.0218
1363831.0,-0.1724,-4.4412,8.4563,0.4087,-0.0138,-0.0165
1363841.0,-0.0335,-4.3814,8.2456,0.2107,0.0048,-0.0192
1363851.0,-0.0982,-4.4772,8.4755,-0.0234,0.0431,-0.0255
1363861.0,-0.1556,-4.6687,9.074,-0.1777,0.0798,-0.0277
1363871.0,-0.2251,-4.7333,9.4667,-0.1852,0.0952,-0.0213
1363881.0,-0.2634,-4.6926,9.6295,-0.1171,0.0803,-0.0032
1363891.0,-0.1844,-4.6591,9.5241,-0.0229,0.0463,0.0261
1363901.0,-0.158,-4.7357,9.3613,0.0415,0.0266,0.0548
1363911.0,-0.0838,-4.8195,9.1722,0.0745,0.0255,0.0772
1363921.0,-0.0168,-4.9321,9.0956,0.0654,0.0293,0.0788
1363931.0,-0.0455,-4.9656,9.1794,0.0303,0.0303,0.0644
1363941.0,-0.0694,-4.9201,9.2009,0.0032,0.0388,0.0468
1363951.0,-0.1365,-4.8267,9.2895,-0.0186,0.0394,0.0309
1363961.0,-0.2586,-4.7812,9.2871,-0.0564,0.008,0.0239
1363971.0,-0.2131,-4.8052,9.1985,-0.0681,-0.025,0.0298
1363981.0,-0.1532,-4.8746,8.9495,-0.0532,-0.0277,0.0372
1363991.0,-0.1604,-4.9512,8.7867,-0.0702,-0.0053,0.0362
1364001.0,-0.1939,-5.0853,8.9663,-0.1197,0.008,0.0245
1364011.0,-0.146,-5.1811,9.2033,-0.1139,0.0277,0.0133
1364021.0,-0.1844,-5.2074,9.3158,-0.0436,0.0495,0.0032
1364031.0,-0.1556,-5.0949,9.2751,0.0208,0.0383,-0.0106
1364041.0,-0.0646,-4.8459,9.1051,0.0431,0.0085,-0.0277
1364051.0,-0.0455,-4.6471,8.916,0.0208,-0.0027,-0.0351
1364061.0,-0.0814,-4.4341,8.8729,-0.0346,-0.0011,-0.0319
1364071.0,-0.1772,-4.3694,8.9352,-0.0905,-0.0021,-0.0106
1364081.0,-0.2011,-4.5418,9.1123,-0.1027,-0.0048,0.0298
1364091.0,-0.1748,-4.7836,9.1075,-0.0394,0.0005,0.0708
1364101.0,-0.0431,-4.9752,9.0166,0.0511,0.0176,0.0937
1364111.0,-0.0551,-5.0087,8.9639,0.1176,0.0372,0.0952
1364121.0,-0.0287,-5.0039,8.928,0.1314,0.0319,0.0835
1364131.0,0.0,-4.9201,8.8107,0.1266,0.0234,0.0649
1364141.0,-0.0168,-4.786,8.5832,0.1022,0.0341,0.0474
1364151.0,-0.0886,-4.6735,8.5928,0.0351,0.0617,0.0362
1364161.0,-0.2011,-4.6998,8.8059,-0.0287,0.0942,0.0362
1364171.0,-0.1963,-4.8435,9.0429,-0.0527,0.1064,0.0426
1364181.0,-0.2107,-4.9512,9.1171,-0.0346,0.116,0.0415
1364191.0,-0.1891,-5.0853,9.2608,-0.017,0.1155,0.0341
1364201.0,-0.1915,-5.2122,9.4164,0.016,0.1155,0.0213
1364211.0,-0.2059,-5.1116,9.4786,0.0835,0.1117,0.0021
1364221.0,-0.1891,-4.8961,9.3087,0.1075,0.0862,-0.0192
1364231.0,-0.158,-4.6998,9.244,0.0846,0.0607,-0.0341
1364241.0,-0.2274,-4.5155,9.0237,0.0266,0.0474,-0.0383
1364251.0,-0.3089,-4.5179,9.1722,-0.0458,0.041,-0.0319
1364261.0,-0.3879,-4.4939,9.1626,-0.0601,0.0617,-0.0138
1364271.0,-0.395,-4.64,9.2727,-0.0585,0.0841,0.0059
1364281.0,-0.34,-4.7429,9.3709,-0.0399,0.0846,0.0181
1364291.0,-0.261,-4.8123,9.4236,-0.0096,0.0851,0.0208
1364301.0,-0.2514,-4.8004,9.3494,0.0149,0.0788,0.0192
1364311.0,-0.2131,-4.695,9.2656,0.0048,0.0713,0.0117
1364321.0,-0.2155,-4.6376,9.2991,-0.042,0.066,0.0074
1364331.0,-0.237,-4.6807,9.3494,-0.0819,0.0612,0.0112
1364341.0,-0.2586,-4.7381,9.4068,-0.1086,0.0447,0.0144
1364351.0,-0.2873,-4.8315,9.4739,-0.1048,0.0325,0.0202
1364361.0,-0.2705,-4.9344,9.5074,-0.0527,0.0415,0.0266
1364371.0,-0.1077,-5.0111,9.3972,-0.017,0.0293,0.0213
1364381.0,-0.0742,-4.9608,9.2057,-0.0261,0.0101,0.0021
1364391.0,-0.1245,-4.889,9.1243,-0.067,0.0138,-0.0255
1364401.0,-0.1556,-4.707,9.1554,-0.0995,0.0335,-0.0394
1364411.0,-0.2059,-4.6615,9.256,-0.1149,0.0447,-0.0388
1364421.0,-0.2322,-4.5562,9.3087,-0.108,0.05,-0.0314
1364431.0,-0.2921,-4.4412,9.2847,-0.1075,0.05,-0.0186
1364441.0,-0.34,-4.4772,9.256,-0.1352,0.0351,0.0016
1364451.0,-0.261,-4.6208,9.268,-0.166,0.0037,0.0192
1364461.0,-0.1053,-4.774,9.0908,-0.1602,-0.0133,0.0346
1364471.0,-0.1891,-4.9512,9.0597,-0.1437,0.0059,0.041
1364481.0,-0.1293,-5.0302,8.928,-0.1096,0.0229,0.0399
1364491.0,-0.0814,-5.1547,8.9184,-0.0952,0.0447,0.0239
1364501.0,-0.0886,-5.1404,8.8777,-0.0878,0.0644,-0.008
1364511.0,-0.1724,-5.0087,8.9423,-0.1043,0.0713,-0.041
1364521.0,-0.1796,-4.944,8.9399,-0.1383,0.0591,-0.0644
1364531.0,-0.1413,-4.8674,9.0357,-0.1421,0.0692,-0.0772
1364541.0,-0.1844,-4.8578,9.098,-0.1245,0.0889,-0.0793
1364551.0,-0.146,-4.8554,9.2081,-0.0905,0.1006,-0.0782
1364561.0,-0.1341,-4.7884,9.1746,-0.0479,0.1075,-0.0793
1364571.0,-0.1844,-4.5825,9.0812,-0.0378,0.1022,-0.0777
1364581.0,-0.2658,-4.537,9.1075,-0.0575,0.0963,-0.0665
1364591.0,-0.2562,-4.6088,9.1602,-0.0734,0.0878,-0.0468
1364601.0,-0.2203,-4.7022,9.2057,-0.0623,0.0905,-0.0325
1364611.0,-0.2274,-4.6878,9.2153,-0.0404,0.1,-0.0239
1364621.0,-0.2298,-4.6543,9.2344,-0.0346,0.0974,-0.0239
1364631.0,-0.1724,-4.5825,9.2632,-0.0404,0.1006,-0.0229
1364641.0,-0.2418,-4.5298,9.3398,-0.0665,0.0889,-0.0234
1364651.0,-0.2346,-4.5442,9.3302,-0.1027,0.0553,-0.025
1364661.0,-0.2586,-4.4724,9.2392,-0.1128,0.042,-0.0213
1364671.0,-0.3017,-4.4436,9.2273,-0.1096,0.0415,-0.0101
1364681.0,-0.3256,-4.4149,9.1363,-0.0963,0.0388,0.009
1364691.0,-0.1963,-4.4796,8.9352,-0.0937,0.0447,0.0266
1364701.0,-0.237,-4.5466,9.0764,-0.1059,0.0745,0.0362
1364711.0,-0.2394,-4.628,9.0836,-0.0937,0.0995,0.0458
1364721.0,-0.2394,-4.7309,9.1818,-0.0995,0.1091,0.049
1364731.0,-0.3089,-4.7716,9.2656,-0.1048,0.1032,0.0447
1364741.0,-0.3017,-4.7836,9.3661,-0.0857,0.1086,0.0452
1364751.0,-0.3376,-4.8866,9.493,-0.0532,0.1139,0.05
1364761.0,-0.2921,-4.9656,9.5816,-0.025,0.1006,0.0537
1364771.0,-0.2442,-5.0182,9.5936,0.0032,0.083,0.049
1364781.0,-0.2155,-4.9871,9.4379,0.0122,0.0585,0.0362
1364791.0,-0.2131,-4.9368,9.2727,-0.0255,0.0314,0.016
1364801.0,-0.261,-4.8626,9.2201,-0.0846,0.0133,-0.0053
1364811.0,-0.3591,-4.7812,9.1482,-0.1171,0.017,-0.0149
1364821.0,-0.4693,-4.7238,9.1674,-0.1235,0.0277,-0.0133
1364831.0,-0.4597,-4.7309,9.2895,-0.0963,0.0479,0.0016
1364841.0,-0.3472,-4.8698,9.414,-0.0447,0.0681,0.0223
1364851.0,-0.2274,-4.9225,9.3733,0.0021,0.058,0.0314
1364861.0,-0.1844,-4.9177,9.2177,0.009,0.0372,0.0239
1364871.0,-0.2083,-4.877,9.1794,-0.025,0.0197,0.016
1364881.0,-0.2155,-4.9225,9.1387,-0.0521,0.0192,0.0133
1364891.0,-0.2514,-4.9536,9.1147,-0.058,0.0309,0.0096
1364901.0,-0.3017,-4.9416,9.1818,-0.0495,0.0367,0.0043
1364911.0,-0.261,-4.9297,9.165,-0.0436,0.0309,-0.0027
1364921.0,-0.2011,-4.9416,9.1051,-0.033,0.0303,-0.0064
1364931.0,-0.1963,-4.9464,9.1626,-0.0213,0.0458,-0.0101
1364941.0,-0.158,-5.0039,9.177,-0.0255,0.0442,-0.017
1364951.0,-0.1748,-4.9943,9.2057,-0.0298,0.0372,-0.0309
1364961.0,-0.1724,-4.8842,9.1746,-0.0149,0.0404,-0.0463
1364971.0,-0.2993,-4.7381,9.1147,-0.0234,0.0346,-0.0564
1364981.0,-0.34,-4.7046,9.1075,-0.0362,0.0282,-0.0564
1364991.0,-0.2777,-4.7022,8.9854,-0.0383,0.0367,-0.049
1365001.0,-0.261,-4.8243,9.0429,-0.0564,0.0474,-0.0463
1365011.0,-0.1844,-4.877,9.1435,-0.0665,0.0628,-0.0527
1365021.0,-0.1532,-4.7429,9.1243,-0.0809,0.0708,-0.0724
1365031.0,-0.237,-4.4604,9.098,-0.1245,0.0596,-0.0937
1365041.0,-0.2801,-4.2401,9.1171,-0.1708,0.0479,-0.0894
1365051.0,-0.3591,-4.1563,9.2512,-0.183,0.05,-0.0585
1365061.0,-0.431,-4.1515,9.2512,-0.1527,0.0527,-0.0106
1365071.0,-0.3304,-4.3718,9.1889,-0.1112,0.0399,0.0426
1365081.0,-0.2993,-4.561,9.0166,-0.0724,0.041,0.0756
1365091.0,-0.2634,-4.616,8.8011,-0.0628,0.0479,0.0862
1365101.0,-0.1939,-4.7669,8.7221,-0.1027,0.0617,0.0947
1365111.0,-0.1772,-4.9967,8.7604,-0.1431,0.0952,0.0958
1365121.0,-0.2298,-5.1954,8.9112,-0.1596,0.1293,0.0873
1365131.0,-0.2394,-5.296,9.0142,-0.1623,0.1458,0.0692
1365141.0,-0.2969,-5.3319,9.2368,-0.1517,0.1596,0.0458
1365151.0,-0.3376,-5.2409,9.3254,-0.132,0.1607,0.0234
1365161.0,-0.3543,-5.1571,9.3015,-0.1203,0.1394,0.0085
1365171.0,-0.3424,-5.1236,9.2919,-0.1378,0.1133,0.0
1365181.0,-0.3639,-5.1475,9.2775,-0.1474,0.1022,-0.0027
1365191.0,-0.3687,-5.2385,9.3039,-0.1602,0.0947,-0.0048
1365201.0,-0.3926,-5.3558,9.4739,-0.1538,0.0766,-0.0128
1365211.0,-0.3783,-5.4875,9.3925,-0.1091,0.0537,-0.0213
1365221.0,-0.3472,-5.5378,9.3494,-0.0537,0.0559,-0.0399
1365231.0,-0.2298,-5.4779,9.2201,0.0064,0.0686,-0.0628
1365241.0,-0.237,-5.3486,9.1866,0.0181,0.0734,-0.0905
1365251.0,-0.2131,-5.2313,9.2105,-0.0048,0.075,-0.1235
1365261.0,-0.182,-5.1092,9.2919,-0.0367,0.0777,-0.1506
1365271.0,-0.1867,-4.9584,9.5002,-0.0617,0.0692,-0.1703
1365281.0,-0.2179,-4.7501,9.4236,-0.0756,0.0468,-0.1841
1365291.0,-0.2658,-4.5562,9.2512,-0.107,0.0186,-0.1841
1365301.0,-0.2945,-4.5131,9.1698,-0.1298,0.0154,-0.1724
1365311.0,-0.3663,-4.5059,9.2368,-0.1325,0.0245,-0.1532
1365321.0,-0.3376,-4.4915,9.2775,-0.1123,0.0287,-0.1357
1365331.0,-0.3448,-4.4269,9.177,-0.0596,0.0447,-0.1117
1365341.0,-0.3208,-4.3287,9.007,-0.0149,0.0681,-0.0889
1365351.0,-0.3136,-4.3431,9.0094,-0.0165,0.0995,-0.0665
1365361.0,-0.3591,-4.391,9.1866,-0.0474,0.1229,-0.05
1365371.0,-0.4238,-4.458,9.3613,-0.0851,0.1277,-0.041
1365381.0,-0.4405,-4.5179,9.5864,-0.1048,0.1133,-0.0319
1365391.0,-0.4214,-4.6591,9.7995,-0.0942,0.0889,-0.0192
1365401.0,-0.3926,-4.6471,9.7492,-0.042,0.0543,-0.0106
1365411.0,-0.3472,-4.5657,9.5672,-0.0096,0.0106,-0.0059
1365421.0,-0.3519,-4.458,9.3661,-0.0213,-0.0234,0.0021
1365431.0,-0.328,-4.4508,9.2081,-0.0495,-0.0335,0.0138
1365441.0,-0.3376,-4.5322,9.0908,-0.0825,-0.0335,0.0266
1365451.0,-0.2993,-4.7166,9.153,-0.1304,-0.0506,0.0325
1365461.0,-0.237,-4.9057,9.1506,-0.1293,-0.0495,0.0357
1365471.0,-0.2083,-4.9512,9.0597,-0.0734,-0.0282,0.033
1365481.0,-0.1939,-4.9344,8.9376,-0.0378,-0.0213,0.0277
1365491.0,-0.182,-4.9057,8.7963,-0.0341,-0.0149,0.0213
1365501.0,-0.1413,-4.8866,8.7101,-0.0495,-0.009,0.0144
1365511.0,-0.1556,-4.853,8.6981,-0.0756,0.0048,0.0059
1365521.0,-0.103,-4.9081,8.7652,-0.0958,0.0357,0.0043
1365531.0,-0.0742,-5.0374,9.0381,-0.0878,0.0676,0.0048
1365541.0,-0.0575,-5.0111,9.1123,-0.0543,0.0697,-0.0011
1365551.0,-0.091,-4.9704,9.0357,-0.0282,0.0591,-0.0101
1365561.0,-0.17,-4.8626,9.1363,-0.0048,0.0745,-0.0165
1365571.0,-0.1939,-4.7142,9.2105,0.0074,0.0782,-0.016
1365581.0,-0.17,-4.6926,9.232,0.0011,0.0532,-0.0096
1365591.0,-0.1508,-4.6471,9.0788,-0.0106,0.0154,-0.0043
1365601.0,-0.1939,-4.6663,8.9711,-0.0479,-0.009,-0.0021
1365611.0,-0.1221,-4.7094,8.8729,-0.0612,-0.0122,0.0074
1365621.0,-0.1006,-4.8507,8.8059,-0.0474,0.0037,0.016
1365631.0,-0.0407,-4.9225,8.7221,-0.0218,0.0229,0.0197
1365641.0,0.0168,-5.0254,8.7412,0.0043,0.0537,0.0192
1365651.0,0.0622,-5.0757,8.7652,0.0367,0.0921,0.0096
1365661.0,0.0215,-4.9656,8.928,0.0644,0.1298,-0.0064
1365671.0,-0.0192,-4.8171,8.9759,0.0718,0.1389,-0.0202
1365681.0,-0.0048,-4.6855,8.8346,0.0261,0.125,-0.0325
1365691.0,-0.0742,-4.5969,8.8873,-0.0654,0.1229,-0.0452
1365701.0,-0.1293,-4.6064,9.1387,-0.149,0.1314,-0.05
1365711.0,-0.2059,-4.6902,9.3853,-0.1692,0.1293,-0.0404
1365721.0,-0.2538,-4.853,9.4906,-0.133,0.1101,-0.0261
1365731.0,-0.2705,-4.8052,9.4284,-0.0543,0.1,-0.016
1365741.0,-0.3903,-4.719,9.2751,0.0149,0.1075,-0.0021
1365751.0,-0.4334,-4.7022,9.1818,0.0341,0.1235,0.0149
1365761.0,-0.4286,-4.8411,9.2392,0.0027,0.1336,0.025
1365771.0,-0.3759,-4.9704,9.3374,-0.05,0.1266,0.0186
1365781.0,-0.3831,-4.9919,9.402,-0.1016,0.1027,-0.0048
1365791.0,-0.3855,-4.944,9.4643,-0.133,0.0793,-0.0271
1365801.0,-0.3687,-4.8698,9.4068,-0.1187,0.0718,-0.0367
1365811.0,-0.4094,-4.7597,9.3757,-0.0777,0.0798,-0.0335
1365821.0,-0.3926,-4.6998,9.3446,-0.0436,0.0905,-0.0208
1365831.0,-0.3831,-4.7621,9.3877,-0.0399,0.1022,-0.0112
1365841.0,-0.3735,-4.8219,9.414,-0.05,0.1016,-0.0069
1365851.0,-0.3567,-4.889,9.5481,-0.0756,0.0862,-0.0149
1365861.0,-0.2777,-4.8961,9.5433,-0.0862,0.0692,-0.025
1365871.0,-0.261,-4.865,9.4762,-0.1075,0.0298,-0.0426
1365881.0,-0.2011,-4.7094,9.3302,-0.1325,-0.0138,-0.0575
1365891.0,-0.2011,-4.6112,9.2225,-0.1368,-0.016,-0.0537
1365901.0,-0.2322,-4.5466,9.1195,-0.1149,0.008,-0.0341
1365911.0,-0.2658,-4.5777,9.0357,-0.0894,0.0213,-0.0117
1365921.0,-0.1987,-4.6591,9.0046,-0.067,0.0388,0.0096
1365931.0,-0.2346,-4.7908,8.9974,-0.0426,0.0644,0.0229
1365941.0,-0.2921,-4.774,8.9902,-0.0239,0.0814,0.0266
1365951.0,-0.2586,-4.8698,9.0309,-0.0319,0.0862,0.0277
1365961.0,-0.1867,-4.9129,9.1171,-0.033,0.1128,0.0213
1365971.0,-0.2442,-4.9536,9.2536,-0.058,0.1245,0.0048
1365981.0,-0.2897,-4.8937,9.3589,-0.0905,0.1048,-0.0138
1365991.0,-0.3711,-4.8291,9.5098,-0.0979,0.0883,-0.0202
1366001.0,-0.3759,-4.8794,9.5433,-0.0782,0.0745,-0.0101
1366011.0,-0.3974,-4.9488,9.5864,-0.0495,0.0543,-0.0027
1366021.0,-0.3639,-4.9919,9.5553,-0.0208,0.0287,-0.0021
1366031.0,-0.3256,-4.9704,9.4284,-0.0005,0.0027,-0.009
1366041.0,-0.2801,-4.8914,9.2512,-0.0245,-0.0319,-0.0293
1366051.0,-0.2131,-4.798,9.1051,-0.0543,-0.0484,-0.0431
1366061.0,-0.2131,-4.7453,8.9902,-0.0702,-0.0458,-0.0516
1366071.0,-0.2227,-4.6998,8.9447,-0.0825,-0.049,-0.0532
1366081.0,-0.2155,-4.6711,8.77,-0.0665,-0.0229,-0.0468
1366091.0,-0.2514,-4.6687,8.8107,-0.042,0.0303,-0.0367
1366101.0,-0.2825,-4.7118,8.904,-0.0341,0.0644,-0.0303
1366111.0,-0.2227,-4.7285,9.0285,-0.0309,0.074,-0.0293
1366121.0,-0.2035,-4.7453,9.1291,-0.0144,0.0883,-0.0282
1366131.0,-0.2227,-4.6639,9.2177,0.0016,0.0931,-0.0298
1366141.0,-0.158,-4.5179,9.2033,-0.0043,0.0761,-0.0298
1366151.0,-0.1389,-4.3718,9.0429,-0.0394,0.0569,-0.0245
1366161.0,-0.182,-4.3574,9.0022,-0.0958,0.0484,-0.0112
1366171.0,-0.237,-4.458,9.0022,-0.141,0.0569,0.0096
1366181.0,-0.328,-4.6902,9.2153,-0.1687,0.0681,0.0287
1366191.0,-0.3974,-4.8267,9.3158,-0.1282,0.0835,0.0426
1366201.0,-0.4142,-4.956,9.4475,-0.0607,0.0899,0.05
1366211.0,-0.3208,-4.968,9.2943,-0.009,0.0729,0.0506
1366221.0,-0.2155,-4.9392,9.1435,-0.0053,0.0601,0.0415
1366231.0,-0.1748,-4.877,9.0764,-0.0431,0.0596,0.0266
1366241.0,-0.1772,-4.9081,9.0764,-0.1027,0.0596,0.0101
1366251.0,-0.1915,-4.9249,9.1195,-0.1532,0.0495,-0.0043
1366261.0,-0.3112,-4.9752,9.2129,-0.1708,0.0564,-0.0138
1366271.0,-0.4357,-5.0685,9.4739,-0.1117,0.099,-0.0074
1366281.0,-0.4166,-5.1404,9.6055,-0.0261,0.108,-0.0037
1366291.0,-0.3089,-5.1451,9.4882,0.0362,0.0788,-0.0144
1366301.0,-0.2298,-4.9728,9.2823,0.0372,0.0463,-0.041
1366311.0,-0.2203,-4.8052,9.2249,-0.0309,0.0293,-0.0676
1366321.0,-0.2634,-4.6687,9.256,-0.107,0.0181,-0.0825
1366331.0,-0.2921,-4.6232,9.268,-0.1676,-0.0027,-0.083
1366341.0,-0.34,-4.6591,9.3111,-0.157,0.0053,-0.0692
1366351.0,-0.3663,-4.6448,9.3781,-0.083,0.0346,-0.0479
1366361.0,-0.3496,-4.6208,9.3182,-0.0085,0.0394,-0.0282
1366371.0,-0.2777,-4.5849,9.2727,0.0255,0.0245,-0.0138
1366381.0,-0.1915,-4.6711,9.2775,0.0282,0.0176,-0.0027
1366391.0,-0.1437,-4.6974,9.232,0.0154,0.0074,-0.0053
1366401.0,-0.158,-4.628,9.165,-0.0165,-0.0154,-0.0154
1366411.0,-0.1221,-4.5873,8.9711,-0.0506,-0.0325,-0.0234
1366421.0,-0.182,-4.4532,8.7963,-0.0819,-0.0293,-0.0271
1366431.0,-0.2777,-4.3646,8.7245,-0.1038,-0.0133,-0.0176
1366441.0,-0.2514,-4.4772,8.7891,-0.099,0.0303,0.0122
1366451.0,-0.2586,-4.6376,8.8825,-0.0654,0.0734,0.041
1366461.0,-0.2107,-4.7645,8.9926,-0.0149,0.1027,0.0596
1366471.0,-0.1341,-4.9273,9.1099,0.0298,0.1282,0.0676
1366481.0,-0.1173,-4.9895,9.1961,0.0431,0.1426,0.0553
1366491.0,-0.1341,-4.9584,9.256,0.0074,0.1293,0.0255
1366501.0,-0.2059,-4.8171,9.3039,-0.0532,0.0979,-0.0064
1366511.0,-0.2729,-4.774,9.4906,-0.1048,0.0745,-0.0229
1366521.0,-0.328,-4.719,9.4619,-0.1133,0.05,-0.025
1366531.0,-0.34,-4.6902,9.3589,-0.1112,0.0133,-0.0192
1366541.0,-0.2993,-4.7142,9.1818,-0.1054,-0.009,-0.009
1366551.0,-0.2514,-4.719,9.0788,-0.0596,0.0239,0.0048
1366561.0,-0.2753,-4.7621,9.153,-0.0309,0.0591,0.0122
1366571.0,-0.2203,-4.8674,9.165,-0.0271,0.0612,0.0154
1366581.0,-0.182,-4.8985,9.2225,-0.0192,0.0686,0.0122
1366591.0,-0.2322,-4.8315,9.1842,-0.0165,0.0766,0.0
1366601.0,-0.2538,-4.7477,9.2129,-0.0394,0.0676,-0.0128
1366611.0,-0.2394,-4.5825,9.1147,-0.0692,0.0612,-0.0181
1366621.0,-0.3352,-4.4963,9.165,-0.1011,0.0686,-0.0122
1366631.0,-0.3567,-4.5274,9.3111,-0.1133,0.0803,0.0059
1366641.0,-0.3639,-4.6759,9.4571,-0.0819,0.0921,0.0341
1366651.0,-0.3424,-4.8411,9.6007,-0.0325,0.0889,0.0548
1366661.0,-0.1915,-4.9967,9.5672,0.0106,0.0692,0.0601
1366671.0,-0.1317,-5.102,9.4332,0.0059,0.0319,0.0442
1366681.0,-0.1269,-5.0853,9.244,-0.0474,-0.0064,0.0117
1366691.0,-0.1389,-5.0206,9.1363,-0.091,-0.0117,-0.0197
1366701.0,-0.2251,-4.8961,9.1075,-0.1235,-0.0069,-0.0474
1366711.0,-0.2801,-4.6639,8.9998,-0.1368,-0.0085,-0.0612
1366721.0,-0.3615,-4.5035,8.9687,-0.1197,0.008,-0.0521
1366731.0,-0.4597,-4.4484,9.0237,-0.0654,0.058,-0.0202
1366741.0,-0.4381,-4.5801,9.2871,-0.0064,0.1006,0.0202
1366751.0,-0.2705,-4.8435,9.3134,0.0431,0.0958,0.05
1366761.0,-0.1484,-5.0182,9.2344,0.0527,0.0734,0.0511
1366771.0,-0.0982,-5.1092,9.1411,0.0213,0.0617,0.0234
1366781.0,-0.1197,-5.102,9.1554,-0.0585,0.0463,-0.0192
1366791.0,-0.1556,-5.0733,9.2153,-0.132,0.0293,-0.0601
1366801.0,-0.2514,-4.9105,9.2416,-0.1543,0.025,-0.091
1366811.0,-0.2873,-4.719,9.2703,-0.1293,0.0218,-0.0995
1366821.0,-0.3208,-4.6017,9.2656,-0.0654,0.0367,-0.0878
1366831.0,-0.2729,-4.5897,9.244,0.0128,0.0628,-0.0617
1366841.0,-0.2418,-4.6136,9.244,0.0681,0.0841,-0.0404
1366851.0,-0.2634,-4.6471,9.2536,0.0676,0.0867,-0.0335
1366861.0,-0.2729,-4.6448,9.1674,0.0122,0.0644,-0.0404
1366871.0,-0.237,-4.6735,9.177,-0.0697,0.0404,-0.0559
1366881.0,-0.2466,-4.628,9.2632,-0.1197,0.0399,-0.0676
1366891.0,-0.2729,-4.5155,9.3134,-0.1421,0.0266,-0.0724
1366901.0,-0.2322,-4.3766,9.2225,-0.125,0.0144,-0.0628
1366911.0,-0.2921,-4.2737,9.1291,-0.0772,0.0314,-0.0367
1366921.0,-0.2682,-4.3622,9.0788,-0.0335,0.0575,-0.0011
1366931.0,-0.2825,-4.4269,9.1554,0.0053,0.0867,0.0277
1366941.0,-0.2993,-4.5945,9.1889,0.0165,0.1107,0.0447
1366951.0,-0.2203,-4.7262,9.2727,0.0011,0.1128,0.0447
1366961.0,-0.2514,-4.81,9.3877,-0.0378,0.0963,0.0271
1366971.0,-0.2825,-4.7549,9.4403,-0.0819,0.067,0.0027
1366981.0,-0.2059,-4.6783,9.4212,-0.1,0.0458,-0.0117
1366991.0,-0.1867,-4.6184,9.3661,-0.1075,0.0277,-0.017
1367001.0,-0.1389,-4.5753,9.2919,-0.1022,0.0165,-0.0117
1367011.0,-0.1844,-4.5753,9.2296,-0.074,0.0341,0.0005
1367021.0,-0.2514,-4.6328,9.2368,-0.0516,0.0553,0.0133
1367031.0,-0.2538,-4.7621,9.3374,-0.033,0.0633,0.0186
1367041.0,-0.2705,-4.8147,9.2895,-0.0176,0.0644,0.016
1367051.0,-0.2634,-4.7956,9.2847,-0.0149,0.0681,0.0048
1367061.0,-0.2155,-4.7262,9.2943,-0.0378,0.058,-0.0101
1367071.0,-0.1724,-4.6376,9.2608,-0.0745,0.0399,-0.0255
1367081.0,-0.1987,-4.5729,9.2703,-0.1181,0.0213,-0.0351
1367091.0,-0.1987,-4.561,9.335,-0.1266,0.0239,-0.0335
1367101.0,-0.3065,-4.5203,9.3805,-0.0931,0.0335,-0.0192
1367111.0,-0.2753,-4.5993,9.3206,-0.0442,0.0271,0.0053
1367121.0,-0.2227,-4.6591,9.2368,-0.0085,0.0293,0.0186
1367131.0,-0.2203,-4.719,9.1674,0.0027,0.0388,0.0213
1367141.0,-0.2251,-4.7788,9.2033,-0.0064,0.0431,0.0181
1367151.0,-0.17,-4.8339,9.2632,-0.008,0.0452,0.008
1367161.0,-0.1484,-4.7788,9.2153,-0.0223,0.0394,-0.0106
1367171.0,-0.1724,-4.6328,9.1913,-0.0506,0.0287,-0.025
1367181.0,-0.2346,-4.5322,9.153,-0.0782,0.0223,-0.0293
1367191.0,-0.2059,-4.5705,9.0812,-0.0899,0.0357,-0.0208
1367201.0,-0.2298,-4.6783,9.1219,-0.0974,0.0495,-0.0128
1367211.0,-0.2251,-4.7166,9.232,-0.0772,0.0601,-0.008
1367221.0,-0.2394,-4.719,9.2775,-0.0362,0.0708,-0.0021
1367231.0,-0.2346,-4.7238,9.1411,-0.0106,0.0686,0.0027
1367241.0,-0.1365,-4.7884,9.1506,-0.0149,0.0676,0.0027
1367251.0,-0.1628,-4.8291,9.1411,-0.0351,0.075,-0.0064
1367261.0,-0.2035,-4.8315,9.1195,-0.0623,0.0761,-0.0229
1367271.0,-0.2322,-4.81,9.2344,-0.0867,0.0788,-0.0426
1367281.0,-0.34,-4.7094,9.3158,-0.0974,0.0793,-0.0532
1367291.0,-0.3687,-4.6567,9.3494,-0.0883,0.0713,-0.0548
1367301.0,-0.3208,-4.6711,9.402,-0.0474,0.0809,-0.042
1367311.0,-0.2969,-4.6974,9.4355,-0.0074,0.0841,-0.0314
1367321.0,-0.2586,-4.6591,9.3494,0.0074,0.0692,-0.0261
1367331.0,-0.1772,-4.695,9.3494,-0.0032,0.0654,-0.0261
1367341.0,-0.2035,-4.7166,9.256,-0.0325,0.0607,-0.0319
1367351.0,-0.2251,-4.7453,9.3853,-0.0846,0.0426,-0.0452
1367361.0,-0.2251,-4.616,9.3494,-0.0968,0.0383,-0.0569
1367371.0,-0.3112,-4.5418,9.335,-0.0846,0.0442,-0.0559
1367381.0,-0.2394,-4.4891,9.3805,-0.0633,0.041,-0.0415
1367391.0,-0.2035,-4.4891,9.3254,-0.0357,0.042,-0.0255
1367401.0,-0.1652,-4.5346,9.2105,-0.0229,0.0463,-0.0112
1367411.0,-0.1484,-4.6088,9.2177,-0.042,0.0543,-0.0048
1367421.0,-0.1532,-4.7142,9.2775,-0.0766,0.0452,-0.0101
1367431.0,-0.1149,-4.7262,9.2488,-0.1038,0.0372,-0.0255
1367441.0,-0.1676,-4.6687,9.3158,-0.1096,0.0474,-0.0399
1367451.0,-0.2083,-4.549,9.2823,-0.0958,0.0495,-0.0442
1367461.0,-0.2107,-4.4436,9.256,-0.0803,0.0474,-0.0378
1367471.0,-0.2227,-4.4005,9.2536,-0.0681,0.0601,-0.0192
1367481.0,-0.2682,-4.4484,9.2967,-0.0596,0.0702,0.0011
1367491.0,-0.2035,-4.6232,9.3422,-0.0686,0.0511,0.0117
1367501.0,-0.2035,-4.6591,9.2751,-0.0585,0.0388,0.0138
1367511.0,-0.2203,-4.6471,9.1866,-0.049,0.0426,0.0128
1367521.0,-0.182,-4.6878,9.165,-0.0724,0.0362,0.0069
1367531.0,-0.1293,-4.7692,9.256,-0.0835,0.0442,0.0021
1367541.0,-0.158,-4.7645,9.3015,-0.0649,0.0644,-0.0032
1367551.0,-0.1867,-4.7573,9.3757,-0.0527,0.0623,-0.0133
1367561.0,-0.2059,-4.7166,9.3302,-0.0452,0.0452,-0.0229
1367571.0,-0.2442,-4.616,9.2512,-0.0484,0.0378,-0.0303
1367581.0,-0.2394,-4.5538,9.1602,-0.0718,0.0314,-0.0351
1367591.0,-0.1939,-4.5514,9.1818,-0.0867,0.0255,-0.033
1367601.0,-0.2227,-4.525,9.2009,-0.0772,0.0346,-0.0266
1367611.0,-0.1628,-4.4628,9.1578,-0.0564,0.0463,-0.0165
1367621.0,-0.2035,-4.4915,9.1626,-0.0431,0.0569,-0.0064
1367631.0,-0.1796,-4.4963,9.1387,-0.0303,0.0708,0.0027
1367641.0,-0.2083,-4.5322,9.1315,-0.0378,0.0745,0.0074
1367651.0,-0.1963,-4.5873,9.1459,-0.0617,0.067,0.0069
1367661.0,-0.2394,-4.5945,9.2105,-0.0756,0.0644,0.0043
1367671.0,-0.2227,-4.7022,9.2919,-0.0623,0.0708,0.0101
1367681.0,-0.158,-4.8147,9.3326,-0.0372,0.0756,0.0085
1367691.0,-0.1006,-4.7477,9.2296,-0.0239,0.0692,-0.0037
1367701.0,-0.1341,-4.6543,9.2129,-0.0468,0.0607,-0.0213
1367711.0,-0.2155,-4.5657,9.165,-0.0835,0.0591,-0.0303
1367721.0,-0.2705,-4.5657,9.2871,-0.1096,0.0623,-0.0298
1367731.0,-0.2777,-4.6471,9.347,-0.0926,0.0649,-0.0176
1367741.0,-0.2825,-4.6687,9.3948,-0.0442,0.067,-0.0064
1367751.0,-0.2298,-4.6543,9.2033,-0.009,0.0617,0.0
1367761.0,-0.2442,-4.5945,9.1339,-0.0048,0.0649,0.0005
1367771.0,-0.2538,-4.5753,9.1267,-0.0229,0.083,-0.0011
1367781.0,-0.2777,-4.6328,9.1961,-0.0506,0.0952,-0.0027
1367791.0,-0.407,-4.6136,9.3972,-0.0644,0.0984,-0.0032
1367801.0,-0.3783,-4.6136,9.4954,-0.0383,0.1027,0.0021
1367811.0,-0.3687,-4.6304,9.5529,-0.0149,0.0862,0.0106
1367821.0,-0.2873,-4.6831,9.4523,-0.0101,0.0468,0.0133
1367831.0,-0.1724,-4.7645,9.3278,-0.0144,0.0335,0.0112
1367841.0,-0.2466,-4.7812,9.2703,-0.0282,0.0436,0.0037
1367851.0,-0.2466,-4.7405,9.323,-0.0431,0.0367,-0.0048
1367861.0,-0.2155,-4.7597,9.2895,-0.0362,0.0255,-0.008
1367871.0,-0.1125,-4.7669,9.1722,-0.0106,0.0346,-0.0101
1367881.0,-0.1221,-4.7525,9.1482,-0.0133,0.0474,-0.0229
1367891.0,-0.0862,-4.6759,9.1099,-0.0357,0.0569,-0.0383
1367901.0,-0.1293,-4.5753,9.1267,-0.0601,0.0633,-0.0516
1367911.0,-0.1532,-4.5083,9.2512,-0.0724,0.0772,-0.0537
1367921.0,-0.2346,-4.4388,9.3158,-0.0506,0.099,-0.0415
1367931.0,-0.2729,-4.4388,9.3589,-0.0319,0.099,-0.0255
1367941.0,-0.2107,-4.5155,9.2895,-0.0309,0.0878,-0.0101
1367951.0,-0.249,-4.5945,9.3254,-0.0495,0.0873,-0.0053
1367961.0,-0.2059,-4.707,9.2464,-0.0772,0.0798,-0.0069
1367971.0,-0.1293,-4.8195,9.3422,-0.1075,0.0697,-0.0176
1367981.0,-0.146,-4.8195,9.3134,-0.107,0.0745,-0.0346
1367991.0,-0.2418,-4.7501,9.4068,-0.091,0.0926,-0.0506
1368001.0,-0.2682,-4.6448,9.4523,-0.05,0.1011,-0.0537
1368011.0,-0.3089,-4.5705,9.4355,-0.0197,0.1043,-0.0527
1368021.0,-0.3136,-4.525,9.3757,-0.0202,0.099,-0.0543
1368031.0,-0.328,-4.5203,9.4212,-0.0585,0.0819,-0.0607
1368041.0,-0.2658,-4.5442,9.4619,-0.0937,0.0686,-0.0692
1368051.0,-0.2705,-4.5011,9.5026,-0.1128,0.0537,-0.0782
1368061.0,-0.2945,-4.3335,9.4188,-0.1208,0.033,-0.0846
1368071.0,-0.316,-4.1803,9.4403,-0.1086,0.0309,-0.0729
1368081.0,-0.2849,-4.0582,9.335,-0.0873,0.0404,-0.0484
1368091.0,-0.249,-4.0773,9.2584,-0.0867,0.0452,-0.0181
1368101.0,-0.2227,-4.1755,9.232,-0.1032,0.049,0.0048
1368111.0,-0.237,-4.2377,9.2967,-0.116,0.0548,0.0186
1368121.0,-0.1939,-4.2665,9.3111,-0.1181,0.0564,0.0298
1368131.0,-0.2083,-4.2066,9.2464,-0.124,0.0442,0.0383
1368141.0,-0.1125,-4.2066,9.1195,-0.1501,0.0208,0.05
1368151.0,-0.0838,-4.1683,8.9926,-0.1639,0.0303,0.0623
1368161.0,-0.1173,-4.1946,8.8849,-0.2001,0.0463,0.074
1368171.0,-0.1676,-4.2784,8.983,-0.2512,0.0548,0.0835
1368181.0,-0.2873,-4.4101,9.2081,-0.2485,0.0756,0.0995
1368191.0,-0.2945,-4.4532,9.1315,-0.1916,0.0947,0.1203
1368201.0,-0.2729,-4.6256,9.2799,-0.1942,0.1064,0.1309
1368211.0,-0.3328,-4.6974,9.3781,-0.1916,0.0889,0.1309
1368221.0,-0.3112,-4.7812,9.2823,-0.1671,0.0724,0.1293
1368231.0,-0.1987,-4.7908,8.9759,-0.1772,0.0601,0.1203
1368241.0,-0.3232,-4.8076,9.0166,-0.2389,0.0713,0.0995
1368251.0,-0.3663,-4.7501,9.1075,-0.2703,0.0926,0.0878
1368261.0,-0.4405,-4.8554,9.3087,-0.2682,0.1022,0.0867
1368271.0,-0.4022,-4.9536,9.4715,-0.2198,0.1043,0.0926
1368281.0,-0.3328,-5.0446,9.4379,-0.1463,0.1027,0.0968
1368291.0,-0.3543,-5.0494,9.3182,-0.1133,0.0819,0.0846
1368301.0,-0.2753,-4.9368,9.1387,-0.1256,0.0585,0.0654
1368311.0,-0.3879,-4.8387,9.098,-0.1639,0.058,0.049
1368321.0,-0.3304,-4.8554,9.0932,-0.2059,0.0468,0.0452
1368331.0,-0.3711,-4.877,8.9998,-0.2198,0.0452,0.0474
1368341.0,-0.4214,-4.8698,9.0214,-0.1852,0.0708,0.0537
1368351.0,-0.4094,-4.9608,9.1075,-0.1277,0.0984,0.0734
1368361.0,-0.3304,-5.1188,9.0285,-0.0777,0.1006,0.0857
1368371.0,-0.2083,-5.2505,8.9567,-0.066,0.1059,0.0809
1368381.0,-0.2083,-5.3439,8.9998,-0.0772,0.1245,0.0607
1368391.0,-0.261,-5.3678,9.2249,-0.0921,0.1378,0.0346
1368401.0,-0.2753,-5.351,9.2871,-0.0937,0.133,0.008
1368411.0,-0.3783,-5.2481,9.3158,-0.0979,0.1192,-0.0181
1368421.0,-0.4597,-5.114,9.3111,-0.0915,0.1059,-0.0351
1368431.0,-0.5171,-5.0757,9.2919,-0.0835,0.0995,-0.0388
1368441.0,-0.4669,-5.0661,9.426,-0.0766,0.0942,-0.0426
1368451.0,-0.407,-5.023,9.2536,-0.0633,0.0846,-0.0474
1368461.0,-0.4022,-5.0829,9.1985,-0.1027,0.0543,-0.0575
1368471.0,-0.4046,-5.0637,9.1411,-0.1346,0.0458,-0.074
1368481.0,-0.4764,-4.9728,9.2727,-0.1341,0.0649,-0.0894
1368491.0,-0.5435,-4.8674,9.3254,-0.1059,0.0756,-0.0915
1368501.0,-0.589,-4.7501,9.3111,-0.0676,0.074,-0.0851
1368511.0,-0.4812,-4.6902,9.165,-0.0426,0.0649,-0.0734
1368521.0,-0.4357,-4.7166,9.0836,-0.0617,0.0543,-0.0644
1368531.0,-0.4022,-4.7405,9.0142,-0.1,0.0479,-0.0639
1368541.0,-0.34,-4.7573,9.0453,-0.1591,0.0431,-0.0692
1368551.0,-0.3855,-4.8315,9.1674,-0.1745,0.0575,-0.0676
1368561.0,-0.4741,-4.7884,9.2967,-0.1373,0.0798,-0.0617
1368571.0,-0.5052,-4.7884,9.3541,-0.0915,0.0777,-0.0495
1368581.0,-0.4166,-4.7621,9.3206,-0.0357,0.0639,-0.0362
1368591.0,-0.3543,-4.7477,9.1028,-0.0181,0.0468,-0.0277
1368601.0,-0.3328,-4.7501,8.9974,-0.0548,0.0271,-0.0293
1368611.0,-0.3448,-4.8052,8.9543,-0.1112,0.0239,-0.0362
1368621.0,-0.3232,-4.7884,8.9064,-0.149,0.0245,-0.0426
1368631.0,-0.3328,-4.8483,8.9591,-0.1538,0.0426,-0.0399
1368641.0,-0.3735,-4.9536,9.1147,-0.1208,0.067,-0.0325
1368651.0,-0.395,-4.9728,9.2105,-0.0692,0.0793,-0.0303
1368661.0,-0.3974,-4.8387,9.1554,-0.0287,0.075,-0.0341
1368671.0,-0.3759,-4.6735,8.9615,-0.0277,0.0617,-0.0346
1368681.0,-0.4046,-4.6232,8.9495,-0.0585,0.0527,-0.0255
1368691.0,-0.395,-4.6591,8.9519,-0.0889,0.0543,-0.008
1368701.0,-0.4166,-4.8387,9.0381,-0.0952,0.0766,0.0122
1368711.0,-0.3328,-5.0398,9.1602,-0.0607,0.099,0.0245
1368721.0,-0.3998,-5.114,9.098,-0.0351,0.0952,0.0208
1368731.0,-0.328,-5.0446,8.995,-0.0521,0.0766,-0.0016
1368741.0,-0.3926,-4.9009,8.9926,-0.0867,0.0841,-0.0208
1368751.0,-0.4764,-4.8818,9.1411,-0.1096,0.1064,-0.0229
1368761.0,-0.4956,-4.9823,9.3877,-0.1117,0.1086,-0.0154
1368771.0,-0.5195,-5.0757,9.481,-0.0772,0.0942,-0.0122
1368781.0,-0.5004,-5.1691,9.4355,-0.0144,0.0905,-0.0074
1368791.0,-0.498,-5.2385,9.4906,0.0346,0.083,-0.0112
1368801.0,-0.4645,-5.2696,9.2656,0.0202,0.0484,-0.0314
1368811.0,-0.3639,-5.2122,9.2608,-0.0431,0.0128,-0.0654
1368821.0,-0.4142,-5.1164,9.2919,-0.0851,0.008,-0.0931
1368831.0,-0.4597,-4.9416,9.3422,-0.0819,0.0149,-0.1075
1368841.0,-0.5028,-4.7908,9.2727,-0.0639,0.0074,-0.1038
1368851.0,-0.4645,-4.7429,9.1219,-0.0511,-0.0043,-0.091
1368861.0,-0.4238,-4.7884,9.1147,-0.0506,0.0064,-0.0756
1368871.0,-0.4549,-4.8171,9.1435,-0.0516,0.0239,-0.0628
1368881.0,-0.3879,-4.9488,9.1889,-0.0692,0.0186,-0.0575
1368891.0,-0.2418,-5.0135,9.2823,-0.0623,0.0117,-0.0601
1368901.0,-0.2849,-4.9105,9.1937,-0.0367,0.0154,-0.067
1368911.0,-0.2251,-4.7716,9.0214,-0.041,-0.0032,-0.0734
1368921.0,-0.2227,-4.64,8.8657,-0.0628,-0.008,-0.074
1368931.0,-0.2897,-4.5418,8.7771,-0.0942,0.0149,-0.067
1368941.0,-0.2825,-4.549,8.9232,-0.132,0.0357,-0.0527
1368951.0,-0.3639,-4.6663,8.9232,-0.1469,0.0495,-0.033
1368961.0,-0.328,-4.8842,9.1937,-0.1282,0.05,-0.0122
1368971.0,-0.2682,-5.0542,9.2249,-0.05,0.0575,0.0032
1368981.0,-0.2729,-5.1547,9.1004,0.0266,0.0654,0.0048
1368991.0,-0.2227,-5.1188,8.9878,0.0543,0.0692,-0.0106
1369001.0,-0.2705,-5.0278,8.9447,0.0186,0.0702,-0.0383
1369011.0,-0.2873,-4.9512,8.9663,-0.0527,0.0697,-0.066
1369021.0,-0.4094,-4.8411,9.1482,-0.1219,0.0633,-0.0883
1369031.0,-0.5076,-4.798,9.414,-0.1325,0.0553,-0.0921
1369041.0,-0.5507,-4.8267,9.4595,-0.0862,0.0388,-0.0724
1369051.0,-0.4262,-4.9991,9.4691,-0.0016,0.0325,-0.0468
1369061.0,-0.3543,-5.0589,9.3661,0.0803,0.0367,-0.0357
1369071.0,-0.2586,-4.9704,9.165,0.0995,0.0261,-0.0442
1369081.0,-0.261,-4.8818,9.0788,0.0335,0.0027,-0.0639
1369091.0,-0.2969,-4.7621,9.0668,-0.0399,-0.0064,-0.0803
1369101.0,-0.3424,-4.6519,9.0788,-0.0867,-0.0138,-0.0825
1369111.0,-0.2873,-4.616,9.0022,-0.1064,-0.0319,-0.0713
1369121.0,-0.3328,-4.6519,8.9328,-0.0793,-0.017,-0.0447
1369131.0,-0.237,-4.8219,8.8825,-0.0404,0.0255,-0.017
1369141.0,-0.1867,-5.0087,8.9807,-0.0064,0.0612,-0.0043
1369151.0,-0.2035,-5.1116,9.1578,0.0149,0.0803,-0.0064
1369161.0,-0.2083,-5.1451,9.2703,0.0271,0.083,-0.0197
1369171.0,-0.2298,-5.1308,9.3781,0.0442,0.083,-0.0357
1369181.0,-0.2227,-5.1332,9.3733,0.0303,0.0639,-0.0564
1369191.0,-0.1796,-5.035,9.3541,-0.0048,0.0314,-0.0846
1369201.0,-0.1772,-4.7908,9.153,-0.0553,-0.0005,-0.1112
1369211.0,-0.2131,-4.6519,9.0932,-0.1256,-0.0239,-0.125
1369221.0,-0.2825,-4.6208,9.1411,-0.1426,-0.0101,-0.1144
1369231.0,-0.3065,-4.6615,9.2273,-0.1038,0.0149,-0.0889
1369241.0,-0.3041,-4.7381,9.1626,-0.0362,0.0404,-0.0612
1369251.0,-0.2873,-4.8123,9.1506,0.0016,0.0474,-0.0468
1369261.0,-0.1652,-4.8339,9.1099,0.0048,0.0474,-0.0463
1369271.0,-0.2418,-4.7716,9.1387,-0.0309,0.0516,-0.0601
1369281.0,-0.1915,-4.561,9.1099,-0.0772,0.0367,-0.0745
1369291.0,-0.2322,-4.5394,9.2057,-0.124,0.0165,-0.0713
1369301.0,-0.249,-4.5729,9.0477,-0.1362,-0.0048,-0.0569
1369311.0,-0.2203,-4.719,9.086,-0.1171,0.0096,-0.0378
1369321.0,-0.2274,-4.9033,9.1195,-0.0692,0.0474,-0.0186
1369331.0,-0.2107,-5.0111,9.2895,-0.017,0.0596,-0.0149
1369341.0,-0.158,-4.9368,9.1866,0.0234,0.0516,-0.0234
1369351.0,-0.1556,-4.8052,9.1267,0.0085,0.0309,-0.0388
1369361.0,-0.0814,-4.7453,9.0788,-0.0325,0.0096,-0.0484
1369371.0,-0.0886,-4.6902,8.9735,-0.0697,-0.0074,-0.0521
1369381.0,-0.1221,-4.6855,8.9184,-0.1075,-0.0096,-0.0548
1369391.0,-0.17,-4.7357,8.9519,-0.1032,0.0213,-0.0447
1369401.0,-0.182,-4.9033,9.0381,-0.0835,0.0484,-0.0341
1369411.0,-0.1149,-5.0494,9.1291,-0.0617,0.0607,-0.0325
1369421.0,-0.1221,-5.1404,9.1794,-0.0415,0.0585,-0.0426
1369431.0,-0.0694,-5.023,9.1219,-0.0149,0.0569,-0.0623
1369441.0,-0.0886,-4.877,9.0214,-0.0277,0.0458,-0.0788
1369451.0,-0.0694,-4.7285,8.983,-0.0575,0.0452,-0.0857
1369461.0,-0.1604,-4.604,8.995,-0.0718,0.0708,-0.0803
1369471.0,-0.2322,-4.561,9.1698,-0.0766,0.0889,-0.0697
1369481.0,-0.2251,-4.4652,9.2153,-0.0532,0.1032,-0.0516
1369491.0,-0.2682,-4.5729,9.2847,-0.0378,0.1101,-0.0234
1369501.0,-0.2083,-4.7836,9.4427,-0.0229,0.1016,0.0005
1369511.0,-0.1748,-4.8435,9.414,0.016,0.0947,0.0037
1369521.0,-0.2059,-4.865,9.402,0.0218,0.0819,-0.0021
1369531.0,-0.1341,-4.9201,9.3733,-0.0186,0.0458,-0.016
1369541.0,-0.1173,-4.9033,9.2081,-0.0788,0.0186,-0.0378
1369551.0,-0.1053,-4.8554,9.177,-0.1266,0.0144,-0.0585
1369561.0,-0.2083,-4.7788,9.2512,-0.149,0.0229,-0.0734
1369571.0,-0.1628,-4.6184,9.1387,-0.1453,0.0255,-0.0793
1369581.0,-0.1628,-4.5993,8.9854,-0.1644,0.025,-0.0713
1369591.0,-0.17,-4.7094,9.1051,-0.2075,0.0367,-0.0612
1369601.0,-0.2705,-4.7669,9.426,-0.182,0.0575,-0.0463
1369611.0,-0.2873,-4.8507,9.6055,-0.0702,0.0835,-0.0181
1369621.0,-0.2035,-4.8722,9.5672,0.0271,0.0702,0.0021
1369631.0,-0.1269,-4.889,9.4523,0.0612,0.0357,0.0085
1369641.0,-0.0503,-4.8267,9.0812,0.0213,-0.0122,-0.0043
1369651.0,-0.0646,-4.774,8.9567,-0.0772,-0.041,-0.0223
1369661.0,-0.1125,-4.786,9.0166,-0.1352,-0.0239,-0.0298
1369671.0,-0.1245,-4.8387,9.0812,-0.1362,-0.0085,-0.0239
1369681.0,-0.1221,-4.8626,9.0621,-0.0883,0.0011,-0.0128
1369691.0,-0.0814,-4.9249,9.0046,-0.0144,0.0383,0.0027
1369701.0,-0.0215,-5.0135,9.0429,0.0309,0.0708,0.0112
1369711.0,0.0144,-5.1092,9.0142,0.0309,0.074,0.0037
1369721.0,0.0479,-5.0973,8.9878,0.0053,0.0772,-0.0186
1369731.0,0.0192,-4.9799,9.1075,-0.0378,0.0803,-0.0458
1369741.0,-0.0622,-4.8483,9.2392,-0.0607,0.0846,-0.0601
1369751.0,-0.1197,-4.7381,9.2416,-0.0644,0.0718,-0.0639
1369761.0,-0.0862,-4.6711,9.1794,-0.0692,0.0575,-0.0601
1369771.0,-0.0766,-4.6902,9.2416,-0.0798,0.0591,-0.0516
1369781.0,-0.1125,-4.7309,9.3134,-0.0729,0.0617,-0.0399
1369791.0,-0.0958,-4.8195,9.3877,-0.0442,0.0617,-0.0277
1369801.0,-0.0766,-4.8937,9.3853,-0.0011,0.0591,-0.0213
1369811.0,-0.0646,-4.877,9.3087,0.0303,0.0543,-0.0239
1369821.0,-0.0551,-4.7932,9.177,0.0192,0.0346,-0.0341
1369831.0,-0.0551,-4.6759,9.1028,-0.0335,0.0202,-0.0484
1369841.0,-0.1173,-4.5562,9.0525,-0.083,0.0208,-0.0548
1369851.0,-0.1365,-4.5059,9.0644,-0.1054,0.0218,-0.0506
1369861.0,-0.1365,-4.5155,8.9471,-0.0915,0.0309,-0.0378
1369871.0,-0.1221,-4.5394,8.8921,-0.0883,0.0564,-0.0239
1369881.0,-0.1269,-4.7022,9.1722,-0.0814,0.1011,-0.0064
1369891.0,-0.1197,-4.7549,9.2967,-0.0532,0.107,-0.0021
1369901.0,-0.0958,-4.6998,9.2608,-0.0351,0.0889,-0.0043
1369911.0,-0.1173,-4.6208,9.1698,-0.0388,0.0846,-0.0053
1369921.0,-0.1269,-4.5514,9.1961,-0.0931,0.0623,-0.0085
1369931.0,-0.0622,-4.5945,9.1913,-0.1346,0.0431,-0.0048
1369941.0,-0.091,-4.5969,9.165,-0.1399,0.0537,0.0074
1369951.0,-0.1053,-4.6639,9.2703,-0.1213,0.0692,0.0218
1369961.0,-0.0934,-4.7645,9.3541,-0.0825,0.0766,0.0394
1369971.0,-0.1101,-4.9153,9.3541,-0.0431,0.074,0.0511
1369981.0,-0.103,-4.9919,9.2847,-0.0208,0.0644,0.0479
1369991.0,-0.1484,-5.0015,9.3015,-0.0245,0.0553,0.0346
1370001.0,-0.1604,-5.0063,9.2991,-0.0431,0.0346,0.0202
1370011.0,-0.103,-4.9416,9.1913,-0.066,0.0192,0.0069
1370021.0,-0.0862,-4.9081,9.1506,-0.0835,0.0181,-0.0021
1370031.0,-0.0503,-4.8746,9.0932,-0.0947,0.0282,-0.0069
1370041.0,-0.0575,-4.9009,9.098,-0.1011,0.0463,-0.0112
1370051.0,-0.0934,-4.9105,9.2105,-0.0937,0.0612,-0.0117
1370061.0,-0.079,-4.9943,9.2799,-0.0793,0.0692,-0.0106
1370071.0,-0.0551,-5.047,9.3494,-0.0479,0.0756,-0.0138
1370081.0,-0.0982,-5.0374,9.3757,-0.0325,0.0686,-0.0239
1370091.0,-0.0527,-4.9464,9.3637,-0.025,0.0537,-0.0362
1370101.0,-0.0742,-4.81,9.3805,-0.0208,0.042,-0.0436
1370111.0,-0.1101,-4.6807,9.244,-0.0394,0.0197,-0.0447
1370121.0,-0.0742,-4.6184,9.1147,-0.0756,-0.0112,-0.0431
1370131.0,-0.0479,-4.6208,8.9735,-0.0979,-0.0101,-0.0362
1370141.0,-0.079,-4.6807,8.9807,-0.0889,0.0229,-0.0245
1370151.0,-0.0503,-4.7645,9.0453,-0.0708,0.0436,-0.0176
1370161.0,0.0024,-4.7956,9.0573,-0.0511,0.0474,-0.0149
1370171.0,-0.0383,-4.7908,9.0405,-0.0394,0.058,-0.0154
1370181.0,-0.0622,-4.7573,9.0836,-0.0293,0.0825,-0.0165
1370191.0,-0.0886,-4.7501,9.1722,-0.033,0.0899,-0.0176
1370201.0,-0.067,-4.7357,9.1889,-0.0495,0.0793,-0.0218
1370211.0,-0.103,-4.6831,9.1889,-0.0724,0.0623,-0.0266
1370221.0,-0.1197,-4.6902,9.2249,-0.083,0.0639,-0.0271
1370231.0,-0.1341,-4.6855,9.2392,-0.0681,0.0841,-0.0229
1370241.0,-0.1628,-4.6232,9.2967,-0.0639,0.0798,-0.0208
1370251.0,-0.1125,-4.5538,9.2991,-0.0623,0.0681,-0.0176
1370261.0,-0.1772,-4.47,9.244,-0.0479,0.0718,-0.0027
1370271.0,-0.1724,-4.5226,9.3374,-0.049,0.0724,0.0149
1370281.0,-0.1365,-4.5777,9.3158,-0.058,0.0521,0.0309
1370291.0,-0.1317,-4.6615,9.3039,-0.0697,0.0346,0.0399
1370301.0,-0.1317,-4.7118,9.2081,-0.0713,0.0309,0.0458
1370311.0,-0.146,-4.8363,9.1626,-0.0718,0.0319,0.049
1370321.0,-0.1053,-4.9153,9.1291,-0.0692,0.0298,0.0452
1370331.0,-0.103,-4.9632,9.1195,-0.0532,0.0362,0.0378
1370341.0,-0.0814,-4.9799,9.1435,-0.0447,0.0559,0.0277
1370351.0,-0.103,-4.9225,9.1674,-0.0436,0.0697,0.0117
1370361.0,-0.1341,-4.8387,9.2249,-0.0537,0.0676,0.0
1370371.0,-0.1437,-4.786,9.2368,-0.058,0.0665,-0.0032
1370381.0,-0.1317,-4.7309,9.268,-0.0543,0.0623,-0.0021
1370391.0,-0.0982,-4.7549,9.2991,-0.0506,0.0553,0.0053
1370401.0,-0.0479,-4.7764,9.2296,-0.0527,0.0495,0.0112
1370411.0,-0.0048,-4.8147,9.2416,-0.0814,0.0372,0.0069
1370421.0,-0.0239,-4.8459,9.2105,-0.108,0.0303,0.0037
1370431.0,-0.0383,-4.8914,9.2656,-0.1139,0.0293,0.0011
1370441.0,-0.067,-4.9009,9.2416,-0.0942,0.0287,-0.0016
1370451.0,-0.079,-4.8818,9.153,-0.0798,0.0293,-0.0069
1370461.0,-0.067,-4.8147,9.0716,-0.0734,0.0293,-0.0138
1370471.0,-0.0982,-4.7573,8.9926,-0.0702,0.0474,-0.0133
1370481.0,-0.0742,-4.7716,9.1099,-0.0628,0.0724,-0.0069
1370491.0,-0.0718,-4.7908,9.177,-0.0612,0.0846,0.0016
1370501.0,-0.1365,-4.8578,9.2273,-0.058,0.0878,0.0064
1370511.0,-0.1484,-4.9225,9.2991,-0.0474,0.0878,0.0074
1370521.0,-0.1293,-4.9728,9.2416,-0.0431,0.0867,-0.0005
1370531.0,-0.1173,-4.9704,9.2656,-0.067,0.0665,-0.0192
1370541.0,-0.1341,-4.8914,9.2488,-0.0963,0.0458,-0.0383
1370551.0,-0.1365,-4.7764,9.2057,-0.0963,0.0452,-0.0458
1370561.0,-0.146,-4.6591,9.1961,-0.0889,0.049,-0.0415
1370571.0,-0.1437,-4.5825,9.2033,-0.0756,0.0521,-0.0293
1370581.0,-0.1556,-4.5753,9.2368,-0.0532,0.0585,-0.0122
1370591.0,-0.1532,-4.561,9.2368,-0.0239,0.0654,0.0059
1370601.0,-0.158,-4.561,9.2656,-0.0059,0.0601,0.0208
1370611.0,-0.1006,-4.5514,9.2296,-0.0027,0.05,0.0282
1370621.0,-0.103,-4.5179,9.1866,-0.0176,0.0378,0.0314
1370631.0,-0.1365,-4.4963,9.2057,-0.0298,0.0325,0.0404
1370641.0,-0.1269,-4.5155,9.1339,-0.0213,0.0367,0.0569
1370651.0,-0.1293,-4.5657,9.1028,-0.009,0.0431,0.0718
1370661.0,-0.0694,-4.6687,9.0022,-0.0144,0.0452,0.0803
1370671.0,-0.0551,-4.8459,8.9495,-0.0506,0.0468,0.0761
1370681.0,-0.0096,-4.956,8.9974,-0.0979,0.0543,0.0543
1370691.0,-0.1197,-4.9273,9.0956,-0.1043,0.0793,0.0351
1370701.0,-0.1173,-5.0206,9.2225,-0.0952,0.099,0.0282
1370711.0,-0.0694,-5.1044,9.3925,-0.0835,0.0947,0.0133
1370721.0,-0.0503,-4.9895,9.3494,-0.0676,0.0766,-0.0085
1370731.0,-0.0551,-4.9009,9.3087,-0.0676,0.0617,-0.0255
1370741.0,-0.067,-4.7764,9.268,-0.067,0.0591,-0.033
1370751.0,-0.1077,-4.695,9.2033,-0.0623,0.0575,-0.0362
1370761.0,-0.0886,-4.6376,9.1889,-0.0628,0.0527,-0.0319
1370771.0,-0.091,-4.616,9.1722,-0.0644,0.0596,-0.0223
1370781.0,-0.1676,-4.6256,9.2153,-0.0569,0.0766,-0.009
1370791.0,-0.1484,-4.7333,9.2871,-0.041,0.0963,0.0043
1370801.0,-0.1437,-4.8291,9.3733,-0.0426,0.0963,0.0064
1370811.0,-0.1724,-4.8363,9.3925,-0.0623,0.0788,-0.0048
1370821.0,-0.1915,-4.7118,9.3494,-0.0883,0.0596,-0.0186
1370831.0,-0.2586,-4.604,9.4332,-0.1011,0.0575,-0.0197
1370841.0,-0.2897,-4.5538,9.4523,-0.0867,0.0575,-0.0064
1370851.0,-0.2897,-4.5897,9.4475,-0.0686,0.041,0.0085
1370861.0,-0.249,-4.6088,9.3422,-0.0383,0.041,0.0234
1370871.0,-0.1987,-4.6902,9.3254,-0.0287,0.0543,0.0346
1370881.0,-0.182,-4.8004,9.3661,-0.0575,0.0415,0.0341
1370891.0,-0.1628,-4.8698,9.3996,-0.1011,0.0138,0.0223
1370901.0,-0.1484,-4.9201,9.4451,-0.1075,0.0053,0.0138
1370911.0,-0.1604,-4.9344,9.323,-0.0857,-0.0005,0.0064
1370921.0,-0.1628,-4.8674,9.2057,-0.0686,-0.0096,-0.0053
1370931.0,-0.1173,-4.7405,9.0644,-0.066,-0.0117,-0.016
1370941.0,-0.091,-4.6591,9.0261,-0.0734,0.0016,-0.0202
1370951.0,-0.1508,-4.5514,8.983,-0.0809,0.0149,-0.0138
1370961.0,-0.1317,-4.5825,9.1147,-0.075,0.0325,0.0027
1370971.0,-0.1173,-4.7118,9.1075,-0.0516,0.0495,0.0223
1370981.0,-0.1125,-4.7812,9.1794,-0.025,0.0681,0.0341
1370991.0,-0.1101,-4.9177,9.1794,-0.0261,0.0681,0.0341
1371001.0,-0.0742,-4.9728,9.1147,-0.0607,0.0495,0.0197
1371011.0,-0.079,-4.9704,9.1842,-0.0835,0.049,-0.0005
1371021.0,-0.0958,-4.8818,9.232,-0.0883,0.0495,-0.0181
1371031.0,-0.1197,-4.8052,9.1985,-0.0952,0.0367,-0.033
1371041.0,-0.1365,-4.7309,9.165,-0.0937,0.0314,-0.0346
1371051.0,-0.1915,-4.7094,9.1554,-0.0788,0.0463,-0.0293
1371061.0,-0.1939,-4.719,9.3039,-0.0532,0.0654,-0.0192
1371071.0,-0.2035,-4.8147,9.3254,-0.0351,0.067,-0.0101
1371081.0,-0.1628,-4.889,9.3254,-0.0341,0.049,-0.0128
1371091.0,-0.1125,-4.8722,9.2703,-0.0325,0.0367,-0.0218
1371101.0,-0.1221,-4.8291,9.2225,-0.049,0.0192,-0.0372
1371111.0,-0.103,-4.6759,9.1626,-0.0724,0.0064,-0.049
1371121.0,-0.1389,-4.525,9.1459,-0.0851,0.0117,-0.0506
1371131.0,-0.158,-4.5155,9.1171,-0.0841,0.0208,-0.0341
1371141.0,-0.1437,-4.5203,9.1147,-0.0686,0.0367,-0.0096
1371151.0,-0.1604,-4.6328,9.1219,-0.0559,0.0569,0.0128
1371161.0,-0.1676,-4.7956,9.2703,-0.0447,0.0633,0.0271
1371171.0,-0.1365,-4.9033,9.2584,-0.0362,0.0633,0.0293
1371181.0,-0.0766,-5.0063,9.3541,-0.0388,0.0537,0.0208
1371191.0,-0.0215,-5.0374,9.3494,-0.0468,0.0362,-0.0005
1371201.0,-0.0263,-4.9129,9.2057,-0.0559,0.0266,-0.0245
1371211.0,-0.0383,-4.8123,9.1482,-0.0734,0.016,-0.0404
1371221.0,-0.0192,-4.7573,9.0692,-0.1038,0.0128,-0.05
1371231.0,-0.079,-4.616,9.0477,-0.1187,0.0261,-0.0553
1371241.0,-0.1748,-4.4891,9.1051,-0.1139,0.0447,-0.0479
1371251.0,-0.2011,-4.5011,9.2177,-0.0862,0.058,-0.0223
1371261.0,-0.1987,-4.616,9.2416,-0.0394,0.0654,0.0074
1371271.0,-0.1413,-4.7166,9.1985,-0.0011,0.067,0.0245
1371281.0,-0.0694,-4.7884,9.0285,-0.0032,0.0633,0.0245
1371291.0,0.0096,-4.8387,9.0621,-0.049,0.0596,0.0117
1371301.0,-0.0622,-4.8554,9.1028,-0.1022,0.0559,-0.0069
1371311.0,-0.091,-4.7645,9.1961,-0.1293,0.0564,-0.0255
1371381.0,-0.1389,-4.8937,9.4523,-0.0527,0.0665,0.0069
1371391.0,-0.1389,-4.8722,9.3972,-0.0559,0.0479,-0.0032
1371401.0,-0.0622,-4.8291,9.2895,-0.058,0.0234,-0.0165
1371411.0,-0.0024,-4.798,9.153,-0.0681,0.0106,-0.0277
1371421.0,-0.0215,-4.7262,9.0333,-0.0857,0.0165,-0.0346
1371431.0,-0.0718,-4.6735,9.0932,-0.1016,0.0335,-0.0367
1371441.0,-0.0862,-4.6687,9.153,-0.0968,0.05,-0.0287
1371451.0,-0.1269,-4.7022,9.2847,-0.0734,0.0681,-0.0149
1371461.0,-0.1604,-4.7549,9.3661,-0.0394,0.0766,-0.0032
1371471.0,-0.1508,-4.786,9.3853,-0.0096,0.0803,0.0053
1371481.0,-0.1101,-4.7812,9.3781,0.0016,0.0729,0.0043
1371491.0,-0.067,-4.7956,9.3398,-0.0335,0.0399,-0.0059
1371501.0,-0.0263,-4.7453,9.2632,-0.0846,0.008,-0.0213
1371511.0,-0.0766,-4.6471,9.1674,-0.1304,-0.0074,-0.033
1371521.0,-0.0958,-4.6017,9.0788,-0.1559,-0.0106,-0.0362
1371531.0,-0.1556,-4.6136,9.0453,-0.1554,0.0005,-0.0287
1371541.0,-0.1796,-4.6543,9.0214,-0.1101,0.0346,-0.0096
1371551.0,-0.182,-4.7884,9.1099,-0.0468,0.0803,0.0117
1371561.0,-0.103,-4.8866,9.153,-0.008,0.1011,0.0192
1371571.0,-0.0096,-4.956,9.1626,-0.0287,0.091,0.0048
1371581.0,-0.0503,-4.9512,9.2249,-0.0772,0.0793,-0.0186
1371591.0,-0.0958,-4.9344,9.2967,-0.1192,0.0724,-0.0404
1371601.0,-0.1484,-4.9033,9.3733,-0.1272,0.0612,-0.0575
1371611.0,-0.1724,-4.8626,9.3781,-0.1112,0.0521,-0.0644
1371621.0,-0.1604,-4.7357,9.4236,-0.0803,0.0532,-0.0665
1371631.0,-0.2466,-4.5442,9.3613,-0.075,0.0458,-0.0654
1371641.0,-0.2418,-4.5633,9.426,-0.0772,0.0319,-0.049
1371651.0,-0.1508,-4.6184,9.4523,-0.0612,0.0154,-0.0298
1371661.0,-0.1556,-4.6088,9.2751,-0.0388,-0.0064,-0.017
1371671.0,-0.1173,-4.6926,9.1459,-0.033,-0.0186,-0.0059
1371681.0,-0.0479,-4.8171,9.0549,-0.0346,-0.0101,-0.0021
1371691.0,0.0287,-4.9057,8.9447,-0.041,0.0074,-0.0074
1371701.0,0.0383,-4.9081,8.9447,-0.0596,0.0192,-0.0239
1371711.0,0.0359,-4.8578,9.0525,-0.0809,0.0362,-0.0415
1371721.0,0.0,-4.7549,9.1435,-0.0734,0.058,-0.0495
1371731.0,-0.0072,-4.7022,9.1842,-0.0559,0.0718,-0.0463
1371741.0,-0.0694,-4.6328,9.2225,-0.0399,0.0681,-0.0388
1371751.0,-0.0479,-4.6208,9.1818,-0.0325,0.0607,-0.0287
1371761.0,-0.0646,-4.6232,9.2296,-0.0447,0.0596,-0.0223
1371771.0,-0.0814,-4.6256,9.268,-0.0521,0.05,-0.0154
1371781.0,-0.0215,-4.6878,9.2392,-0.0543,0.0372,-0.0085
1371791.0,-0.0383,-4.7573,9.1602,-0.0495,0.0314,-0.0069
1371801.0,-0.012,-4.7477,9.1219,-0.0511,0.0293,-0.0133
1371811.0,0.0072,-4.695,8.9687,-0.0644,0.0319,-0.0202
1371821.0,-0.0144,-4.6519,9.0501,-0.0803,0.0479,-0.0245
1371831.0,-0.0431,-4.6112,9.1195,-0.0734,0.0708,-0.0223
1371841.0,-0.067,-4.616,9.2536,-0.0463,0.0873,-0.0096
1371851.0,-0.0479,-4.6567,9.3494,-0.0133,0.0851,0.0048
1371861.0,-0.0072,-4.6088,9.2296,0.0069,0.0724,0.008
1371871.0,-0.0622,-4.561,9.1195,-0.0245,0.0553,0.0085
1371881.0,-0.0407,-4.6855,9.1363,-0.0766,0.049,0.0117
1371891.0,-0.0072,-4.8052,9.232,-0.1038,0.0623,0.0133
1371901.0,0.0215,-4.8866,9.2632,-0.1048,0.0654,0.0085
1371911.0,0.0192,-4.8578,9.2847,-0.0937,0.058,0.0005
1371921.0,0.0192,-4.798,9.2392,-0.0761,0.0564,-0.0053
1371931.0,0.0024,-4.719,9.2009,-0.0649,0.0681,-0.0074
1371941.0,-0.0527,-4.6471,9.1602,-0.0623,0.074,-0.0053
1371951.0,-0.0958,-4.6184,9.2105,-0.0713,0.0686,0.0005
1371961.0,-0.0958,-4.7262,9.2727,-0.0724,0.0676,0.0101
1371971.0,-0.0886,-4.8171,9.2153,-0.0607,0.0686,0.016
1371981.0,-0.0407,-4.8746,9.1985,-0.0612,0.0649,0.0117
1371991.0,-0.0575,-4.8698,9.1315,-0.0734,0.0628,0.0011
1372001.0,-0.0718,-4.8554,9.0956,-0.1016,0.0591,-0.0117
1372011.0,-0.091,-4.8435,9.1794,-0.1181,0.0596,-0.0218
1372021.0,-0.091,-4.8435,9.1842,-0.1064,0.0734,-0.0234
1372031.0,-0.0814,-4.8698,9.2799,-0.0681,0.0926,-0.0186
1372041.0,-0.1006,-4.8387,9.3182,-0.0357,0.1006,-0.0138
1372051.0,-0.0958,-4.8315,9.3254,-0.0287,0.0968,-0.0133
1372061.0,-0.1508,-4.877,9.3948,-0.0383,0.0915,-0.0181
1372071.0,-0.17,-4.8267,9.3781,-0.0495,0.0788,-0.0271
1372081.0,-0.158,-4.7884,9.5026,-0.0585,0.0607,-0.0341
1372091.0,-0.1484,-4.7764,9.4212,-0.0521,0.0426,-0.0341
1372101.0,-0.1245,-4.7357,9.3853,-0.0436,0.0255,-0.033
1372111.0,-0.0239,-4.6376,9.1674,-0.0415,0.0085,-0.0319
1372121.0,-0.0575,-4.6256,8.9807,-0.0734,0.0016,-0.0309
1372131.0,-0.0646,-4.6567,8.9423,-0.0952,0.0186,-0.0266
1372141.0,-0.1006,-4.7142,9.0118,-0.0968,0.0521,-0.0208
1372151.0,-0.1125,-4.7692,9.1123,-0.0724,0.0809,-0.0149
1372161.0,-0.1101,-4.7956,9.2177,-0.0388,0.0979,-0.0149
1372171.0,-0.0718,-4.7597,9.2201,-0.0223,0.0984,-0.0176
1372181.0,-0.1053,-4.7501,9.3302,-0.0367,0.091,-0.0213
1372191.0,-0.0455,-4.6998,9.3709,-0.0569,0.0782,-0.025
1372201.0,-0.012,-4.6831,9.3877,-0.0793,0.0585,-0.0255
1372211.0,-0.0383,-4.6735,9.3494,-0.091,0.0367,-0.0218
1372221.0,-0.0287,-4.6974,9.2823,-0.091,0.0213,-0.0149
1372231.0,-0.0215,-4.6855,9.1722,-0.075,0.0261,-0.0059
1372241.0,-0.0742,-4.7453,9.1195,-0.0591,0.0388,0.0037
1372251.0,-0.103,-4.7836,9.1004,-0.0463,0.0575,0.0074
1372261.0,-0.1365,-4.865,9.1482,-0.0362,0.0761,0.008
1372271.0,-0.1341,-4.968,9.2033,-0.0388,0.0777,-0.0005
1372281.0,-0.1269,-4.944,9.244,-0.0521,0.0713,-0.0181
1372291.0,-0.0982,-4.8459,9.256,-0.0639,0.067,-0.0357
1372301.0,-0.0886,-4.7716,9.3039,-0.083,0.0569,-0.0458
1372311.0,-0.0503,-4.7094,9.2656,-0.0878,0.0474,-0.0484
1372321.0,-0.0072,-4.6519,9.2751,-0.0841,0.0426,-0.0452
1372331.0,-0.0048,-4.6495,9.232,-0.0756,0.0404,-0.0388
1372341.0,-0.0479,-4.6064,9.1913,-0.0639,0.0426,-0.0293
1372351.0,-0.1053,-4.5825,9.1339,-0.0474,0.0559,-0.016
1372361.0,-0.1006,-4.6974,9.2105,-0.0436,0.067,-0.0011
1372371.0,-0.079,-4.7908,9.2608,-0.0394,0.0639,0.0016
1372381.0,-0.0551,-4.81,9.256,-0.0426,0.0559,-0.0043
1372391.0,-0.0383,-4.7884,9.177,-0.0564,0.0442,-0.0154
1372401.0,-0.0503,-4.7573,9.0668,-0.0692,0.041,-0.0266
1372411.0,-0.0742,-4.7405,9.1123,-0.0819,0.0447,-0.0341
1372421.0,-0.0718,-4.7405,9.1243,-0.0841,0.0516,-0.0351
1372431.0,-0.0479,-4.7597,9.1435,-0.0729,0.0639,-0.0362
1372441.0,-0.067,-4.6878,9.1482,-0.0516,0.0729,-0.0362
1372451.0,-0.103,-4.6591,9.1171,-0.042,0.0819,-0.0319
1372461.0,-0.0551,-4.7118,9.2656,-0.0394,0.0921,-0.0245
1372471.0,-0.0982,-4.7046,9.3039,-0.0436,0.0883,-0.0239
1372481.0,-0.0766,-4.7022,9.2967,-0.0575,0.0697,-0.0271
1372491.0,-0.0958,-4.7142,9.2775,-0.0729,0.0596,-0.0287
1372501.0,-0.103,-4.7285,9.3374,-0.0708,0.0612,-0.0277
1372511.0,-0.1149,-4.7238,9.323,-0.0543,0.067,-0.0239
1372521.0,-0.1365,-4.6591,9.2703,-0.0543,0.0564,-0.0218
1372531.0,-0.0886,-4.695,9.3039,-0.066,0.0442,-0.0192
1372541.0,-0.0862,-4.707,9.2153,-0.0559,0.0474,-0.016
1372551.0,-0.0982,-4.7381,9.232,-0.0484,0.0564,-0.016
1372561.0,-0.0718,-4.7477,9.2392,-0.0447,0.0639,-0.0197
1372571.0,-0.1269,-4.6926,9.2512,-0.0378,0.0745,-0.0229
1372581.0,-0.1532,-4.64,9.2823,-0.0357,0.0734,-0.0234
1372591.0,-0.1053,-4.6376,9.2943,-0.0458,0.0692,-0.0208
1372601.0,-0.0766,-4.5993,9.2799,-0.0633,0.0591,-0.0197
1372611.0,-0.0503,-4.537,9.2057,-0.0862,0.0468,-0.0186
1372621.0,-0.0599,-4.5466,9.2057,-0.1133,0.0431,-0.0149
1372631.0,-0.0215,-4.5274,9.2009,-0.1261,0.0511,-0.008
1372641.0,-0.0838,-4.4819,9.2464,-0.1229,0.0649,0.0027
1372651.0,-0.1125,-4.4508,9.2847,-0.1107,0.0697,0.0202
1372661.0,-0.1006,-4.5274,9.2751,-0.0921,0.0761,0.0431
1372671.0,-0.079,-4.6807,9.2009,-0.0926,0.0803,0.0548
1372681.0,-0.0551,-4.7501,9.2033,-0.133,0.0718,0.0458
1372691.0,-0.0335,-4.7716,9.2584,-0.182,0.0644,0.0287
1372701.0,-0.0311,-4.7645,9.3087,-0.2155,0.0511,0.0128
1372711.0,-0.0383,-4.7477,9.3398,-0.2352,0.0234,0.0048
1372721.0,0.0287,-4.7285,9.2129,-0.2336,0.0011,0.0032
1372731.0,0.1053,-4.7285,9.165,-0.2006,0.0005,0.0117
1372741.0,0.1532,-4.7573,9.0237,-0.1479,0.017,0.0287
1372751.0,0.2227,-4.865,8.8274,-0.1101,0.0298,0.0399
1372761.0,0.2562,-4.8794,8.746,-0.0979,0.0553,0.0378
1372771.0,0.1724,-4.7932,8.7484,-0.1059,0.0958,0.0271
1372781.0,0.0694,-4.7118,8.8609,-0.1208,0.1266,0.0186
1372791.0,-0.012,-4.5993,9.0118,-0.1224,0.1437,0.017
1372801.0,-0.1389,-4.5274,8.9304,-0.1229,0.149,0.0309
1372811.0,-0.1939,-4.6448,9.0357,-0.1298,0.1575,0.0553
1372821.0,-0.2466,-4.8243,9.2153,-0.1144,0.1788,0.0761
1372831.0,-0.2753,-5.0159,9.3565,-0.0926,0.191,0.0883
1372841.0,-0.3591,-5.138,9.4092,-0.0766,0.183,0.0883
1372851.0,-0.2897,-5.3822,9.6319,-0.0873,0.1724,0.075
1372861.0,-0.3017,-5.4708,9.8019,-0.0681,0.1511,0.0484
1372871.0,-0.2298,-5.4899,9.7731,-0.0431,0.1048,0.0117
1372881.0,-0.1413,-5.351,9.5888,-0.0277,0.0543,-0.0309
1372891.0,-0.2083,-5.1451,9.481,-0.0362,0.0245,-0.0729
1372901.0,-0.2658,-4.865,9.3374,-0.0447,0.0106,-0.0963
1372911.0,-0.3807,-4.6783,9.3015,-0.0532,0.0165,-0.0963
1372921.0,-0.4908,-4.4891,9.3134,-0.0468,0.0239,-0.0734
1372931.0,-0.5363,-4.5633,9.4667,-0.0245,0.0367,-0.0293
1372941.0,-0.4717,-4.695,9.3829,0.0192,0.0309,0.0138
1372951.0,-0.2801,-4.9105,9.2536,0.0394,0.017,0.0399
1372961.0,-0.0886,-5.0302,9.1075,0.0213,0.0117,0.033
1372971.0,-0.0048,-5.0733,8.9687,-0.0325,0.0085,0.0021
1372981.0,0.0694,-4.9943,9.0525,-0.1022,0.0144,-0.0335
1372991.0,0.0383,-4.8985,9.2608,-0.1341,0.0282,-0.0511
1373001.0,-0.0527,-4.8674,9.3853,-0.1133,0.0351,-0.0458
1373011.0,-0.1556,-4.8291,9.3541,-0.0665,0.0261,-0.0309
1373021.0,-0.2155,-4.8554,9.2512,-0.0234,0.016,-0.0176
1373031.0,-0.2346,-4.8411,9.0621,-0.0096,0.0048,-0.0128
1373041.0,-0.2035,-4.8698,9.0381,-0.0261,0.0043,-0.0154
1373051.0,-0.1532,-4.9081,9.019,-0.0394,0.017,-0.0213
1373061.0,-0.1077,-4.853,9.0692,-0.0436,0.0303,-0.0287
1373071.0,-0.0239,-4.7932,9.1506,-0.0404,0.0357,-0.0309
1373081.0,-0.012,-4.7238,9.1459,-0.0335,0.0245,-0.025
1373091.0,0.0766,-4.7716,9.1315,-0.0335,0.0101,-0.0154
1373101.0,0.1891,-4.9249,9.0573,-0.0351,0.0069,-0.0112
1373111.0,0.2107,-5.0063,8.9519,-0.05,-0.0021,-0.0261
1373121.0,0.1772,-4.9991,8.8418,-0.0633,0.0053,-0.0521
1373131.0,0.1006,-4.8794,8.8011,-0.066,0.0314,-0.0766
1373141.0,0.0263,-4.7238,8.8083,-0.0644,0.0639,-0.0937
1373151.0,-0.0551,-4.4891,8.8418,-0.0633,0.0974,-0.1
1373161.0,-0.1245,-4.2832,9.007,-0.0718,0.1197,-0.0952
1373171.0,-0.1915,-4.1276,9.1459,-0.0867,0.1245,-0.0713
1373181.0,-0.2322,-4.1348,9.2871,-0.091,0.1208,-0.0314
1373191.0,-0.3615,-4.1946,9.3589,-0.0798,0.1144,0.0128
1373201.0,-0.4118,-4.3479,9.4547,-0.0607,0.1096,0.0564
1373211.0,-0.4429,-4.5777,9.4499,-0.0415,0.0995,0.0937
1373221.0,-0.4094,-4.853,9.4691,-0.0367,0.0841,0.108
1373231.0,-0.3783,-5.0757,9.4882,-0.0468,0.0585,0.099
1373241.0,-0.2993,-5.1691,9.4715,-0.0607,0.0245,0.075
1373251.0,-0.1915,-5.193,9.3518,-0.0745,-0.0085,0.0426
1373261.0,-0.1149,-5.1499,9.2967,-0.1048,-0.0404,0.0069
1373271.0,-0.1437,-5.0805,9.165,-0.1144,-0.0596,-0.0218
1373281.0,-0.1724,-4.9943,9.0381,-0.0889,-0.0474,-0.0335
1373291.0,-0.1125,-4.9249,8.9591,-0.0548,-0.0208,-0.0362
1373301.0,-0.0958,-4.8722,8.8346,-0.0479,-0.009,-0.042
1373311.0,-0.0527,-4.7716,8.7795,-0.0649,0.0037,-0.0495
1373321.0,-0.1053,-4.774,8.9376,-0.0793,0.0516,-0.0463
1373331.0,-0.0694,-4.8219,9.1315,-0.0979,0.0484,-0.0415
1373341.0,0.0048,-4.81,9.0405,-0.0633,0.0346,-0.0372
1373351.0,-0.0383,-4.6615,9.0381,-0.0074,0.0654,-0.0255
1373361.0,-0.0575,-4.6735,9.0214,0.0096,0.0899,-0.0069
1373371.0,-0.0192,-4.7501,9.0764,-0.008,0.0883,0.0005
1373381.0,-0.0527,-4.8267,9.0597,-0.033,0.0867,-0.0011
1373391.0,-0.1724,-4.8842,9.1866,-0.0463,0.108,-0.0096
1373401.0,-0.3232,-4.8028,9.3613,-0.0447,0.1133,-0.0186
1373411.0,-0.4022,-4.7525,9.4284,-0.0298,0.1048,-0.0176
1373421.0,-0.4429,-4.7405,9.4978,-0.0043,0.1022,-0.0101
1373431.0,-0.3998,-4.7477,9.5146,0.0112,0.0942,-0.0043
1373441.0,-0.3998,-4.6855,9.5361,-0.0016,0.0676,-0.0053
1373451.0,-0.3519,-4.6807,9.5074,-0.0202,0.0388,-0.0048
1373461.0,-0.3184,-4.6615,9.4978,-0.0394,0.017,-0.0011
1373471.0,-0.3424,-4.6424,9.4355,-0.0479,-0.0064,0.0064
1373481.0,-0.3136,-4.7238,9.3278,-0.0516,-0.0293,0.0192
1373491.0,-0.1844,-4.8578,9.2105,-0.0452,-0.0372,0.0314
1373501.0,-0.1221,-4.9584,8.9711,-0.0372,-0.0293,0.0309
1373511.0,-0.1125,-5.0398,8.9567,-0.0452,-0.0138,0.0192
1373521.0,-0.0694,-5.0254,8.9232,-0.0521,0.0133,0.0
1373531.0,-0.1006,-4.9416,8.9639,-0.0564,0.041,-0.0165
1373541.0,-0.0694,-4.8626,9.0908,-0.0601,0.0575,-0.0277
1373551.0,-0.0192,-4.7669,9.1554,-0.0564,0.0686,-0.0277
1373561.0,-0.0407,-4.7453,9.2632,-0.0474,0.0798,-0.0192
1373571.0,-0.0551,-4.7692,9.3302,-0.041,0.0718,-0.0117
1373581.0,-0.0622,-4.8507,9.2967,-0.0367,0.0543,-0.0074
