time_ms,ax,ay,az,gx,gy,gz
147321.0,-0.0886,1.5203,10.556,-0.2384,0.2187,0.1548
147331.0,0.012,1.2258,10.5393,-0.249,0.1889,0.1612
147341.0,-0.0287,0.826,10.4866,-0.2692,0.1426,0.1485
147351.0,-0.158,0.6488,10.4866,-0.2384,0.1453,0.1165
147361.0,-0.2921,0.6416,10.5656,-0.1948,0.1447,0.0761
147371.0,-0.2514,0.6009,10.4507,-0.2027,0.0761,0.033
147381.0,-0.316,0.6009,10.4004,-0.1607,0.0633,-0.0016
147391.0,-0.1365,0.4741,10.2424,-0.0718,0.0905,-0.0218
147401.0,0.1772,0.4118,10.2161,-0.0005,0.1038,-0.0585
147411.0,0.1939,0.6823,10.0916,0.0612,0.1474,-0.107
147421.0,-0.0168,1.0247,10.4363,0.0745,0.1932,-0.1426
147431.0,-0.2298,1.3096,10.8888,0.0968,0.1942,-0.1527
147441.0,-0.2634,1.4772,11.1618,0.1894,0.1751,-0.1298
147451.0,-0.182,1.3815,11.1163,0.3124,0.1607,-0.0862
147461.0,-0.0431,1.2474,10.9463,0.4081,0.1485,-0.0553
147471.0,0.1173,1.1612,10.477,0.4129,0.1421,-0.0537
147481.0,0.1173,1.1205,10.4962,0.2927,0.1479,-0.0841
147491.0,0.091,1.3551,10.6015,0.1761,0.1793,-0.125
147501.0,-0.2274,1.7478,10.7643,0.067,0.1979,-0.1543
147511.0,-0.4573,1.8842,10.7763,-0.0388,0.1846,-0.1538
147521.0,-0.4788,1.6975,10.9176,-0.1336,0.1671,-0.1368
147531.0,-0.395,1.4413,11.2025,-0.1469,0.1719,-0.1235
147541.0,-0.3926,1.3575,11.4898,0.0005,0.2363,-0.0979
147551.0,-0.2298,1.2977,11.8178,0.2565,0.3299,-0.058
147561.0,-0.2251,1.3384,12.1985,0.531,0.4539,-0.0176
147571.0,-0.2753,1.482,12.5384,0.737,0.5747,0.0069
147581.0,-0.2993,1.664,12.9191,0.7412,0.613,-0.0085
147591.0,-0.5195,2.0159,13.5799,0.5779,0.6364,-0.0585
147601.0,-1.0606,2.3607,14.8105,0.3464,0.6524,-0.1123
147611.0,-1.6735,2.3942,16.441,0.1564,0.6087,-0.1431
147621.0,-2.1691,2.2793,18.069,0.1527,0.5406,-0.1501
147631.0,-2.3415,2.5929,19.1776,0.2783,0.4145,-0.1708
147641.0,-2.5953,3.5626,20.0012,0.3278,0.2246,-0.207
147651.0,-3.0622,4.7046,20.6763,0.1777,-0.0479,-0.2251
147661.0,-3.3232,5.4061,21.6196,-0.149,-0.4411,-0.2043
147671.0,-3.3351,5.9065,21.5789,-0.4762,-0.9259,-0.1373
147681.0,-3.5362,5.8658,21.2677,-0.8077,-1.4388,-0.0426
147691.0,-3.6536,5.4253,20.334,-0.9945,-1.8794,0.0798
147701.0,-3.5434,4.6855,18.84,-1.0562,-2.2019,0.199
147711.0,-3.1747,3.8954,17.7769,-1.1824,-2.4493,0.2629
147721.0,-3.4093,3.6703,16.4913,-1.2861,-2.6185,0.2857
147731.0,-3.5674,3.0095,16.0388,-1.5288,-2.8707,0.2751
147741.0,-3.3686,2.6073,14.7243,-1.707,-3.1528,0.2474
147751.0,-3.1939,2.0638,13.7571,-1.7895,-3.3443,0.2102
147761.0,-2.7078,1.6185,12.3421,-1.8182,-3.5503,0.1628
147771.0,-2.3463,1.4198,10.9367,-1.781,-3.6471,0.1075
147781.0,-2.1787,1.4533,9.9671,-1.7246,-3.6679,0.0564
147791.0,-2.1596,1.5658,9.1602,-1.6985,-3.7381,0.0197
147801.0,-2.0518,1.549,8.3342,-1.6118,-3.8498,0.0106
147811.0,-1.5203,1.3623,6.7971,-1.4415,-4.0238,0.0282
147821.0,-0.419,0.8859,4.6232,-1.2004,-4.184,0.0511
147831.0,0.5698,0.7757,1.6807,-0.8833,-4.1553,0.0692
147841.0,1.7095,0.7566,-0.9864,-0.6561,-3.9334,0.0889
147851.0,2.6312,0.7302,-3.3567,-0.5832,-3.5582,0.1149
147861.0,3.3686,0.565,-4.6591,-0.6864,-3.0628,0.1352
147871.0,3.9265,0.1748,-4.8794,-0.8461,-2.552,0.1495
147881.0,4.2282,-0.0958,-5.0566,-0.9147,-2.0944,0.1666
147891.0,4.3407,-0.34,-5.3965,-0.8966,-1.7166,0.1905
147901.0,4.7214,-0.4453,-5.9185,-0.7726,-1.3718,0.2363
147911.0,4.6495,-0.5746,-7.422,-0.4715,-1.0126,0.3395
147921.0,4.8937,-1.008,-10.4339,-0.2804,-0.7646,0.4496
147931.0,4.8507,-0.9912,-16.1178,-0.4124,-0.4613,0.4922
147941.0,4.9129,-0.7518,-22.4385,-1.2946,-0.0793,0.3826
147951.0,4.0821,0.7661,-27.6889,-2.9713,0.2804,0.125
147961.0,1.5993,3.0502,-31.1318,-4.4038,0.7247,-0.0436
147971.0,-1.0942,6.7469,-36.6744,-4.4325,1.649,0.0952
147981.0,-3.4836,10.4052,-41.7956,-3.4821,3.1299,0.5486
147991.0,-8.3222,13.3453,-43.5314,-1.8092,5.5856,1.3218
148001.0,-17.3843,14.2048,-36.0639,0.19,8.732,2.3189
148011.0,-29.3769,11.5161,-22.4289,2.6824,11.8411,3.4082
148021.0,-35.415,4.4245,-6.7804,5.2014,14.084,4.2079
148031.0,-41.3024,-1.8148,10.4411,7.0627,15.741,4.1308
148041.0,-42.3941,-5.4731,27.0904,7.7657,15.9879,3.2571
148051.0,-40.6679,-4.7812,45.6287,7.3932,14.9311,1.9113
148061.0,-35.2115,0.2298,57.6572,6.4008,12.3008,0.6343
148071.0,-30.5907,5.2505,65.0169,4.9433,8.9805,-0.2985
148081.0,-26.2141,9.3494,64.8924,3.3906,5.4829,-0.8131
148091.0,-21.2222,10.1083,60.0873,1.5782,2.2929,-1.0206
148101.0,-19.1369,8.9639,54.6692,0.1022,-0.1655,-1.0525
148111.0,-17.8655,7.4795,46.3158,-0.5667,-2.0976,-0.9248
148121.0,-15.9957,6.1746,36.2147,-0.5997,-3.4949,-0.7269
148131.0,-12.1506,4.1779,26.3482,-0.1171,-3.9648,-0.5438
148141.0,-9.6319,5.636,17.2454,0.2698,-3.6237,-0.4709
148151.0,-8.3534,6.8139,14.8632,0.4443,-2.4073,-0.3757
148161.0,-7.9416,7.1084,16.4051,0.332,-1.358,-0.2474
148171.0,-7.5848,6.9887,20.4178,0.049,-0.7827,-0.133
148181.0,-9.1219,6.7971,25.3402,-0.2389,-0.7439,-0.0261
148191.0,-9.3182,6.0789,27.7392,-0.5938,-1.6208,0.0649
148201.0,-9.651,5.0446,28.3426,-0.7636,-2.6914,0.1128
148211.0,-10.4387,5.3271,25.0793,-0.7364,-3.795,0.1219
148221.0,-11.4036,5.2625,21.555,-0.9684,-4.9135,0.0995
148231.0,-10.2017,5.7054,16.1633,-0.8828,-5.6494,0.1266
148241.0,-9.2249,6.3039,10.9918,-0.6944,-5.7995,0.2102
148251.0,-7.9871,6.3853,7.3334,-0.7237,-5.6367,0.3315
148261.0,-6.4907,6.675,3.6152,-0.9264,-5.2919,0.4667
148271.0,-5.4013,5.9065,2.4062,-1.4936,-4.8162,0.5741
148281.0,-4.7142,5.0063,2.8108,-2.0433,-4.2542,0.6492
148291.0,-4.9775,3.6847,5.0398,-2.5456,-3.8695,0.6838
148301.0,-5.1499,2.387,6.7971,-2.8479,-3.9185,0.687
148311.0,-5.2002,1.3096,7.3933,-2.8112,-4.1734,0.6838
148321.0,-4.6807,0.316,6.8809,-2.5036,-4.4703,0.679
148331.0,-3.6583,-0.4573,5.1523,-2.0513,-4.7055,0.6566
148341.0,-2.4732,-0.6297,2.5187,-1.6602,-4.7986,0.5949
148351.0,-1.5538,0.0718,-0.7685,-1.5777,-4.7342,0.5066
148361.0,-0.8882,0.3974,-2.4756,-1.9252,-4.5155,0.4342
148371.0,0.0814,0.079,-2.8515,-2.2673,-4.1563,0.4166
148381.0,1.0798,-0.7901,-2.3248,-2.3216,-3.7099,0.4432
148391.0,1.8028,-1.6496,-1.7406,-2.1072,-3.2741,0.4768
148401.0,2.3128,-2.545,-0.8475,-1.7368,-2.8883,0.5034
148411.0,2.7677,-3.3064,-0.261,-1.2984,-2.5898,0.5146
148421.0,3.0406,-3.8116,0.0455,-0.8876,-2.3562,0.489
148431.0,3.2106,-4.1611,0.0263,-0.6247,-2.2343,0.4278
148441.0,3.6416,-4.5562,-0.7039,-0.5188,-2.2439,0.3342
148451.0,4.2784,-4.9464,-1.8866,-0.4406,-2.2088,0.2171
148461.0,4.8219,-4.9728,-3.7876,-0.3028,-2.0252,0.1022
148471.0,5.4085,-5.1332,-5.5665,-0.2347,-1.7342,-0.009
148481.0,5.6958,-5.0637,-6.7588,-0.2081,-1.3015,-0.132
148491.0,5.2816,-4.1635,-8.2313,-0.281,-0.8775,-0.2692
148501.0,5.0302,-3.395,-9.3111,-0.6635,-0.6774,-0.4087
148511.0,4.9153,-2.241,-11.6167,-0.9796,-0.5486,-0.5161
148521.0,5.0733,-0.8164,-15.8568,-1.0674,-0.3975,-0.5773
148531.0,5.3151,1.2139,-22.5175,-0.8998,0.0495,-0.5726
148541.0,4.6208,4.6663,-31.5867,-0.6146,1.1456,-0.447
148551.0,1.5826,7.8506,-36.5762,-0.8402,2.8841,-0.1501
148561.0,-3.0742,9.8833,-34.8452,-1.2334,5.0098,0.3874
148571.0,-8.1092,10.3837,-29.3481,-1.235,6.926,1.1196
148581.0,-12.9981,9.4451,-22.0195,-0.7769,8.2291,1.8794
148591.0,-17.4849,8.078,-15.7562,0.3863,9.0374,2.5627
148601.0,-23.0801,6.2321,-13.2495,2.2242,9.9324,3.1155
148611.0,-27.9427,1.0271,-8.3989,3.7748,11.2659,3.3938
148621.0,-31.9339,-4.6567,3.5195,4.8933,12.8601,3.1661
148631.0,-34.9314,-6.3375,18.3899,6.148,13.9648,2.4552
148641.0,-35.7574,-3.5578,32.7551,7.3698,14.1404,1.5213
148651.0,-36.2315,4.197,45.1379,7.9168,13.1948,0.6279
148661.0,-34.3017,10.6159,56.1081,7.1702,11.0004,0.0633
148671.0,-30.902,13.2782,65.1774,5.8437,8.1743,-0.1165
148681.0,-26.6523,14.5879,65.5269,4.5889,4.9444,-0.0713
148691.0,-23.7672,14.2,61.0976,2.7159,1.6996,-0.0623
148701.0,-20.6763,10.9008,54.3915,0.7641,-1.0488,-0.0628
148711.0,-17.7315,8.5042,44.5513,-0.5992,-3.157,-0.1187
148721.0,-16.5008,6.9168,34.5388,-1.3079,-4.3564,-0.1788
148731.0,-13.7547,4.6376,25.9603,-1.3713,-4.7406,-0.1724
148741.0,-9.8689,3.8523,17.8727,-1.1435,-4.5128,-0.2128
148751.0,-8.8346,3.4836,15.9023,-0.8642,-3.4992,-0.3028
148761.0,-8.2696,4.2186,16.2327,-0.5513,-2.6627,-0.3613
148771.0,-8.2959,5.2553,18.2702,-0.389,-2.2668,-0.3645
148781.0,-9.1243,6.699,21.0762,-0.1692,-2.1636,-0.2586
148791.0,-9.5888,7.8147,21.962,-0.0947,-2.6973,-0.0543
148801.0,-9.3326,8.078,18.9669,-0.3012,-3.6833,0.1889
148811.0,-8.2696,6.5769,15.9957,-0.6492,-4.3979,0.3911
148821.0,-7.2449,5.6383,12.1673,-0.7886,-4.6879,0.5087
148831.0,-6.5745,4.64,9.1004,-1.0775,-4.8066,0.5183
148841.0,-5.6216,3.8666,6.5984,-1.4404,-4.8151,0.4539
148851.0,-4.7525,3.3854,5.533,-1.6825,-4.6044,0.3597
148861.0,-4.3096,3.3447,5.4516,-1.6469,-4.2739,0.3012
148871.0,-4.0366,3.3878,5.3415,-1.4191,-4.0036,0.323
148881.0,-4.2138,3.6559,4.3048,-1.1973,-3.844,0.4007
148891.0,-3.2825,3.2968,2.8419,-1.2249,-3.7721,0.5098
148901.0,-2.0087,2.1189,2.5498,-1.3186,-3.5173,0.6162
148911.0,-1.2617,1.3551,2.8084,-1.2962,-3.1219,0.6827
148921.0,-0.6919,0.9122,3.3208,-1.3851,-2.925,0.6939
148931.0,-0.4094,0.6991,3.4165,-1.5389,-2.8617,0.6832
148941.0,0.1365,0.407,3.8618,-1.7086,-2.8096,0.6763
148951.0,0.4022,-0.1173,4.6878,-1.6772,-2.7265,0.7003
148961.0,0.6536,-0.5124,5.0566,-1.3734,-2.6414,0.7609
148971.0,0.6081,-0.9074,5.0326,-1.002,-2.5653,0.837
148981.0,0.8068,-1.5323,4.4724,-0.7694,-2.5983,0.8998
148991.0,1.4126,-2.2434,3.5817,-0.6923,-2.668,0.9216
149001.0,2.2841,-2.9377,2.7366,-0.6598,-2.6111,0.9046
149011.0,2.9951,-3.5003,1.834,-0.6417,-2.4413,0.853
149021.0,3.5602,-3.8738,1.2737,-0.7588,-2.2572,0.7551
149031.0,3.6344,-4.0654,0.9457,-0.9929,-2.0928,0.622
149041.0,3.5674,-4.4676,0.9816,-1.2361,-1.9656,0.4879
149051.0,3.8427,-5.0973,0.9026,-1.3303,-1.8331,0.364
149061.0,4.4628,-5.8897,1.0894,-1.2606,-1.6506,0.2277
149071.0,4.7094,-6.1363,1.3575,-1.0371,-1.4548,0.066
149081.0,4.3981,-5.8849,1.549,-0.7274,-1.3085,-0.1027
149091.0,4.0103,-5.0398,0.4956,-0.4379,-1.2819,-0.2565
149101.0,3.8259,-3.8427,-2.7797,-0.5337,-1.4532,-0.4049
149111.0,4.0486,-2.9616,-6.5745,-1.1781,-1.666,-0.5608
149121.0,3.9025,-1.8579,-10.1849,-1.8486,-1.582,-0.6843
149131.0,3.2178,0.2514,-15.773,-2.3754,-1.3723,-0.7561
149141.0,3.3208,2.4277,-22.5701,-2.9969,-1.2441,-0.762
149151.0,3.5721,6.8881,-33.9115,-3.1836,-0.6667,-0.5736
149161.0,2.059,9.5122,-41.4125,-3.2879,0.6151,-0.1022
149171.0,-1.8076,10.386,-45.0493,-2.5536,2.5802,0.5683
149181.0,-7.9799,13.4027,-50.386,-0.8344,5.045,1.3324
149191.0,-15.6748,11.6885,-46.0908,0.9977,8.1541,2.1923
149201.0,-28.0672,9.6127,-34.2036,3.5854,11.814,2.9405
149211.0,-39.8946,6.4907,-17.2383,6.6243,15.0279,3.4667
149221.0,-46.8737,2.7342,-0.0982,9.7488,17.4118,3.4066
149231.0,-53.1417,3.2298,17.9278,11.4739,17.4357,2.4594
149241.0,-51.2192,7.4053,37.5147,10.4518,17.4357,1.002
149251.0,-46.742,11.9566,57.9229,7.7231,15.6893,-0.3198
149261.0,-41.7142,12.323,76.0686,4.2537,11.5734,-1.2228
149271.0,-35.4797,11.6358,78.4508,1.8475,6.7685,-1.5751
149281.0,-33.0998,9.517,78.4508,0.9897,2.1721,-1.4394
149291.0,-28.5006,8.4491,65.5748,1.0993,-2.1625,-1.1233
149301.0,-22.8838,8.8466,46.311,1.5091,-4.515,-0.8567
149311.0,-18.1193,9.3494,31.625,1.2866,-5.1205,-0.7551
149321.0,-15.0212,9.3302,24.2533,0.5486,-4.7017,-0.7636
149331.0,-11.9183,9.177,22.6922,0.2049,-3.629,-0.7162
149341.0,-12.2942,8.9184,22.3164,0.141,-2.7994,-0.6188
149351.0,-11.655,7.8362,25.0649,-0.1314,-2.5584,-0.5545
149361.0,-12.1338,7.252,26.2883,-0.3608,-2.8229,-0.5034
149371.0,-12.378,6.5242,27.5429,-0.6699,-3.629,-0.4975
149381.0,-12.1721,7.5441,24.4089,-0.5417,-4.5442,-0.4534
149391.0,-12.7084,8.3438,22.0554,-0.4443,-5.2301,-0.3501
149401.0,-12.1194,9.584,17.425,-0.2826,-5.891,-0.1634
149411.0,-11.2719,9.7396,13.7547,-0.2379,-6.2438,0.0825
149421.0,-10.1682,9.7636,9.3015,-0.2155,-6.3226,0.356
149431.0,-9.2057,9.2225,5.3295,-0.6151,-6.3146,0.5837
149441.0,-8.0254,8.0732,1.4389,-1.3601,-6.2039,0.7418
149451.0,-6.3614,6.0789,-0.3687,-2.3083,-5.8415,0.804
149461.0,-5.1643,3.9959,-0.0742,-3.0293,-5.31,0.7806
149471.0,-4.2521,2.624,0.929,-3.3465,-4.8577,0.705
149481.0,-3.79,1.9609,2.0446,-3.2986,-4.5613,0.6348
149491.0,-3.2513,1.5371,2.7366,-2.9293,-4.4245,0.6178
149501.0,-2.4588,1.4222,1.9776,-2.3594,-4.3793,0.6598
149511.0,-1.4605,1.2929,0.3711,-1.8353,-4.2995,0.7354
149521.0,-0.4908,1.142,-1.5969,-1.5575,-4.1377,0.8179
149531.0,0.3807,0.5243,-2.5402,-1.5618,-3.8562,0.8881
149541.0,0.9577,-0.4525,-2.8228,-1.6166,-3.5306,0.9466
149551.0,1.8124,-1.5371,-2.8946,-1.5548,-3.1634,0.978
149561.0,2.6647,-2.2817,-3.0047,-1.3995,-2.7377,0.9695
149571.0,3.1005,-2.8419,-2.4469,-1.3303,-2.3424,0.9227
149581.0,3.6248,-3.237,-1.3862,-1.2856,-2.0348,0.8588
149591.0,3.6943,-3.4405,-0.4693,-1.1467,-1.8214,0.8072
149601.0,4.0151,-3.814,0.1772,-0.9099,-1.6927,0.7795
149611.0,4.2377,-4.1922,-0.0455,-0.5954,-1.5777,0.7625
149621.0,4.4891,-4.8866,-0.1676,-0.3299,-1.4564,0.7274
149631.0,4.9464,-5.4516,-0.4549,-0.0548,-1.3042,0.6508
149641.0,5.0135,-5.5665,-0.8835,0.1729,-1.1148,0.5289
149651.0,4.8698,-5.3893,-2.1572,0.2118,-1.0009,0.3751
149661.0,4.9799,-5.1092,-4.391,-0.1607,-1.0233,0.1724
149671.0,5.0877,-4.8961,-6.4787,-0.9025,-1.0169,-0.0798
149681.0,5.0494,-4.2593,-8.5688,-1.7033,-0.9142,-0.3374
149691.0,4.5777,-3.2178,-9.6654,-2.3189,-0.7386,-0.5694
149701.0,3.9911,-0.8859,-12.8042,-2.4818,-0.613,-0.7125
149711.0,3.7565,2.1428,-19.1895,-2.4796,-0.5885,-0.7402
149721.0,3.814,6.0262,-28.1343,-2.2748,-0.2559,-0.6125
149731.0,0.9361,11.066,-38.573,-2.0971,0.6561,-0.2677
149741.0,-2.15,16.4266,-47.9846,-2.1072,2.1535,0.3384
149751.0,-9.1746,21.1073,-53.034,-1.9374,4.5959,1.2952
149761.0,-18.3683,20.334,-48.8273,-1.276,7.8625,2.6467
149771.0,-29.499,14.6334,-33.1094,0.5108,11.3782,4.0137
149781.0,-41.6376,8.4396,-14.6812,4.2228,14.3601,5.0918
149791.0,-47.5273,-0.7278,2.387,9.3019,17.1143,5.6133
149801.0,-51.8416,-5.8275,18.1097,13.289,17.4357,4.8044
149811.0,-49.3014,1.4006,34.1796,13.5822,17.4357,2.6207
149821.0,-47.4698,13.2735,55.4617,10.7332,16.9148,0.6268
149831.0,-41.9871,17.2287,70.0903,6.0831,12.3461,-0.539
149841.0,-36.3176,12.05,78.4508,1.8576,7.5182,-0.9567
149851.0,-33.4709,7.2161,78.4508,0.3363,3.2464,-0.8439
149861.0,-29.1542,2.7054,69.439,0.1932,-0.9179,-0.6114
149871.0,-23.7457,0.7997,52.6748,1.1706,-3.4247,-0.4289
149881.0,-18.5958,1.3072,36.9425,1.6043,-4.5293,-0.531
149891.0,-15.105,3.1101,26.0393,1.0828,-4.5719,-0.8354
149901.0,-12.3972,4.604,20.9756,0.1107,-3.9658,-1.1121
149911.0,-11.4922,5.0685,21.6029,-0.6864,-3.1911,-1.2542
149921.0,-13.1346,4.7692,23.717,-0.7599,-2.7516,-1.2042
149931.0,-10.7548,5.0901,23.6044,-0.3778,-3.0362,-1.0834
149941.0,-10.9846,5.3367,23.4632,0.1293,-3.4045,-0.953
149951.0,-11.0947,6.0047,21.3275,0.796,-3.9509,-0.779
149961.0,-10.1849,7.2999,17.2215,1.3021,-4.5682,-0.5976
149971.0,-9.1482,9.098,12.6965,1.5186,-4.8582,-0.4092
149981.0,-7.9966,10.9271,8.7676,1.4026,-4.8156,-0.1687
149991.0,-7.2209,11.789,6.5817,0.9839,-4.465,0.1325
150001.0,-6.5793,11.5353,4.9081,0.2953,-4.101,0.4417
150011.0,-5.3463,9.8737,3.9073,-0.7561,-3.8993,0.6742
150021.0,-4.3503,7.3957,4.9177,-1.6964,-3.5588,0.8046
150031.0,-4.1492,5.5067,6.778,-2.1024,-3.1655,0.8684
150041.0,-4.1803,4.1444,8.406,-2.1338,-3.0341,0.8945
150051.0,-4.0845,3.3519,8.9423,-1.8879,-3.1001,0.9174
150061.0,-3.8307,3.0335,8.6598,-1.5155,-3.2097,0.9562
150071.0,-3.4884,2.9066,8.0325,-1.1573,-3.3087,1.0174
150081.0,-3.1771,2.8563,7.4172,-0.829,-3.3294,1.1137
150091.0,-2.4972,2.5115,6.292,-0.6114,-3.3236,1.2382
150101.0,-1.9345,1.98,4.9775,-0.745,-3.3635,1.3202
150111.0,-1.4676,1.3551,4.4293,-1.1621,-3.4029,1.3329
150121.0,-1.0151,0.6991,4.1707,-1.557,-3.4092,1.3164
150131.0,-0.6536,0.1125,4.0103,-1.8305,-3.3927,1.2893
150141.0,-0.5291,-0.4812,4.0558,-1.9401,-3.3571,1.267
150151.0,-0.3232,-0.9888,4.0342,-1.8768,-3.3379,1.2611
150161.0,-0.2011,-1.6352,4.1899,-1.6112,-3.2842,1.2755
150171.0,0.2418,-2.0782,4.0007,-1.1786,-3.2172,1.2957
150181.0,0.4884,-2.3942,3.7661,-0.7072,-3.1341,1.3149
150191.0,0.8404,-2.5235,2.9185,-0.3124,-3.0985,1.3255
150201.0,1.6376,-2.6504,1.8052,-0.1368,-3.0804,1.3138
150211.0,2.2769,-2.7054,0.5411,-0.2134,-3.0288,1.2744
150221.0,2.7246,-2.7246,-0.431,-0.6039,-2.9788,1.1946
150231.0,2.9042,-2.873,-0.68,-1.1776,-2.9202,1.0876
150241.0,2.9257,-2.9425,-0.8332,-1.7347,-2.8888,0.9722
150251.0,2.8587,-3.0454,-0.7877,-2.221,-2.9112,0.8508
150261.0,2.8706,-2.9808,-1.1181,-2.5334,-2.9341,0.7311
150271.0,2.7031,-2.5977,-2.3487,-2.7287,-2.974,0.6173
150281.0,3.0239,-2.2482,-5.5258,-3.1033,-3.1661,0.4938
150291.0,4.7573,-2.6456,-10.0317,-3.8371,-3.4332,0.3129
150301.0,5.2361,-2.4828,-16.1154,-4.6586,-3.3502,0.0809
150311.0,4.7597,-1.2641,-23.0586,-5.6601,-3.073,-0.2219
150321.0,5.7174,2.3128,-29.6737,-6.173,-2.461,-0.4613
150331.0,4.9871,6.7852,-30.9427,-5.2626,-0.9621,-0.298
150341.0,-7.0246,16.8887,-43.1268,-2.6808,0.4683,0.4544
150351.0,-5.2289,16.6229,-50.0221,-0.2746,1.9497,1.6629
150361.0,-11.8609,16.0579,-62.1032,2.9788,5.2376,2.8388
150371.0,-18.3396,11.9255,-63.001,4.8199,8.9379,3.3933
150381.0,-35.032,9.4164,-50.3955,6.7413,13.7934,3.4752
150391.0,-50.6278,4.1851,-30.6985,9.2157,17.4357,3.2767
150401.0,-63.2141,-0.9457,-16.7666,12.4296,17.4357,2.5142
150411.0,-76.5067,1.1564,0.8092,13.7833,17.4357,0.8673
150421.0,-78.2569,9.6223,36.7773,12.3115,17.4357,-1.1584
150431.0,-69.8915,22.8359,63.6187,10.0931,17.4357,-2.4999
150441.0,-57.1568,28.2635,78.4508,6.3524,15.0285,-2.9633
150451.0,-44.6686,27.8302,78.4508,3.4816,7.995,-2.5196
150461.0,-38.1396,21.5311,78.4508,1.4809,1.0866,-1.6974
150471.0,-34.3879,12.7755,71.3472,1.3313,-4.2484,-0.7779
150481.0,-26.3602,7.4029,43.7373,2.7324,-7.1149,-0.1437
150491.0,-18.0834,5.9352,22.1296,3.0293,-7.5129,-0.1687
150501.0,-11.9806,8.8155,8.8945,2.1886,-6.2816,-0.5901
150511.0,-8.6862,13.1274,5.7341,1.1478,-3.8456,-0.92
150521.0,-10.1203,15.0835,10.9822,0.215,-1.3941,-0.8732
150531.0,-9.6486,15.3205,16.3644,-0.5119,-0.4454,-0.5843
150541.0,-10.3166,11.9662,25.199,-1.1063,-0.2554,-0.1857
150551.0,-10.5465,8.5976,30.4566,-0.9482,-1.0126,0.2203
150561.0,-10.173,5.3822,29.6115,-0.5816,-2.7782,0.4933
150571.0,-8.9088,2.9066,24.0905,-0.1027,-4.4554,0.597
150581.0,-7.6878,1.6257,15.9262,0.2799,-5.4808,0.5321
150591.0,-5.9113,1.7071,8.7867,0.2027,-5.9017,0.2767
150601.0,-4.1899,3.3734,2.7725,0.116,-5.5164,0.0074
150611.0,-3.1412,5.4636,-0.8882,-0.0724,-4.5219,-0.1548
150621.0,-1.8794,6.292,-1.1325,-0.3773,-3.1948,-0.1719
150631.0,-1.5945,6.4069,1.3767,-0.6737,-1.8028,-0.1059
150641.0,-1.8771,5.7269,6.0023,-1.1451,-0.8663,-0.0559
150651.0,-2.4684,5.2625,10.5177,-1.649,-0.5151,-0.0436
150661.0,-3.2825,4.7453,14.9781,-2.1327,-0.6848,-0.0516
150671.0,-3.802,4.2808,18.397,-2.344,-1.3026,-0.05
150681.0,-4.1563,4.5801,18.5455,-2.1678,-2.2152,0.0021
150691.0,-4.2306,4.6017,17.2287,-1.8826,-3.1198,0.1277
150701.0,-4.1899,4.7381,14.1521,-1.4819,-3.8137,0.3257
150711.0,-4.0007,4.3479,10.8362,-1.2872,-4.3176,0.5385
150721.0,-3.4093,3.6464,7.2832,-1.3462,-4.6613,0.7178
150731.0,-2.8132,2.6576,4.7884,-1.5586,-4.7672,0.8344
150741.0,-2.3511,2.1404,2.4373,-1.7219,-4.6874,0.9078
150751.0,-1.9249,1.9537,0.1269,-1.9544,-4.5432,0.9562
150761.0,-1.2953,1.506,-1.5467,-2.2876,-4.3335,1.0126
150771.0,-0.3759,0.7015,-2.1308,-2.5387,-4.0057,1.0669
150781.0,-0.1006,-0.0215,-2.059,-2.6105,-3.6402,1.1222
150791.0,0.5866,-1.1205,-1.6209,-2.5148,-3.4151,1.1738
150801.0,1.5107,-2.1308,-2.0901,-2.1955,-3.2863,1.2015
150811.0,2.2769,-3.0813,-3.1173,-1.7416,-3.1059,1.193
150821.0,2.9449,-3.7948,-4.2689,-1.2169,-2.792,1.1456
150831.0,3.4788,-4.0151,-5.3846,-0.679,-2.362,1.0648
150841.0,3.8762,-3.893,-6.8354,-0.2602,-1.9119,0.9668
150851.0,4.4125,-3.7326,-8.3845,-0.1272,-1.4995,0.8514
150861.0,4.3407,-3.2058,-10.6734,-0.3102,-1.102,0.7136
150871.0,4.3335,-2.8467,-12.2607,-0.9519,-0.7785,0.5252
150881.0,3.7493,-1.5969,-13.5512,-1.6895,-0.4284,0.3065
150891.0,2.1787,0.6919,-14.224,-2.3652,-0.1176,0.1309
150901.0,0.3687,3.9983,-15.8329,-2.6568,0.1038,0.1362
150911.0,-0.1796,7.5202,-20.3938,-2.4706,0.174,0.406
150921.0,-0.6871,11.6861,-28.9028,-1.5836,0.8301,1.011
150931.0,-1.7406,13.2256,-35.0032,-0.2389,2.4717,1.8879
150941.0,-5.7245,12.0261,-36.9569,1.756,5.0583,2.825
150951.0,-14.0372,10.2161,-35.822,4.0308,8.1381,3.5183
150961.0,-25.5629,6.2058,-28.9986,6.0762,11.4942,3.936
150971.0,-36.2147,0.4238,-19.1177,7.8034,14.7613,3.9307
150981.0,-42.6599,-4.1922,-4.6855,8.5085,17.4357,3.2145
150991.0,-50.6469,-5.9903,20.8511,8.5862,17.4357,1.7507
151001.0,-50.7212,-0.5267,46.4308,7.6933,17.4357,-0.0894
151011.0,-47.8601,8.8107,66.1231,6.314,15.8633,-1.309
151021.0,-42.4348,14.9997,78.4508,4.7949,11.0546,-1.7139
151031.0,-37.1724,19.484,78.4508,3.8525,5.6941,-1.3372
151041.0,-33.0735,18.9836,75.0822,3.422,1.1004,-0.4672
151051.0,-29.4966,15.761,61.1359,3.3752,-2.5621,0.4864
151061.0,-25.3642,10.3717,46.8761,2.9123,-5.0567,1.0988
151071.0,-20.4944,6.4189,32.2116,2.2588,-6.2773,1.2393
151081.0,-15.7682,4.0366,21.871,0.9504,-6.4375,0.92
151091.0,-12.8305,3.1891,17.0611,-0.5204,-5.8639,0.3533
151101.0,-12.9215,3.8547,15.4618,-1.6458,-5.1636,-0.1815
151111.0,-10.2879,5.138,15.354,-2.3386,-4.7278,-0.5875
151121.0,-10.5153,6.5457,16.0507,-2.4259,-4.2303,-0.771
151131.0,-11.0947,6.6056,18.5215,-2.229,-4.1186,-0.7301
151141.0,-11.1785,6.3351,17.607,-1.6006,-4.5198,-0.5236
151151.0,-10.2663,6.0334,15.5025,-0.8849,-4.9439,-0.2554
151161.0,-9.3757,5.3079,12.062,-0.1809,-5.1274,0.0335
151171.0,-8.2025,4.2928,9.4715,0.0223,-5.2615,0.2134
151181.0,-7.0868,4.0199,6.4524,-0.0122,-5.2605,0.2948
151191.0,-6.031,4.1037,4.4843,-0.2086,-4.9976,0.299
151201.0,-4.6783,4.2066,3.0646,-0.5608,-4.5756,0.2868
151211.0,-3.5482,4.0821,3.1268,-1.1675,-4.117,0.2277
151221.0,-2.8706,3.7302,4.8794,-1.9023,-3.8142,0.1325
151231.0,-2.7557,3.5123,6.6272,-2.3184,-3.6524,0.0649
151241.0,-3.0382,3.2825,8.1211,-2.3684,-3.6189,0.0612
151251.0,-3.1651,3.1891,8.3797,-2.1678,-3.7445,0.1165
151261.0,-3.304,3.055,7.9368,-1.8922,-3.96,0.2112
151271.0,-3.0933,2.8252,6.4332,-1.6671,-4.2228,0.3241
151281.0,-2.4493,2.49,4.4556,-1.5575,-4.4314,0.4193
151291.0,-1.4916,2.2529,2.0423,-1.533,-4.4985,0.4949
151301.0,-0.6033,1.8364,0.2873,-1.6623,-4.3995,0.5417
151311.0,0.0886,1.5778,-0.656,-1.8299,-4.1861,0.5593
151321.0,0.4238,1.5131,-1.5778,-1.9576,-3.9951,0.5795
151331.0,1.257,1.1708,-2.7509,-2.0337,-3.8541,0.6173
151341.0,2.0997,0.7542,-3.9576,-1.938,-3.5689,0.6742
151351.0,2.5498,0.5195,-5.0182,-1.7219,-3.1592,0.7396
151361.0,2.988,0.1891,-6.2369,-1.558,-2.8266,0.803
151371.0,3.4333,-0.3735,-8.5665,-1.4995,-2.5515,0.8583
151381.0,4.1539,-1.1779,-10.884,-1.5974,-2.2019,0.8524
151391.0,4.889,-1.8076,-13.3477,-1.7693,-1.7491,0.7811
151401.0,4.8195,-2.0063,-15.2223,-1.9699,-1.2153,0.6641
151411.0,4.3694,-1.4413,-17.6524,-1.8353,-0.5396,0.5593
151421.0,3.6272,-0.2945,-20.547,-1.5756,0.1607,0.4927
151431.0,3.4165,1.4317,-24.6483,-1.2558,0.8716,0.5172
151441.0,2.1596,3.3423,-29.4295,-0.8796,1.798,0.6444
151451.0,0.0335,5.0015,-34.1293,-0.771,2.7351,0.8359
151461.0,-3.79,7.4292,-37.6105,-0.5433,4.0701,1.1196
151471.0,-9.402,8.9423,-38.0199,0.1676,5.8431,1.5756
151481.0,-16.2997,8.3845,-36.2722,1.5011,8.0046,2.1418
151491.0,-23.6858,6.1052,-31.6394,3.1246,10.3767,2.6004
151501.0,-31.716,3.1053,-22.2972,4.8885,12.7031,2.768
151511.0,-39.5977,2.8563,-10.9367,7.1798,15.1147,2.5866
151521.0,-47.7332,5.3008,2.1213,9.3524,17.2484,2.0433
151531.0,-53.1106,10.8625,16.8432,10.4507,17.4357,1.1808
151541.0,-52.9909,15.4977,37.5818,9.3482,17.4357,0.2581
151551.0,-49.9622,20.2358,58.148,7.2969,16.0927,-0.373
151561.0,-44.3406,18.318,77.6966,4.5629,12.2253,-0.6795
151571.0,-39.9209,17.0826,78.4508,2.6004,7.2995,-0.6667
151581.0,-36.921,13.8912,78.4508,1.7326,2.1614,-0.3177
151591.0,-33.0591,11.3749,69.6808,1.8725,-2.8457,0.1852
151601.0,-28.7615,8.3725,50.9271,1.9177,-6.3263,0.4736
151611.0,-23.523,7.4029,30.8972,1.8251,-7.9418,0.4752
151621.0,-17.6309,6.2608,16.6301,0.854,-8.0647,0.1804
151631.0,-13.204,5.6479,9.6558,-0.2645,-7.0079,-0.2554
151641.0,-10.7069,6.3997,7.8003,-0.8099,-5.3871,-0.6039
151651.0,-9.6079,7.2999,9.3039,-0.8844,-3.8866,-0.7226
151661.0,-9.086,7.8051,12.3732,-0.7205,-2.941,-0.6215
151671.0,-8.8753,7.5848,15.9334,-0.4502,-2.6419,-0.3831
151681.0,-9.0118,7.0294,18.0666,0.0394,-2.8271,-0.0803
151691.0,-8.7149,6.5194,17.5471,0.5837,-3.3917,0.2144
151701.0,-7.8003,6.2728,14.279,0.8673,-4.1398,0.4395
151711.0,-6.857,6.1363,10.24,0.8359,-4.6257,0.564
151721.0,-5.7509,6.2225,6.4763,0.6364,-4.6661,0.6194
151731.0,-4.4676,6.1387,4.0031,0.2581,-4.325,0.6321
151741.0,-3.5267,6.189,2.8706,-0.4081,-3.8812,0.5896
151751.0,-2.8036,5.7126,3.1819,-1.2866,-3.5258,0.5103
151761.0,-2.6408,4.9991,4.8123,-1.9986,-3.2257,0.4225
151771.0,-2.66,4.6663,6.292,-2.2178,-2.9873,0.3789
151781.0,-2.9449,4.6615,7.4029,-2.0566,-2.8271,0.4049
151791.0,-2.9928,5.0757,7.8338,-1.7592,-2.8245,0.5013
151801.0,-2.8659,5.3247,7.7644,-1.4686,-2.9165,0.6758
151811.0,-2.9951,5.0733,7.331,-1.2159,-3.0405,0.9152
151821.0,-2.7198,4.3718,6.5434,-1.0084,-3.1831,1.1706
151831.0,-2.0949,3.292,5.3774,-0.8705,-3.2767,1.3941
151841.0,-1.6496,2.1883,4.2976,-0.9152,-3.3273,1.5341
151851.0,-1.2737,1.1851,3.6368,-1.1403,-3.4045,1.5713
151861.0,-0.9816,0.5674,2.9233,-1.3899,-3.496,1.5373
151871.0,-0.7518,0.1556,2.0375,-1.616,-3.5774,1.4681
151881.0,-0.4717,-0.1149,1.1349,-1.8124,-3.6503,1.3888
151891.0,0.079,-0.3496,0.1508,-1.88,-3.6551,1.3234
151901.0,0.9601,-0.7997,-0.7733,-1.7709,-3.5428,1.2898
151911.0,1.6927,-1.2689,-2.6312,-1.5649,-3.3731,1.2664
151921.0,2.2386,-1.6759,-5.9927,-1.5729,-3.2278,1.2026
151931.0,3.3327,-2.5091,-9.414,-1.9348,-2.9766,1.0791
151941.0,4.3455,-3.3471,-11.8992,-2.3844,-2.4419,0.8918
151951.0,5.0542,-3.5171,-13.1921,-2.7234,-1.7368,0.6486
151961.0,5.375,-2.8276,-14.7076,-2.8553,-1.1015,0.4331
151971.0,4.2569,-0.3687,-19.5223,-2.8239,-0.5577,0.3278
151981.0,2.3631,2.1332,-26.1255,-3.3241,-0.2432,0.3767
151991.0,0.0455,3.4333,-33.2842,-3.9871,0.2841,0.6529
152001.0,-1.5778,3.0143,-38.7286,-3.9712,1.3074,1.0828
152011.0,-4.9416,4.525,-43.9216,-2.2854,3.297,1.5564
152021.0,-10.3406,5.3415,-48.2025,0.4401,6.1177,2.0082
152031.0,-19.9317,5.1164,-44.7931,3.2523,9.7424,2.2812
152042.0,-33.447,4.6759,-35.6185,6.2369,13.58,2.3259
152051.0,-46.6965,6.0525,-24.5813,8.8038,16.8648,2.0401
152061.0,-54.0659,5.9855,-6.098,10.0468,17.4357,1.4069
152071.0,-65.6969,11.0852,18.5048,9.8611,17.4357,0.3134
152081.0,-62.6299,13.8217,46.9216,7.5943,17.4357,-0.8966
152091.0,-58.5047,19.4409,70.6792,5.0811,17.4357,-1.6629
152101.0,-50.726,17.2622,78.4508,2.0449,12.262,-1.8134
152111.0,-42.7341,15.5288,78.4508,0.7508,6.3992,-1.466
152121.0,-40.3208,13.7906,78.4508,0.7082,0.4225,-0.7306
152131.0,-37.3448,9.9407,71.2155,1.2691,-4.5746,0.0905
152141.0,-32.7407,6.8714,49.3469,2.2604,-8.1631,0.7093
152151.0,-26.5756,4.3215,29.0273,2.5643,-9.8196,0.8817
152161.0,-19.7402,3.7397,12.6629,1.9028,-9.7941,0.6055
152171.0,-14.6214,3.6823,5.0996,0.4459,-8.6362,0.0463
152181.0,-11.7843,5.5545,2.1476,-0.6891,-6.9542,-0.4746
152191.0,-9.8881,6.2632,3.5865,-1.4527,-5.3036,-0.737
152201.0,-8.8226,6.79,6.4787,-1.5304,-4.0526,-0.7662
152211.0,-8.7293,6.8235,9.5936,-1.1786,-3.3129,-0.6114
152221.0,-8.7891,6.0669,11.4156,-0.5513,-3.0245,-0.323
152231.0,-8.1163,5.7509,12.5983,0.0803,-2.9889,-0.0346
152241.0,-7.7093,5.4899,12.5145,0.663,-3.065,0.2464
152251.0,-6.766,5.1978,11.6765,0.8413,-3.3784,0.4661
152261.0,-5.8012,5.0254,9.4667,0.6902,-3.7157,0.5997
152271.0,-5.1523,4.7692,7.9847,0.2277,-3.8695,0.6486
152281.0,-4.2258,4.4365,6.3973,-0.3326,-3.9195,0.6444
152291.0,-3.4189,3.8595,5.7652,-0.9402,-3.8568,0.5853
152301.0,-2.5402,3.3255,5.5138,-1.4234,-3.7285,0.489
152311.0,-2.1045,2.9999,6.0693,-1.7097,-3.5178,0.3757
152321.0,-1.9393,3.067,6.62,-1.7948,-3.3896,0.2964
152331.0,-1.9848,3.1101,7.2257,-1.7719,-3.3699,0.2746
152341.0,-2.0255,3.2944,7.2065,-1.6038,-3.4327,0.3246
152351.0,-2.1189,3.3447,6.608,-1.3973,-3.5513,0.4374
152361.0,-1.798,2.9712,5.3846,-1.3031,-3.7455,0.5784
152371.0,-1.1516,2.2889,3.9504,-1.3053,-3.9078,0.6987
152381.0,-0.3926,1.7478,2.3631,-1.2675,-3.8972,0.795
152391.0,0.2729,1.1037,1.3671,-1.2271,-3.7046,0.8647
152401.0,1.0008,0.4788,0.7685,-1.2537,-3.513,0.8993
152411.0,1.9058,0.0718,-0.012,-1.3446,-3.3912,0.8924
152421.0,2.5235,-0.3304,-0.3591,-1.4521,-3.2544,0.8594
152431.0,2.5833,-0.1053,-1.3024,-1.4101,-3.0176,0.8375
152441.0,2.2913,0.1844,-2.739,-1.5415,-2.8777,0.8253
152451.0,2.387,0.1867,-4.798,-1.9874,-2.8793,0.8104
152461.0,2.4014,-0.0359,-6.6846,-2.5823,-2.8175,0.7833
152471.0,2.0303,-0.2658,-8.351,-3.1262,-2.668,0.7391
152481.0,2.4804,-0.6129,-9.6965,-3.4082,-2.4392,0.7024
152491.0,3.2848,-1.1349,-11.5784,-3.2464,-2.1221,0.712
152501.0,5.1882,-1.7597,-16.7187,-2.6318,-1.8017,0.7662
152511.0,5.9089,-2.7007,-23.4033,-1.8273,-1.0174,0.7785
152521.0,5.3079,-2.4181,-30.0999,-1.0195,0.2086,0.696
152531.0,3.4429,-0.6512,-35.6592,-0.0963,1.9507,0.6119
152541.0,-0.3017,1.2067,-38.2905,1.0355,4.2548,0.6242
152551.0,-6.3782,2.7509,-36.4852,2.245,6.869,0.721
152561.0,-12.6462,3.2609,-30.7918,3.4805,9.1821,0.8093
152571.0,-18.1624,3.9337,-25.6587,4.8965,10.9897,0.7827
152581.0,-24.4951,5.9735,-21.3228,6.0288,12.6105,0.6029
152591.0,-32.2355,7.9727,-13.5871,6.0826,13.9451,0.3363
152601.0,-37.8523,8.6359,-0.8643,5.5622,15.0024,0.0548
152611.0,-40.9648,9.572,11.8226,5.1987,15.4302,-0.2155
152621.0,-42.4492,9.7444,27.1335,4.6496,15.2349,-0.5273
152631.0,-43.1914,11.983,42.5952,4.4884,14.4421,-0.7551
152641.0,-40.4405,14.461,53.9126,4.1324,12.2785,-0.8796
152651.0,-39.0877,16.441,59.4648,3.2049,9.2737,-0.9131
152661.0,-37.6129,16.8073,60.6523,2.6238,6.7541,-0.7359
152671.0,-34.9146,20.3938,63.9372,2.0045,4.6954,-0.5098
152681.0,-30.3417,16.587,63.6929,-0.1463,-0.19,-0.3177
152691.0,-29.5612,15.955,54.5639,-0.0431,-2.9745,0.1905
152701.0,-29.3338,15.2559,45.5377,0.6561,-4.4038,0.7545
152711.0,-25.448,12.9933,33.3225,0.281,-6.4253,1.0813
152721.0,-20.4417,9.584,24.1407,-0.6061,-7.5257,1.1329
152731.0,-16.9222,7.0485,15.8448,-0.6625,-7.2139,1.0892
152741.0,-15.8065,6.2465,11.8274,-0.9349,-6.5306,0.9594
152751.0,-13.6182,4.9871,10.3621,-1.4825,-6.1331,0.7668
152761.0,-12.3684,4.4269,9.2727,-1.715,-5.8266,0.5805
152771.0,-11.3557,5.1284,7.8817,-1.649,-5.5547,0.4518
152781.0,-10.5704,6.1794,6.608,-1.5974,-5.3461,0.4209
152791.0,-9.651,6.3279,5.8538,-1.6368,-5.2488,0.4927
152801.0,-8.7245,5.6743,4.6759,-1.5367,-5.1626,0.6486
152811.0,-7.3215,3.8954,3.1053,-1.317,-4.979,0.8312
152821.0,-5.3702,1.5826,1.6999,-1.1462,-4.6954,0.9222
152831.0,-3.8259,-0.0335,0.6752,-1.0866,-4.2941,0.862
152841.0,-2.8683,-0.7949,0.4597,-1.2074,-3.8434,0.6768
152851.0,-2.1572,-0.7207,0.8811,-1.4878,-3.4891,0.4315
152861.0,-1.6999,-0.1077,1.8579,-1.8241,-3.2406,0.1969
152871.0,-1.3599,0.7254,3.2226,-1.9965,-3.0559,0.0351
152881.0,-1.0918,1.8866,4.2569,-1.8571,-2.8841,-0.0048
152891.0,-0.9792,2.6959,5.0589,-1.6331,-2.7973,0.0772
152901.0,-0.9074,2.9209,5.6503,-1.5006,-2.8952,0.2299
152911.0,-0.6919,2.6983,5.4851,-1.3787,-3.1038,0.4268
152921.0,-0.3855,1.9561,4.6807,-1.2675,-3.3055,0.6321
152931.0,-0.0192,1.0918,3.3639,-1.2164,-3.4566,0.7928
152941.0,0.3232,0.1556,1.9561,-1.3175,-3.5715,0.8753
152951.0,0.838,-0.7374,0.6153,-1.5043,-3.6322,0.8775
152961.0,1.6999,-1.585,-0.6009,-1.6187,-3.5822,0.8221
152971.0,2.5187,-2.2505,-1.3096,-1.5234,-3.2874,0.7428
152981.0,3.067,-2.7126,-1.5969,-1.2957,-2.8846,0.6508
152991.0,3.6392,-3.0765,-1.8986,-1.1222,-2.6111,0.5326
153001.0,3.8116,-3.0287,-3.2202,-1.0089,-2.4004,0.4012
153011.0,4.0749,-2.8659,-5.0254,-1.1084,-2.2508,0.249
153021.0,5.0159,-3.0191,-6.924,-1.2696,-2.0167,0.1091
153031.0,5.1427,-2.8922,-9.2153,-1.3393,-1.5367,-0.0122
153041.0,5.7748,-3.0215,-10.5345,-1.615,-1.0898,-0.1692
153051.0,6.2058,-2.3942,-12.4786,-1.8624,-0.6886,-0.339
153061.0,4.5993,-0.577,-15.5072,-2.2093,-0.3805,-0.506
153071.0,3.3854,2.8611,-21.8519,-2.7446,-0.3943,-0.588
153081.0,2.897,8.1283,-30.6554,-3.0458,-0.141,-0.4039
153091.0,5.1811,10.4555,-39.897,-2.4099,1.1047,0.2724
153101.0,-6.7493,11.4347,-43.6439,-0.6109,4.0627,1.143
153111.0,-14.6238,14.5017,-49.4738,1.3979,7.2128,2.0199
153121.0,-22.6587,6.5841,-42.8873,2.5259,10.3911,2.9059
153131.0,-38.0247,1.3431,-32.9442,4.615,14.5251,3.2427
153141.0,-46.3565,-1.1133,-20.4513,6.0384,17.4357,2.9883
153151.0,-55.0331,-5.2912,4.5514,6.9345,17.4357,2.1279
153161.0,-58.7585,0.996,23.6571,7.6901,17.4357,0.5922
153171.0,-60.1711,7.7237,46.8665,6.4082,17.4357,-0.829
153181.0,-34.3544,10.4818,56.3571,4.524,15.5568,-1.4809
153191.0,-55.2271,15.117,76.284,3.728,15.029,-1.6863
153201.0,-52.117,14.3389,78.4508,0.8285,7.8636,-1.7272
153211.0,-39.7629,11.0277,78.4508,-0.5374,0.4954,-1.2207
153221.0,-38.3407,7.9679,75.5802,0.5827,-3.239,-0.3469
153231.0,-38.7525,6.0741,58.6029,1.7677,-7.1372,0.406
153241.0,-34.3592,3.3088,37.1029,2.1311,-10.6561,0.7689
153251.0,-26.7504,1.6664,19.077,2.5648,-11.3739,0.8109
153261.0,-20.2454,2.1811,6.2321,2.8117,-9.9872,0.6534
153271.0,-15.0954,3.553,0.5219,1.6368,-8.5888,0.2538
153281.0,-10.7188,5.2481,-2.0135,0.1447,-7.3325,-0.1862
153291.0,-8.1666,7.2496,-1.9992,-0.7152,-5.6324,-0.4736
153301.0,-7.3909,8.3438,0.826,-1.3015,-4.0435,-0.5465
153311.0,-7.1108,8.1259,6.2824,-1.7714,-3.1927,-0.4789
153321.0,-7.0413,7.5992,9.9216,-1.5969,-2.9655,-0.2586
153331.0,-6.6487,6.5027,11.5137,-0.9881,-3.0149,0.0543
153341.0,-6.0047,5.1332,11.7819,-0.3432,-3.2001,0.3613
153351.0,-5.3223,3.8092,11.2073,0.067,-3.479,0.58
153361.0,-4.9464,2.6839,10.0676,0.2347,-3.7386,0.6875
153371.0,-4.0989,1.9345,8.4013,0.2033,-3.8972,0.6886
153381.0,-3.1532,1.3336,7.0988,-0.1538,-3.9536,0.5768
153391.0,-2.3918,1.4964,5.8442,-0.7716,-3.9914,0.3688
153401.0,-1.4605,1.6999,5.4061,-1.5314,-3.9988,0.1187
153411.0,-1.6951,2.6097,5.126,-2.0619,-3.8775,-0.0766
153421.0,-1.9728,3.067,5.77,-2.3322,-3.6673,-0.1463
153431.0,-2.0016,3.237,6.8187,-2.2647,-3.4944,-0.1011
153441.0,-2.059,3.3495,7.6447,-1.9066,-3.4273,0.0351
153451.0,-1.9034,3.1077,7.8171,-1.4112,-3.5061,0.2485
153461.0,-1.5012,2.5355,6.9192,-0.9349,-3.6652,0.4837
153471.0,-1.0702,1.8699,5.5617,-0.6965,-3.8764,0.6625
153481.0,-0.4836,1.4796,3.8571,-0.6886,-4.1058,0.7652
153491.0,0.5052,0.8092,2.229,-0.7928,-4.2425,0.8344
153501.0,1.166,0.1676,0.6416,-0.8567,-4.2388,0.8631
153511.0,1.9848,-0.237,-0.9433,-0.8849,-4.1249,0.8594
153521.0,2.739,-0.6201,-2.2889,-0.9222,-3.9297,0.8391
153531.0,3.201,-0.7422,-4.063,-0.9743,-3.6519,0.8173
153541.0,3.4884,-0.9385,-6.1746,-1.2616,-3.4508,0.77
153551.0,4.0486,-1.4269,-9.1219,-1.7161,-3.2688,0.6838
153561.0,5.3271,-2.3918,-11.5472,-2.2397,-2.9522,0.5428
153571.0,5.5282,-2.0806,-13.2088,-2.4185,-2.1737,0.3815
153581.0,5.4277,-1.5275,-12.5456,-2.2551,-1.3968,0.2602
153591.0,5.3175,0.0024,-14.2886,-1.4175,-0.7343,0.2623
153601.0,4.3981,1.9848,-20.5782,-0.4874,-0.1809,0.3932
153611.0,4.9775,2.6049,-28.6275,-0.2448,0.3586,0.5763
153621.0,3.8666,3.2394,-35.3671,-0.2613,1.7219,0.7609
153631.0,0.8284,4.221,-40.0311,-0.3666,3.505,0.9551
153641.0,-4.4796,4.7525,-40.7948,-0.2687,5.6814,1.2143
153651.0,-12.2009,3.8283,-34.8356,0.6768,8.4116,1.5389
153661.0,-21.148,4.3958,-28.3952,2.6175,10.8471,1.7969
153671.0,-27.3035,3.6057,-22.3283,4.5597,12.5722,1.8911
153681.0,-33.9426,4.7214,-16.5727,5.9996,14.5075,1.7363
153691.0,-38.2546,3.4237,-3.1053,6.006,16.1001,1.3319
153701.0,-42.7078,3.6679,13.3405,5.2264,17.0042,0.5875
153711.0,-43.2656,4.13,30.8445,3.4396,16.2965,-0.3209
153721.0,-46.1123,7.5609,47.7571,2.129,14.9013,-0.9003
153731.0,-40.9768,8.667,50.3572,1.0403,11.9731,-0.9434
153741.0,-51.7076,11.7555,64.7416,1.4431,11.5389,-0.5177
153751.0,-44.422,8.2384,73.5379,0.7024,6.0773,0.0016
153761.0,-34.4861,4.9392,67.7655,1.532,1.6863,0.7561
153771.0,-31.9578,2.2458,62.1223,3.5609,0.1772,1.4175
153781.0,-29.4343,2.0016,52.7203,3.5769,-2.4882,1.4186
153791.0,-25.1726,1.0295,41.458,1.5761,-5.5473,0.8109
153801.0,-22.5725,0.7494,34.17,-0.0575,-6.7344,0.0404
153811.0,-21.397,2.9497,27.4112,-0.6795,-6.9505,-0.5944
153821.0,-19.733,4.5226,22.3762,-1.3228,-7.3767,-1.0589
153831.0,-17.856,5.9304,18.8783,-1.4053,-7.539,-1.2414
153841.0,-16.2638,6.6583,15.4019,-0.6295,-7.0994,-1.1025
153851.0,-15.2128,7.2927,12.9047,0.0468,-6.6211,-0.8274
153861.0,-14.0803,7.0366,11.5257,0.1916,-6.5434,-0.58
153871.0,-12.1554,7.9583,7.9823,0.1187,-6.7302,-0.4065
153881.0,-10.3022,8.655,5.0733,-0.2889,-6.752,-0.2629
153891.0,-8.3989,9.1075,1.7549,-0.8136,-6.5812,-0.1149
153901.0,-7.2616,8.2576,0.0503,-1.5798,-6.3305,0.016
153911.0,-5.4133,6.3925,-1.2809,-2.2056,-6.0932,0.1027
153921.0,-3.8786,4.8914,-2.3559,-2.4701,-5.6707,0.1421
153931.0,-2.8371,3.3064,-1.8028,-2.4105,-5.0455,0.1745
153941.0,-2.3391,2.3559,-0.8619,-1.9858,-4.4554,0.2086
153951.0,-2.0758,2.6288,-0.0886,-1.3798,-4.0441,0.2543
153961.0,-0.9433,3.5769,-1.5969,-0.8375,-3.852,0.3789
153971.0,0.4573,3.7804,-3.1843,-0.8349,-3.7227,0.5444
153981.0,1.3336,3.304,-4.9177,-1.2159,-3.5774,0.6912
153991.0,1.8459,1.8603,-5.7868,-1.6613,-3.3129,0.8056
154001.0,3.0789,-0.1413,-6.5314,-1.8049,-2.9037,0.8732
154011.0,4.0917,-1.81,-6.426,-1.6229,-2.278,0.8583
154021.0,4.7405,-2.9999,-5.4588,-1.2712,-1.6027,0.7801
154031.0,5.2529,-3.5721,-3.8523,-0.8902,-1.044,0.6524
154041.0,5.351,-3.3016,-2.2649,-0.4672,-0.5784,0.5156
154051.0,5.047,-2.7749,-0.1772,-0.1415,-0.2288,0.4092
154061.0,4.9991,-2.162,1.5467,0.0511,-0.1128,0.3363
154071.0,4.8507,-1.4317,2.727,0.1171,-0.1825,0.2911
154081.0,4.4796,-0.6393,3.3734,0.1027,-0.3437,0.2772
154091.0,4.0247,-0.1844,3.5219,0.0426,-0.5976,0.3065
154101.0,3.6727,-0.0192,2.6791,-0.0474,-0.9371,0.3725
154111.0,3.8259,-0.3591,0.9194,-0.1825,-1.317,0.4406
154121.0,4.1444,-1.0032,-1.6592,-0.3102,-1.5878,0.4741
154131.0,4.4029,-0.9601,-5.9879,-0.5156,-1.7677,0.4369
154141.0,4.3215,-1.0415,-11.8274,-1.1148,-1.9353,0.3225
154151.0,6.7612,-0.6847,-20.7577,-1.9294,-1.9699,0.1511
154161.0,4.7669,0.7446,-25.9292,-2.9123,-1.0509,-0.0372
154171.0,1.8292,2.9568,-26.4751,-3.3614,0.2639,-0.0436
154181.0,-1.1133,6.2608,-25.6108,-2.0917,1.8581,0.2315
154191.0,-4.8363,9.414,-29.2691,0.8982,3.7365,0.8386
154201.0,-8.6335,9.3709,-34.4861,4.1622,6.189,1.5596
154211.0,-15.5312,7.5681,-36.9713,6.6376,9.4003,1.9571
154221.0,-26.1016,7.331,-34.2323,7.6491,12.8904,1.8182
154231.0,-39.8323,9.0118,-25.0841,7.1223,16.1549,1.3085
154241.0,-46.8809,8.2169,-3.8475,5.5659,17.4357,0.7503
154251.0,-54.3388,7.774,17.0395,4.175,17.4357,0.1979
154261.0,-53.6948,2.7749,46.7324,2.0944,17.4357,-0.4268
154271.0,-50.1896,2.2027,51.9997,1.7342,15.9479,-0.696
154281.0,-52.7562,8.1139,72.6209,2.5196,14.9066,-0.8705
154291.0,-40.462,7.5178,78.4508,0.6949,7.3676,-1.0509
154301.0,-33.4829,6.1938,74.5507,-0.075,1.1909,-0.7678
154311.0,-31.7471,8.3821,62.4336,1.9662,-1.5639,-0.0011
154321.0,-29.2739,8.0038,48.5951,2.684,-4.5022,0.5912
154331.0,-25.3594,5.6024,33.8205,2.196,-7.2192,0.828
154341.0,-20.0395,4.0582,19.3619,2.2147,-7.8662,0.8594
154351.0,-14.3149,2.739,8.6598,2.3706,-6.6503,0.7279
154361.0,-10.0221,3.541,2.1979,1.6357,-4.9194,0.3262
154371.0,-9.2033,3.2537,3.8044,0.0074,-3.1629,-0.2091
154381.0,-8.4683,5.1715,6.3805,-1.0701,-1.7459,-0.6258
154391.0,-9.3709,6.1435,13.0221,-1.7107,-0.5773,-0.8753
154401.0,-10.1131,7.762,18.1935,-1.7549,-0.1314,-0.9078
154411.0,-11.485,8.3749,24.9165,-1.7927,-0.4773,-0.7859
154421.0,-11.8968,8.7556,27.9332,-1.4676,-1.6618,-0.4895
154431.0,-12.2009,8.2121,27.653,-1.0142,-3.2262,-0.1016
154441.0,-12.3828,7.3358,24.3059,-0.6093,-4.8295,0.2905
154451.0,-12.0907,6.2297,18.7346,-0.3076,-6.1672,0.6183
154461.0,-11.0253,4.9871,11.8609,-0.3416,-7.1314,0.8115
154471.0,-9.5241,3.5745,5.7341,-0.6848,-7.5432,0.8391
154481.0,-7.2903,3.043,-0.2801,-1.0679,-7.3511,0.754
154491.0,-5.1691,2.5163,-3.5698,-1.7267,-6.6413,0.5757
154501.0,-3.632,2.4493,-4.5466,-2.4424,-5.6856,0.3597
154511.0,-3.0813,2.4995,-3.2298,-3.0623,-4.7374,0.1708
154521.0,-2.6121,2.4181,-0.8045,-3.3763,-4.0515,0.0692
154531.0,-2.3272,2.1931,1.4653,-3.2549,-3.6136,0.0782
154541.0,-2.15,1.822,3.1244,-2.768,-3.3752,0.1857
154551.0,-1.9321,1.2234,3.6559,-2.0912,-3.2986,0.3608
154561.0,-1.3431,0.2705,3.1603,-1.4489,-3.3236,0.5481
154571.0,-0.2586,-0.9912,1.9609,-1.0158,-3.3688,0.6774
154581.0,1.0798,-2.1691,0.7015,-0.8237,-3.339,0.7008
154591.0,2.1763,-2.8826,-0.1437,-0.7817,-3.1858,0.6247
154601.0,2.806,-2.9497,-0.8092,-0.8205,-2.9777,0.497
154611.0,3.0119,-2.976,-0.8619,-0.9344,-2.7611,0.3698
154621.0,2.9904,-2.8539,-0.8715,-1.0025,-2.5813,0.265
154631.0,2.818,-2.5833,-1.3455,-1.0642,-2.4898,0.1799
154641.0,2.964,-2.6863,-2.4756,-1.2404,-2.5233,0.1107
154651.0,2.964,-2.6863,-2.4756,-1.2404,-2.5233,0.1107
154661.0,4.0247,-3.4764,-4.6783,-1.4644,-2.6611,0.0314
154671.0,4.8123,-4.3646,-7.2688,-1.5186,-2.519,-0.0974
154681.0,6.0382,-4.2569,-10.8098,-1.3101,-2.0678,-0.2677
154691.0,6.3662,-4.1539,-11.959,-1.1542,-1.4181,-0.4895
154701.0,6.4045,-2.4876,-14.2503,-0.7391,-0.7215,-0.7035
154711.0,5.4324,0.0575,-16.7834,-0.2831,0.0495,-0.8418
154721.0,4.5107,2.6624,-20.4752,-0.0362,0.7684,-0.8258
154731.0,3.0478,5.0757,-24.8542,-0.2182,1.4952,-0.6609
154741.0,0.7039,6.5122,-27.7871,-0.4321,2.5568,-0.3517
154751.0,-2.0949,7.2305,-29.4607,-0.1708,3.9706,0.0617
154761.0,-6.4093,8.0086,-29.7312,0.746,5.8522,0.531
154771.0,-11.789,8.4731,-27.246,2.1684,8.0839,0.9802
154781.0,-19.4625,9.6726,-23.5518,3.7929,10.3256,1.3191
154791.0,-28.0002,12.0692,-18.5048,5.0721,12.444,1.5373
154801.0,-36.1381,11.6502,-7.9775,5.8272,14.6107,1.7118
154811.0,-41.4173,10.4435,4.6639,5.973,16.3555,1.6676
154821.0,-41.9967,6.3422,21.8375,4.5288,16.7967,1.21
154831.0,-47.9152,2.4493,40.5506,2.9915,16.0448,0.4874
154841.0,-51.4634,2.229,46.7707,1.6655,14.1909,-0.224
154851.0,-47.5584,4.0797,65.1654,1.6394,13.4811,-0.63
154861.0,-40.134,3.1771,74.6584,0.2645,7.7545,-0.9913
154871.0,-35.3312,3.5745,75.2569,-0.4044,2.3881,-0.9621
154881.0,-33.9929,7.3741,65.9435,1.1903,-0.9498,-0.4108
154891.0,-32.6928,7.1874,54.9278,1.7709,-4.2016,0.1511
154901.0,-29.4607,5.4133,41.1013,1.4042,-7.3522,0.4661
154911.0,-24.3634,3.0502,26.985,1.3739,-8.8751,0.5608
154921.0,-19.5127,1.6592,14.9638,1.864,-8.5431,0.5225
154931.0,-14.5567,1.2881,6.2201,1.7416,-7.5209,0.2416
154941.0,-11.1953,3.3495,1.4174,0.6604,-6.4332,-0.257
154951.0,-7.9392,5.5617,-1.1971,-0.679,-5.2339,-0.6939
154961.0,-6.6008,6.6008,1.0487,-1.6921,-3.6902,-0.9716
154971.0,-6.4835,7.8266,4.2641,-2.1173,-2.4376,-1.0616
154981.0,-7.0174,7.9272,9.6295,-2.3801,-1.8384,-1.0126
154991.0,-7.1706,7.8075,13.3549,-2.1072,-1.9135,-0.8077
155001.0,-6.948,6.9599,15.4881,-1.4766,-2.3493,-0.4981
155011.0,-6.5218,6.0693,14.801,-0.6481,-2.9224,-0.1469
155021.0,-6.1076,4.9943,12.9622,-0.1144,-3.4593,0.1357
155031.0,-5.193,3.9863,10.8553,0.0756,-3.8573,0.3081
155041.0,-4.3431,3.3255,8.3199,0.0165,-4.0547,0.3789
155051.0,-3.4644,2.7294,6.6439,-0.3187,-4.0435,0.3608
155061.0,-2.4325,2.2841,5.7126,-0.796,-3.9052,0.2762
155071.0,-1.8435,2.2482,5.3726,-1.3899,-3.7775,0.1389
155081.0,-1.5036,2.4445,5.5091,-2.022,-3.7445,-0.0074
155091.0,-1.5179,2.6288,5.9376,-2.4945,-3.77,-0.099
155101.0,-1.652,2.6815,6.1746,-2.601,-3.7801,-0.0942
155111.0,-1.7047,2.5714,6.1746,-2.3578,-3.7392,0.0059
155121.0,-1.6281,2.229,6.0238,-1.9342,-3.6934,0.1634
155131.0,-1.3024,2.1404,5.2864,-1.4543,-3.7056,0.3363
155141.0,-0.7326,1.9106,4.1228,-1.0483,-3.7312,0.5188
155151.0,0.0263,1.5443,2.4876,-0.7849,-3.7051,0.6886
155161.0,0.6728,0.8284,1.3216,-0.7258,-3.5896,0.8237
155171.0,1.4126,0.0335,0.1628,-0.821,-3.4571,0.9078
155181.0,2.217,-1.1181,-0.5746,-1.0397,-3.3417,0.9248
155191.0,2.885,-2.217,-1.4389,-1.1882,-3.198,0.8886
155201.0,3.5027,-3.0789,-2.6983,-1.2377,-2.9899,0.8035
155211.0,4.6807,-3.802,-4.1037,-1.2318,-2.734,0.6731
155221.0,4.8291,-3.9025,-4.8004,-1.044,-2.2221,0.5193
155231.0,5.2146,-3.146,-6.2776,-0.8056,-1.7411,0.3884
155241.0,5.5761,-3.1963,-7.604,-0.8732,-1.442,0.2916
155251.0,6.2728,-3.4524,-10.0317,-0.8876,-1.151,0.2123
155261.0,6.3207,-3.0574,-12.4906,-0.8141,-0.5912,0.1192
155271.0,6.4069,-2.2194,-15.2439,-0.7519,-0.0293,0.0404
155281.0,5.77,-1.0127,-18.6556,-0.6364,0.5757,0.0192
155291.0,4.5442,0.9577,-22.5438,-0.4895,1.325,0.0878
155301.0,2.2865,3.1795,-25.6275,-0.0537,2.3748,0.3017
155311.0,-0.8332,5.3941,-28.3737,0.7737,3.7157,0.6758
155321.0,-6.7708,6.541,-30.2124,1.8624,5.3568,1.1616
155331.0,-11.0828,5.7652,-31.2779,3.2608,7.4836,1.6086
155341.0,-18.6077,4.9344,-29.2739,4.4979,10.1038,1.8108
155351.0,-26.8175,4.3981,-22.5965,5.1955,12.8787,1.7017
155361.0,-34.668,3.3255,-6.426,5.2615,15.3642,1.267
155371.0,-41.13,5.6048,8.4922,5.244,16.7882,0.5928
155381.0,-42.5617,6.9264,25.3809,3.7179,16.4566,-0.273
155391.0,-36.1548,9.3063,23.8462,2.4903,14.209,-0.7689
155401.0,-50.8672,6.7828,48.8657,1.6277,15.7394,-1.1079
155411.0,-43.9216,8.5186,66.3361,1.0052,13.0974,-1.3542
155421.0,-37.0646,5.6838,75.5155,-1.002,6.8323,-1.4713
155431.0,-35.9058,9.0429,74.6249,-0.4869,2.2774,-1.0078
155441.0,-33.9402,8.7939,66.9682,1.4186,-1.1919,-0.0835
155451.0,-31.9075,7.9248,53.4793,2.0726,-4.7486,0.622
155461.0,-29.9778,5.0853,41.0797,1.1941,-7.9365,0.8508
155471.0,-26.2093,2.8108,26.1088,1.1036,-9.6408,0.9355
155481.0,-21.0019,0.8571,13.2136,1.4575,-9.4998,0.9062
155491.0,-15.4163,0.5698,3.8714,1.2877,-8.5042,0.6417
155501.0,-10.9415,2.0446,-1.64,0.3347,-7.2905,0.2219
155511.0,-7.5346,2.8204,-3.1053,-0.795,-5.8681,-0.1596
155521.0,-5.624,3.4477,-2.7294,-1.3893,-4.2633,-0.4017
155531.0,-4.9991,3.3088,0.486,-1.6746,-2.8106,-0.5257
155541.0,-4.8291,3.3495,4.0462,-1.6325,-1.8491,-0.564
155551.0,-4.9129,3.3016,7.5226,-1.4729,-1.4021,-0.531
155561.0,-4.6735,2.7845,10.7452,-1.1781,-1.3218,-0.4385
155571.0,-4.3574,2.6073,12.3182,-0.6662,-1.4585,-0.3193
155581.0,-4.0725,2.2098,13.2447,-0.2943,-1.7597,-0.2176
155591.0,-3.6943,1.7238,13.6493,-0.0341,-2.1593,-0.1495
155601.0,-3.62,1.5658,12.6821,0.1639,-2.5541,-0.1123
155611.0,-3.3279,1.2737,11.8633,0.1314,-2.8707,-0.1192
155621.0,-2.7461,1.2689,10.9726,-0.041,-3.1166,-0.1692
155631.0,-2.3966,1.7286,9.7468,-0.4023,-3.3741,-0.257
155641.0,-2.1284,2.1883,8.8969,-0.9142,-3.6141,-0.3437
155651.0,-1.9632,2.6312,7.8458,-1.3356,-3.7785,-0.3741
155661.0,-1.8747,2.7725,7.1706,-1.624,-3.8371,-0.3427
155671.0,-1.4844,2.794,6.6439,-1.706,-3.8328,-0.2543
155681.0,-1.2665,2.569,6.1794,-1.5788,-3.7817,-0.1112
155691.0,-1.0367,2.2242,5.284,-1.3478,-3.7455,0.0591
155701.0,-0.5243,1.4844,4.3958,-1.1781,-3.7259,0.215
155711.0,0.4717,0.5962,3.3543,-1.0254,-3.6955,0.3299
155721.0,1.2258,0.0838,2.3583,-0.8854,-3.5987,0.3842
155731.0,1.9441,0.0168,1.0056,-0.7418,-3.4545,0.4087
155741.0,2.4134,0.1077,-0.1413,-0.6784,-3.2459,0.4305
155751.0,2.8395,0.3735,-1.6209,-0.6784,-3.0038,0.4656
155761.0,3.4955,0.7494,-3.6943,-0.8982,-2.8096,0.5135
155771.0,3.9217,0.4573,-5.8347,-1.4793,-2.7111,0.5534
155781.0,5.5402,-0.316,-9.426,-2.195,-2.7436,0.5608
155791.0,5.7604,0.091,-12.22,-2.3541,-2.1673,0.5603
155801.0,5.1547,0.4597,-14.54,-2.4302,-1.6788,0.5821
155811.0,6.5074,1.4509,-20.1927,-2.2093,-1.4287,0.6412
155821.0,6.766,2.3176,-25.7736,-1.3729,-0.5555,0.7827
155831.0,3.9217,4.0055,-30.3489,-0.2677,0.7519,1.0073
155841.0,0.1413,5.9903,-35.3504,1.1573,2.4216,1.2898
155851.0,-3.3112,5.8873,-39.0159,2.4105,4.374,1.5894
155861.0,-7.9392,3.972,-38.5706,3.1506,6.9058,1.7491
155871.0,-14.4418,2.8946,-34.1102,3.1474,9.3279,1.632
155881.0,-21.7441,3.0574,-23.4584,2.8346,11.4574,1.3824
155891.0,-29.4559,2.0662,-7.9942,3.2831,13.4832,1.218
155901.0,-33.866,3.304,5.0326,4.4681,14.6709,0.9466
155911.0,-40.383,7.695,16.1202,5.1147,15.1705,0.5209
155921.0,-61.4975,10.6542,18.682,4.7874,14.6757,0.216
155931.0,-65.2492,11.7603,35.4773,4.2425,15.2732,0.1192
155941.0,-59.2254,12.6797,48.5544,3.8993,15.1466,0.1064
155951.0,-49.7563,5.5378,70.4542,0.3688,10.7843,-0.2384
155961.0,-42.6719,3.4405,77.7637,-0.1703,5.9304,-0.0639
155971.0,-37.1748,5.1188,73.2578,1.5644,2.2849,0.4273
155981.0,-33.0543,3.2561,67.7703,1.7778,-1.6703,0.7008
155991.0,-30.222,2.0255,55.2486,1.0142,-6.0475,0.613
156001.0,-27.9834,1.3048,40.79,0.3219,-9.3162,0.3257
156011.0,-24.464,1.9585,24.1,0.7769,-10.7285,0.1219
156021.0,-20.2861,3.1196,9.6582,1.2244,-10.5981,-0.0681
156031.0,-16.1058,3.541,0.1221,1.1419,-9.6823,-0.3241
156041.0,-11.1594,6.608,-9.0836,0.9333,-8.2094,-0.5071
156051.0,-6.0789,5.5617,-13.2016,0.2182,-6.0193,-0.5768
156061.0,-4.0989,5.9209,-8.4204,-0.0069,-2.7723,-0.6965
156071.0,-4.9368,6.3614,-1.7502,-0.8365,-1.1813,-0.8753
156081.0,-4.2641,5.3941,6.4643,-1.6362,-0.5539,-0.9924
156091.0,-5.1332,6.2249,11.6598,-1.0797,0.0809,-0.9285
156101.0,-6.1579,6.7756,15.3397,-0.5518,0.0857,-0.7764
156111.0,-4.2593,6.2225,15.9238,-0.4778,-0.5726,-0.5848
156121.0,-5.3702,5.2146,18.7849,-0.3868,-0.7418,-0.4166
156131.0,-5.5306,4.4269,20.1807,-0.5704,-1.532,-0.3512
156141.0,-6.0717,3.632,21.3563,-1.1887,-2.717,-0.4172
156151.0,-6.1866,4.0127,19.6564,-1.5692,-4.0105,-0.4954
156161.0,-6.2106,4.3934,16.8791,-1.7868,-5.0593,-0.531
156171.0,-6.3518,5.1116,13.3692,-1.8087,-5.7745,-0.4906
156181.0,-6.3111,5.6647,10.4698,-1.698,-6.1757,-0.3682
156191.0,-6.0813,6.1292,7.2018,-1.4234,-6.3513,-0.149
156201.0,-5.5761,6.292,4.0749,-1.2265,-6.363,0.1304
156211.0,-4.5993,5.7437,1.731,-1.1871,-6.255,0.4161
156221.0,-3.7661,5.1308,-0.4788,-1.1749,-6.0214,0.6832
156231.0,-3.1005,4.5442,-2.1883,-1.2654,-5.6979,0.903
156241.0,-2.1644,4.051,-3.9025,-1.4825,-5.4031,1.0637
156251.0,-1.1253,3.2825,-5.3774,-1.8927,-5.1429,1.1722
156261.0,0.5698,1.8531,-6.8043,-2.3338,-4.8928,1.243
156271.0,1.4629,-0.2562,-6.924,-2.4461,-4.3734,1.2781
156281.0,2.6767,-1.4102,-7.6399,-2.1263,-3.8041,1.2558
156291.0,3.3734,-2.7461,-7.8602,-1.7262,-3.3214,1.1712
156301.0,4.8411,-2.3583,-11.2887,-1.0419,-2.8585,1.0706
156311.0,5.1619,-2.3128,-14.1785,-0.7396,-2.2248,0.969
156321.0,6.7277,-2.2673,-18.0523,-0.7418,-1.5708,0.8737
156331.0,6.4141,-1.8292,-22.4073,-0.9759,-0.7396,0.7625
156341.0,6.9576,-2.2505,-24.9045,-1.4261,0.0788,0.6348
156351.0,5.94,-1.7262,-26.7025,-1.2281,1.3611,0.5529
156361.0,4.3527,-0.5674,-25.9819,-0.2687,2.908,0.5156
156371.0,1.6592,2.4517,-26.1447,1.2191,4.4415,0.538
156381.0,-2.0255,5.6431,-26.0178,2.3189,5.741,0.646
156391.0,-6.1555,8.746,-25.6515,2.8516,6.8621,0.8418
156401.0,-11.4251,11.1043,-24.4855,2.9144,8.0855,1.1408
156411.0,-16.0603,11.0157,-20.7242,2.5951,9.3939,1.533
156421.0,-21.646,8.7029,-14.3796,2.17,10.5475,1.9156
156431.0,-26.8294,6.1004,-7.3813,1.9827,11.5405,2.1896
156441.0,-30.8325,1.9465,3.9145,2.3104,12.5674,2.32
156451.0,-32.6809,-0.2059,14.1354,3.588,13.4593,2.1668
156461.0,-34.4478,-0.577,24.6675,4.3575,13.7349,1.6208
156471.0,-9.9695,1.4461,16.8384,4.2404,11.5197,0.9626
156481.0,-32.0009,4.4652,34.5076,4.7518,14.5692,0.3704
156491.0,-36.5044,6.9121,44.7548,3.9472,12.6169,-0.2485
156501.0,-36.8851,5.0661,60.3578,0.638,8.5271,-0.9248
156511.0,-36.8444,9.2392,61.0665,0.7162,5.1806,-0.8902
156521.0,-34.455,12.0596,58.1767,1.3633,2.7989,-0.5039
156531.0,-32.0224,10.2807,58.1623,0.6997,0.1453,-0.1463
156541.0,-29.9012,8.6,52.6006,-0.0617,-3.1075,0.1219
156551.0,-28.3162,6.019,45.0541,-0.3523,-5.8857,0.3443
156561.0,-25.12,4.9728,31.0791,0.4443,-7.6039,0.6327
156571.0,-20.9493,2.9904,20.1041,0.6944,-8.2206,0.7343
156581.0,-16.1848,1.7502,9.9096,0.5465,-8.1573,0.5992
156591.0,-11.7795,1.1205,2.4014,-0.149,-7.4544,0.2581
156601.0,-8.7125,1.3695,-0.6129,-1.1158,-6.2193,-0.1841
156611.0,-6.9576,2.6576,-2.1955,-1.8007,-4.7198,-0.5406
156621.0,-6.7445,3.1987,0.4381,-2.4318,-3.2299,-0.8115
156631.0,-6.9887,3.7565,4.5969,-2.6127,-2.0683,-0.928
156641.0,-7.0916,3.632,9.6726,-2.4451,-1.3915,-0.9195
156651.0,-7.4531,3.9648,13.3596,-2.0683,-1.3393,-0.845
156661.0,-6.9959,4.0151,15.5049,-1.8023,-1.8017,-0.7391
156671.0,-6.4763,3.6583,16.7307,-1.6692,-2.4887,-0.6337
156681.0,-6.4739,3.6943,16.01,-1.4649,-3.1804,-0.5188
156691.0,-6.7373,3.9959,14.133,-1.3957,-3.8275,-0.4087
156701.0,-5.7557,4.4532,11.2719,-1.582,-4.4203,-0.3209
156711.0,-5.3103,4.0414,9.2249,-1.9837,-4.7315,-0.24
156721.0,-5.3319,2.9592,8.0565,-2.3152,-4.8795,-0.1777
156731.0,-4.7238,1.5155,6.7852,-2.4344,-5.004,-0.141
156741.0,-3.8906,0.0359,5.9592,-2.378,-5.0785,-0.1591
156751.0,-3.4381,-0.6177,4.956,-2.022,-5.0567,-0.2112
156761.0,-2.9664,-0.3879,2.5139,-1.5186,-4.9832,-0.2363
156771.0,-2.0901,-1.0702,0.419,-1.3957,-4.9268,-0.2442
156781.0,-0.8284,-2.3439,-0.407,-1.3739,-4.7842,-0.2815
156791.0,0.182,-2.4972,-2.1931,-1.0115,-4.4607,-0.3432
156801.0,0.7326,-2.3296,-3.8906,-0.7221,-4.0201,-0.406
156811.0,1.8866,-2.4588,-4.6926,-0.6838,-3.5987,-0.4789
156821.0,2.806,-2.3822,-5.6096,-0.7333,-3.1953,-0.5688
156831.0,3.3543,-2.3511,-5.9711,-0.8583,-2.7638,-0.6689
156841.0,3.2226,-1.9704,-6.0454,-0.8567,-2.2966,-0.7503
156851.0,3.4955,-1.087,-7.592,-0.7641,-1.956,-0.7764
156861.0,4.7046,-1.4916,-9.1099,-0.8418,-1.6762,-0.763
156871.0,5.5761,-1.1492,-13.1418,-0.8982,-1.3909,-0.7705
156881.0,6.0382,-1.5802,-16.8983,-1.3627,-1.2084,-0.837
156891.0,6.5505,-0.4908,-21.9644,-1.4612,-0.6162,-0.9147
156901.0,5.0973,1.5634,-26.1231,-1.226,0.3746,-0.9232
156911.0,3.3543,4.1946,-30.8325,-0.7519,1.4771,-0.7769
156921.0,0.6033,6.6343,-33.7175,-0.0213,3.1262,-0.4475
156931.0,-4.0917,9.1985,-35.4509,0.9184,5.1381,0.0101
156941.0,-10.4531,10.4794,-33.4326,1.748,7.4448,0.5475
156951.0,-18.0978,10.3645,-28.8908,2.3413,9.6568,1.094
156961.0,-26.2764,9.7612,-21.9692,2.6414,11.5873,1.5548
156971.0,-33.4638,6.2082,-8.6119,3.0261,13.5338,1.9704
156981.0,-36.5068,2.0087,6.3351,4.1228,15.129,2.1221
156991.0,-35.9226,0.1293,19.1488,4.681,15.4164,1.6368
157001.0,-8.8753,2.5115,14.6765,4.1547,13.3049,0.8434
157011.0,-30.8349,5.4971,34.5004,4.7049,16.4689,0.2613
157021.0,-35.5539,8.1714,45.7412,3.1469,13.7929,-0.4124
157031.0,-36.739,3.8116,68.862,-0.8961,9.1295,-1.0126
157041.0,-36.7654,9.8545,67.7344,0.5215,5.3568,-0.5928
157051.0,-33.8037,11.7651,62.412,1.7831,2.2008,0.1101
157061.0,-30.8852,8.825,58.1647,1.1313,-1.4053,0.5736
157071.0,-28.0098,7.4986,46.9527,0.787,-4.7012,0.8673
157081.0,-24.5813,4.2665,35.3887,0.853,-6.6424,1.0669
157091.0,-19.6253,2.8683,21.0905,1.2989,-7.3001,1.1142
157101.0,-14.4873,1.6209,11.8226,0.762,-7.0526,0.8439
157111.0,-9.7588,1.482,5.2553,-0.0064,-6.2098,0.3789
157121.0,-7.9009,3.1699,2.7749,-0.5789,-4.6741,-0.0617
157131.0,-7.3741,3.8235,3.9911,-1.0328,-3.0868,-0.3741
157141.0,-8.1283,6.0454,6.1627,-1.532,-2.0204,-0.538
157151.0,-7.7189,6.3207,11.3749,-2.0614,-1.4511,-0.5545
157161.0,-8.2983,6.7301,15.5886,-1.8917,-1.3063,-0.3932
157171.0,-8.3199,6.9911,17.2215,-1.3973,-1.6868,-0.1086
157181.0,-7.9703,5.9328,17.4992,-1.1919,-2.4983,0.1948
157191.0,-7.0868,4.3527,15.5312,-1.11,-3.4539,0.4464
157201.0,-6.1507,2.2936,12.6486,-1.0408,-4.1739,0.6125
157211.0,-5.2792,0.6009,8.7867,-0.8727,-4.4964,0.6875
157221.0,-4.5705,-0.8428,5.5115,-0.9035,-4.4932,0.6359
157231.0,-3.5913,-1.7645,3.2777,-1.1371,-4.3309,0.4592
157241.0,-2.2146,-1.8794,1.2857,-1.3106,-3.9504,0.232
157251.0,-1.4509,-1.7645,0.8092,-1.4553,-3.298,0.009
157261.0,-1.5299,-1.2306,2.1069,-1.5351,-2.6004,-0.183
157271.0,-1.6496,-0.3735,3.7014,-1.4814,-2.1221,-0.2996
157281.0,-1.4629,0.1915,5.023,-1.4309,-1.9332,-0.3267
157291.0,-1.1779,0.1748,6.1818,-1.2946,-1.8789,-0.2772
157301.0,-0.8547,0.0503,6.122,-0.9716,-1.8326,-0.1703
157311.0,-0.6656,-0.5746,6.3949,-0.7348,-1.764,-0.0702
157321.0,-0.6823,-1.3862,6.9528,-0.5326,-1.7256,-0.0053
157331.0,-0.4669,-1.7597,6.7205,-0.29,-1.7507,0.0112
157341.0,0.3448,-1.9561,6.5601,-0.0803,-1.7203,-0.0197
157351.0,0.8882,-1.64,6.0166,0.1506,-1.5713,-0.049
157361.0,1.2139,-1.2354,5.703,0.1644,-1.4005,-0.0947
157371.0,0.9313,-0.8164,6.1268,-0.0612,-1.2925,-0.1495
157381.0,2.2122,-0.9242,6.4572,-0.3203,-1.2824,-0.183
157391.0,1.9968,-1.1708,7.2185,-0.5263,-1.242,-0.2203
157401.0,1.6233,-0.8116,7.2425,-0.5523,-1.2478,-0.2421
157411.0,1.6616,-0.8859,7.8386,-0.5699,-1.267,-0.2458
157421.0,2.1189,-0.7829,7.9559,-0.5188,-1.3723,-0.24
157431.0,2.047,-0.5986,8.1092,-0.4965,-1.5389,-0.232
157441.0,2.0279,-0.3232,7.4651,-0.4837,-1.8188,-0.2128
157451.0,1.7957,0.0287,6.3279,-0.5114,-2.1433,-0.1857
157461.0,2.0255,0.7326,3.5123,-0.5619,-2.4999,-0.1517
157471.0,2.6863,1.0319,-0.1269,-0.8961,-2.8202,-0.1027
157481.0,2.7964,0.3903,-3.2154,-1.3729,-2.9479,-0.0484
157491.0,6.0334,0.261,-10.2232,-1.7166,-3.0804,-0.0213
157501.0,6.1076,-2.0207,-13.4075,-1.6315,-2.2801,-0.049
157511.0,3.6583,-0.0982,-15.8807,-1.1552,-0.7375,-0.1527
157521.0,4.8818,1.8028,-19.5151,-1.0834,-0.2112,-0.2059
157531.0,0.9385,5.3726,-23.1831,-0.0835,1.2004,-0.0947
157541.0,-0.9792,8.0685,-28.91,0.7678,2.7058,0.2975
157551.0,-2.624,7.4555,-31.4957,1.2962,4.6592,0.8205
157561.0,-8.2911,6.1914,-29.4295,1.9539,7.1649,1.2068
157571.0,-15.6653,5.7557,-24.0378,2.66,9.5392,1.4404
157581.0,-21.1408,6.4332,-17.3723,3.5056,11.773,1.557
157591.0,-26.5301,4.9536,-3.2202,3.9765,13.6274,1.5357
157601.0,-32.5899,5.5091,9.8138,4.3883,14.6507,1.2882
157611.0,-35.8963,4.628,22.381,3.7141,14.2282,0.8615
157621.0,-35.4701,5.6982,24.0952,3.2863,13.5215,0.5018
157631.0,-32.9227,11.0588,33.3824,4.2212,14.9274,0.2671
157641.0,-32.0727,8.7197,51.1904,1.4383,12.3668,-0.306
157651.0,-31.5197,6.2944,66.9802,-1.1542,8.3419,-0.5342
157661.0,-31.4431,7.9511,68.3928,-0.3837,5.0854,-0.1383
157671.0,-32.0272,5.3534,69.1517,-0.0027,1.8209,0.2804
157681.0,-31.2707,2.5163,64.9116,-0.2714,-2.245,0.5289
157691.0,-30.6027,-0.0287,54.516,-0.4656,-6.1682,0.5981
157701.0,-28.7639,-0.984,39.6767,-0.1453,-8.9097,0.5608
157711.0,-25.9148,0.079,23.9396,0.1799,-10.2336,0.4443
157721.0,-22.4289,0.498,12.7587,-0.373,-10.6481,0.1836
157731.0,-18.1768,0.7063,3.0023,-1.0334,-10.4645,-0.1245
157741.0,-13.5153,0.9074,-4.2425,-1.5298,-9.5317,-0.415
157751.0,-10.0389,1.6496,-8.5712,-1.7198,-7.9726,-0.6146
157761.0,-6.0693,1.6161,-10.0245,-1.74,-6.1198,-0.7226
157771.0,-5.0159,1.585,-7.1323,-1.6916,-4.1978,-0.7998
157781.0,-3.984,1.6807,-3.8858,-1.7608,-3.189,-0.8594
157791.0,-2.8347,1.506,-0.3879,-1.5399,-2.4216,-0.8439
157801.0,-2.6217,2.083,2.0973,-0.829,-1.6698,-0.7263
157811.0,-2.4756,2.3894,4.367,-0.3555,-1.2936,-0.5805
157821.0,-2.1356,2.308,6.1579,-0.1862,-1.2691,-0.4411
157831.0,-1.7478,1.9656,7.1371,-0.0968,-1.3606,-0.315
157841.0,-0.7135,1.415,7.1395,-0.0591,-1.4745,-0.2219
157851.0,-0.8284,0.9218,7.6519,-0.2379,-1.5293,-0.1979
157861.0,-0.8284,0.4764,8.2672,-0.6588,-1.7879,-0.2565
157871.0,-0.8236,0.3519,8.4276,-1.0435,-2.104,-0.3464
157881.0,-0.589,0.4573,7.9631,-1.2058,-2.3243,-0.4007
157891.0,-0.51,0.4118,7.7189,-1.2068,-2.4211,-0.406
157901.0,-0.3639,0.4238,7.1994,-1.0546,-2.4807,-0.3842
157911.0,-0.0766,0.5315,6.4476,-0.8381,-2.5318,-0.3469
157921.0,0.6081,0.6057,4.9321,-0.621,-2.5478,-0.2879
157931.0,1.2905,0.4381,3.7828,-0.4869,-2.4286,-0.2331
157941.0,1.889,0.395,2.8108,-0.3602,-2.1716,-0.19
157951.0,2.2793,0.5219,2.0231,-0.2911,-1.8432,-0.1517
157961.0,2.5355,0.5267,1.834,-0.3267,-1.4926,-0.1123
157971.0,2.6576,0.6081,1.7573,-0.3608,-1.1291,-0.0628
157981.0,2.5666,0.4693,1.9249,-0.4289,-0.763,-0.0027
157991.0,2.7078,-0.0982,2.6624,-0.5156,-0.4278,0.0633
158001.0,3.0287,-0.7494,3.395,-0.5385,-0.1495,0.1086
158011.0,3.0574,-1.2234,4.2569,-0.5167,0.0697,0.1149
158021.0,3.3255,-1.5562,4.9536,-0.4172,0.2352,0.1016
158031.0,3.5745,-1.6041,5.4444,-0.2512,0.3751,0.0825
158041.0,3.4093,-1.4892,5.9927,-0.0628,0.5114,0.0692
158051.0,2.9377,-1.1205,6.3877,0.1564,0.6162,0.0702
158061.0,2.2841,-0.8021,6.4524,0.3469,0.6758,0.1
158071.0,2.3703,-1.0846,6.3327,0.4619,0.7231,0.1469
158081.0,2.818,-1.6688,6.5122,0.5215,0.8285,0.157
158091.0,2.988,-2.0518,6.8618,0.5906,0.9796,0.1086
158101.0,3.0526,-2.0375,7.1371,0.6332,1.11,0.0128
158111.0,2.6504,-1.7502,7.865,0.6284,1.2265,-0.0974
158121.0,2.3008,-1.2641,8.4108,0.6678,1.3069,-0.1852
158131.0,1.9824,-0.893,8.8753,0.6816,1.3516,-0.2528
158141.0,1.7358,-0.5722,9.347,0.6694,1.3601,-0.3038
158151.0,1.391,-0.1772,9.6414,0.6737,1.383,-0.3432
158161.0,1.1181,0.2705,10.137,0.7317,1.4511,-0.3555
158171.0,0.8954,0.6081,10.6135,0.8168,1.5463,-0.3374
158181.0,0.6967,0.9457,11.4251,0.8397,1.608,-0.3102
158191.0,0.5243,1.233,12.22,0.7849,1.5852,-0.282
158201.0,0.249,1.5179,12.9383,0.6726,1.4814,-0.2458
158211.0,0.1077,1.6161,13.556,0.5358,1.3138,-0.207
158221.0,-0.0742,1.6472,13.9702,0.422,1.1238,-0.1628
158231.0,-0.2945,1.573,14.2814,0.3602,0.9333,-0.1187
158241.0,-0.4477,1.4988,14.279,0.3586,0.7572,-0.0782
158251.0,-0.3615,1.3551,14.1354,0.3565,0.5949,-0.0447
158261.0,-0.2322,1.2163,13.9319,0.2937,0.4289,-0.0362
158271.0,-0.2514,1.1396,13.7619,0.1932,0.2581,-0.0495
158281.0,-0.2298,1.245,13.4123,0.1304,0.0995,-0.0601
158291.0,-0.2274,1.3862,12.9047,0.0862,-0.0197,-0.0633
158301.0,-0.1341,1.5634,12.3062,0.058,-0.0931,-0.0543
158311.0,-0.1053,1.6041,11.9471,0.0106,-0.1304,-0.0383
158321.0,-0.1173,1.6712,11.5472,-0.025,-0.149,-0.0186
158331.0,-0.079,1.6927,11.1546,-0.0543,-0.1485,0.008
158341.0,0.0958,1.5538,10.9008,-0.1086,-0.1389,0.0357
158351.0,0.1676,1.4006,10.7236,-0.1607,-0.1378,0.0516
158361.0,0.2322,1.324,10.501,-0.2075,-0.141,0.0607
158371.0,0.3424,1.2953,10.2185,-0.24,-0.1325,0.0681
158381.0,0.3112,1.2019,10.1323,-0.2522,-0.1016,0.0761
158391.0,0.2251,1.1732,10.0126,-0.2272,-0.0596,0.0894
