time_ms,ax,ay,az,gx,gy,gz
186011.0,-0.8523,0.7973,11.0516,-0.2214,0.1309,0.2315
186021.0,-0.6704,0.4405,11.0109,-0.2724,0.0851,0.2155
186031.0,-0.5291,0.1772,11.0588,-0.2496,0.0585,0.1815
186041.0,-0.5291,0.1652,10.9104,-0.0617,0.083,0.1522
186051.0,-0.7877,0.4142,10.6566,0.2549,0.1639,0.1453
186061.0,-1.1301,0.6177,10.4315,0.6258,0.3006,0.1708
186071.0,-1.6137,0.7278,10.5608,0.9786,0.48,0.2235
186081.0,-1.7909,0.4405,11.0205,1.3255,0.6928,0.2959
186091.0,-1.6927,-0.0024,11.382,1.6011,0.8892,0.3416
186101.0,-1.4413,-0.3352,11.959,1.6586,1.0068,0.3017
186111.0,-1.1588,-0.261,12.3325,1.4761,1.0456,0.1596
186121.0,-1.3623,0.2083,13.0412,1.0515,1.0467,-0.0575
186131.0,-1.9249,0.9984,14.1497,0.5135,1.0233,-0.29
186141.0,-2.6097,2.0327,15.5049,-0.0032,0.9477,-0.4704
186151.0,-3.3136,2.7485,16.9893,-0.4587,0.7471,-0.564
186161.0,-4.0151,3.2417,18.2199,-0.7327,0.448,-0.5726
186171.0,-4.4053,3.5721,18.8184,-0.7583,0.141,-0.4938
186181.0,-4.4843,3.5817,19.0267,-0.6641,-0.1703,-0.3618
186191.0,-4.3167,3.4548,18.7251,-0.5726,-0.5321,-0.2256
186201.0,-4.0223,3.1412,18.0236,-0.5827,-0.9344,-0.1213
186211.0,-3.6703,2.964,16.8767,-0.6667,-1.3159,-0.0665
186221.0,-3.4572,3.1268,15.5001,-0.8232,-1.6144,-0.0511
186231.0,-3.2585,3.2058,14.4682,-1.0451,-1.8161,-0.0357
186241.0,-2.8946,2.9784,13.7571,-1.234,-1.9326,-0.0048
186251.0,-3.0885,2.6863,13.307,-1.3377,-1.9513,0.033
186261.0,-3.0742,2.4684,13.0197,-1.3952,-1.9571,0.0692
186271.0,-2.7845,1.9537,13.4267,-1.5048,-2.0332,0.0968
186281.0,-2.8491,1.5299,13.7738,-1.5112,-2.188,0.1139
186291.0,-2.9544,1.4413,13.6062,-1.3175,-2.3775,0.1373
186301.0,-2.7246,1.494,12.7683,-1.0169,-2.5414,0.1783
186311.0,-2.4756,1.7214,11.4563,-0.7497,-2.6483,0.2315
186321.0,-2.4756,1.913,10.4435,-0.6465,-2.6914,0.2847
186331.0,-2.162,1.8268,9.6079,-0.6971,-2.7069,0.3384
186341.0,-1.9154,1.3431,9.7229,-0.861,-2.7212,0.3762
186351.0,-1.8076,0.826,9.924,-0.9248,-2.7617,0.4103
186361.0,-1.7166,0.5004,10.0293,-0.862,-2.8558,0.4406
186371.0,-1.4748,0.2801,9.8426,-0.7162,-3.0144,0.4784
186381.0,-1.1349,0.0311,8.9591,-0.5098,-3.1767,0.5284
186391.0,-0.7781,-0.0551,7.8578,-0.3453,-3.3103,0.564
186401.0,-0.6823,0.0407,6.5721,-0.2857,-3.4295,0.5843
186411.0,-0.3926,0.0934,5.3654,-0.3257,-3.538,0.5938
186421.0,-0.0263,0.1389,4.1372,-0.3751,-3.5838,0.6071
186431.0,0.2777,0.1341,2.8443,-0.4081,-3.562,0.6369
186441.0,0.814,-0.2059,1.6257,-0.4432,-3.4891,0.6726
186451.0,1.6137,-0.3567,-0.498,-0.53,-3.3986,0.6891
186461.0,2.8036,-1.0175,-1.9393,-0.8014,-3.2485,0.6662
186471.0,3.9289,-1.3503,-2.8515,-0.8711,-2.8521,0.6236
186481.0,4.13,-0.9361,-3.3734,-0.6705,-2.2519,0.596
186491.0,4.4628,-0.4932,-3.4572,-0.4959,-1.8693,0.6055
186501.0,4.9847,0.8811,-6.5864,-0.3475,-1.706,0.6673
186511.0,4.9321,1.6759,-11.1546,-0.7923,-1.6857,0.754
186521.0,4.7692,1.822,-15.919,-1.7022,-1.5878,0.8306
186531.0,4.3981,1.2043,-20.5542,-2.5776,-1.4362,0.8966
186541.0,5.1044,0.2442,-24.9787,-2.7265,-1.0578,0.9764
186551.0,3.201,0.3304,-29.0321,-1.4702,0.1096,1.1158
186561.0,1.64,-0.4717,-35.6353,0.7013,1.6373,1.284
186571.0,0.158,-1.221,-41.288,2.7468,3.5832,1.2574
186581.0,-6.2249,0.0383,-43.3758,4.5911,6.4774,1.0137
186591.0,-14.8273,2.7318,-39.6456,5.9708,9.6616,0.6332
186601.0,-24.7824,5.2074,-28.3761,6.9132,12.8425,0.2357
186611.0,-35.1205,6.6391,-9.0381,7.3974,15.2897,-0.1634
186621.0,-40.9935,10.5153,8.6191,8.1796,16.3939,-0.5624
186631.0,-42.7916,15.7395,23.7984,8.6851,16.4918,-0.8892
186641.0,-33.8756,22.8934,18.5144,7.7832,14.1095,-1.0802
186651.0,-45.7771,20.9684,45.8442,5.4068,14.6996,-1.1685
186661.0,-40.9001,23.1424,50.3309,4.7715,11.9539,-0.8945
186671.0,-37.5243,17.7291,65.4216,1.9257,8.2312,-0.912
186681.0,-35.1086,18.895,66.3553,2.0231,4.9497,-0.5076
186691.0,-14.4466,9.6678,78.4508,-3.0298,-1.3622,-0.2762
186701.0,-18.3994,7.7572,55.1145,2.7627,-3.6008,0.5167
186711.0,-19.8144,22.2613,18.9429,5.8261,-4.4735,1.1877
186721.0,-16.3285,2.8299,32.0631,-0.6513,-6.3444,0.6524
186731.0,-11.0564,11.3796,8.9471,-0.0692,-6.7036,0.2496
186741.0,-8.3701,7.5346,13.7523,-1.674,-5.0423,-0.2389
186751.0,-8.5425,12.7036,6.4212,-1.6038,-3.4029,-0.5108
186761.0,-8.7317,10.3286,13.5679,-3.7141,-2.8138,-0.8099
186771.0,-8.6287,10.5177,17.2837,-4.4064,-2.9889,-0.879
186781.0,-9.5984,10.5632,18.3109,-3.8296,-3.0639,-0.6502
186791.0,-9.7468,9.7205,18.5551,-3.04,-3.446,-0.2677
186801.0,-8.6933,8.5234,16.204,-2.3088,-4.0648,0.1309
186811.0,-7.094,6.3039,13.9773,-1.8555,-4.5267,0.4289
186821.0,-5.9903,5.6264,9.9264,-1.4649,-4.657,0.5997
186831.0,-5.3941,4.4293,8.4013,-1.7251,-4.6352,0.6236
186841.0,-4.8147,3.8642,6.9097,-2.1439,-4.6528,0.5459
186851.0,-4.0917,3.3208,6.0932,-2.6164,-4.6661,0.4188
186861.0,-3.462,3.2872,5.2792,-2.8931,-4.6214,0.2889
186871.0,-3.0502,3.7589,4.1396,-2.9287,-4.4203,0.2054
186881.0,-2.9616,3.8283,4.0917,-2.941,-4.1196,0.1926
186891.0,-3.3303,3.5195,4.5562,-2.866,-3.8717,0.2379
186901.0,-3.3734,2.8443,5.0302,-2.6611,-3.7227,0.3257
186911.0,-3.0095,2.1261,5.2361,-2.3881,-3.6636,0.422
186921.0,-2.5235,1.6089,4.9464,-2.1652,-3.7328,0.497
186931.0,-2.2984,1.2426,3.4884,-2.0795,-3.9286,0.5518
186941.0,-1.6879,0.4788,1.0534,-2.3009,-4.2058,0.5763
186951.0,-0.4429,-0.9768,-0.7111,-2.6659,-4.349,0.5491
186961.0,1.391,-2.3176,-2.2122,-2.6904,-4.1414,0.4858
186971.0,2.1548,-3.0382,-2.2075,-2.3849,-3.571,0.3847
186981.0,2.2745,-3.0598,-1.9489,-1.9614,-3.1379,0.2767
186991.0,3.7302,-2.557,-1.9585,-1.5708,-3.0016,0.1868
187001.0,3.6631,-1.0271,-5.0374,-1.2606,-3.0235,0.1703
187011.0,1.9704,-0.8523,-7.8171,-1.425,-3.0756,0.2187
187021.0,3.4836,-1.2761,-14.6645,-1.6719,-3.2922,0.2799
187031.0,5.0901,-2.0494,-21.5406,-1.996,-3.0586,0.2389
187041.0,5.5713,-2.2482,-28.2971,-2.0337,-2.1311,0.158
187051.0,4.4772,-1.2402,-32.4103,-1.5772,-0.5263,0.1027
187061.0,2.648,0.5028,-33.1238,-0.4794,1.5378,0.1666
187071.0,-1.2809,2.4588,-32.6282,0.9956,3.6812,0.3863
187081.0,-4.1922,3.5338,-31.8405,2.2147,5.3637,0.6481
187091.0,-7.7692,4.6591,-30.7703,2.9665,6.8903,0.8179
187101.0,-12.8377,5.9999,-28.0122,3.247,8.401,0.8982
187111.0,-19.6277,6.7924,-22.2014,3.3779,9.9553,0.9711
187121.0,-25.946,5.6192,-12.572,3.9068,11.7767,1.1025
187131.0,-29.3984,3.0765,-0.7039,4.9635,13.464,1.1286
187141.0,-35.3432,3.8211,10.3789,6.0363,14.9497,0.8253
187151.0,-38.8148,6.9576,22.7617,6.1821,15.5334,0.282
187161.0,-21.9046,11.631,23.3602,5.0939,14.3378,-0.2565
187171.0,-31.7208,11.1378,44.2616,4.3713,15.6872,-0.5034
187181.0,-32.621,13.1274,52.8472,1.9976,12.5206,-0.9722
187191.0,-32.305,6.1938,74.1676,-1.9119,8.227,-1.2888
187201.0,-29.7911,11.4179,69.3959,-1.5304,4.2005,-0.9003
187211.0,-31.8165,6.0214,76.9927,-1.2143,0.9551,-0.2533
187221.0,-29.2571,8.0613,61.203,0.8599,-2.9389,0.5848
187231.0,-29.2667,3.8188,55.2821,0.7875,-6.2864,0.9977
187241.0,-25.4336,3.5578,36.1572,1.9491,-8.7995,1.3574
187251.0,-22.2709,1.4341,24.7153,2.5217,-9.4748,1.532
187261.0,-17.0252,1.3647,8.9088,2.9468,-9.3306,1.55
187271.0,-11.3964,1.9297,-1.9872,1.2914,-8.6607,1.2068
187281.0,-6.292,1.0247,-4.6208,-1.2861,-7.3804,0.6178
187291.0,-3.565,0.3184,-4.0965,-2.684,-5.311,0.0926
187301.0,-3.4644,-0.4046,0.7638,-3.3278,-3.3321,-0.3512
187311.0,-3.7852,0.0072,6.0454,-3.3353,-2.1721,-0.6854
187321.0,-4.5346,1.2067,10.6374,-2.8755,-1.7001,-0.8556
187331.0,-5.1116,2.478,13.7499,-2.1285,-1.6629,-0.828
187341.0,-5.77,3.3112,15.536,-1.376,-1.9449,-0.6561
187351.0,-6.098,4.0654,15.8783,-0.837,-2.5084,-0.4241
187361.0,-5.7988,4.0294,14.9398,-0.5752,-3.2299,-0.1671
187371.0,-5.2361,3.3543,12.7707,-0.522,-3.886,0.0766
187381.0,-4.1611,2.3439,9.8952,-0.7439,-4.3899,0.2315
187391.0,-3.4788,1.4461,7.7405,-1.3659,-4.7576,0.2293
187401.0,-3.2034,0.7949,6.7277,-2.0524,-5.0104,0.1277
187411.0,-3.1675,0.5986,5.8969,-2.4094,-5.1434,0.0293
187421.0,-3.3615,0.5363,5.3127,-2.4275,-5.2147,-0.0293
187431.0,-3.2441,0.8452,4.1132,-2.188,-5.3025,-0.0234
187441.0,-3.2322,1.3216,2.4924,-1.8927,-5.3866,0.0266
187451.0,-2.6647,1.8938,-0.0239,-1.6714,-5.4749,0.1192
187461.0,-2.4756,1.8771,-2.387,-1.7017,-5.5281,0.2426
187471.0,-1.2019,1.2905,-6.2968,-1.8411,-5.5733,0.3656
187481.0,0.5986,-0.8284,-8.2959,-2.0587,-5.3105,0.4401
187491.0,1.968,-1.2378,-12.2583,-1.8555,-4.6129,0.4518
187501.0,2.988,-2.6671,-12.8952,-1.9459,-3.9398,0.3794
187511.0,4.5131,-2.5857,-15.8424,-1.8097,-3.3246,0.2857
187521.0,4.8985,-2.229,-18.8903,-1.7134,-2.5201,0.1995
187531.0,5.7724,-2.0207,-22.144,-1.7496,-1.7193,0.1352
187541.0,7.8003,-1.9249,-25.2947,-1.6724,-0.6162,0.1054
187551.0,4.0318,-1.9776,-25.266,-1.3532,0.8737,0.0713
187561.0,1.5347,-0.6512,-28.2348,-0.7263,2.1146,0.0734
187571.0,3.5602,-1.6089,-27.9164,-0.1128,3.3012,0.1107
187581.0,-0.8811,0.431,-26.6044,1.5724,5.4286,0.1272
187591.0,-4.8602,2.1931,-24.1671,3.3257,7.1292,0.1485
187601.0,-9.2799,4.5921,-22.46,4.9524,8.6921,0.1527
187611.0,-14.0683,7.6231,-19.8216,5.6947,10.2123,0.1176
187621.0,-17.8799,8.0541,-11.4371,4.9423,11.135,0.0532
187631.0,-19.9413,9.1028,-2.4157,4.1957,11.7778,0.0239
187641.0,-23.3411,10.0221,6.9288,3.4082,11.98,0.0474
187651.0,-24.6579,9.2895,15.3013,2.7952,11.4926,0.1857
187661.0,-26.3386,9.6031,20.7984,2.8904,10.9307,0.3773
187671.0,-22.9221,9.7947,20.2837,3.2054,10.0122,0.5475
187681.0,-29.1733,9.9,27.7177,4.2101,11.1297,0.6492
187691.0,-29.5468,12.9407,30.4399,3.9807,10.6784,0.4885
187701.0,-29.1662,10.0533,42.9807,1.616,9.2534,0.1655
187711.0,-27.7201,11.8752,46.4978,0.8317,7.5815,0.0772
187721.0,-27.6315,10.9511,52.931,-0.0436,5.9267,0.1575
187731.0,-27.0904,9.6989,54.9685,-0.5992,3.563,0.3645
187741.0,-26.2835,7.7357,55.0954,-1.1408,0.8445,0.58
187751.0,-24.9524,5.8706,51.923,-0.9498,-1.583,0.8508
187761.0,-24.0569,5.1451,45.8777,-0.091,-3.356,1.127
187771.0,-22.7234,4.3814,38.2833,0.4406,-4.831,1.2851
187781.0,-20.6237,4.3598,30.313,0.149,-6.1188,1.2425
187791.0,-18.5096,3.4644,22.9963,-0.5986,-7.0053,1.0493
187801.0,-16.3117,3.1915,17.1449,-1.2063,-7.2261,0.8237
187811.0,-13.8768,3.4405,11.7053,-1.5554,-6.9116,0.5992
187821.0,-13.0292,3.5267,9.833,-1.9576,-6.2034,0.4087
187831.0,-11.497,3.9624,8.7388,-2.1593,-5.5563,0.2756
187841.0,-10.4914,4.2258,8.8873,-2.345,-5.0114,0.1948
187851.0,-9.3182,4.2713,9.5864,-2.4929,-4.6746,0.1793
187861.0,-9.4619,4.1372,11.3749,-2.6446,-4.6118,0.1942
187871.0,-9.8785,4.5298,11.8082,-2.6749,-4.979,0.2464
187881.0,-10.0963,4.6926,11.4084,-2.652,-5.5989,0.356
187891.0,-9.8976,4.3574,9.3206,-2.4754,-6.3013,0.5417
187901.0,-9.335,3.462,6.2608,-2.2769,-6.9132,0.737
187911.0,-8.6167,2.5259,2.4995,-2.096,-7.3447,0.8854
187921.0,-7.2233,1.7214,-1.573,-2.0348,-7.5097,0.9743
187931.0,-5.4636,0.4788,-4.5562,-1.9784,-7.3453,1.0179
187941.0,-3.9002,0.0407,-7.4699,-1.7512,-6.702,1.0339
187951.0,-2.6073,-0.3639,-7.7548,-1.7001,-5.94,0.9977
187961.0,-1.4269,-0.1556,-8.0517,-1.5623,-5.3307,0.9472
187971.0,-1.0942,0.51,-10.1155,-1.441,-4.8241,0.945
187981.0,-0.1628,-0.407,-12.7228,-1.7554,-4.5421,0.97
187991.0,1.81,-2.0303,-14.8105,-2.1114,-4.0164,0.9429
188001.0,3.0215,-3.6033,-15.6365,-2.2327,-3.1517,0.8338
188011.0,4.0055,-4.9201,-15.8807,-2.0768,-2.2918,0.6534
188021.0,4.8147,-4.8411,-15.919,-1.45,-1.2627,0.4331
188031.0,3.5721,-3.3878,-15.6964,-0.6013,-0.1841,0.2554
188041.0,2.6432,-2.071,-15.2894,0.0846,0.4901,0.1602
188051.0,-0.3519,-0.146,-18.4856,0.589,0.7907,0.141
188061.0,-1.1947,-0.5507,-26.8414,0.2826,0.4342,0.1676
188071.0,1.7573,-2.2505,-37.4357,-0.3906,0.5305,0.125
188081.0,0.0,-2.6169,-43.4332,-0.1314,2.5504,0.008
188091.0,-5.9879,-0.7015,-44.4603,1.1536,5.4371,-0.1288
188101.0,-12.6797,1.5658,-43.8187,2.9511,8.417,-0.2001
188111.0,-21.0642,3.5267,-39.1284,4.342,11.4367,-0.3203
188121.0,-28.8525,4.6184,-29.7049,4.5214,13.7658,-0.5662
188131.0,-38.2641,6.1555,-11.7124,4.0318,15.4291,-0.8892
188141.0,-43.9958,10.2687,2.976,5.0551,16.4364,-1.061
188151.0,-49.2942,16.1465,13.0388,6.1369,17.2394,-1.2409
188161.0,-41.1803,21.2414,14.5184,5.6468,16.3694,-1.3585
188171.0,-57.049,24.7728,35.0344,4.7667,17.4357,-1.2361
188181.0,-57.3339,23.8008,49.4642,2.7654,16.3348,-0.9541
188191.0,-53.9318,13.5081,72.9394,-0.9982,12.585,-0.6944
188201.0,-48.9375,11.2049,78.4508,-1.9145,8.1685,-0.1383
188211.0,-44.7237,5.8945,78.4508,-1.9513,3.9951,0.4821
188221.0,-40.6631,3.5075,77.5027,-0.5523,-0.5353,1.1111
188231.0,-37.747,0.012,69.5492,-0.1277,-4.6863,1.3329
188241.0,-35.4126,-0.328,53.8552,0.4661,-8.2845,1.3324
188251.0,-33.2507,-0.0431,39.5378,0.7769,-10.5715,1.1973
188261.0,-29.3529,0.9146,24.3562,1.2223,-11.6985,1.0685
188271.0,-25.1176,3.067,10.5776,1.1685,-11.7762,0.9307
188281.0,-19.1321,5.0613,0.735,0.2405,-11.2547,0.804
188291.0,-14.4227,4.379,-5.2313,-0.3719,-9.784,0.7646
188301.0,-7.8578,4.8004,-11.1067,-0.7072,-7.6896,0.763
188311.0,-6.2058,2.9281,-7.2281,-1.7118,-5.2748,0.6215
188321.0,-4.7214,2.0446,-3.6847,-2.7691,-4.0297,0.34
188331.0,-3.5745,0.7254,1.0534,-3.4907,-3.2757,0.0521
188341.0,-3.2346,0.6991,3.292,-3.3172,-2.5478,-0.1357
188351.0,-3.7302,0.4429,6.5505,-3.0799,-2.0401,-0.2826
188361.0,-3.5027,0.4405,8.2576,-2.8223,-2.0156,-0.3922
188371.0,-2.8467,0.091,9.4332,-2.6499,-2.2471,-0.4725
188381.0,-1.9345,0.1077,8.6814,-2.428,-2.5265,-0.5236
188391.0,-1.6951,0.1221,8.1475,-2.4147,-2.7138,-0.5811
188401.0,-1.0942,0.2083,7.6878,-2.5765,-2.908,-0.6444
188411.0,-1.0056,0.0886,8.1666,-2.8351,-3.1075,-0.7024
188421.0,-1.1564,0.1508,8.1379,-2.8851,-3.3411,-0.7184
188431.0,-1.2617,0.0766,7.932,-2.7734,-3.5976,-0.6976
188441.0,-1.1779,0.1221,6.9504,-2.5382,-3.8631,-0.6455
188451.0,-0.9505,0.0335,5.8323,-2.2913,-4.0824,-0.5741
188461.0,-0.3855,-0.146,4.4125,-2.0508,-4.2452,-0.4997
188471.0,0.103,-0.1963,2.8276,-1.8565,-4.3378,-0.4347
188481.0,0.5339,-0.2322,1.2641,-1.7512,-4.3729,-0.3757
188491.0,1.0463,-0.3041,-0.2538,-1.7017,-4.3442,-0.3161
188501.0,1.8028,-0.5195,-1.5754,-1.6245,-4.2197,-0.248
188511.0,2.296,-0.7709,-2.6336,-1.4016,-3.8919,-0.1596
188521.0,2.5379,-0.8092,-3.5195,-1.1291,-3.5141,-0.0734
188531.0,3.5075,-0.7949,-4.4939,-0.8977,-3.2124,0.008
188541.0,4.0055,-0.6991,-5.7102,-0.5603,-2.7643,0.1096
188551.0,3.8666,-0.5698,-7.185,-0.2714,-2.2173,0.2261
188561.0,3.7757,-0.8332,-8.6814,-0.3656,-1.8145,0.3177
188571.0,4.2569,-1.5299,-10.2424,-0.7838,-1.4894,0.3645
188581.0,4.5466,-2.332,-11.4179,-1.3505,-1.0589,0.3507
188591.0,4.0151,-3.1149,-11.9902,-1.9656,-0.6183,0.2799
188601.0,5.1571,-4.1731,-11.9088,-2.3626,-0.1623,0.1745
188611.0,4.8626,-4.3144,-10.8649,-2.1944,0.5656,0.0468
188621.0,4.0223,-4.2186,-9.5816,-1.4963,1.2595,-0.0591
188631.0,3.0718,-3.6559,-9.0621,-0.3432,1.9225,-0.141
188641.0,1.7957,-2.9808,-9.7923,0.953,2.5584,-0.2086
188651.0,0.6919,-2.387,-11.3318,1.9986,3.1629,-0.2969
188661.0,-0.6009,-1.8579,-12.7563,2.6276,3.8669,-0.4299
188671.0,-1.7717,-1.4341,-13.3716,2.8532,4.5964,-0.596
188681.0,-2.9209,-1.2474,-13.1346,3.0022,5.4818,-0.7641
188691.0,-5.2122,-0.5124,-11.8968,3.3007,6.5604,-0.9488
188701.0,-8.6694,0.9385,-9.6462,3.8871,7.7779,-1.1068
188711.0,-13.3573,2.8563,-6.8857,4.8082,9.006,-1.1967
188721.0,-17.9014,5.0422,-4.1468,6.1044,10.2304,-1.2292
188731.0,-21.7609,8.1786,-2.7988,7.4783,11.5149,-1.2696
188741.0,-26.3841,10.5082,0.1796,8.0205,12.7265,-1.3659
188751.0,-29.7623,12.8353,5.3582,7.225,13.5258,-1.5697
188761.0,-32.9897,13.9893,15.2175,5.2775,13.8849,-1.8023
188771.0,-31.5747,14.5831,23.8247,2.9777,13.4827,-1.9433
188781.0,-35.2881,15.8783,39.8395,2.336,13.9419,-1.8188
188791.0,-32.961,17.856,49.0452,1.0115,11.7288,-1.6974
188801.0,-31.2659,12.6246,63.8031,-1.6336,8.202,-1.4814
188811.0,-29.3433,13.0676,63.329,-2.3365,4.317,-0.9908
188821.0,-28.6825,7.6638,68.795,-2.6042,0.9849,-0.4523
188831.0,-28.5173,8.6383,60.5518,-0.8647,-2.1849,0.1937
188841.0,-28.4742,5.5162,54.6093,0.1591,-5.1344,0.6848
188851.0,-27.5357,4.9105,41.2736,1.5415,-7.6012,1.1036
188861.0,-25.0505,3.2705,28.4575,2.3205,-8.9927,1.3798
188871.0,-20.1903,3.553,15.0188,2.1545,-9.5067,1.4207
188881.0,-16.5535,2.6791,8.588,0.919,-9.1028,1.1563
188891.0,-12.8425,3.4836,1.4724,-0.4044,-8.3994,0.7673
188901.0,-10.2137,2.4325,0.395,-2.1726,-7.3543,0.315
188911.0,-8.3103,2.3343,0.091,-3.2688,-6.18,-0.0947
188921.0,-7.4843,2.308,2.4325,-3.9461,-5.0285,-0.4326
188931.0,-7.0533,2.5283,5.7581,-4.1223,-4.2447,-0.646
188941.0,-6.8833,3.201,7.932,-3.8168,-3.8344,-0.7013
188951.0,-6.8594,3.1795,10.0413,-3.4188,-3.7695,-0.6385
188961.0,-6.2369,3.45,10.1658,-2.9181,-4.0196,-0.5013
188971.0,-5.794,2.9712,10.647,-2.5345,-4.3793,-0.34
188981.0,-5.1284,2.6935,9.3925,-1.9874,-4.7906,-0.1538
188991.0,-4.8578,2.1237,7.9176,-1.5309,-5.1615,0.0106
189001.0,-4.221,1.8747,5.1068,-1.1659,-5.4845,0.1506
189011.0,-3.5003,1.4916,2.3128,-1.0818,-5.6569,0.2437
189021.0,-2.4134,1.1325,-0.5531,-1.2361,-5.709,0.2836
189031.0,-1.2713,0.34,-2.6695,-1.5128,-5.5872,0.281
189041.0,-0.0742,-0.0431,-4.4819,-1.6229,-5.2083,0.2421
189051.0,0.3017,0.0407,-4.7405,-1.6703,-4.6501,0.1628
189061.0,0.7638,0.6153,-5.5809,-1.6932,-4.3218,0.1075
189071.0,1.3288,0.9649,-7.0102,-1.748,-4.1377,0.1011
189081.0,2.7414,0.9146,-10.0844,-1.6017,-3.853,0.1548
189091.0,3.6105,1.1301,-12.6773,-1.2574,-3.0804,0.2405
189101.0,4.8171,0.8212,-13.5009,-0.928,-2.163,0.3448
189111.0,5.2433,1.1349,-14.0492,-0.4065,-1.1579,0.4635
189121.0,5.2577,1.5897,-14.1569,0.1916,-0.1219,0.6199
189131.0,4.6735,1.7645,-12.8664,0.7779,0.9232,0.8163
189141.0,3.9169,1.5562,-10.2161,1.3595,1.8624,1.0371
189151.0,3.4405,1.0726,-8.3725,1.8379,2.3738,1.2606
189161.0,3.6655,-0.2011,-8.4132,1.9332,2.3839,1.4234
189171.0,3.7637,-1.5969,-9.1842,1.7847,2.3881,1.4681
189181.0,3.1292,-2.8778,-9.0022,1.6964,2.5488,1.3893
189191.0,2.2338,-2.8898,-10.1131,1.9454,2.7409,1.2169
189201.0,1.5083,-1.6759,-12.8305,2.3381,2.9862,1.0068
189211.0,-0.0862,-0.1317,-16.3021,2.6622,3.513,0.8333
189221.0,-2.4397,0.7757,-18.6867,2.8,4.4756,0.7173
189231.0,-5.2601,0.3543,-17.8607,2.8846,5.8607,0.6226
189241.0,-9.4978,-0.4405,-14.6238,3.2624,7.4762,0.4757
189251.0,-14.4035,-0.3998,-9.9527,3.9813,9.0949,0.2027
189261.0,-19.9892,0.7901,-2.0542,5.0221,10.9163,-0.1963
189271.0,-24.349,5.8035,3.802,5.999,12.4663,-0.6662
189281.0,-28.1462,9.6007,13.1561,5.4031,13.239,-1.1595
189291.0,-21.7394,12.7779,14.1018,3.4225,12.3024,-1.5048
189301.0,-32.1158,10.3932,34.6345,1.7006,13.2592,-1.5878
189311.0,-31.7974,12.6773,40.0287,0.6992,11.5005,-1.516
189321.0,-31.4742,6.7038,55.5479,-1.6575,8.7964,-1.4213
189331.0,-28.8789,8.3797,52.7419,-1.5958,5.7968,-1.0233
189341.0,-29.2763,4.9536,59.2709,-1.6969,3.5428,-0.5912
189351.0,-26.4272,6.1052,53.508,-0.1469,1.1222,-0.0239
189361.0,-25.2732,3.5793,52.6269,0.4975,-1.1706,0.3448
189371.0,-22.4193,3.3543,43.5362,1.3888,-3.6418,0.596
189381.0,-20.729,1.8699,36.7845,1.7251,-5.4233,0.6476
189391.0,-18.397,1.4581,26.8941,2.3067,-6.5796,0.6279
189401.0,-16.3165,1.7909,17.4418,2.3823,-7.0021,0.4869
189411.0,-13.4315,2.8515,8.5928,1.4942,-7.0404,0.2277
189421.0,-10.5058,2.5881,4.4987,-0.1245,-6.5322,-0.1192
189431.0,-8.5114,1.6065,3.7709,-1.4346,-5.5558,-0.5028
189441.0,-7.1994,1.9537,3.2202,-2.2343,-4.5011,-0.87
189451.0,-7.094,2.1093,5.7317,-3.0043,-3.6237,-1.1914
189461.0,-7.1467,3.1843,8.1594,-3.3454,-3.0825,-1.3947
189471.0,-7.2975,3.9169,10.908,-3.3667,-2.8819,-1.4394
189481.0,-7.1587,4.6519,12.0237,-2.9942,-2.9671,-1.3218
189491.0,-6.5553,4.8961,12.3469,-2.4701,-3.1639,-1.0834
189501.0,-5.5857,4.4388,12.1386,-1.9034,-3.3864,-0.795
189511.0,-5.0661,4.1108,11.1067,-1.4202,-3.6146,-0.5289
189521.0,-4.3934,3.5817,9.7659,-1.2388,-3.9036,-0.3235
189531.0,-3.4117,3.0789,8.1307,-1.3383,-4.2095,-0.1953
189541.0,-2.8299,2.7845,6.8929,-1.5697,-4.383,-0.1256
189551.0,-2.7126,2.7438,5.9735,-1.7783,-4.4208,-0.0649
189561.0,-2.3679,2.4493,5.6623,-1.9795,-4.4479,0.0064
189571.0,-2.1093,2.0949,5.2146,-2.1449,-4.5751,0.0745
189581.0,-1.8076,1.652,4.3503,-2.2801,-4.7927,0.1224
189591.0,-1.3886,1.549,3.3112,-2.3354,-4.9747,0.1697
189601.0,-0.8667,1.154,1.6448,-2.2216,-5.038,0.2442
189611.0,0.1245,0.7207,-0.1508,-2.1136,-4.9987,0.2959
189621.0,0.8571,0.2921,-1.7119,-2.0013,-4.8348,0.332
189631.0,1.7549,0.1963,-3.395,-1.873,-4.5586,0.3645
189641.0,2.8012,-0.237,-4.4341,-1.7852,-4.1787,0.398
189651.0,3.2322,-0.2107,-6.0501,-1.6916,-3.7615,0.4166
189661.0,3.8978,-0.3543,-7.4771,-1.7714,-3.381,0.4166
189671.0,4.3072,-0.3974,-9.7181,-1.9454,-2.9303,0.4188
189681.0,3.6392,-0.8428,-11.0923,-2.3253,-2.3817,0.4023
189691.0,4.3479,-0.9864,-12.5767,-2.7281,-1.8528,0.364
189701.0,5.8083,-1.8627,-12.4522,-2.9857,-1.1573,0.3342
189711.0,6.0813,-2.5091,-11.2815,-2.651,-0.215,0.3108
189721.0,5.7604,-2.5426,-10.0293,-1.7868,0.6417,0.2884
189731.0,5.4061,-2.083,-9.8665,-0.6742,1.3297,0.2788
189741.0,4.5322,-1.3551,-10.0293,0.3528,1.9789,0.2703
189751.0,3.3519,-0.5722,-10.0533,1.0765,2.5392,0.2607
189761.0,2.2146,0.0287,-9.8689,1.4915,2.9644,0.2581
189771.0,1.142,0.4836,-9.5648,1.8438,3.4433,0.2847
189781.0,0.2753,0.7111,-8.9112,2.2226,4.0318,0.3336
189791.0,-0.5195,0.9313,-8.1882,2.6052,4.6161,0.3821
189801.0,-1.8579,1.4054,-7.1371,2.9969,5.2296,0.4156
189811.0,-3.7757,2.4541,-6.189,3.4273,5.8341,0.4438
189821.0,-6.9025,3.4884,-5.5306,3.8599,6.4093,0.5172
189831.0,-10.7236,4.0606,-5.035,4.4298,7.1394,0.6646
189841.0,-14.5974,3.3591,-3.8858,5.1626,8.1003,0.8301
189851.0,-17.4178,1.7166,-1.8747,6.255,9.4306,0.9003
189861.0,-20.1017,1.64,0.34,7.506,10.994,0.6721
189871.0,-22.5366,4.9919,3.0191,7.9897,12.345,0.1155
189881.0,-26.1183,9.3087,9.5888,6.5317,12.9899,-0.5635
189891.0,-22.5151,10.4387,17.8368,3.8099,12.4227,-1.0616
189901.0,-29.9491,11.406,31.8477,2.7047,12.7473,-1.1829
189911.0,-29.8461,14.121,35.8843,1.4559,10.8684,-1.1643
189921.0,-30.866,9.0716,49.4474,-1.1281,8.2515,-1.0397
189931.0,-28.2827,10.8266,47.7093,-1.4266,5.468,-0.6694
189941.0,-27.0353,5.6671,55.6293,-1.6384,3.4087,-0.3129
189951.0,-24.8973,7.2592,51.0133,-0.1171,1.1781,0.0702
189961.0,-24.7417,6.0813,50.2184,0.3347,-1.1962,0.2639
189971.0,-23.4177,7.2305,40.8642,1.003,-3.6242,0.4922
189981.0,-22.9197,5.0063,35.0918,1.0946,-5.2429,0.6513
189991.0,-21.0929,4.7932,25.4216,1.6442,-6.1496,0.7886
190001.0,-18.6341,4.3742,17.2502,1.4708,-6.3901,0.804
190011.0,-15.5671,3.6559,11.8154,0.4677,-6.2449,0.6476
190021.0,-12.4858,2.5211,9.1842,-0.8567,-5.7622,0.3464
190031.0,-11.0923,1.1564,9.6534,-1.9225,-5.0652,-0.075
190041.0,-9.8857,1.8196,9.0118,-2.4222,-4.4431,-0.4895
190051.0,-9.6079,2.0016,11.157,-2.8883,-3.9632,-0.8402
190061.0,-9.2703,3.5602,11.2264,-2.999,-3.7668,-1.0531
190071.0,-9.4595,3.9744,13.5608,-3.2783,-3.8152,-1.1547
190081.0,-9.153,4.7094,13.8121,-3.215,-4.1766,-1.1174
190091.0,-8.8538,4.5562,14.4035,-3.016,-4.6539,-0.9913
190101.0,-8.5018,4.8746,12.7683,-2.4397,-5.1439,-0.7737
190111.0,-8.5138,4.9344,10.9654,-1.856,-5.5324,-0.5055
190121.0,-7.8171,5.0518,8.2456,-1.3186,-5.8862,-0.2134
190131.0,-6.9599,4.9105,5.3343,-0.936,-6.09,0.0921
190141.0,-5.9855,4.5203,2.5355,-0.7162,-6.0874,0.3884
190151.0,-5.1739,3.9696,0.5267,-0.6763,-5.9144,0.6407
190161.0,-4.1803,3.6679,-1.5634,-0.7934,-5.7037,0.8391
190171.0,-3.3016,3.2992,-2.4804,-1.1371,-5.4424,0.9823
190181.0,-2.6719,2.9401,-3.383,-1.4378,-5.1402,1.1105
190191.0,-2.4517,2.3894,-4.2377,-1.8241,-4.9002,1.2148
190201.0,-1.6328,1.4198,-4.7118,-2.2588,-4.7959,1.2765
190211.0,-0.3041,0.3089,-5.3391,-2.378,-4.5698,1.3271
190221.0,0.7278,-0.8092,-5.4827,-2.0699,-4.085,1.3659
190231.0,1.9345,-1.5562,-5.9759,-1.4889,-3.5274,1.3782
190241.0,2.2913,-1.7358,-6.6894,-0.9562,-3.0022,1.35
190251.0,2.66,-1.2306,-7.8889,-0.68,-2.5983,1.3
190261.0,2.5235,-0.6369,-10.8601,-0.9482,-2.4679,1.2712
190271.0,2.5809,-0.7997,-13.6039,-1.8523,-2.5068,1.2345
190281.0,2.0135,-0.9792,-16.8624,-2.8484,-2.477,1.2036
190291.0,2.9592,-2.7485,-18.7945,-3.3832,-2.3344,1.1941
190301.0,3.3806,-3.4548,-23.2429,-2.5664,-1.6719,1.21
190311.0,2.648,-3.6607,-28.9411,-0.912,-0.4991,1.2239
190321.0,1.0965,-3.4141,-36.3176,0.8338,1.0004,1.2074
190331.0,-2.4756,-2.9784,-42.4037,2.1476,3.0825,1.126
190341.0,-7.4388,-4.5298,-44.4747,3.0751,5.7447,0.9615
190351.0,-13.4674,-5.3127,-42.3271,3.9344,8.8645,0.5731
190361.0,-24.5645,-3.7709,-34.8715,5.153,12.4876,0.0372
190371.0,-39.6408,2.0087,-25.2732,6.6578,15.9527,-0.4949
190381.0,-48.2671,6.6367,-11.4754,7.4645,17.4357,-0.9791
190391.0,-50.793,15.3468,-4.3144,7.5108,17.4357,-1.5442
190401.0,-43.6032,17.844,9.845,4.1489,17.4357,-1.9678
190411.0,-54.7793,15.512,37.7518,2.5105,17.4357,-1.6405
190421.0,-53.8552,13.2974,51.935,0.7897,17.4357,-1.4128
190431.0,-47.4243,3.7637,76.8323,-2.6292,12.7409,-1.2914
190441.0,-40.9983,6.3782,73.8851,-2.4908,7.3091,-0.7194
190451.0,-37.8356,-0.1269,78.4508,-2.2812,2.8814,-0.1091
190461.0,-33.5954,0.7877,67.7056,0.4108,-1.5538,0.6518
190471.0,-33.2004,-0.4381,57.559,2.0316,-5.2232,1.0637
190481.0,-30.55,0.6033,39.8611,3.8509,-8.1403,1.359
190491.0,-27.4016,0.1604,25.7233,5.1806,-9.2763,1.5628
190501.0,-23.0083,0.0048,11.3198,6.1837,-9.1364,1.6698
190511.0,-16.1321,3.3615,-2.229,5.5622,-8.2866,1.5367
190521.0,-11.3557,2.5809,-3.4644,2.9415,-6.8424,1.1398
190531.0,-7.0437,2.9951,-6.0813,1.3638,-5.0529,0.763
190541.0,-5.7461,2.1859,-4.2162,-0.2171,-3.1027,0.3586
190551.0,-5.9496,1.1516,0.5435,-1.7714,-1.7294,-0.058
190561.0,-5.5737,0.1077,5.3247,-2.7148,-0.9637,-0.4119
190571.0,-6.0789,-0.0072,8.8346,-3.0841,-0.6391,-0.6822
190581.0,-6.4524,0.079,11.4203,-3.0368,-0.5534,-0.8328
190591.0,-6.6415,0.2059,13.4267,-2.7143,-0.6135,-0.8929
190601.0,-6.4093,0.6369,14.1473,-2.2429,-0.7944,-0.8908
190611.0,-6.426,0.5339,14.9159,-1.8486,-1.0153,-0.8583
190621.0,-5.9209,0.3567,15.0859,-1.4415,-1.2696,-0.8237
190631.0,-5.4636,0.158,15.4737,-1.1765,-1.55,-0.8487
190641.0,-5.1404,0.6249,15.3037,-1.0855,-1.9364,-0.9285
190651.0,-5.2912,1.1995,15.615,-1.2702,-2.4137,-1.0222
190661.0,-5.6072,1.8794,15.4139,-1.442,-2.9442,-1.0621
190671.0,-5.8514,2.5067,14.9255,-1.5,-3.4412,-1.0318
190681.0,-6.0645,3.0239,13.975,-1.4633,-3.9052,-0.9317
190691.0,-6.292,3.3998,12.7755,-1.4282,-4.3665,-0.7902
190701.0,-6.0382,3.6033,11.0612,-1.4154,-4.8204,-0.6151
190711.0,-5.679,3.7158,8.9854,-1.4277,-5.1806,-0.414
190721.0,-5.2529,3.6727,6.9312,-1.4745,-5.3967,-0.191
190731.0,-5.0733,3.644,4.9512,-1.5963,-5.5111,0.0394
190741.0,-4.5035,3.4165,3.2513,-1.8102,-5.6244,0.2677
190751.0,-3.45,2.6863,1.6041,-1.972,-5.6995,0.5124
190761.0,-2.5881,1.6472,0.2203,-1.8443,-5.5521,0.7737
190771.0,-1.6281,0.6345,-1.2857,-1.4223,-5.2057,1.0397
190781.0,-0.6321,-0.3136,-2.7533,-1.0562,-4.8284,1.2489
190791.0,0.0072,-0.8308,-4.968,-0.911,-4.5086,1.3963
190801.0,0.7733,-1.3431,-7.829,-1.2095,-4.2574,1.4889
190811.0,2.0159,-3.3208,-9.1315,-1.7964,-3.9312,1.5335
190821.0,3.3303,-4.47,-11.1929,-2.0556,-3.3103,1.5048
190831.0,3.9672,-5.952,-10.7739,-2.2418,-2.5935,1.3638
190841.0,4.8411,-6.6272,-10.9295,-2.0768,-1.9443,1.1706
190851.0,5.4708,-6.79,-12.4187,-1.9124,-1.5484,0.9594
190861.0,5.8227,-7.5106,-15.445,-2.0571,-1.4777,0.6923
190871.0,5.9185,-7.3813,-19.2254,-2.2099,-1.284,0.3177
190881.0,3.9935,-6.3853,-22.0434,-1.9433,-0.8056,-0.0628
190891.0,3.3112,-4.3838,-25.6706,-0.6332,-0.0234,-0.3294
190901.0,0.1556,-0.972,-31.1653,1.7299,1.5474,-0.3916
190911.0,-4.9895,1.7861,-35.8508,4.0308,3.6806,-0.2533
190921.0,-8.2528,2.5283,-41.6016,5.1828,5.8187,-0.0442
190931.0,-13.0676,1.4174,-40.0215,5.0609,8.5888,-0.0745
190941.0,-21.8591,1.3767,-31.965,4.7853,11.6213,-0.3315
190951.0,-30.7679,3.3615,-23.6427,4.6709,14.0079,-0.6513
190961.0,-39.3703,5.0973,-11.564,4.4485,15.7218,-0.9349
190971.0,-48.485,9.0501,-1.6209,4.9242,16.8265,-1.0993
190981.0,-55.6532,14.6956,7.4412,5.2328,17.4357,-1.0903
190991.0,-49.6773,14.9901,16.3931,4.491,17.4357,-0.7982
191001.0,-53.8025,13.5129,33.0232,4.54,17.4357,-0.5135
191011.0,-54.0635,9.9718,56.2566,2.2998,17.1532,-0.8423
191021.0,-48.3605,5.5545,75.6137,-0.3608,12.4344,-1.2451
191031.0,-44.762,5.9544,78.4508,-1.2153,7.3102,-1.3798
191041.0,-42.2936,5.1092,78.4508,-1.0733,2.0689,-1.1882
191051.0,-42.6982,7.0844,75.6065,-0.1293,-3.0181,-0.7764
191061.0,-44.774,7.7548,63.3458,0.5193,-7.4943,-0.2852
191071.0,-44.4005,7.3909,46.2775,1.6394,-10.8461,0.3751
191081.0,-41.5993,5.1451,31.455,2.9091,-12.4408,1.0531
191091.0,-35.9011,4.2641,14.8201,3.811,-12.9075,1.5612
191101.0,-29.4798,2.6528,4.6328,2.966,-12.7127,1.6405
191111.0,-22.1583,2.4876,-4.6567,1.6618,-12.0151,1.4042
191121.0,-15.342,2.6576,-11.7579,0.2554,-10.4831,1.0435
191131.0,-11.5281,2.557,-12.0476,-1.3133,-8.1493,0.6486
191141.0,-10.1347,2.4014,-8.7197,-2.8101,-6.2193,0.2703
191151.0,-8.0685,1.3599,-4.4891,-3.9632,-5.2759,-0.0537
191161.0,-6.7469,0.498,-0.7039,-4.1026,-4.457,-0.2235
191171.0,-6.3159,-0.1341,3.201,-3.3528,-3.7322,-0.241
191181.0,-5.5857,0.0599,4.9273,-2.1588,-3.4045,-0.1634
191191.0,-4.8147,0.1652,5.5689,-1.234,-3.4263,-0.0532
191201.0,-3.8164,0.261,5.3941,-0.6992,-3.6583,0.0607
191211.0,-2.4445,0.2011,4.7046,-0.439,-3.8866,0.1692
191221.0,-1.5634,0.1724,3.6799,-0.4257,-4.0611,0.2496
191231.0,-0.9601,0.0383,2.7461,-0.6699,-4.2095,0.2873
191241.0,-0.5842,0.0359,1.8052,-1.093,-4.3692,0.2873
191251.0,-0.3424,-0.4525,1.3647,-1.5607,-4.5288,0.2831
191261.0,-0.146,-1.4006,1.3455,-1.7389,-4.6171,0.299
191271.0,-0.0215,-2.1189,0.1748,-1.5149,-4.6783,0.3272
191281.0,0.5124,-2.7007,-1.5203,-1.2313,-4.7528,0.3139
191291.0,0.6464,-2.8228,-4.6471,-0.9871,-4.8305,0.2751
191301.0,3.146,-3.6392,-9.6391,-1.0397,-5.0141,0.2166
191311.0,3.2513,-2.8778,-17.6716,-1.2707,-4.6799,0.107
191321.0,4.9704,-4.0845,-21.3347,-2.3679,-4.4133,-0.1149
191331.0,6.1723,-4.118,-27.8661,-2.891,-3.9126,-0.3746
191341.0,4.367,-2.8228,-34.6417,-2.7473,-3.0256,-0.6497
191351.0,5.7078,-2.2003,-43.4931,-1.6953,-1.6815,-0.7455
191361.0,5.0566,-1.6879,-50.0364,0.2458,1.4473,-0.7391
191371.0,-4.6304,-0.6273,-47.8338,1.7219,5.1062,-0.8461
191381.0,-10.8529,3.6176,-44.8817,2.9452,8.2456,-1.0552
191391.0,-19.065,7.1706,-38.1301,3.7748,11.0839,-1.1988
191401.0,-31.3305,12.5025,-31.5915,4.7608,14.4963,-1.2233
191411.0,-43.8067,15.1768,-16.3644,4.5038,17.1814,-1.1382
191421.0,-48.0133,17.9996,-6.3422,3.9658,17.4357,-0.9317
191431.0,-66.5564,17.8129,7.7021,1.4958,17.4357,-0.7519
191441.0,-67.9139,9.8354,31.8453,-0.3028,17.4357,-0.1979
191451.0,-58.6939,9.9862,37.8332,0.4901,17.4357,0.2123
191461.0,-50.8097,-1.6879,71.17,-3.0235,15.8277,-0.2027
191471.0,-38.9776,-2.1787,78.4508,-3.5247,10.042,-0.2038
191481.0,-36.5355,-0.2442,78.4508,-2.9878,5.0572,-0.0239
191491.0,-34.4981,0.9505,76.0398,-1.2675,0.3384,0.5332
191501.0,-35.9202,3.9863,62.0098,0.3326,-3.803,1.1483
191511.0,-36.2578,2.4924,51.2455,0.8354,-7.1851,1.6921
191521.0,-33.2387,0.5243,36.186,2.369,-9.122,2.3541
191531.0,-28.9531,-2.5977,23.8846,3.8376,-9.4157,2.8436
191541.0,-22.4289,-2.5331,10.2975,4.2415,-9.0773,2.9516
191551.0,-16.2925,-3.3854,4.0366,2.5004,-8.3685,2.5579
191561.0,-10.7548,-3.7302,0.091,0.4214,-7.3357,1.9294
191571.0,-7.9272,-4.4341,0.2442,-1.267,-5.7543,1.2882
191581.0,-6.9815,-4.9105,2.9257,-2.3115,-4.2665,0.7184
191591.0,-7.0773,-5.0111,6.6966,-2.8958,-3.4332,0.2112
191601.0,-5.6336,-4.7525,8.691,-3.1357,-3.2938,-0.2192
191611.0,-6.2608,-4.889,12.6366,-2.9532,-3.2241,-0.5497
191621.0,-5.5522,-3.0957,11.1881,-2.1519,-3.4891,-0.7306
191631.0,-5.94,-2.8395,12.3206,-1.8778,-3.8275,-0.8982
191641.0,-5.1571,-1.4724,10.2161,-1.4724,-4.366,-1.0302
191651.0,-5.0661,-1.0247,9.6965,-1.1962,-4.6911,-1.1387
191661.0,-4.3239,0.1915,7.1275,-0.6135,-4.8747,-1.1621
191671.0,-3.8571,1.0678,5.0566,-0.3363,-4.9039,-1.1371
191681.0,-3.2178,2.4469,3.6344,-0.4395,-4.9481,-1.0733
191691.0,-2.7342,3.6368,2.8012,-0.7109,-4.9854,-0.9477
191701.0,-2.5019,4.3383,2.8252,-0.8743,-4.9774,-0.7375
191711.0,-1.9561,4.9249,1.5467,-0.7726,-4.9582,-0.4172
191721.0,-1.4964,4.4628,1.4317,-0.7098,-4.9082,-0.0649
191731.0,-0.4214,4.1611,-0.2155,-0.4874,-4.8821,0.2948
191741.0,0.6105,3.0718,-0.8428,-0.3017,-4.7166,0.6141
191751.0,2.047,2.3774,-2.6264,0.0947,-4.4256,0.9046
191761.0,3.3806,1.4676,-3.8044,0.3656,-3.9648,1.1334
191771.0,4.2713,0.7207,-4.7692,0.5231,-3.388,1.3053
191781.0,4.3191,0.1101,-5.1068,0.5215,-2.7526,1.409
191791.0,5.0661,-0.5722,-5.0996,0.4305,-2.1396,1.4676
191801.0,5.6072,-1.1133,-4.9105,0.2698,-1.5378,1.4857
191811.0,6.2608,-2.2122,-4.2617,0.0213,-0.9871,1.4745
191821.0,7.1036,-3.1029,-3.9744,-0.2692,-0.5555,1.3835
191831.0,7.671,-3.8523,-3.1795,-0.5949,-0.1447,1.2233
191841.0,7.7333,-4.3838,-1.9201,-0.7423,0.2826,1.0509
191851.0,7.4915,-4.6424,-0.7063,-0.6747,0.6556,0.8652
191861.0,7.0964,-4.7333,0.3903,-0.4432,0.944,0.6694
191871.0,6.9312,-4.5729,0.893,-0.1346,1.1302,0.4683
191881.0,6.6128,-4.3694,1.7262,0.224,1.3367,0.2724
191891.0,6.1507,-3.4548,1.4724,0.671,1.5293,0.1155
191901.0,5.6383,-2.9161,1.719,0.8769,1.6549,0.0043
191911.0,5.5306,-2.5977,1.3958,0.8865,1.6405,-0.0665
191921.0,5.2672,-2.8323,1.0822,0.7982,1.624,-0.132
191931.0,4.8842,-2.9975,0.146,0.8285,1.6921,-0.2315
191941.0,4.4843,-3.0023,-1.1013,0.9344,1.8576,-0.3757
191951.0,4.0989,-3.0598,-2.0973,1.0424,2.1226,-0.5726
191961.0,3.3255,-2.3655,-2.8635,1.2824,2.5478,-0.7934
191971.0,2.2386,-1.063,-3.814,1.5921,3.0533,-0.9871
191981.0,-0.0646,1.0726,-5.0949,1.6527,3.4768,-1.1036
191991.0,-2.8443,3.1675,-7.2065,1.1573,3.6503,-1.0924
192001.0,-6.4548,3.814,-8.6718,0.0745,3.6551,-0.9488
192011.0,-6.7564,2.7677,-10.1131,-0.5279,3.9951,-0.654
192021.0,-7.7931,1.3719,-9.0621,-0.3006,5.1418,-0.3986
192031.0,-9.5984,0.2729,-5.8347,0.9025,6.6716,-0.24
192041.0,-12.5384,1.063,-4.379,2.8383,8.0567,-0.2538
192051.0,-16.3356,3.7373,-6.4524,4.3447,9.0033,-0.4401
192061.0,-22.0219,6.0885,-6.9216,4.6507,10.1394,-0.6502
192071.0,-28.4934,6.9168,-2.4732,4.085,11.4841,-0.7662
192081.0,-32.882,6.5984,3.8116,3.8014,12.9867,-0.8615
192091.0,-36.66,6.5266,13.3213,3.5311,14.3889,-1.1691
192101.0,-41.6016,8.1906,25.8167,2.8452,15.1865,-1.648
192111.0,-44.1994,9.0237,43.2513,1.2819,14.433,-2.1662
192121.0,-42.7173,9.6127,57.8583,-0.3299,11.9566,-2.4461
192131.0,-39.5833,8.3701,69.4151,-1.7187,8.376,-2.4328
192141.0,-35.1924,7.4148,73.9808,-2.2487,4.1026,-2.1891
192151.0,-33.7894,7.9344,71.3544,-2.2977,-0.1197,-1.8773
192161.0,-34.431,7.8817,65.2923,-2.4403,-4.1734,-1.5506
192171.0,-35.7909,7.9655,54.322,-2.303,-7.8854,-1.135
192181.0,-36.5906,6.7684,41.2976,-1.7384,-10.6864,-0.622
192191.0,-36.1477,4.5442,29.4176,-0.572,-12.2083,-0.0314
192201.0,-34.4143,2.7797,18.8639,0.8184,-12.8154,0.4997
192211.0,-31.3928,1.8172,8.6503,1.6261,-13.0224,0.8386
192221.0,-26.2979,1.3431,-1.2234,1.3457,-13.0761,0.9237
192231.0,-20.9684,0.1221,-8.4994,0.4331,-12.5579,0.796
192241.0,-11.5281,-0.2083,-14.1761,-0.1357,-11.086,0.5646
192251.0,-12.9957,1.8747,-13.8552,-0.8924,-8.5867,0.2623
192261.0,-9.0094,0.8835,-11.6957,-2.6281,-7.9657,-0.0798
192271.0,-5.3151,2.0039,-11.224,-3.0304,-6.7749,-0.3704
192281.0,-5.1906,2.8036,-8.4755,-2.9947,-5.4025,-0.4566
192291.0,-3.292,2.5833,-6.1028,-2.8899,-4.773,-0.3597
192301.0,-2.9401,2.6624,-4.8698,-2.5047,-4.3245,-0.1735
192311.0,-2.5666,2.296,-4.4891,-2.2072,-4.3218,0.0458
192321.0,-1.3982,1.7526,-7.4771,-1.847,-4.6134,0.3017
192331.0,0.7542,0.2729,-11.7699,-1.5623,-4.8726,0.5396
192341.0,1.5155,-1.0415,-16.4266,-1.2063,-4.6086,0.6848
192351.0,2.5977,-2.9521,-20.9708,-0.8642,-4.3027,0.7082
192361.0,4.0869,-4.4963,-27.3681,-0.1554,-3.6625,0.5715
192371.0,4.6902,-4.5059,-35.5204,0.4762,-2.5967,0.2517
192381.0,4.616,-3.5961,-41.865,0.7008,-1.0882,-0.1543
192391.0,0.9912,-1.0606,-45.3677,1.1142,1.3266,-0.4848
192401.0,-3.4477,1.2785,-46.8857,1.5889,4.06,-0.6529
192411.0,-10.2424,2.8084,-45.1331,2.088,7.283,-0.7029
192421.0,-20.3699,3.6224,-39.3966,2.8106,11.0701,-0.6981
192431.0,-33.629,4.786,-30.0927,3.5258,15.0269,-0.7593
192441.0,-46.7492,6.0118,-15.603,3.4444,17.4357,-0.97
192451.0,-48.5424,8.3151,-4.276,2.9931,17.4357,-1.2781
192461.0,-66.6594,10.0006,9.2895,1.2813,17.4357,-1.6091
192471.0,-73.8108,5.782,39.4421,-0.1612,17.4357,-1.5006
192481.0,-62.4815,8.0565,51.7124,0.1437,17.4357,-1.21
192491.0,-53.4865,-0.0335,78.4508,-2.6457,14.4064,-1.3255
192501.0,-43.2249,0.4046,78.4508,-2.9703,8.0163,-1.0562
192511.0,-40.6057,0.6033,78.4508,-2.8026,2.6233,-0.6444
192521.0,-39.3894,0.5411,72.9633,-0.9301,-1.8283,0.1517
192531.0,-38.4102,-0.8691,59.8814,1.3771,-5.096,1.0509
192541.0,-36.7821,-3.7086,49.5672,2.5956,-7.4911,1.5836
192551.0,-33.3417,-5.2601,37.0335,3.2166,-9.4711,1.7219
192561.0,-29.6953,-5.9783,25.4982,3.066,-10.704,1.4649
192571.0,-24.9308,-4.4341,14.4682,2.3551,-11.1696,0.9371
192581.0,-21.5406,-3.9361,9.6319,1.0339,-10.8434,0.2309
192591.0,-18.6604,-1.7885,5.5258,0.0303,-10.3613,-0.4613
192601.0,-17.03,-0.3496,2.229,-0.7476,-9.9191,-1.0483
192611.0,-14.121,1.731,-1.5443,-1.3292,-9.4391,-1.5117
192621.0,-12.5025,2.8563,-1.6688,-1.6575,-8.5287,-1.8017
192631.0,-10.5848,4.6064,-2.988,-1.5123,-7.6369,-1.8624
192641.0,-8.6191,5.0087,-1.9944,-1.499,-6.9121,-1.7863
192651.0,-7.2472,6.517,-2.9951,-1.2755,-6.3997,-1.5484
192661.0,-6.0166,7.0868,-3.7397,-1.1765,-5.9432,-1.1749
192671.0,-3.2848,6.4763,-4.9201,-1.0371,-5.4824,-0.7615
192681.0,-0.0048,5.5162,-6.2345,-0.7386,-4.7965,-0.3821
192691.0,1.3192,4.9321,-6.4284,-0.4592,-3.7876,-0.0692
192701.0,2.0446,4.2138,-5.1787,-0.5885,-3.0676,0.1554
192711.0,2.8108,3.2657,-3.2633,-0.8168,-2.6494,0.3187
192721.0,3.1244,2.7653,-2.1452,-0.7492,-2.2913,0.473
192731.0,3.5195,2.3511,-1.0846,-0.6502,-2.0375,0.6029
192741.0,3.8092,2.2003,-0.5459,-0.6981,-2.0114,0.704
192751.0,3.9217,1.7382,-0.3903,-1.0408,-2.2828,0.7646
192761.0,4.4197,1.4174,-1.3695,-1.5176,-2.7824,0.7764
192771.0,4.4125,0.7302,-2.6384,-1.8698,-3.2161,0.7902
192781.0,4.1468,0.2873,-4.6998,-1.8198,-3.4534,0.8131
192791.0,4.1563,-0.8068,-6.8019,-1.4931,-3.5252,0.8402
192801.0,4.1539,-0.972,-10.0413,-0.6071,-3.2677,0.8849
192811.0,3.3998,-1.5371,-12.5576,0.2661,-2.8851,0.878
192821.0,4.5945,-1.3384,-19.4146,0.9823,-2.6904,0.8173
192831.0,4.0725,-1.4844,-25.0649,1.2255,-2.0343,0.6689
192841.0,3.8499,-1.1061,-31.3138,1.1845,-1.0648,0.4571
192851.0,4.0821,-0.6919,-36.0279,1.2169,0.5348,0.2272
192861.0,-0.1891,0.17,-36.7654,1.64,3.0304,0.0192
192871.0,-4.6088,1.6424,-35.3504,2.1811,5.5803,-0.1607
192881.0,-10.4148,2.7725,-32.4438,2.867,8.1674,-0.2581
192891.0,-20.7003,3.7206,-28.7759,3.8807,11.1967,-0.2794
192901.0,-32.281,4.5442,-22.9748,4.6922,14.5235,-0.331
192911.0,-43.6295,4.1084,-11.3126,4.8044,17.1654,-0.5523
192921.0,-45.1786,5.7197,-2.9497,4.1425,17.4357,-1.1419
192931.0,-50.6254,6.3542,11.0564,2.386,17.4357,-1.8172
192941.0,-60.8606,6.6726,36.5666,1.4883,17.4357,-2.1396
192951.0,-54.2047,12.2152,49.4618,1.4708,17.4357,-2.1141
192961.0,-47.3549,9.335,70.9067,-0.704,13.3981,-2.0822
192971.0,-39.7964,11.3485,77.4668,-1.1169,8.2382,-1.5261
192981.0,-35.3145,13.4482,78.2688,-0.3863,3.4997,-0.5805
192991.0,-32.5971,12.8401,71.4047,1.2457,-0.7497,0.6795
193001.0,-31.2874,11.2384,60.3315,2.576,-4.4336,1.8273
193011.0,-30.131,6.6607,47.5321,3.1602,-7.6816,2.6196
193021.0,-26.9539,2.7246,31.4,3.6253,-9.8797,3.0001
193031.0,-20.8822,-0.079,15.8712,3.6381,-10.7093,2.9101
193041.0,-13.7379,-0.7207,2.6145,3.1735,-10.3267,2.4488
193051.0,-9.0453,0.759,-7.7668,2.2445,-8.7384,1.7836
193061.0,-4.6926,0.8667,-11.0708,0.5752,-6.3332,1.044
193071.0,-3.5458,2.569,-10.7763,-1.1291,-3.8573,0.3022
193081.0,-3.8978,2.7749,-5.3199,-3.0208,-2.0135,-0.3022
193091.0,-3.5674,2.9664,0.8428,-3.9557,-0.6236,-0.6561
193101.0,-4.2617,3.6392,6.462,-3.8775,0.4848,-0.7716
193111.0,-4.7884,4.0438,12.0045,-3.4433,0.9775,-0.7146
193121.0,-5.2648,4.8315,16.1034,-2.8452,0.9498,-0.547
193131.0,-5.5593,4.6519,19.7929,-2.5478,0.2879,-0.348
193141.0,-4.6807,4.8339,20.2765,-2.2987,-0.7992,-0.1527
193151.0,-4.6855,4.4436,20.2047,-2.1178,-1.8262,0.0335
193161.0,-5.2289,4.1037,18.1433,-1.7842,-2.7053,0.2485
193171.0,-5.3032,3.5195,16.9486,-1.4479,-3.3034,0.4603
193181.0,-4.3287,2.4995,14.4562,-1.0302,-3.762,0.6481
193191.0,-3.4237,1.5251,12.6366,-0.9716,-4.1483,0.705
193201.0,-2.7964,1.2306,10.5225,-1.2515,-4.6273,0.6199
193211.0,-2.466,0.9697,8.8107,-1.6394,-5.0742,0.4608
193221.0,-2.1883,1.154,6.3853,-1.7102,-5.2865,0.3315
193231.0,-1.9561,1.573,4.1084,-1.5884,-5.2003,0.2591
193241.0,-1.5179,2.1404,2.0399,-1.4825,-4.9678,0.2464
193251.0,-0.972,2.6576,0.5387,-1.5575,-4.6826,0.2975
193261.0,-0.972,2.5738,-0.0263,-1.7182,-4.3532,0.4182
193271.0,-0.4741,2.0662,-0.5842,-1.7826,-4.0382,0.5731
193281.0,0.1676,1.1732,-0.8715,-1.7719,-3.7525,0.7184
193291.0,1.1684,0.0048,-1.8555,-1.7432,-3.5875,0.8429
193301.0,2.3774,-1.6759,-2.1931,-1.7113,-3.4204,0.8929
193311.0,3.6272,-2.5067,-3.7757,-1.3532,-3.1474,0.8828
193321.0,4.2521,-3.0263,-5.1164,-0.911,-2.6904,0.8344
193331.0,4.4388,-2.9568,-6.3398,-0.5092,-2.1465,0.7668
193341.0,4.3096,-3.1149,-6.8666,-0.2746,-1.6932,0.7146
193351.0,4.5729,-3.4165,-9.1578,-0.0665,-1.4138,0.6944
193361.0,5.102,-4.3383,-13.2663,-0.1,-1.2499,0.6635
193371.0,5.6671,-5.7389,-17.8512,-0.2272,-0.8242,0.572
193381.0,6.0358,-6.7038,-24.0952,-0.2634,-0.0548,0.3677
193391.0,4.9799,-7.1706,-29.463,-0.5534,0.9786,0.0452
193401.0,2.2577,-6.4141,-31.0648,-0.4262,2.8207,-0.3017
193411.0,-3.7709,-3.869,-29.9156,0.5156,5.27,-0.5188
193421.0,-8.6431,-2.0949,-26.7384,1.723,7.5411,-0.5965
193431.0,-13.4434,0.103,-22.7928,2.834,9.726,-0.6737
193441.0,-19.4289,2.9975,-15.6772,3.3672,11.6873,-0.8306
193451.0,-24.689,5.5641,-6.1028,3.6716,12.7851,-0.9514
193461.0,-28.4168,9.7971,-1.403,3.787,13.2922,-0.9855
193471.0,-35.9944,10.2975,7.2137,2.7899,13.4252,-0.9099
193481.0,-41.7453,9.4499,18.1816,2.4924,13.5742,-0.6843
193491.0,-38.6424,12.2104,22.2733,3.3938,13.4582,-0.4044
193501.0,-36.332,9.7157,33.7511,2.6457,12.4839,-0.4076
193511.0,-33.2722,11.0061,42.0733,2.1497,10.9839,-0.4129
193521.0,-31.8477,11.6382,50.3525,1.8416,9.2364,-0.3523
193531.0,-29.0728,11.4203,55.3204,1.4851,6.761,-0.2001
193541.0,-26.1686,10.7452,58.2126,0.7684,3.7503,-0.0788
193551.0,-24.4113,9.9479,56.5032,0.0117,0.3991,0.0426
193561.0,-24.2892,9.7899,50.4099,-0.4172,-2.7537,0.1963
193571.0,-24.4472,9.596,40.4907,-0.3272,-5.2424,0.4933
193581.0,-23.0562,7.185,30.3657,0.1942,-6.636,0.9206
193591.0,-18.6939,4.4149,20.9756,0.8152,-7.0537,1.2829
193601.0,-15.4665,1.6568,14.109,0.9514,-6.8424,1.351
193611.0,-12.5672,0.1101,8.9807,0.3437,-6.5125,1.0967
193621.0,-10.6853,-1.2522,7.0222,-0.5518,-6.0373,0.6369
193631.0,-8.7987,-1.0774,4.8147,-0.9892,-5.3717,0.157
193641.0,-7.4962,-0.4764,4.1468,-1.359,-4.5384,-0.2943
193651.0,-6.699,0.9313,4.4532,-1.7932,-3.827,-0.6784
193661.0,-6.6559,2.0949,6.6607,-2.2466,-3.3097,-0.9461
193671.0,-6.3518,2.8754,7.9368,-2.3482,-3.0538,-1.0408
193681.0,-6.0669,3.3184,9.7755,-2.2998,-2.9011,-1.0206
193691.0,-5.7724,3.6129,10.7931,-2.0667,-2.9096,-0.9088
193701.0,-5.4109,3.5889,11.6167,-1.8241,-3.0469,-0.7604
193711.0,-5.1811,3.5578,11.6693,-1.5719,-3.2954,-0.5992
193721.0,-4.8028,3.3327,11.1115,-1.4165,-3.6184,-0.4363
193731.0,-4.1276,2.739,10.4315,-1.4138,-3.9839,-0.3102
193741.0,-3.4213,2.2769,9.1147,-1.4537,-4.3436,-0.2309
193751.0,-2.7773,1.8507,7.8889,-1.5091,-4.6145,-0.1873
193761.0,-2.4205,1.6472,6.4596,-1.4404,-4.7459,-0.1346
193771.0,-2.3774,1.2929,5.4731,-1.2228,-4.7289,-0.0575
193781.0,-1.8459,1.1588,4.0606,-0.878,-4.6278,0.0404
193791.0,-1.2115,0.8691,3.0239,-0.6295,-4.4681,0.141
193801.0,-0.158,0.5698,1.652,-0.5193,-4.3266,0.223
193811.0,0.7518,0.2777,0.7925,-0.6364,-4.1755,0.24
193821.0,1.5945,0.2849,0.0215,-0.8418,-4.0462,0.2086
193831.0,2.1356,0.2873,-0.4741,-1.0871,-3.9158,0.165
193841.0,2.4277,0.6895,-1.6855,-1.3441,-3.8472,0.1362
193851.0,2.7653,0.5578,-3.0454,-1.7826,-3.8711,0.1405
193861.0,3.371,-0.4549,-4.0749,-2.2248,-3.8924,0.1591
193871.0,4.8411,-2.0207,-5.6,-2.2232,-3.7658,0.1772
193881.0,6.3853,-3.0598,-6.8378,-1.3149,-3.0181,0.1825
193891.0,5.0278,-2.7174,-7.6734,-0.2911,-1.9433,0.124
193901.0,6.8402,-2.7797,-9.1578,0.1532,-1.5383,0.0085
193911.0,6.7684,-1.5897,-11.1067,0.4347,-0.845,-0.1293
193921.0,6.0501,-0.6177,-13.2256,0.1091,-0.3315,-0.2224
193931.0,5.7796,-0.6345,-14.0372,-0.6236,0.0692,-0.2911
193941.0,4.9321,-0.2131,-14.6238,-1.085,0.6582,-0.339
193951.0,4.4628,0.1867,-15.1266,-1.168,1.2446,-0.34
193961.0,3.1556,1.4724,-16.6876,-0.8365,1.938,-0.2735
193971.0,1.3958,2.5738,-17.9637,-0.4188,2.692,-0.1086
193981.0,-1.561,3.5961,-19.0483,0.1761,3.5987,0.1538
193991.0,-4.2784,4.0247,-20.0155,1.0584,4.6767,0.4821
194001.0,-7.9871,4.4317,-21.0857,2.3392,6.1837,0.7939
194011.0,-14.0492,5.0853,-21.9117,3.7663,8.2759,1.0355
194021.0,-21.1312,5.3032,-21.7944,4.6379,10.5358,1.1361
194031.0,-29.8389,5.8347,-17.8224,4.7119,13.1017,1.0685
194041.0,-36.6672,4.6519,-9.9838,4.2175,15.186,0.8764
194051.0,-43.6391,5.0949,-0.012,3.1432,16.7621,0.389
194061.0,-50.6254,6.7876,10.3238,1.9284,17.4357,-0.1048
194071.0,-56.405,6.6487,26.851,0.2772,17.4357,-0.4177
194081.0,-53.3165,9.7181,37.6057,0.6391,17.1867,-0.2559
194091.0,-49.6126,7.6471,55.2941,-0.911,14.6198,-0.3219
194101.0,-42.6503,4.3958,69.3528,-1.9364,10.6657,-0.1006
194111.0,-38.743,6.4835,72.4007,-1.3681,6.5993,0.2708
194121.0,-36.3009,3.5626,75.5586,-0.8402,2.3541,0.7497
194131.0,-35.0727,3.7972,66.5756,0.2719,-1.9715,1.2356
194141.0,-35.6904,0.9002,59.0889,0.3448,-6.0629,1.4447
194151.0,-35.5276,1.1947,42.3055,1.0818,-9.4051,1.5926
194161.0,-34.1844,-0.735,28.8669,1.5469,-11.1861,1.6575
194171.0,-29.9443,-0.6273,13.2902,2.1402,-11.6788,1.64
194181.0,-25.2708,-0.7063,4.1228,1.583,-10.995,1.3936
194191.0,-20.0921,-0.6752,-1.1899,0.4039,-9.9393,0.9429
194201.0,-15.9621,0.2322,-4.2114,-0.7178,-8.5766,0.4209
194211.0,-13.0316,1.1947,-4.9033,-1.8087,-7.1127,-0.033
194221.0,-10.8553,1.5012,-3.474,-2.8362,-5.8378,-0.3698
194231.0,-8.7987,1.2689,-0.838,-3.6434,-4.9407,-0.6199
194241.0,-7.2329,0.8547,2.1261,-4.0089,-4.3756,-0.7966
194251.0,-6.3207,0.6297,4.9129,-3.828,-4.068,-0.8924
194261.0,-5.6336,0.6201,6.7732,-3.1267,-3.9877,-0.8934
194271.0,-4.8842,0.7709,7.367,-2.1402,-4.0611,-0.8141
194281.0,-4.2138,1.0918,6.7014,-1.1573,-4.2095,-0.6811
194291.0,-3.462,1.3168,5.612,-0.4065,-4.3569,-0.5172
194301.0,-2.411,1.6185,4.2425,0.0937,-4.4735,-0.34
194311.0,-1.4796,2.0159,2.5546,0.2985,-4.5416,-0.1479
194321.0,-0.6393,2.2003,0.5626,0.1128,-4.5746,0.05
194331.0,0.1173,1.8866,-0.8164,-0.4539,-4.5671,0.1921
194341.0,0.9529,1.0702,-1.1396,-1.1063,-4.4894,0.2618
194351.0,1.7549,0.237,-1.1133,-1.516,-4.3553,0.2778
194361.0,1.8483,-0.1221,-0.8978,-1.6788,-4.2223,0.2528
194371.0,2.1835,-0.0527,-1.245,-1.6389,-4.1904,0.2336
194381.0,2.5091,0.2298,-2.0375,-1.5272,-4.2234,0.2543
194391.0,2.1739,0.2179,-3.5314,-1.383,-4.2894,0.3437
194401.0,1.664,0.1006,-6.8163,-1.2744,-4.4336,0.4619
194411.0,4.1994,-2.0925,-10.8098,-1.2643,-4.6773,0.5624
194421.0,5.3798,-1.7597,-17.9206,-0.6848,-3.8892,0.6231
194431.0,5.5929,-3.3232,-20.7841,-0.5342,-2.8197,0.58
194441.0,7.1946,-4.0007,-24.7489,-0.2033,-1.6629,0.4353
194451.0,6.7732,-3.1747,-28.0385,0.1032,-0.1309,0.2267
194461.0,4.2713,-2.1524,-29.1303,0.1421,1.4404,0.0591
194471.0,1.1995,-0.9553,-28.6993,0.2719,3.041,-0.0048
194481.0,-2.624,-0.1389,-27.8972,0.7019,4.6704,0.0484
194491.0,-6.5577,-0.6369,-26.5756,1.3521,6.2651,0.1341
194501.0,-11.5089,-0.4118,-24.9476,2.4105,8.2775,0.0947
194511.0,-19.1919,1.3838,-21.8231,3.4571,10.5779,-0.0952
194521.0,-27.2771,3.9744,-16.927,4.1468,12.7042,-0.3086
194531.0,-35.1253,5.5881,-10.3549,4.4681,14.4373,-0.4661
194541.0,-39.5402,8.272,-5.4324,4.3591,15.9059,-0.6635
194551.0,-46.2344,8.4659,7.4675,3.1804,17.1197,-0.8711
194561.0,-46.4427,9.4834,17.2813,1.6176,16.9755,-0.961
194571.0,-47.9822,8.0709,35.4078,0.9307,17.0308,-0.8024
194581.0,-45.8035,8.2528,49.7994,0.3874,14.9034,-0.6721
194591.0,-41.5011,5.5426,64.6794,-0.2964,11.566,-0.4624
194601.0,-37.17,7.331,68.5412,0.3677,7.8598,-0.0894
194611.0,-33.7487,6.7349,71.7111,0.8359,3.952,0.3352
194621.0,-31.9626,6.936,66.1015,1.4457,0.0144,0.7721
194631.0,-32.123,5.43,61.4208,1.2308,-3.7338,1.0397
194641.0,-32.3505,4.7501,49.3373,1.5155,-7.2016,1.2882
194651.0,-31.2587,2.4229,36.5475,2.0247,-9.5472,1.4878
194661.0,-28.6155,1.1444,22.9173,2.8548,-10.5034,1.6017
194671.0,-22.855,1.5203,11.2815,2.9431,-10.4193,1.5027
194681.0,-18.3204,1.1732,4.9033,1.9635,-9.6669,1.118
194691.0,-13.86,2.0853,-0.4597,0.6194,-8.7602,0.555
194701.0,-10.8721,3.2896,-2.3056,-0.912,-7.4916,-0.0399
194711.0,-9.5313,4.3335,-1.585,-2.1322,-6.0161,-0.5055
194721.0,-9.1435,4.9488,1.5921,-3.0533,-4.7752,-0.8046
194731.0,-8.6311,5.3965,5.138,-3.6269,-4.1095,-0.9482
194741.0,-8.3773,5.5306,8.1714,-3.7849,-3.8983,-0.9323
194751.0,-8.2672,5.2888,10.4507,-3.3805,-3.8717,-0.7529
194761.0,-8.0062,4.9584,11.6215,-2.5249,-3.9605,-0.4587
194771.0,-7.1395,4.2066,11.1833,-1.6283,-4.2175,-0.1203
194781.0,-6.2944,3.1771,10.058,-1.1164,-4.6283,0.1421
194791.0,-5.454,2.3152,8.3893,-0.9764,-5.0934,0.2879
194801.0,-4.7692,1.5945,6.6631,-1.035,-5.4414,0.3459
194811.0,-4.4891,1.3551,5.0853,-1.1244,-5.6532,0.3565
194821.0,-4.1276,1.1803,3.237,-1.2286,-5.8192,0.3608
194831.0,-3.541,0.8835,1.8483,-1.3909,-5.9352,0.3586
194841.0,-2.6815,0.5291,-0.2801,-1.5155,-6.0235,0.3634
194851.0,-1.7119,0.0192,-2.2075,-1.6809,-6.0081,0.3565
194861.0,-1.1349,-0.3208,-4.3455,-1.8289,-5.8713,0.3262
194871.0,-1.1109,-0.4142,-6.5481,-2.0651,-5.6952,0.2677
194881.0,-0.8021,-0.5411,-8.8562,-2.4695,-5.5882,0.1788
194891.0,0.5794,-1.2067,-11.5305,-2.6584,-5.3988,0.1213
194901.0,2.0806,-2.071,-14.6334,-2.7159,-4.9737,0.0665
194911.0,4.1132,-3.5769,-17.3268,-2.5616,-4.3224,-0.0383
194921.0,6.6822,-4.8291,-19.5343,-1.9885,-3.3598,-0.2389
194931.0,8.7747,-5.2696,-23.1376,-1.2004,-2.2386,-0.5018
194941.0,8.734,-4.2497,-26.1782,-0.5954,-0.8508,-0.8093
194951.0,7.5657,-2.2003,-27.1287,-0.3246,0.7764,-1.077
194961.0,5.284,-0.3591,-25.3187,-0.2639,2.2631,-1.2084
194971.0,2.2577,2.3367,-23.4512,0.1979,3.7365,-1.1898
194981.0,-0.2921,4.4796,-21.318,0.8849,5.0178,-1.0121
194991.0,-2.1548,6.1746,-20.3459,1.7464,6.1768,-0.6955
195001.0,-4.6088,7.434,-19.4002,2.5893,7.4469,-0.3294
195011.0,-9.675,8.102,-17.5878,3.2001,8.724,0.0128
195021.0,-16.2447,8.5593,-15.6389,3.6381,10.0277,0.2879
195031.0,-23.6044,8.5234,-13.0484,3.9424,11.4516,0.5183
195041.0,-30.0568,6.6319,-8.3486,4.2941,13.0639,0.713
195051.0,-33.6529,5.7245,-4.5657,4.7677,14.7443,0.6981
195061.0,-35.6114,5.7676,2.7366,3.9291,16.0565,0.3219
195071.0,-32.2667,2.8754,16.3141,1.5995,15.998,-0.2022
195081.0,-35.9633,4.3144,32.6737,1.3957,16.3726,-0.5699
195091.0,-37.2227,7.0294,45.1642,0.779,14.4032,-0.9738
195101.0,-34.862,5.6168,58.5502,-0.7396,10.9264,-1.1462
195111.0,-32.4055,9.4475,59.9748,-0.8604,7.2208,-0.9668
195121.0,-33.6721,9.0764,62.5294,-0.572,3.9563,-0.4581
195131.0,-33.277,11.2551,55.658,1.0493,1.1079,0.3661
195141.0,-28.6993,7.6591,52.7778,2.0944,-1.1329,1.1616
195151.0,-24.7129,5.4564,44.9344,2.8612,-3.1655,1.649
195161.0,-23.2932,3.7924,39.32,2.3908,-4.9816,1.6134
195171.0,-21.8351,3.6009,31.036,1.5969,-6.6759,1.3282
195181.0,-20.2286,3.4046,23.0418,0.6997,-7.7449,0.9488
195191.0,-17.7865,3.5817,15.5671,-0.033,-8.128,0.5539
195201.0,-15.8999,3.9049,11.3006,-0.6976,-7.8827,0.1873
195211.0,-14.4299,4.8483,7.774,-1.0318,-7.3831,-0.0809
195221.0,-12.9311,4.6471,5.3032,-1.2771,-6.8557,-0.2256
195231.0,-11.2575,4.2569,4.2186,-1.4527,-6.2082,-0.298
195241.0,-9.4858,4.4628,3.723,-1.4857,-5.5563,-0.331
195251.0,-7.8817,5.102,3.2968,-1.5649,-5.0247,-0.3113
195261.0,-6.4212,5.2194,3.3662,-1.7687,-4.6406,-0.2565
195271.0,-5.217,5.1739,4.0199,-1.9858,-4.3341,-0.1868
195281.0,-4.7333,5.2241,4.865,-2.0774,-4.1063,-0.0851
195291.0,-4.3239,5.1715,5.8227,-2.0465,-4.0137,0.0628
195301.0,-3.8451,4.9823,6.5936,-1.8502,-4.0371,0.2719
195311.0,-3.5698,4.7573,6.6535,-1.5623,-4.1845,0.531
195321.0,-3.0311,4.1611,5.6527,-1.3473,-4.4607,0.7955
195331.0,-2.794,3.2848,4.7525,-1.3505,-4.7661,1.0068
195341.0,-2.0662,2.4134,2.8778,-1.3904,-5.1046,1.1627
195351.0,-1.245,1.6233,0.9553,-1.4649,-5.3163,1.2531
195361.0,-0.3807,1.4796,-0.6177,-1.5043,-5.3717,1.2877
195371.0,-0.1844,1.1995,-2.7102,-1.4793,-5.3057,1.3313
195381.0,-0.4166,1.4724,-3.2346,-1.5639,-5.1338,1.3521
195391.0,-0.5291,1.9249,-4.3958,-1.5697,-5.0705,1.425
195401.0,-1.0032,2.0446,-5.6958,-1.7113,-5.104,1.5564
195411.0,-1.9513,2.2362,-9.4284,-1.9326,-5.3296,1.7129
195421.0,0.6369,0.1101,-13.7427,-2.2136,-5.5792,1.9177
195431.0,1.1851,-1.0008,-19.6277,-2.0476,-4.7656,2.1034
195441.0,2.1261,-4.142,-23.7409,-2.2663,-4.1569,2.1109
195451.0,5.1619,-6.7229,-29.3098,-1.9396,-3.0841,1.93
195461.0,5.9927,-8.1906,-33.5906,-1.1488,-1.1515,1.6075
195471.0,6.4859,-9.7205,-35.0751,-0.199,0.9152,1.2047
195481.0,4.2593,-9.8234,-35.7789,1.2494,3.4167,0.7806
195491.0,-0.8523,-9.3374,-33.0591,2.7893,6.1858,0.2996
195501.0,-6.4069,-7.9464,-29.0177,4.1675,8.667,-0.2629
195511.0,-13.9941,-4.2904,-25.4408,5.2658,10.9083,-0.8493
195521.0,-23.5374,0.7111,-18.895,5.8484,13.0256,-1.3367
195531.0,-30.3393,2.8395,-10.9798,6.3311,14.598,-1.64
195541.0,-35.5659,7.1706,-7.6207,6.6498,15.4754,-2.1402
195551.0,-36.4278,12.8401,-4.7262,5.6755,16.5625,-2.5972
195561.0,-37.2083,10.9223,10.8649,1.7624,16.636,-2.7175
195571.0,-39.9927,8.2193,35.2426,0.0553,16.5891,-2.3365
195581.0,-39.7294,11.7124,46.0213,0.2139,14.573,-1.9566
195591.0,-36.2865,8.6957,62.4887,-0.7274,10.9477,-1.5133
195601.0,-32.0081,11.576,60.6619,0.1692,6.8573,-0.7987
195611.0,-29.2835,9.7372,65.9459,0.9339,3.6556,-0.0309
195621.0,-26.8462,11.7843,56.903,3.0618,0.597,0.8801
195631.0,-26.1567,10.2232,52.5312,3.5774,-2.154,1.5373
195641.0,-23.8606,8.3701,43.1794,3.8993,-4.8438,2.047
195651.0,-21.543,6.1938,33.4709,4.126,-6.6599,2.3189
195661.0,-18.081,4.7597,21.8112,4.2803,-7.5587,2.3605
195671.0,-14.2814,5.1188,12.3373,3.7195,-7.6188,2.1418
195681.0,-11.5736,5.5569,5.6551,2.5382,-7.0532,1.7437
195691.0,-9.73,4.9943,2.1189,1.2446,-6.0012,1.2984
195701.0,-7.2329,4.9153,-0.9553,0.124,-4.6884,0.845
195711.0,-5.375,4.3072,0.2514,-1.1451,-3.1661,0.3773
195721.0,-5.4492,3.8044,4.2066,-2.0832,-1.732,-0.0532
195731.0,-5.8658,3.8666,8.5042,-2.6467,-0.7843,-0.4422
195741.0,-5.545,4.5801,12.5289,-3.2118,-0.5305,-0.8216
195751.0,-5.6455,5.7317,15.8185,-3.7152,-0.6987,-1.0834
195761.0,-6.1723,6.4955,18.9142,-3.9584,-1.0323,-1.1632
195771.0,-6.8235,7.1491,21.1121,-3.8935,-1.5394,-1.0802
195781.0,-7.4029,7.4148,22.6683,-3.745,-2.3365,-0.8987
195791.0,-8.0158,7.3478,22.1272,-3.5449,-3.4582,-0.6465
195801.0,-8.3725,6.4308,20.808,-3.2948,-4.5714,-0.3693
195811.0,-7.9511,5.3463,18.2055,-2.7633,-5.5302,-0.0963
195821.0,-7.6112,4.6184,14.3197,-2.1519,-6.2853,0.1309
195831.0,-7.7548,4.0701,10.5489,-1.7347,-6.8595,0.2959
195841.0,-7.3694,3.7709,6.7181,-1.4335,-7.2655,0.4289
195851.0,-6.4093,3.3567,2.9904,-1.1696,-7.4283,0.5651
195861.0,-5.4564,3.3184,-1.2498,-0.9786,-7.349,0.721
195871.0,-4.3239,2.8778,-4.6376,-1.1275,-7.0718,0.8743
195881.0,-3.2489,2.4565,-8.3055,-1.5426,-6.6892,0.9988
195891.0,0.7254,0.3855,-10.4196,-2.1002,-6.1709,1.093
195901.0,0.9601,-0.103,-12.481,-2.3046,-4.9529,1.135
195911.0,1.8244,-2.5762,-10.6183,-2.808,-4.2149,1.077
195921.0,4.0869,-3.4309,-11.5712,-2.5658,-3.5284,0.97
195931.0,4.6184,-3.5027,-12.1171,-1.9784,-2.585,0.8626
195941.0,5.0709,-3.6105,-13.6733,-1.5378,-1.8938,0.8184
195951.0,5.2792,-3.6823,-15.354,-1.5155,-1.4,0.7657
195961.0,5.7988,-4.0582,-17.2957,-1.7496,-1.126,0.7045
195971.0,6.687,-5.0278,-19.654,-1.8768,-0.9424,0.6359
195981.0,6.5122,-5.5354,-23.3483,-1.3431,-0.5337,0.5491
195991.0,5.2505,-4.8985,-27.902,-0.149,0.3533,0.4193
196001.0,3.1843,-3.486,-32.7886,1.292,1.6155,0.299
196011.0,-0.4741,-1.2953,-36.8228,2.7771,3.5151,0.2022
196021.0,-6.7588,1.0606,-37.8021,3.9605,5.999,0.125
196031.0,-14.0899,2.7461,-35.2019,4.665,8.583,0.0585
196041.0,-22.1631,4.7525,-32.1637,5.0843,11.1403,-0.0639
196051.0,-30.5835,6.213,-26.6139,4.9518,13.7418,-0.2634
196061.0,-41.9057,7.2903,-14.7148,4.4027,16.1821,-0.5236
196071.0,-46.9407,9.4954,-6.1124,4.1952,17.4123,-0.8141
196081.0,-57.9133,13.2687,1.5538,3.4539,17.4357,-1.1281
196091.0,-64.325,11.6286,22.3954,1.9071,17.4357,-1.1174
196101.0,-58.7034,13.3788,34.3257,1.3196,17.4357,-0.9498
196111.0,-52.8951,7.616,59.7234,-1.3947,15.8862,-0.9567
196121.0,-44.1946,5.6575,69.2738,-2.1918,11.0424,-0.5561
196131.0,-39.7366,3.9217,74.8811,-1.7773,6.6205,0.0021
196141.0,-35.7382,2.8323,72.5946,-0.0202,2.5839,0.6811
196151.0,-33.8588,2.5259,64.8924,1.5234,-1.1887,1.185
196161.0,-32.9801,1.9632,55.9262,1.9481,-4.6948,1.3925
196171.0,-31.8979,2.1883,43.8666,2.146,-7.5821,1.4644
196181.0,-29.9874,1.2953,32.4079,2.4051,-9.429,1.475
196191.0,-26.7193,1.8651,19.0938,2.866,-10.1985,1.4399
196201.0,-23.4344,2.2218,8.8083,2.6877,-10.0149,1.3149
196211.0,-17.7386,1.8459,1.257,1.9885,-9.1912,1.1526
196221.0,-12.1841,0.8236,-2.1979,0.977,-7.8178,0.8844
196231.0,-9.73,-0.6033,-1.7047,0.0388,-6.1076,0.4943
196241.0,-8.0517,-0.2921,-0.8859,-0.9014,-4.8896,-0.0468
196251.0,-7.003,-0.3017,2.4421,-1.9635,-4.1499,-0.6252
196261.0,-6.3662,1.1468,4.0654,-2.3094,-3.6162,-1.0722
196271.0,-6.4643,2.6073,5.8371,-2.3578,-3.2038,-1.3335
196281.0,-5.6575,3.5051,7.1227,-2.303,-3.0453,-1.433
196291.0,-5.3798,4.2329,8.5808,-2.2727,-3.0251,-1.4133
196301.0,-5.4133,4.5562,9.9144,-2.2104,-3.1709,-1.2781
196311.0,-4.9632,4.4915,10.5512,-2.071,-3.4683,-1.0653
196321.0,-4.6974,3.9241,11.1857,-1.8427,-3.852,-0.8163
196331.0,-4.3886,3.5195,10.4267,-1.384,-4.2824,-0.5475
196341.0,-3.881,3.055,9.1866,-0.9088,-4.6986,-0.3038
196351.0,-3.4093,2.9521,7.1299,-0.4949,-5.0391,-0.0825
196361.0,-2.6743,2.739,4.7884,-0.2304,-5.2807,0.1245
196371.0,-1.8866,2.7222,2.2769,-0.1378,-5.3908,0.3044
196381.0,-1.2881,2.5618,0.237,-0.2469,-5.3472,0.4576
196391.0,-0.6752,2.3655,-1.8555,-0.4214,-5.1881,0.6034
196401.0,0.067,1.6807,-3.4524,-0.6806,-4.9087,0.7476
196411.0,1.2163,0.7542,-4.6017,-0.953,-4.5373,0.8519
196421.0,3.1867,-0.8164,-5.9017,-1.1254,-4.1058,0.8886
196431.0,4.3455,-1.913,-5.8921,-1.2643,-3.5167,0.8359
196441.0,4.7621,-2.6911,-5.9879,-1.251,-2.999,0.7306
196451.0,5.2002,-2.988,-6.5577,-1.1829,-2.6116,0.5827
196461.0,5.4779,-3.1603,-8.3175,-1.1781,-2.32,0.4262
196471.0,6.2776,-3.5003,-9.6606,-1.1834,-1.9502,0.2783
196481.0,5.9041,-3.1603,-11.0516,-1.0068,-1.2478,0.1618
196491.0,6.1794,-3.3543,-12.1817,-1.0025,-0.754,0.0612
196501.0,6.4284,-3.2322,-14.2814,-1.0052,-0.274,-0.0628
196511.0,5.9376,-2.5714,-16.7067,-1.1563,0.2645,-0.215
196521.0,5.2194,-1.9632,-18.3204,-1.4878,0.804,-0.3597
196531.0,4.2138,-0.8068,-18.9142,-1.5447,1.4702,-0.4635
196541.0,2.1835,0.8691,-19.5702,-0.845,2.3285,-0.4347
196551.0,-0.8092,3.3639,-22.7521,0.5667,3.397,-0.2421
196561.0,-4.47,5.375,-26.9467,2.188,5.0944,0.0894
196571.0,-11.248,6.6679,-28.1774,3.2895,7.5358,0.4443
196581.0,-18.7011,6.4021,-24.6244,3.7354,10.2937,0.7301
196591.0,-28.4144,6.2632,-17.3053,3.8147,13.1123,0.9104
196601.0,-34.3424,4.3383,-8.1044,3.5385,15.0215,0.9386
196611.0,-37.3232,2.6791,3.2992,2.7829,16.6594,0.5491
196621.0,-33.2986,1.6496,15.7682,1.6331,17.125,0.0112
196631.0,-40.213,2.6743,33.7702,1.0014,17.4357,-0.4927
196641.0,-39.3966,2.9449,54.0347,-0.6417,15.1136,-0.9567
196651.0,-34.4909,2.545,67.8636,-2.0582,10.6029,-1.0738
196661.0,-30.8038,3.6248,72.6856,-1.9816,5.9639,-0.7662
196671.0,-27.7967,5.794,71.8165,-0.7003,1.724,-0.1059
196681.0,-26.3649,6.7038,62.7544,0.886,-2.3551,0.7412
196691.0,-26.2093,5.6982,52.1625,1.5905,-6.0522,1.4532
196701.0,-26.4799,3.8379,38.1755,2.1104,-9.1337,2.0295
196711.0,-25.8885,0.1556,25.0218,2.8527,-10.9296,2.4887
196721.0,-22.3235,-2.4541,10.9128,4.1441,-11.3069,2.8271
196731.0,-15.1218,-4.2904,0.0527,4.9343,-10.5326,2.9452
196741.0,-7.7117,-4.6735,-9.5002,5.0492,-8.8804,2.7611
196751.0,-4.039,-4.6088,-10.0389,3.9664,-6.5157,2.2785
196761.0,-2.3607,-3.4716,-9.3829,2.4557,-4.6315,1.6315
196771.0,0.1676,-2.9018,-7.4005,0.5257,-3.5785,0.861
196781.0,1.4653,-1.9632,-4.8147,-0.9301,-2.5786,0.1341
196791.0,1.5299,-0.1341,-3.462,-1.7751,-1.5974,-0.4294
196801.0,1.154,0.2825,0.6536,-2.5488,-0.9434,-0.8317
196811.0,1.4581,1.4964,2.0135,-2.6153,-0.6226,-1.0248
196821.0,1.1444,1.8124,4.3886,-2.2934,-0.2006,-1.0589
196832.0,1.154,2.9449,4.446,-1.4718,0.2581,-0.944
196841.0,0.6847,3.2848,5.545,-0.9025,0.7093,-0.7833
196851.0,1.1349,3.7254,6.62,-0.6162,0.9754,-0.629
196861.0,0.9194,3.6033,8.8011,-0.6827,1.0637,-0.4917
196871.0,0.4262,3.4381,10.738,-0.8019,0.8652,-0.3741
196881.0,0.1365,3.2633,11.3629,-0.8328,0.4736,-0.2698
196891.0,0.182,2.8371,11.7148,-0.7827,0.066,-0.1681
196901.0,0.1891,2.5043,11.0061,-0.4603,-0.1873,-0.0357
196911.0,0.0599,2.1069,10.3525,0.0532,-0.1804,0.1117
196921.0,0.3735,1.8794,9.8114,0.6524,0.0718,0.2549
196931.0,0.4693,1.4557,9.9024,1.011,0.339,0.3395
196941.0,0.5339,1.1827,10.3358,0.9642,0.3698,0.3081
196951.0,0.3998,0.972,11.1953,0.5821,0.1852,0.1788
196961.0,0.4764,0.8571,11.2911,0.2187,-0.1293,0.016
196971.0,0.4286,1.0894,10.4363,-0.0468,-0.4001,-0.1442
196981.0,0.3807,1.336,9.5624,-0.2469,-0.5305,-0.2746
196991.0,0.4956,1.7119,8.5521,-0.3022,-0.4869,-0.3533
197001.0,0.1317,1.9824,8.0876,-0.2304,-0.2261,-0.3735
197011.0,0.0718,2.308,7.5082,-0.0548,0.1836,-0.3326
197021.0,0.0982,2.2529,7.92,-0.1075,0.5837,-0.2932
197031.0,-0.1173,1.9249,9.4475,-0.3826,0.8131,-0.3145
197041.0,-0.4788,1.7549,10.8481,-0.6417,0.8248,-0.3799
197051.0,-0.7566,1.7214,11.9303,-0.7865,0.6987,-0.4475
197061.0,-0.9074,1.8938,12.3732,-0.7364,0.5481,-0.4821
197071.0,-0.9098,2.3128,12.208,-0.5039,0.455,-0.4757
197081.0,-1.221,2.7701,11.8202,-0.2251,0.4347,-0.4166
197091.0,-1.5203,3.0071,11.497,0.0282,0.4975,-0.306
197101.0,-1.2282,2.909,11.4778,0.19,0.605,-0.1799
197111.0,-1.0558,2.4852,12.1075,0.2304,0.7066,-0.0825
197121.0,-1.1133,2.1596,12.8736,0.1729,0.6779,-0.0388
197131.0,-1.2689,1.8675,13.7188,0.0521,0.4699,-0.0388
197141.0,-1.3001,1.5921,14.0085,0.0298,0.1687,-0.0575
197151.0,-1.3048,1.573,13.8313,0.2059,-0.1016,-0.0766
197161.0,-1.482,1.901,12.979,0.5055,-0.2868,-0.0814
197171.0,-1.3982,2.1715,11.7316,0.7242,-0.4081,-0.0729
197181.0,-1.0319,2.2841,10.8338,0.7646,-0.473,-0.075
197191.0,-0.7542,2.3056,10.0916,0.7221,-0.4544,-0.0851
197201.0,-0.6273,2.3822,9.4164,0.6401,-0.364,-0.1054
197211.0,-0.5124,2.4301,9.1722,0.4581,-0.2543,-0.1426
197221.0,-0.3448,2.4373,9.1578,0.2363,-0.1676,-0.1953
197231.0,-0.5124,2.4995,9.3278,0.0559,-0.0841,-0.2474
197241.0,-0.6057,2.7509,9.4739,0.0101,0.0186,-0.274
197251.0,-0.7254,2.9808,9.6798,0.0553,0.1458,-0.2677
197261.0,-0.7901,3.2058,9.8114,0.1309,0.2677,-0.2304
197271.0,-0.8092,3.3208,10.0078,0.1729,0.3698,-0.1767
197281.0,-0.8571,3.2944,10.2855,0.1522,0.439,-0.1171
197291.0,-0.9146,3.1484,10.671,0.099,0.4709,-0.067
197301.0,-1.0056,2.9688,11.0349,0.0378,0.456,-0.0309
197311.0,-1.0175,2.7916,11.2671,-0.0271,0.3991,-0.0128
197321.0,-1.0367,2.6193,11.4491,-0.0686,0.3241,-0.0053
197331.0,-1.0654,2.4972,11.5017,-0.0841,0.2336,-0.0117
197341.0,-1.0702,2.4038,11.5424,-0.0867,0.1368,-0.0293
197351.0,-1.0175,2.5355,11.394,-0.0378,0.0474,-0.0442
197361.0,-1.0558,2.6312,11.0109,0.0133,-0.017,-0.0543
197371.0,-1.0511,2.7629,10.6518,0.0388,-0.0585,-0.0585
197381.0,-1.1468,2.8132,10.3406,0.0346,-0.0803,-0.0543
197391.0,-1.0343,2.6959,10.1921,0.0319,-0.0724,-0.0447
197401.0,-0.8715,2.5163,10.0173,0.0431,-0.0474,-0.0383
197411.0,-0.7709,2.3727,9.9671,0.0303,-0.0303,-0.05
197421.0,-0.6536,2.32,9.8928,0.009,-0.0293,-0.0798
197431.0,-0.656,2.4253,9.7492,0.0048,-0.0101,-0.1144
197441.0,-0.7039,2.6408,9.5912,0.0144,0.0351,-0.1362
197451.0,-0.814,2.8156,9.5912,-0.0213,0.0857,-0.1501
197461.0,-0.8068,2.8204,9.7779,-0.1032,0.1112,-0.1501
197471.0,-0.7566,2.7031,10.0509,-0.1809,0.1149,-0.1474
197481.0,-0.7614,2.6073,10.2137,-0.2134,0.0846,-0.1453
197491.0,-0.7614,2.6073,10.2137,-0.2134,0.0846,-0.1453
197501.0,-0.7709,2.4924,10.2592,-0.2128,0.0426,-0.1421
197511.0,-0.6393,2.3607,10.2208,-0.1729,0.0048,-0.1383
197521.0,-0.5674,2.3559,10.0365,-0.1139,-0.0133,-0.1447
197531.0,-0.6512,2.4517,10.0054,-0.0495,-0.0037,-0.1522
197541.0,-0.7087,2.6336,9.8857,0.0325,0.0117,-0.1458
197551.0,-0.7302,2.6528,9.924,0.0798,0.0202,-0.1309
197561.0,-0.7542,2.6217,9.8617,0.1128,0.0117,-0.1245
197571.0,-0.7374,2.6456,9.7875,0.1261,0.0043,-0.1261
197581.0,-0.6416,2.5786,9.6582,0.1266,0.008,-0.1336
197591.0,-0.5626,2.6193,9.6223,0.116,0.0181,-0.1506
197601.0,-0.5291,2.7126,9.5577,0.1075,0.033,-0.1713
197611.0,-0.5387,2.8778,9.4355,0.0809,0.0506,-0.1846
197621.0,-0.6416,3.0191,9.4858,0.0239,0.0734,-0.1868
197631.0,-0.7159,3.1101,9.5289,-0.0192,0.091,-0.1788
197641.0,-0.7997,3.1316,9.5672,-0.0564,0.1048,-0.1607
197651.0,-0.9242,3.067,9.6295,-0.0665,0.1155,-0.133
197661.0,-0.8332,2.9305,9.7516,-0.0266,0.1368,-0.1064
197671.0,-0.7063,2.8611,9.8402,0.0596,0.1708,-0.091
197681.0,-0.6656,2.9784,9.7923,0.1325,0.2033,-0.0889
197691.0,-0.668,3.1627,9.7444,0.1394,0.2134,-0.0931
197701.0,-0.6943,3.3279,9.7612,0.0819,0.2011,-0.0905
197711.0,-0.7661,3.3495,9.9383,-0.0037,0.1905,-0.0777
197721.0,-0.8475,3.2896,10.0509,-0.0537,0.182,-0.0553
197731.0,-0.8978,3.1987,10.1801,-0.0702,0.1681,-0.0351
197741.0,-0.9984,3.1651,10.2161,-0.0559,0.1479,-0.0144
197751.0,-1.087,3.122,10.2137,-0.017,0.1272,0.0048
197761.0,-0.9936,3.043,10.0844,0.0335,0.1155,0.0245
197771.0,-0.8859,2.9544,10.003,0.0697,0.1149,0.0367
197781.0,-0.8452,2.9975,9.8067,0.083,0.1165,0.0388
197791.0,-0.8188,3.0143,9.73,0.0585,0.1368,0.0351
197801.0,-0.8906,3.1029,9.6654,0.0255,0.174,0.0378
197811.0,-0.9457,3.0023,9.7947,-0.0261,0.216,0.0431
197821.0,-0.9457,2.9473,9.9886,-0.0772,0.2336,0.0452
197831.0,-0.9744,2.7701,10.2927,-0.1176,0.2315,0.0442
197841.0,-0.9457,2.66,10.4531,-0.1256,0.2102,0.0357
197851.0,-0.8595,2.5714,10.5919,-0.1022,0.1836,0.0202
197861.0,-0.8739,2.5809,10.6638,-0.0665,0.1532,0.0016
197871.0,-0.9361,2.6695,10.6662,-0.0335,0.1112,-0.0181
197881.0,-0.9457,2.7461,10.5608,-0.0085,0.067,-0.0255
197891.0,-0.996,2.9329,10.343,0.0059,0.0223,-0.0245
197901.0,-1.0247,2.9568,10.2352,-0.0261,-0.0122,-0.0165
197911.0,-1.0104,2.9137,10.1299,-0.033,-0.0245,0.0016
197921.0,-0.9242,2.8252,10.0245,-0.0128,-0.0112,0.0192
197931.0,-0.8499,2.7438,9.9048,-0.0032,-0.0016,0.0229
197941.0,-0.8092,2.7342,9.8114,-0.0325,-0.0085,0.0138
197951.0,-0.8404,2.7102,9.8067,-0.058,-0.0064,0.0021
197961.0,-0.8236,2.7294,9.6414,-0.0559,0.0202,-0.0101
197971.0,-0.7853,2.7509,9.6678,-0.0692,0.0564,-0.025
197981.0,-0.8691,2.8108,9.663,-0.0963,0.0761,-0.0436
