time_ms,ax,ay,az,gx,gy,gz
1401051.0,-0.1077,0.2203,10.6805,-0.0372,-0.0388,-0.0362
1401061.0,-0.067,0.2179,10.5201,-0.0287,-0.0617,-0.0357
1401071.0,-0.0311,0.2155,10.2711,-0.0511,-0.0766,-0.0442
1401081.0,-0.012,0.2801,10.1897,-0.0974,-0.0798,-0.0607
1401091.0,-0.0024,0.3543,10.07,-0.1368,-0.0809,-0.074
1401101.0,-0.012,0.4501,9.924,-0.1501,-0.0575,-0.074
1401111.0,0.0144,0.4477,9.8067,-0.1564,-0.0293,-0.0639
1401121.0,0.0024,0.3903,9.8114,-0.1437,0.0106,-0.0495
1401131.0,-0.0311,0.3639,9.9599,-0.083,0.0905,-0.0271
1401141.0,-0.0718,0.2969,10.1754,-0.0266,0.149,-0.0037
1401151.0,-0.0479,0.3065,10.2161,0.0053,0.1655,0.008
1401161.0,-0.1006,0.3065,10.3741,0.0016,0.1692,0.0101
1401171.0,-0.1317,0.3543,10.5489,-0.0261,0.1586,0.009
1401181.0,-0.1915,0.3328,10.6303,-0.0617,0.1325,0.0048
1401191.0,-0.1867,0.2825,10.659,-0.1,0.0894,0.0021
1401201.0,-0.1748,0.2394,10.6949,-0.1101,0.0559,0.0011
1401211.0,-0.1963,0.1939,10.7356,-0.0915,0.0426,0.0027
1401221.0,-0.0886,0.1053,10.6734,-0.0495,0.0341,0.0053
1401231.0,-0.0527,0.1101,10.4986,-0.0181,0.0202,-0.0011
1401241.0,0.0024,0.103,10.4172,-0.0255,0.0128,-0.0154
1401251.0,-0.103,0.2059,10.3501,-0.0436,0.0112,-0.0325
1401261.0,-0.1437,0.2993,10.2903,-0.0623,0.0096,-0.0468
1401271.0,-0.1413,0.4046,10.2065,-0.0756,0.0069,-0.0516
1401281.0,-0.1149,0.4525,10.0748,-0.0979,0.0074,-0.0506
1401291.0,-0.0622,0.4884,9.991,-0.1314,0.0197,-0.0463
1401301.0,-0.0886,0.5028,10.1275,-0.1495,0.0569,-0.0367
1401311.0,-0.1149,0.4932,10.2615,-0.1229,0.0952,-0.0186
1401321.0,-0.1556,0.4573,10.3621,-0.0729,0.1139,0.0069
1401331.0,-0.1173,0.3903,10.4244,-0.0202,0.124,0.0277
1401341.0,-0.1293,0.3711,10.3453,0.0186,0.1298,0.0404
1401351.0,-0.1077,0.3663,10.3022,0.0266,0.1352,0.0436
1401361.0,-0.0622,0.3472,10.24,-0.0043,0.1314,0.0436
1401371.0,-0.0527,0.3089,10.2089,-0.0697,0.1256,0.0357
1401381.0,-0.1293,0.2418,10.4698,-0.1522,0.132,0.0213
1401391.0,-0.1963,0.1891,10.7284,-0.1751,0.1357,0.0154
1401401.0,-0.2346,0.1532,10.8864,-0.1405,0.1272,0.0192
1401411.0,-0.2753,0.1676,10.8888,-0.0788,0.1139,0.0277
1401421.0,-0.3017,0.1867,10.8266,-0.0261,0.1006,0.0367
1401431.0,-0.3017,0.2179,10.7476,0.0064,0.0873,0.0458
1401441.0,-0.237,0.1221,10.6111,0.0117,0.0756,0.0479
1401451.0,-0.2227,0.091,10.5704,-0.0112,0.0585,0.0388
1401461.0,-0.2394,0.1173,10.4962,-0.05,0.0436,0.0223
1401471.0,-0.2514,0.0886,10.5872,-0.0984,0.0447,0.0096
1401481.0,-0.2753,0.0718,10.6925,-0.1101,0.058,0.0048
1401491.0,-0.2825,0.0599,10.6805,-0.1022,0.0452,0.0
1401501.0,-0.1939,0.0359,10.6829,-0.0931,0.025,-0.0064
1401511.0,-0.1437,0.0407,10.659,-0.0745,0.0239,-0.0138
1401521.0,-0.1724,0.0742,10.5967,-0.0654,0.0181,-0.0218
1401531.0,-0.1101,0.0742,10.5465,-0.0697,0.0,-0.0314
1401541.0,-0.1508,0.1365,10.4866,-0.0585,-0.0011,-0.0372
1401551.0,-0.17,0.1915,10.41,-0.0388,0.0074,-0.0388
1401561.0,-0.0934,0.2466,10.3382,-0.0298,0.0122,-0.0367
1401571.0,-0.0742,0.3112,10.1825,-0.0426,0.0154,-0.0341
1401581.0,-0.0742,0.2897,10.2161,-0.0814,0.0346,-0.0341
1401591.0,-0.1149,0.2466,10.4244,-0.1133,0.0548,-0.0341
1401601.0,-0.1532,0.2131,10.5919,-0.1022,0.0553,-0.0335
1401611.0,-0.1556,0.2179,10.5177,-0.0596,0.0463,-0.0335
1401621.0,-0.1173,0.2825,10.4603,-0.0234,0.0415,-0.0325
1401631.0,-0.1293,0.3926,10.3022,-0.0117,0.0357,-0.0303
1401641.0,-0.1269,0.4405,10.2232,-0.0223,0.0367,-0.0239
1401651.0,-0.1652,0.3974,10.2759,-0.0351,0.0495,-0.0117
1401661.0,-0.146,0.34,10.3334,-0.0367,0.0553,0.0
1401671.0,-0.1221,0.2921,10.1873,-0.0367,0.0537,0.0027
1401681.0,-0.0982,0.2682,10.2041,-0.0729,0.0537,-0.0053
1401691.0,-0.0862,0.2586,10.3046,-0.1016,0.067,-0.017
1401701.0,-0.1365,0.2538,10.4052,-0.1059,0.0756,-0.0271
1401711.0,-0.1413,0.3424,10.4914,-0.0814,0.0734,-0.0293
1401721.0,-0.0886,0.4477,10.3765,-0.0521,0.0681,-0.0218
1401731.0,-0.1149,0.486,10.2879,-0.0548,0.0654,-0.0128
1401741.0,-0.1221,0.5124,10.2208,-0.0718,0.067,0.0
1401751.0,-0.1293,0.4405,10.2735,-0.0894,0.0718,0.0149
1401761.0,-0.0934,0.328,10.2687,-0.0926,0.0809,0.025
1401771.0,-0.1269,0.2298,10.3094,-0.0942,0.0878,0.0245
1401781.0,-0.1484,0.2011,10.3166,-0.0761,0.1043,0.0223
1401791.0,-0.182,0.1724,10.41,-0.0436,0.1341,0.0197
1401801.0,-0.146,0.2131,10.4076,-0.0325,0.1538,0.0122
1401811.0,-0.1891,0.2107,10.5273,-0.0617,0.1618,-0.0016
1401821.0,-0.1963,0.2825,10.7452,-0.1048,0.1485,-0.0154
1401831.0,-0.3065,0.3567,10.9176,-0.1192,0.1288,-0.0176
1401841.0,-0.2873,0.34,10.9846,-0.1112,0.1006,-0.0085
1401851.0,-0.261,0.2849,10.975,-0.0889,0.0639,0.0059
1401861.0,-0.1867,0.2035,10.8362,-0.0724,0.0319,0.0144
1401871.0,-0.17,0.2107,10.6039,-0.0697,0.0181,0.017
1401881.0,-0.1604,0.1197,10.6111,-0.107,0.0069,0.0085
1401891.0,-0.1748,0.1365,10.5129,-0.133,0.0,-0.0021
1401901.0,-0.2346,0.1006,10.5393,-0.1437,0.0053,-0.0096
1401911.0,-0.2514,0.0982,10.6063,-0.1181,0.017,-0.0117
1401921.0,-0.2203,0.0934,10.6207,-0.0718,0.033,-0.0059
1401931.0,-0.1867,0.1101,10.5105,-0.033,0.0309,-0.0005
1401941.0,-0.1125,0.0718,10.3956,-0.0303,0.0239,-0.0048
1401951.0,-0.0814,0.1413,10.3597,-0.0506,0.0314,-0.0154
1401961.0,-0.1365,0.1245,10.4938,-0.0835,0.0468,-0.0271
1401971.0,-0.2035,0.1053,10.5919,-0.1032,0.041,-0.0383
1401981.0,-0.1604,0.1437,10.5848,-0.0952,0.0319,-0.0452
1401991.0,-0.1844,0.2251,10.5632,-0.0729,0.0282,-0.049
1402001.0,-0.1724,0.3376,10.5297,-0.0617,0.0149,-0.0474
1402011.0,-0.1532,0.3759,10.5105,-0.0511,0.0085,-0.0399
1402021.0,-0.1676,0.4525,10.4172,-0.0415,0.0069,-0.0293
1402031.0,-0.1532,0.4693,10.2663,-0.049,0.0005,-0.016
1402041.0,-0.1772,0.4094,10.24,-0.0612,0.008,-0.0027
1402051.0,-0.1676,0.328,10.1347,-0.074,0.0186,0.0064
1402061.0,-0.1341,0.237,10.1634,-0.1075,0.0287,0.0043
1402071.0,-0.0886,0.1772,10.3453,-0.1293,0.0404,-0.0005
1402081.0,-0.0814,0.158,10.4004,-0.1272,0.0436,-0.0074
1402091.0,-0.0096,0.1652,10.4172,-0.1006,0.0415,-0.0096
1402101.0,-0.0335,0.2011,10.3238,-0.067,0.0447,-0.0064
1402111.0,-0.0144,0.2777,10.1897,-0.049,0.049,-0.0048
1402121.0,-0.0814,0.34,10.1227,-0.0702,0.058,-0.0053
1402131.0,-0.1149,0.2921,10.228,-0.1091,0.0724,-0.0032
1402141.0,-0.2035,0.2777,10.3262,-0.116,0.0889,0.0021
1402151.0,-0.1867,0.158,10.3908,-0.1011,0.0952,0.0128
1402161.0,-0.1508,0.1101,10.4483,-0.0798,0.0995,0.0202
1402171.0,-0.0934,0.0527,10.4459,-0.0686,0.1016,0.0208
1402181.0,-0.1053,-0.0263,10.4531,-0.0591,0.1038,0.0128
1402191.0,-0.0982,-0.0311,10.5345,-0.0537,0.1038,0.0005
1402201.0,-0.1341,0.0024,10.6279,-0.0559,0.1,-0.016
1402211.0,-0.1963,0.0838,10.6326,-0.0479,0.0942,-0.0325
1402221.0,-0.2801,0.1963,10.6111,-0.0426,0.0883,-0.041
1402231.0,-0.3208,0.2705,10.6614,-0.0404,0.0803,-0.0383
1402241.0,-0.3232,0.249,10.7117,-0.0388,0.0665,-0.0314
1402251.0,-0.2418,0.1915,10.6781,-0.0442,0.0442,-0.0266
1402261.0,-0.1604,0.1891,10.568,-0.0372,0.0277,-0.0271
1402271.0,-0.1221,0.2586,10.4555,-0.0431,0.0106,-0.0309
1402281.0,-0.0455,0.3448,10.3645,-0.0654,0.0064,-0.033
1402291.0,-0.0838,0.3855,10.3477,-0.0857,0.0181,-0.0314
1402301.0,-0.1508,0.431,10.3813,-0.1,0.0298,-0.0229
1402311.0,-0.1772,0.4094,10.4148,-0.0915,0.0357,-0.0069
1402321.0,-0.2538,0.3591,10.3908,-0.0713,0.0431,0.0106
1402331.0,-0.2155,0.3065,10.3645,-0.0452,0.0543,0.0277
1402341.0,-0.103,0.1867,10.3022,-0.0282,0.0665,0.0378
1402351.0,-0.0407,0.067,10.2328,-0.0325,0.075,0.0383
1402361.0,0.0,0.0,10.2903,-0.0617,0.0819,0.0223
1402371.0,-0.0168,-0.0024,10.3645,-0.0873,0.091,0.0027
1402381.0,-0.091,0.0718,10.477,-0.1043,0.0878,-0.0154
1402391.0,-0.1437,0.1987,10.5177,-0.1,0.0798,-0.0245
1402401.0,-0.2035,0.2993,10.4914,-0.0803,0.0718,-0.0192
1402411.0,-0.1724,0.2466,10.4028,-0.074,0.0654,-0.0096
1402421.0,-0.182,0.2131,10.41,-0.0708,0.0745,-0.0027
1402431.0,-0.1844,0.1891,10.4651,-0.066,0.0873,0.0011
1402441.0,-0.1867,0.1221,10.4794,-0.0591,0.0905,0.0005
1402451.0,-0.1365,0.0814,10.4866,-0.0532,0.0878,-0.0037
1402461.0,-0.1915,0.0958,10.5034,-0.0559,0.0846,-0.0128
1402471.0,-0.2035,0.1317,10.5177,-0.0862,0.0633,-0.0239
1402481.0,-0.1724,0.17,10.5321,-0.0995,0.0537,-0.0298
1402491.0,-0.2059,0.2394,10.5153,-0.0968,0.0575,-0.0298
1402501.0,-0.2179,0.2442,10.5632,-0.0862,0.0575,-0.0255
1402511.0,-0.2203,0.2179,10.6111,-0.0633,0.0564,-0.0176
1402521.0,-0.1844,0.2394,10.5465,-0.0303,0.0575,-0.009
1402531.0,-0.1772,0.2705,10.4363,-0.0176,0.058,-0.0059
1402541.0,-0.1341,0.2418,10.3789,-0.0426,0.0484,-0.0085
1402551.0,-0.1772,0.2274,10.422,-0.0761,0.0394,-0.0149
1402561.0,-0.158,0.1508,10.4842,-0.0995,0.0362,-0.016
1402571.0,-0.1604,0.1389,10.4962,-0.0905,0.0388,-0.017
1402581.0,-0.1508,0.1628,10.3717,-0.0835,0.0372,-0.0176
1402591.0,-0.1197,0.17,10.3813,-0.0835,0.0442,-0.0192
1402601.0,-0.1652,0.1413,10.4124,-0.0851,0.0548,-0.0213
1402611.0,-0.1844,0.1221,10.4962,-0.0756,0.066,-0.0266
1402621.0,-0.2179,0.17,10.5177,-0.0596,0.0734,-0.033
1402631.0,-0.2059,0.2753,10.5584,-0.0474,0.0745,-0.0372
1402641.0,-0.2155,0.3519,10.5919,-0.0458,0.0681,-0.0362
1402651.0,-0.1796,0.3855,10.6183,-0.05,0.0569,-0.0282
1402661.0,-0.1293,0.3831,10.5297,-0.0617,0.0415,-0.0181
1402671.0,-0.1413,0.2849,10.5417,-0.0846,0.0293,-0.0085
1402681.0,-0.1484,0.2011,10.5704,-0.0905,0.0298,-0.0011
1402691.0,-0.2131,0.1748,10.568,-0.0686,0.0298,0.0021
1402701.0,-0.2346,0.2035,10.4746,-0.0431,0.0213,0.0
1402711.0,-0.2059,0.2394,10.3549,-0.0213,0.0208,0.0011
1402721.0,-0.1915,0.3136,10.2232,-0.0112,0.0357,0.0032
1402731.0,-0.1365,0.3089,10.2304,-0.0218,0.0479,0.0053
1402741.0,-0.1149,0.2729,10.3238,-0.0442,0.0569,0.0069
1402751.0,-0.1293,0.1963,10.3669,-0.0575,0.0644,0.008
1402761.0,-0.1341,0.1413,10.4698,-0.0553,0.0676,0.0074
1402771.0,-0.1221,0.1317,10.4651,-0.042,0.0708,0.0016
1402781.0,-0.1269,0.1748,10.4435,-0.0378,0.0639,-0.0059
1402791.0,-0.0599,0.2274,10.3908,-0.042,0.0527,-0.0133
1402801.0,-0.1365,0.3352,10.2975,-0.0729,0.0404,-0.0197
1402811.0,-0.1197,0.3496,10.4244,-0.1128,0.042,-0.0192
1402821.0,-0.1867,0.3472,10.501,-0.1075,0.0527,-0.008
1402831.0,-0.1939,0.2753,10.4579,-0.0825,0.0479,0.0074
1402841.0,-0.2131,0.182,10.422,-0.0724,0.0394,0.017
1402851.0,-0.1628,0.1341,10.3358,-0.0548,0.0511,0.0192
1402861.0,-0.2035,0.1077,10.3717,-0.0394,0.0676,0.016
1402871.0,-0.079,0.0958,10.2855,-0.0404,0.0686,0.0085
1402881.0,-0.0311,0.091,10.3286,-0.0623,0.0692,-0.0032
1402891.0,-0.0694,0.1197,10.3358,-0.0835,0.0745,-0.0176
1402901.0,-0.1149,0.2203,10.422,-0.0809,0.0851,-0.0239
1402911.0,-0.1389,0.2825,10.4387,-0.0596,0.0947,-0.0186
1402921.0,-0.1317,0.3041,10.4507,-0.0521,0.1,-0.0085
1402931.0,-0.1293,0.2705,10.4267,-0.0734,0.0921,-0.0048
1402941.0,-0.2155,0.316,10.4267,-0.1011,0.0947,-0.0053
1402951.0,-0.2442,0.2873,10.5465,-0.1176,0.1006,0.0005
1402961.0,-0.2777,0.1221,10.6925,-0.1091,0.1011,0.0101
1402971.0,-0.2322,0.0287,10.7883,-0.0692,0.099,0.0117
1402981.0,-0.2179,0.0575,10.75,-0.0357,0.0867,0.0005
1402991.0,-0.2179,0.158,10.6518,-0.0325,0.0708,-0.0122
1403001.0,-0.1915,0.249,10.5393,-0.0559,0.0644,-0.0218
1403011.0,-0.2586,0.3089,10.6829,-0.1171,0.049,-0.0335
1403021.0,-0.3496,0.3567,10.8314,-0.1543,0.0394,-0.0346
1403031.0,-0.3879,0.328,10.8409,-0.1405,0.0293,-0.0197
1403041.0,-0.3184,0.237,10.8266,-0.1091,0.0011,-0.0032
1403051.0,-0.2059,0.2155,10.7164,-0.0718,-0.0234,0.0053
1403061.0,-0.1915,0.2514,10.5417,-0.0357,-0.0303,0.0112
1403071.0,-0.0599,0.2658,10.3549,-0.0287,-0.0309,0.0176
1403081.0,-0.0383,0.2107,10.2113,-0.0585,-0.0255,0.0181
1403091.0,-0.0479,0.1173,10.1969,-0.1038,-0.016,0.009
1403101.0,-0.0575,0.0766,10.2376,-0.1213,0.0059,0.0016
1403111.0,-0.0814,0.0311,10.2927,-0.1022,0.0287,-0.0005
1403121.0,-0.0622,0.0503,10.2711,-0.0761,0.0367,-0.0053
1403131.0,-0.0455,0.0455,10.2496,-0.0633,0.0431,-0.0128
1403141.0,-0.0239,0.1413,10.2639,-0.0532,0.0596,-0.0197
1403151.0,-0.0646,0.2346,10.2903,-0.0654,0.0644,-0.0261
1403161.0,-0.1508,0.2538,10.3453,-0.0937,0.066,-0.0261
1403171.0,-0.1796,0.2921,10.4411,-0.0899,0.0756,-0.0176
1403181.0,-0.2083,0.2658,10.4172,-0.0702,0.0772,-0.0064
1403191.0,-0.1915,0.2658,10.477,-0.0676,0.0761,0.0011
1403201.0,-0.2274,0.2682,10.5441,-0.0596,0.0756,0.0064
1403211.0,-0.2586,0.2346,10.5536,-0.0506,0.0649,0.0122
1403221.0,-0.1915,0.2155,10.5153,-0.0388,0.05,0.0154
1403231.0,-0.1652,0.249,10.4196,-0.0218,0.041,0.017
1403241.0,-0.1245,0.34,10.2687,-0.0117,0.0367,0.0197
1403251.0,-0.1197,0.3855,10.0916,-0.0415,0.033,0.0245
1403261.0,-0.0958,0.2921,10.094,-0.1091,0.0341,0.0266
1403271.0,-0.0958,0.1317,10.149,-0.1469,0.0527,0.0282
1403281.0,-0.1413,-0.0263,10.2592,-0.1447,0.074,0.0271
1403291.0,-0.1245,-0.1365,10.4148,-0.1213,0.0915,0.0186
1403301.0,-0.1293,-0.1389,10.4627,-0.0766,0.108,0.0064
1403311.0,-0.1173,-0.0982,10.4076,-0.0426,0.1165,-0.009
1403321.0,-0.0838,0.0072,10.4411,-0.0351,0.1213,-0.0239
1403331.0,-0.1652,0.0934,10.5105,-0.0516,0.1192,-0.0351
1403341.0,-0.1652,0.0934,10.5105,-0.0516,0.1192,-0.0351
1403351.0,-0.1772,0.1556,10.6781,-0.0734,0.108,-0.041
1403361.0,-0.182,0.2227,10.7428,-0.0724,0.0937,-0.0378
1403371.0,-0.2394,0.2394,10.6901,-0.0623,0.0718,-0.0314
1403381.0,-0.2011,0.2418,10.6039,-0.0575,0.0521,-0.0229
1403391.0,-0.1748,0.1987,10.5441,-0.0607,0.0447,-0.0181
1403401.0,-0.1844,0.1867,10.4818,-0.0708,0.0436,-0.0181
1403411.0,-0.1413,0.1987,10.5058,-0.0798,0.049,-0.0213
1403421.0,-0.1676,0.249,10.5776,-0.0734,0.0564,-0.0208
1403431.0,-0.2203,0.2274,10.6303,-0.067,0.058,-0.016
1403441.0,-0.1915,0.1891,10.6757,-0.0559,0.0564,-0.0117
1403451.0,-0.237,0.2011,10.635,-0.0399,0.0532,-0.0074
1403461.0,-0.2274,0.158,10.556,-0.0404,0.0442,-0.0069
1403471.0,-0.2179,0.1604,10.556,-0.0351,0.042,-0.0096
1403481.0,-0.2035,0.2227,10.4531,-0.0378,0.0394,-0.0149
1403491.0,-0.1317,0.249,10.4746,-0.0575,0.0298,-0.0223
1403501.0,-0.1604,0.34,10.3717,-0.0835,0.0261,-0.0239
1403511.0,-0.1556,0.3472,10.4172,-0.1165,0.0223,-0.0218
1403521.0,-0.1604,0.3136,10.4555,-0.1192,0.0293,-0.0122
1403531.0,-0.1939,0.2682,10.477,-0.1016,0.033,-0.0005
1403541.0,-0.1939,0.2083,10.422,-0.0702,0.0335,0.0085
1403551.0,-0.1867,0.2155,10.3549,-0.0404,0.0341,0.0149
1403561.0,-0.1389,0.237,10.2639,-0.0335,0.0452,0.0154
1403571.0,-0.1532,0.2011,10.1778,-0.0612,0.0553,0.0133
1403581.0,-0.1867,0.1413,10.307,-0.1112,0.0564,0.0085
1403591.0,-0.1365,0.079,10.4435,-0.1293,0.067,0.0021
1403601.0,-0.2059,0.0527,10.5632,-0.1144,0.0782,0.0016
1403611.0,-0.1604,0.0311,10.6015,-0.0889,0.0612,-0.0021
1403621.0,-0.1149,0.0742,10.5297,-0.0569,0.0506,-0.0032
1403631.0,-0.1197,0.1317,10.4866,-0.0399,0.0442,-0.0074
1403641.0,-0.1053,0.1437,10.3046,-0.0431,0.0346,-0.0117
1403651.0,-0.103,0.2035,10.2328,-0.0623,0.041,-0.0122
1403661.0,-0.1437,0.1532,10.2496,-0.0873,0.0607,-0.0106
1403671.0,-0.1532,0.091,10.3621,-0.1059,0.075,-0.0106
1403681.0,-0.1628,0.1006,10.3932,-0.1011,0.0814,-0.0101
1403691.0,-0.1508,0.0958,10.5225,-0.0867,0.0841,-0.0096
1403701.0,-0.1676,0.0646,10.5465,-0.0697,0.0798,-0.0085
1403711.0,-0.1556,0.0982,10.5728,-0.0521,0.0686,-0.0074
1403721.0,-0.1772,0.0958,10.5273,-0.0314,0.0665,-0.0053
1403731.0,-0.2011,0.0144,10.4603,-0.0223,0.0665,-0.0048
1403741.0,-0.17,-0.0766,10.4579,-0.0298,0.0639,-0.0133
1403751.0,-0.1915,-0.0934,10.4722,-0.0388,0.0639,-0.0293
1403761.0,-0.1724,-0.012,10.4627,-0.0644,0.0511,-0.0532
1403771.0,-0.1963,0.0742,10.6039,-0.0968,0.0415,-0.075
1403781.0,-0.1915,0.1796,10.6805,-0.0905,0.033,-0.0835
1403791.0,-0.1748,0.3232,10.5512,-0.0617,0.0202,-0.0798
1403801.0,-0.1724,0.431,10.5058,-0.0314,0.0138,-0.066
1403811.0,-0.1676,0.4836,10.3286,-0.0096,0.0128,-0.0447
1403821.0,-0.1532,0.419,10.1897,-0.0133,0.0229,-0.0234
1403831.0,-0.1245,0.3687,10.1634,-0.041,0.0495,-0.0128
1403841.0,-0.1053,0.3448,10.2304,-0.0734,0.0708,-0.009
1403851.0,-0.0862,0.2753,10.3214,-0.0931,0.075,-0.0074
1403861.0,-0.0335,0.2897,10.3262,-0.1032,0.0745,-0.0043
1403871.0,-0.079,0.2801,10.4555,-0.1197,0.083,-0.0011
1403881.0,-0.1269,0.2155,10.5369,-0.1096,0.0926,0.0069
1403891.0,-0.1484,0.1652,10.5512,-0.0809,0.0894,0.0181
1403901.0,-0.1748,0.079,10.4651,-0.0559,0.0814,0.0208
1403911.0,-0.1556,0.0503,10.4818,-0.05,0.0814,0.0144
1403921.0,-0.1891,0.079,10.4962,-0.0697,0.0814,0.0005
1403931.0,-0.182,0.0886,10.5345,-0.0931,0.0745,-0.0112
1403941.0,-0.2322,0.1077,10.6063,-0.1011,0.0708,-0.0144
1403951.0,-0.2083,0.0982,10.647,-0.0942,0.0644,-0.0117
1403961.0,-0.1676,0.1077,10.5919,-0.0798,0.0537,-0.0085
1403971.0,-0.1939,0.0718,10.5991,-0.0718,0.0516,-0.0053
1403981.0,-0.2011,0.0048,10.5536,-0.0623,0.0474,-0.0048
1403991.0,-0.1604,-0.0407,10.5584,-0.0537,0.0426,-0.0133
1404001.0,-0.2131,-0.0431,10.5177,-0.0463,0.0383,-0.0266
1404011.0,-0.1987,0.0862,10.5129,-0.0341,0.0383,-0.0404
1404021.0,-0.1724,0.17,10.5249,-0.0319,0.0372,-0.0442
1404031.0,-0.158,0.237,10.4507,-0.0426,0.0303,-0.041
1404041.0,-0.1556,0.2251,10.4531,-0.0569,0.0255,-0.0367
1404051.0,-0.1652,0.2538,10.4603,-0.0479,0.0303,-0.0287
1404061.0,-0.1915,0.2251,10.4603,-0.033,0.0293,-0.0197
1404071.0,-0.17,0.1676,10.3597,-0.0186,0.0245,-0.0112
1404081.0,-0.103,0.1101,10.3022,-0.0048,0.0314,-0.009
1404091.0,-0.0862,0.0838,10.2232,-0.0059,0.0484,-0.0133
1404101.0,-0.1125,0.103,10.2687,-0.033,0.0553,-0.0282
1404111.0,-0.0814,0.1341,10.3477,-0.0553,0.0607,-0.042
1404121.0,-0.1604,0.1915,10.3908,-0.0745,0.0649,-0.0548
1404131.0,-0.1891,0.2322,10.4986,-0.0819,0.0601,-0.0601
1404141.0,-0.2251,0.3328,10.5345,-0.0628,0.0548,-0.0553
1404151.0,-0.1628,0.4166,10.4651,-0.0532,0.0383,-0.0452
1404161.0,-0.1221,0.4286,10.386,-0.0495,0.0383,-0.0309
1404171.0,-0.0742,0.4262,10.3262,-0.041,0.05,-0.0106
1404181.0,-0.1197,0.3424,10.331,-0.0511,0.0532,0.0043
1404191.0,-0.1317,0.2753,10.3334,-0.0617,0.0548,0.0112
1404201.0,-0.1197,0.1748,10.3142,-0.067,0.0649,0.0165
1404211.0,-0.1532,0.0742,10.2999,-0.0766,0.0745,0.0144
1404221.0,-0.1556,-0.0479,10.3477,-0.0899,0.0782,0.0027
1404231.0,-0.1245,-0.0527,10.4674,-0.0798,0.0878,-0.0154
1404241.0,-0.1269,-0.0048,10.5656,-0.0543,0.0979,-0.0325
1404251.0,-0.0886,0.1149,10.5177,-0.0394,0.0921,-0.0452
1404261.0,-0.1341,0.261,10.5225,-0.0309,0.0873,-0.0484
1404271.0,-0.1556,0.3256,10.4986,-0.0442,0.0793,-0.0452
1404281.0,-0.1676,0.3112,10.5536,-0.0724,0.0639,-0.0388
1404291.0,-0.182,0.3208,10.5058,-0.075,0.0596,-0.0293
1404301.0,-0.2251,0.3376,10.5393,-0.0702,0.0585,-0.0223
1404311.0,-0.1796,0.2179,10.5632,-0.0676,0.0564,-0.0122
1404321.0,-0.182,0.17,10.5345,-0.041,0.0708,-0.0059
1404331.0,-0.1939,0.1724,10.5489,-0.0325,0.0761,-0.0122
1404341.0,-0.1532,0.1915,10.568,-0.0399,0.0649,-0.0234
1404351.0,-0.1748,0.2586,10.5776,-0.0458,0.0548,-0.0287
1404361.0,-0.1484,0.2969,10.5321,-0.0532,0.0426,-0.0314
1404371.0,-0.1293,0.3328,10.489,-0.0591,0.0255,-0.0266
1404381.0,-0.0958,0.3136,10.3932,-0.0628,0.0165,-0.0192
1404391.0,-0.1221,0.3256,10.3094,-0.0575,0.0351,-0.0112
1404401.0,-0.1484,0.2634,10.3645,-0.0729,0.0527,-0.008
1404411.0,-0.1772,0.1556,10.422,-0.0718,0.0649,-0.0064
1404421.0,-0.1891,0.1413,10.4291,-0.0596,0.0793,-0.009
1404431.0,-0.2131,0.1844,10.5129,-0.0521,0.0851,-0.0165
1404441.0,-0.2394,0.2729,10.5704,-0.0458,0.0803,-0.0202
1404451.0,-0.2346,0.3065,10.5273,-0.05,0.0697,-0.017
1404461.0,-0.2035,0.3591,10.556,-0.0559,0.0617,-0.0101
1404471.0,-0.1197,0.3136,10.6039,-0.0654,0.0543,-0.0011
1404481.0,-0.1724,0.2179,10.6087,-0.0665,0.0447,0.0059
1404491.0,-0.2035,0.1437,10.5848,-0.0676,0.0303,0.0069
1404501.0,-0.1987,0.1197,10.5345,-0.0543,0.0208,0.0043
1404511.0,-0.2322,0.067,10.4411,-0.0463,0.0144,-0.0016
1404521.0,-0.2083,0.091,10.3501,-0.0431,0.0096,-0.0133
1404531.0,-0.1197,0.1628,10.2496,-0.0463,0.0106,-0.0271
1404541.0,-0.103,0.237,10.2089,-0.0559,0.0298,-0.0341
1404551.0,-0.1293,0.2514,10.2975,-0.0729,0.0431,-0.033
1404561.0,-0.0814,0.2634,10.3286,-0.0681,0.0521,-0.0298
1404571.0,-0.0718,0.3136,10.3525,-0.0452,0.0708,-0.0223
1404581.0,-0.1317,0.3112,10.3789,-0.0357,0.0851,-0.0138
1404591.0,-0.1006,0.2729,10.4291,-0.0442,0.083,-0.0074
1404601.0,-0.091,0.2298,10.4267,-0.0612,0.0766,-0.0059
1404611.0,-0.0982,0.1963,10.5153,-0.0718,0.0734,-0.0059
1404621.0,-0.103,0.1772,10.5393,-0.0692,0.0692,-0.008
1404631.0,-0.079,0.1796,10.4674,-0.0623,0.0575,-0.0117
1404641.0,-0.079,0.1724,10.4076,-0.0713,0.0479,-0.0192
1404651.0,-0.0934,0.2227,10.3956,-0.0782,0.0527,-0.0266
1404661.0,-0.1748,0.2705,10.3884,-0.0814,0.0612,-0.0287
1404671.0,-0.1556,0.2586,10.41,-0.0851,0.0665,-0.0261
1404681.0,-0.182,0.237,10.5105,-0.0708,0.0862,-0.0229
1404691.0,-0.237,0.2442,10.4938,-0.0548,0.0937,-0.0202
1404701.0,-0.2274,0.2346,10.5704,-0.0585,0.0889,-0.0197
1404711.0,-0.2514,0.2562,10.6374,-0.0569,0.0841,-0.0229
1404721.0,-0.2634,0.3567,10.5848,-0.0628,0.0676,-0.0282
1404731.0,-0.237,0.4262,10.5345,-0.0814,0.042,-0.0287
1404741.0,-0.2538,0.4741,10.568,-0.0878,0.0367,-0.0186
1404751.0,-0.2346,0.4405,10.556,-0.0761,0.0372,0.0
1404761.0,-0.1844,0.3543,10.4962,-0.0543,0.0341,0.0186
1404771.0,-0.1556,0.2346,10.4172,-0.0372,0.0346,0.0314
1404781.0,-0.1389,0.1245,10.331,-0.0415,0.042,0.0298
1404791.0,-0.1365,0.0455,10.3597,-0.0681,0.0516,0.0181
1404801.0,-0.1245,0.0359,10.4148,-0.0905,0.0537,-0.0032
1404811.0,-0.1365,0.1006,10.4938,-0.1048,0.0553,-0.0245
1404821.0,-0.1077,0.2322,10.4555,-0.1016,0.0585,-0.0335
1404831.0,-0.1556,0.2873,10.4674,-0.0979,0.0628,-0.0298
1404841.0,-0.1724,0.261,10.5273,-0.0889,0.0649,-0.0186
1404851.0,-0.1844,0.2155,10.58,-0.0708,0.075,-0.0059
1404861.0,-0.2011,0.1676,10.6374,-0.0484,0.074,0.0016
1404871.0,-0.1532,0.1006,10.6279,-0.0341,0.058,0.0043
1404881.0,-0.091,0.0982,10.5512,-0.0234,0.0458,0.0005
1404891.0,-0.0958,0.1149,10.4531,-0.0415,0.0367,-0.0096
1404901.0,-0.1125,0.0862,10.4818,-0.0793,0.0303,-0.0229
1404911.0,-0.1101,0.0886,10.4674,-0.0937,0.0277,-0.0335
1404921.0,-0.1341,0.1269,10.477,-0.1,0.0208,-0.0426
1404931.0,-0.1891,0.1628,10.4842,-0.0867,0.0223,-0.049
1404941.0,-0.2274,0.2298,10.4483,-0.0564,0.0255,-0.0506
1404951.0,-0.182,0.3448,10.3334,-0.0282,0.0309,-0.049
1404961.0,-0.1676,0.4262,10.3142,-0.0181,0.0442,-0.042
1404971.0,-0.1676,0.4238,10.2999,-0.0245,0.0575,-0.0325
1404981.0,-0.1604,0.4166,10.3549,-0.0335,0.0633,-0.0208
1404991.0,-0.182,0.3687,10.3693,-0.0404,0.066,-0.0112
1405001.0,-0.1508,0.3232,10.4028,-0.0521,0.0623,-0.008
1405011.0,-0.1365,0.3112,10.3573,-0.0702,0.0553,-0.0096
1405021.0,-0.1269,0.2873,10.3477,-0.0883,0.0468,-0.016
1405031.0,-0.1556,0.3328,10.3717,-0.1064,0.0394,-0.0255
1405041.0,-0.1413,0.4286,10.343,-0.0958,0.0458,-0.0234
1405051.0,-0.1245,0.4645,10.3238,-0.083,0.0543,-0.0122
1405061.0,-0.1101,0.4693,10.3094,-0.0697,0.0612,0.0059
1405071.0,-0.1173,0.395,10.2783,-0.0585,0.0692,0.0277
1405081.0,-0.1006,0.3112,10.2927,-0.0559,0.0718,0.0404
1405091.0,-0.0814,0.2011,10.2232,-0.0569,0.074,0.0452
1405101.0,-0.0479,0.1508,10.1035,-0.0724,0.0745,0.0388
1405111.0,-0.067,0.1053,10.1059,-0.1091,0.0851,0.025
1405121.0,-0.1006,0.0551,10.2448,-0.1314,0.1075,0.0101
1405131.0,-0.1724,0.0838,10.331,-0.1309,0.1304,-0.0021
1405141.0,-0.2466,0.1053,10.4938,-0.1075,0.1506,-0.0037
1405151.0,-0.2801,0.079,10.635,-0.0676,0.1666,0.0027
1405161.0,-0.2993,0.079,10.7045,-0.0303,0.1655,0.0069
1405171.0,-0.2801,0.0814,10.7571,-0.0096,0.1554,0.0053
1405181.0,-0.2418,0.0694,10.8362,-0.0069,0.1394,0.0037
1405191.0,-0.2562,-0.0024,10.9008,-0.0287,0.1181,-0.0043
1405201.0,-0.2562,-0.0239,11.0373,-0.0404,0.0889,-0.0181
1405211.0,-0.2777,0.0646,11.0397,-0.0202,0.0553,-0.0319
1405221.0,-0.237,0.2155,10.7883,-0.0048,0.0192,-0.0436
1405231.0,-0.261,0.2466,10.6255,-0.0383,-0.0048,-0.0521
1405241.0,-0.3089,0.2514,10.6662,-0.0846,-0.0117,-0.0601
1405251.0,-0.3065,0.3017,10.7069,-0.0905,-0.0261,-0.0639
1405261.0,-0.2945,0.3472,10.6303,-0.0756,-0.0527,-0.0596
1405271.0,-0.1915,0.3926,10.3765,-0.0447,-0.0665,-0.0479
1405281.0,-0.1293,0.4118,10.1394,-0.0208,-0.0607,-0.0346
1405291.0,-0.0814,0.4357,9.9934,-0.0271,-0.0484,-0.0261
1405301.0,-0.0527,0.4597,9.8593,-0.0495,-0.0197,-0.0229
1405311.0,-0.0575,0.4597,9.809,-0.0825,0.0101,-0.0208
1405321.0,-0.0455,0.4214,9.809,-0.0995,0.0506,-0.0122
1405331.0,-0.0694,0.3304,9.9958,-0.0926,0.1043,-0.0005
1405341.0,-0.067,0.249,10.173,-0.0654,0.1394,0.009
1405351.0,-0.0694,0.2418,10.24,-0.0378,0.157,0.0144
1405361.0,-0.0958,0.2514,10.3693,-0.0255,0.1671,0.0128
1405371.0,-0.0694,0.261,10.386,-0.0346,0.1703,0.0096
1405381.0,-0.1652,0.2729,10.4986,-0.0724,0.1628,0.0021
1405391.0,-0.1939,0.2682,10.6734,-0.1133,0.1426,-0.0032
1405401.0,-0.2897,0.2825,10.726,-0.1213,0.124,-0.0016
1405411.0,-0.2897,0.2107,10.7643,-0.108,0.1043,0.008
1405421.0,-0.316,0.1365,10.7787,-0.0867,0.0905,0.0154
1405431.0,-0.3184,0.0982,10.7284,-0.066,0.0782,0.0149
1405441.0,-0.3208,0.0766,10.7356,-0.0537,0.0708,0.0069
1405451.0,-0.3496,0.1006,10.6925,-0.0436,0.0718,-0.0059
1405461.0,-0.3783,0.1053,10.7093,-0.0452,0.0692,-0.016
1405471.0,-0.3735,0.1293,10.7955,-0.05,0.0585,-0.0239
1405481.0,-0.3903,0.2011,10.7643,-0.0527,0.0383,-0.0293
1405491.0,-0.34,0.2322,10.7619,-0.058,0.016,-0.0298
1405501.0,-0.3112,0.2274,10.6374,-0.074,-0.0096,-0.0277
1405511.0,-0.2801,0.1915,10.556,-0.0788,-0.0229,-0.0245
1405521.0,-0.249,0.146,10.4842,-0.0686,-0.0239,-0.0213
1405531.0,-0.2203,0.091,10.4387,-0.0628,-0.0223,-0.0261
1405541.0,-0.1413,0.1221,10.3813,-0.0463,-0.0186,-0.0346
1405551.0,-0.1173,0.17,10.2663,-0.0362,-0.0064,-0.0431
1405561.0,-0.0599,0.2825,10.1945,-0.0474,0.0048,-0.0516
1405571.0,-0.0455,0.3567,10.161,-0.0756,0.0197,-0.0585
1405581.0,-0.0838,0.3735,10.2232,-0.1112,0.0372,-0.0591
1405591.0,-0.0718,0.3831,10.343,-0.1181,0.0591,-0.0506
1405601.0,-0.1796,0.4094,10.4387,-0.108,0.0777,-0.0362
1405611.0,-0.1987,0.3926,10.568,-0.1,0.0819,-0.0202
1405621.0,-0.2155,0.3974,10.5728,-0.075,0.0851,-0.0048
1405631.0,-0.2274,0.3663,10.6303,-0.0591,0.0851,0.009
1405641.0,-0.2346,0.3208,10.6614,-0.0495,0.0793,0.0197
1405651.0,-0.2274,0.261,10.6949,-0.0484,0.0607,0.0261
1405661.0,-0.1748,0.1532,10.58,-0.058,0.0372,0.0239
1405671.0,-0.1604,0.0766,10.5441,-0.0857,0.0239,0.0138
1405681.0,-0.1556,-0.0072,10.6638,-0.1144,0.0208,-0.0037
1405691.0,-0.182,0.0,10.6973,-0.1192,0.008,-0.0229
1405701.0,-0.17,0.0048,10.6949,-0.0947,-0.0037,-0.0415
1405711.0,-0.1939,0.1173,10.6829,-0.0543,-0.0101,-0.0506
1405721.0,-0.1676,0.2849,10.4579,-0.0277,-0.0255,-0.0559
1405731.0,-0.1077,0.4022,10.3358,-0.0394,-0.0303,-0.0559
1405741.0,-0.1053,0.4693,10.173,-0.0803,-0.0351,-0.0532
1405751.0,-0.103,0.4477,10.2041,-0.1203,-0.0346,-0.0479
1405761.0,-0.1173,0.419,10.2544,-0.1282,-0.0213,-0.0357
1405771.0,-0.1413,0.3376,10.2759,-0.0974,0.0037,-0.0181
1405781.0,-0.0479,0.2705,10.228,-0.05,0.0261,-0.0021
1405791.0,-0.0527,0.2466,10.1682,-0.017,0.0436,0.0048
1405801.0,-0.0072,0.2538,10.1442,-0.0192,0.0601,0.0037
1405811.0,-0.012,0.2538,10.2448,-0.0314,0.0814,0.0011
1405821.0,-0.0407,0.2682,10.3262,-0.0532,0.0857,-0.0032
1405831.0,-0.0263,0.2729,10.3932,-0.0724,0.083,-0.0043
1405841.0,-0.0479,0.2442,10.4938,-0.0819,0.0862,-0.0027
1405851.0,-0.0814,0.2155,10.5608,-0.0825,0.0798,-0.0043
1405861.0,-0.0694,0.2035,10.5489,-0.0825,0.0676,-0.0074
1405871.0,-0.1125,0.2442,10.5752,-0.0756,0.0612,-0.0096
1405881.0,-0.1317,0.2203,10.5776,-0.0676,0.0543,-0.008
1405891.0,-0.1197,0.2274,10.5129,-0.0591,0.0474,-0.008
1405901.0,-0.1724,0.2705,10.4986,-0.0729,0.0388,-0.0112
1405911.0,-0.1604,0.2586,10.5225,-0.0862,0.0314,-0.0101
1405921.0,-0.0934,0.2298,10.4866,-0.0809,0.0287,-0.0069
1405931.0,-0.0503,0.2083,10.4818,-0.0681,0.0335,-0.0032
1405941.0,-0.079,0.1891,10.4627,-0.0575,0.0367,-0.0027
1405951.0,-0.0479,0.2107,10.4196,-0.0511,0.0367,-0.0064
1405961.0,-0.1221,0.2083,10.3956,-0.0426,0.0511,-0.0069
1405971.0,-0.1628,0.2298,10.4483,-0.0388,0.0607,-0.0053
1405981.0,-0.1293,0.2274,10.4339,-0.0436,0.0537,-0.0069
1405991.0,-0.1245,0.1867,10.4459,-0.0532,0.05,-0.0085
1406001.0,-0.1149,0.17,10.4962,-0.0617,0.0458,-0.0138
1406011.0,-0.0718,0.1939,10.4483,-0.0649,0.0399,-0.0208
1406021.0,-0.091,0.237,10.3837,-0.0692,0.0404,-0.0271
1406031.0,-0.0694,0.2634,10.4435,-0.075,0.0378,-0.0325
1406041.0,-0.1508,0.3184,10.4315,-0.0686,0.0372,-0.0319
1406051.0,-0.1532,0.3974,10.4052,-0.0601,0.0372,-0.0277
1406061.0,-0.1556,0.4334,10.4004,-0.049,0.0415,-0.017
1406071.0,-0.1149,0.4214,10.3262,-0.0468,0.041,-0.0037
1406081.0,-0.1149,0.3903,10.3334,-0.0553,0.0442,0.0059
1406091.0,-0.091,0.3256,10.2999,-0.0601,0.0553,0.0117
1406101.0,-0.0503,0.3184,10.2879,-0.0665,0.0623,0.0128
1406111.0,-0.0144,0.3448,10.2639,-0.0867,0.0692,0.0112
1406121.0,-0.0814,0.316,10.319,-0.1038,0.0926,0.0128
1406131.0,-0.1053,0.261,10.5082,-0.1043,0.1155,0.0186
1406141.0,-0.1101,0.1963,10.6422,-0.0952,0.1155,0.0234
1406151.0,-0.1149,0.1532,10.6973,-0.0782,0.108,0.0255
1406161.0,-0.1317,0.1365,10.7619,-0.0729,0.0899,0.025
1406171.0,-0.0886,0.1006,10.7069,-0.0756,0.0612,0.0218
1406181.0,-0.0934,0.067,10.6638,-0.083,0.0415,0.0144
1406191.0,-0.0934,0.0311,10.5728,-0.0905,0.0239,0.0032
1406201.0,-0.1053,0.0479,10.5249,-0.0835,0.017,-0.008
1406211.0,-0.1413,0.1101,10.3813,-0.0617,0.0239,-0.0176
1406221.0,-0.2107,0.1532,10.3573,-0.0628,0.0261,-0.0277
1406231.0,-0.1844,0.2035,10.3334,-0.0729,0.0357,-0.0346
1406241.0,-0.1772,0.2322,10.4555,-0.0825,0.0442,-0.0383
1406251.0,-0.1413,0.2897,10.4507,-0.0814,0.0404,-0.0394
1406261.0,-0.0886,0.3448,10.4627,-0.0676,0.0362,-0.033
1406271.0,-0.0527,0.3591,10.4746,-0.0447,0.0404,-0.0208
1406281.0,-0.0048,0.3328,10.41,-0.025,0.0415,-0.0138
1406291.0,-0.0144,0.3615,10.2879,-0.0335,0.0378,-0.0128
1406301.0,-0.0096,0.3759,10.2903,-0.066,0.0404,-0.0176
1406311.0,-0.0431,0.3926,10.3238,-0.0926,0.0479,-0.0208
1406321.0,-0.0886,0.4381,10.3597,-0.107,0.0543,-0.0176
1406331.0,-0.1101,0.4717,10.398,-0.1043,0.0543,-0.0096
1406341.0,-0.1604,0.4812,10.398,-0.0777,0.0633,0.008
1406351.0,-0.1748,0.4429,10.3765,-0.0447,0.0825,0.0319
1406361.0,-0.1365,0.3591,10.3549,-0.0351,0.0952,0.0495
1406371.0,-0.1724,0.2466,10.422,-0.0506,0.108,0.0548
1406381.0,-0.17,0.17,10.489,-0.0697,0.1176,0.0511
1406391.0,-0.1867,0.0742,10.635,-0.0788,0.1203,0.0426
1406401.0,-0.182,0.012,10.8074,-0.0883,0.099,0.0303
1406411.0,-0.0982,0.012,10.7859,-0.0883,0.0681,0.016
1406421.0,-0.0766,0.1006,10.6949,-0.0974,0.0335,0.0
1406431.0,-0.0192,0.182,10.6279,-0.1187,0.0064,-0.0101
1406441.0,-0.0838,0.17,10.5584,-0.1261,-0.0048,-0.0069
1406451.0,-0.1101,0.1317,10.5321,-0.1086,-0.0085,0.0011
1406461.0,-0.1197,0.1053,10.4531,-0.0713,0.0,0.0069
1406471.0,-0.1604,0.1101,10.3549,-0.0372,0.0165,0.0106
1406481.0,-0.1317,0.0862,10.2496,-0.0218,0.0303,0.0106
1406491.0,-0.091,0.0838,10.2232,-0.0218,0.0506,0.0059
1406501.0,-0.091,0.0814,10.2256,-0.0447,0.0649,-0.0048
1406511.0,-0.0263,0.0862,10.3477,-0.0761,0.0772,-0.016
1406521.0,-0.0622,0.0742,10.5153,-0.0937,0.0857,-0.0261
1406531.0,-0.0742,0.0838,10.671,-0.0958,0.0756,-0.0372
1406541.0,-0.067,0.1844,10.635,-0.0734,0.0612,-0.0442
1406551.0,-0.1293,0.2945,10.6087,-0.0665,0.0404,-0.0468
1406561.0,-0.1437,0.3759,10.5608,-0.0756,0.0186,-0.0458
1406571.0,-0.2059,0.4501,10.4627,-0.0756,0.009,-0.0362
1406581.0,-0.1867,0.431,10.4507,-0.0766,-0.0021,-0.0202
1406591.0,-0.1556,0.4046,10.2735,-0.0803,-0.0122,-0.0053
1406601.0,-0.103,0.3352,10.1011,-0.0883,-0.0117,0.0133
1406611.0,-0.0335,0.2203,9.9862,-0.1016,0.0027,0.0229
1406621.0,0.0455,0.0742,10.0509,-0.1117,0.0319,0.025
1406631.0,0.0335,-0.0072,10.0556,-0.0974,0.0718,0.0197
1406641.0,0.0072,-0.0239,10.1155,-0.0835,0.0984,0.0085
1406651.0,-0.0359,-0.0144,10.3046,-0.0777,0.1187,-0.0053
1406661.0,-0.0455,0.067,10.3382,-0.0644,0.1282,-0.0165
1406671.0,-0.0407,0.1077,10.3789,-0.0702,0.1245,-0.0245
1406681.0,-0.0431,0.1245,10.5584,-0.083,0.1171,-0.0282
1406691.0,-0.0479,0.1437,10.5728,-0.0814,0.1128,-0.0255
1406701.0,-0.0886,0.1413,10.659,-0.0676,0.1075,-0.0202
1406711.0,-0.0814,0.0886,10.7069,-0.0463,0.0995,-0.0154
1406721.0,-0.1125,0.1053,10.6757,-0.0298,0.0873,-0.0165
1406731.0,-0.1772,0.103,10.5967,-0.0415,0.0633,-0.0261
1406741.0,-0.1724,0.1317,10.5512,-0.0702,0.0447,-0.0378
1406751.0,-0.2179,0.1197,10.5991,-0.0958,0.041,-0.049
1406761.0,-0.1867,0.1652,10.647,-0.0995,0.0394,-0.0548
1406771.0,-0.1891,0.1987,10.659,-0.0734,0.0436,-0.0553
1406781.0,-0.146,0.2538,10.6159,-0.0335,0.0463,-0.0506
1406791.0,-0.158,0.3232,10.5656,-0.0133,0.0468,-0.0436
1406801.0,-0.1365,0.4118,10.5584,-0.0186,0.0431,-0.0394
1406811.0,-0.1006,0.4621,10.4914,-0.0372,0.0351,-0.0346
1406821.0,-0.1413,0.4645,10.4674,-0.0692,0.0234,-0.0255
1406831.0,-0.1173,0.407,10.5417,-0.1022,0.0101,-0.016
1406841.0,-0.146,0.4094,10.4746,-0.1016,0.0032,-0.0032
1406851.0,-0.1125,0.3472,10.41,-0.0915,0.0053,0.0117
1406861.0,-0.0455,0.2418,10.3406,-0.0729,0.0192,0.0271
1406871.0,-0.0335,0.1556,10.3166,-0.0585,0.0372,0.0362
1406881.0,-0.0263,0.0239,10.2831,-0.067,0.0436,0.0346
1406891.0,0.0599,-0.0599,10.307,-0.0761,0.0532,0.0234
1406901.0,0.0407,-0.0479,10.319,-0.0729,0.0665,0.0074
1406911.0,0.0407,-0.0048,10.3932,-0.075,0.0639,-0.008
1406921.0,0.0527,0.1053,10.3956,-0.0676,0.0644,-0.0181
1406931.0,-0.0263,0.1508,10.3813,-0.0484,0.075,-0.0181
1406941.0,-0.0622,0.2107,10.3142,-0.0463,0.0841,-0.0133
1406951.0,-0.0958,0.1724,10.3669,-0.058,0.0942,-0.0096
1406961.0,-0.1221,0.1101,10.4651,-0.0686,0.1022,-0.0101
1406971.0,-0.1125,0.0814,10.5991,-0.0633,0.1027,-0.0112
1406981.0,-0.1413,0.0646,10.6087,-0.0612,0.0921,-0.017
1406991.0,-0.1197,0.091,10.659,-0.0665,0.0761,-0.0293
1407001.0,-0.1389,0.1341,10.7332,-0.067,0.0676,-0.0399
1407011.0,-0.1413,0.2227,10.6829,-0.0729,0.049,-0.0458
1407021.0,-0.1724,0.2825,10.6662,-0.0873,0.0271,-0.0474
1407031.0,-0.2538,0.3352,10.6039,-0.0851,0.0154,-0.041
1407041.0,-0.2251,0.3424,10.5704,-0.0686,0.0122,-0.0271
1407051.0,-0.1939,0.3017,10.4866,-0.0468,0.0101,-0.0112
1407061.0,-0.1053,0.2514,10.3932,-0.0325,0.0165,0.0
1407071.0,-0.0718,0.2011,10.2975,-0.0351,0.0271,0.0043
1407081.0,-0.0503,0.1006,10.2999,-0.0585,0.0357,0.0
1407091.0,-0.0239,0.0694,10.3741,-0.0713,0.0479,-0.0085
1407101.0,-0.0503,0.0886,10.4363,-0.0713,0.0575,-0.0181
1407111.0,-0.0575,0.1197,10.477,-0.0745,0.0527,-0.0277
1407121.0,-0.0431,0.2059,10.5177,-0.0702,0.0484,-0.0293
1407131.0,-0.0718,0.2418,10.4651,-0.0724,0.0452,-0.0271
1407141.0,-0.0383,0.2035,10.5393,-0.075,0.0394,-0.0202
1407151.0,-0.0503,0.1844,10.501,-0.0734,0.0341,-0.0133
1407161.0,-0.0168,0.1293,10.5153,-0.0718,0.0325,-0.0106
1407171.0,-0.0766,0.1197,10.4651,-0.0543,0.0351,-0.0112
1407181.0,-0.0646,0.091,10.3645,-0.0399,0.033,-0.0144
1407191.0,-0.0431,0.1125,10.3549,-0.0309,0.0442,-0.0176
1407201.0,-0.0886,0.1676,10.343,-0.05,0.0537,-0.0255
1407211.0,-0.0718,0.1365,10.4244,-0.0841,0.0537,-0.033
1407221.0,-0.0982,0.1197,10.5225,-0.091,0.0559,-0.0362
1407231.0,-0.0742,0.1053,10.5608,-0.0883,0.0442,-0.0378
1407241.0,-0.0503,0.158,10.5201,-0.074,0.0271,-0.0431
1407251.0,-0.0048,0.1939,10.4483,-0.0521,0.0192,-0.0447
1407261.0,0.0311,0.261,10.3621,-0.0399,0.0223,-0.0468
1407271.0,0.0168,0.2969,10.2951,-0.0431,0.0282,-0.0479
1407281.0,-0.0287,0.3855,10.3046,-0.0527,0.041,-0.0452
1407291.0,-0.0287,0.4094,10.319,-0.0521,0.0548,-0.0341
1407301.0,-0.0646,0.4381,10.2975,-0.049,0.0681,-0.0165
1407311.0,-0.0503,0.3615,10.3621,-0.0601,0.0718,-0.0005
1407321.0,-0.0503,0.2538,10.4052,-0.0734,0.0633,0.0112
1407331.0,-0.079,0.1437,10.3837,-0.0851,0.0591,0.0122
1407341.0,-0.067,0.0575,10.4411,-0.0793,0.0654,0.0059
1407351.0,-0.0742,0.0646,10.4507,-0.0553,0.074,-0.0016
1407361.0,-0.0742,0.0862,10.4387,-0.0346,0.075,-0.0149
1407371.0,-0.0551,0.1724,10.4483,-0.0298,0.0734,-0.0277
1407381.0,-0.0215,0.249,10.3956,-0.042,0.0686,-0.0341
1407391.0,-0.0144,0.3089,10.4004,-0.0654,0.0543,-0.0362
1407401.0,-0.0192,0.3519,10.4411,-0.0777,0.0415,-0.0303
1407411.0,-0.0024,0.3328,10.4052,-0.0814,0.0282,-0.0197
1407421.0,-0.012,0.2658,10.2999,-0.0761,0.0255,-0.0053
1407431.0,-0.0144,0.2035,10.1778,-0.0543,0.0484,0.0059
1407441.0,-0.0431,0.182,10.1969,-0.0319,0.0825,0.0096
1407451.0,-0.0503,0.1844,10.161,-0.0309,0.1086,0.0059
1407461.0,-0.0551,0.1293,10.3262,-0.0553,0.1378,-0.0021
1407471.0,-0.1293,0.0838,10.6039,-0.0649,0.1634,-0.0112
1407481.0,-0.182,0.0862,10.8026,-0.0639,0.1548,-0.0218
1407491.0,-0.1676,0.1413,10.896,-0.0575,0.1208,-0.0271
1407501.0,-0.1125,0.1844,10.9032,-0.0564,0.0851,-0.0314
1407511.0,-0.1508,0.2179,10.8864,-0.0479,0.0601,-0.0314
1407521.0,-0.1389,0.2418,10.8481,-0.0351,0.0346,-0.0282
1407531.0,-0.0958,0.2849,10.6303,-0.0388,0.0074,-0.0287
1407541.0,-0.103,0.3352,10.58,-0.0654,-0.0043,-0.0303
1407551.0,-0.146,0.3711,10.5201,-0.0803,-0.0016,-0.0277
1407561.0,-0.1293,0.3496,10.3741,-0.0942,-0.0053,-0.0208
1407571.0,-0.1053,0.2466,10.4315,-0.1123,-0.0133,-0.0128
1407581.0,-0.091,0.2322,10.4196,-0.0952,-0.0027,-0.0037
1407591.0,-0.0144,0.17,10.3334,-0.0644,0.0144,0.0053
1407601.0,0.0024,0.1006,10.2687,-0.0394,0.0319,0.0096
1407611.0,0.0622,0.0766,10.2831,-0.0261,0.0532,0.0059
1407621.0,0.0646,0.0838,10.3453,-0.0277,0.0708,-0.0053
1407631.0,0.0335,0.1053,10.3837,-0.0468,0.0777,-0.0197
1407641.0,0.0311,0.1293,10.4411,-0.0756,0.066,-0.0341
1407651.0,0.0072,0.2035,10.4722,-0.0931,0.0596,-0.0442
1407661.0,-0.0503,0.3089,10.5345,-0.0995,0.0548,-0.0484
1407671.0,-0.079,0.3065,10.556,-0.1043,0.0378,-0.0415
1407681.0,-0.0838,0.2705,10.5273,-0.0867,0.0282,-0.0309
1407691.0,-0.0838,0.2538,10.4267,-0.0506,0.0319,-0.0165
1407701.0,-0.0838,0.2705,10.398,-0.025,0.0447,-0.0069
1407711.0,-0.0934,0.2203,10.3262,-0.0112,0.0564,-0.0037
1407721.0,-0.0838,0.182,10.331,-0.0122,0.0639,-0.0069
1407731.0,-0.0551,0.2298,10.3477,-0.0266,0.0724,-0.0149
1407741.0,-0.0766,0.2921,10.343,-0.0452,0.0777,-0.0239
1407751.0,-0.0766,0.3352,10.4651,-0.0676,0.0697,-0.0277
1407761.0,-0.067,0.3711,10.4746,-0.0883,0.058,-0.0239
1407771.0,-0.067,0.328,10.5321,-0.0974,0.05,-0.0149
1407781.0,-0.0766,0.2634,10.5369,-0.0772,0.0506,-0.0053
1407791.0,-0.0599,0.2083,10.4651,-0.0516,0.0506,0.0021
1407801.0,-0.0503,0.1748,10.4674,-0.0367,0.0521,-0.0005
1407811.0,-0.0359,0.1628,10.4315,-0.0309,0.0596,-0.009
1407821.0,-0.0407,0.2107,10.4627,-0.0319,0.0644,-0.0186
1407831.0,-0.0694,0.2969,10.4507,-0.0378,0.0617,-0.0277
1407841.0,-0.067,0.3663,10.4627,-0.0623,0.0495,-0.0314
1407851.0,-0.0958,0.4118,10.4698,-0.0766,0.0452,-0.0282
1407861.0,-0.0862,0.431,10.4914,-0.0809,0.0474,-0.0176
1407871.0,-0.0575,0.4094,10.4315,-0.0772,0.0474,-0.0069
1407881.0,-0.0838,0.3926,10.4267,-0.0686,0.0516,0.0032
1407891.0,-0.0599,0.3663,10.41,-0.0506,0.0601,0.0128
1407901.0,-0.0455,0.3711,10.3549,-0.0426,0.0729,0.0208
1407911.0,-0.0934,0.3256,10.4124,-0.0575,0.0766,0.0234
1407921.0,-0.0383,0.2897,10.4938,-0.0713,0.0745,0.0255
1407931.0,-0.0383,0.2538,10.5441,-0.0745,0.0756,0.0261
1407941.0,-0.0335,0.1867,10.5632,-0.0825,0.067,0.0261
1407951.0,0.0168,0.1389,10.5872,-0.0867,0.0506,0.025
1407961.0,0.0168,0.0934,10.5345,-0.0883,0.0351,0.0223
1407971.0,-0.012,0.0383,10.5034,-0.0905,0.0319,0.0149
1407981.0,-0.0024,0.0431,10.4339,-0.0963,0.0277,0.0011
1407991.0,-0.0287,0.0694,10.3837,-0.0921,0.0341,-0.0112
1408001.0,-0.0646,0.1293,10.3932,-0.067,0.0511,-0.0176
1408011.0,-0.0335,0.2155,10.3884,-0.0458,0.0591,-0.0165
1408021.0,-0.0192,0.2729,10.3406,-0.0335,0.0681,-0.0101
1408031.0,0.0024,0.2705,10.3573,-0.0415,0.0766,-0.0016
1408041.0,0.0024,0.1963,10.4363,-0.0591,0.0793,0.0027
1408051.0,-0.0072,0.0934,10.489,-0.0676,0.0782,0.0037
1408061.0,-0.0144,0.0335,10.5872,-0.0729,0.066,-0.0053
1408071.0,-0.0263,0.0263,10.4794,-0.0702,0.0463,-0.0186
1408081.0,-0.0263,0.1221,10.4196,-0.0553,0.0399,-0.0325
1408091.0,-0.0551,0.2442,10.2687,-0.0511,0.0447,-0.0442
1408101.0,-0.1365,0.3472,10.2879,-0.0654,0.058,-0.0506
1408111.0,-0.1676,0.4262,10.41,-0.0686,0.0745,-0.0426
1408121.0,-0.1724,0.4022,10.5153,-0.05,0.0846,-0.0287
1408131.0,-0.1341,0.3903,10.5728,-0.0234,0.0825,-0.0149
1408141.0,-0.0742,0.3687,10.4483,-0.0112,0.0697,-0.0074
1408151.0,-0.0168,0.3543,10.3334,-0.0362,0.0591,-0.0085
1408161.0,0.0287,0.3328,10.3142,-0.0766,0.0628,-0.016
1408171.0,-0.091,0.3639,10.4555,-0.1181,0.0745,-0.0261
1408181.0,-0.1149,0.3831,10.6135,-0.1309,0.0788,-0.0277
1408191.0,-0.1891,0.3855,10.6997,-0.1048,0.0819,-0.0186
1408201.0,-0.1532,0.3855,10.6853,-0.0708,0.0734,-0.0059
1408211.0,-0.1389,0.4094,10.6087,-0.0458,0.0649,0.0101
1408221.0,-0.1173,0.3615,10.5824,-0.0511,0.0537,0.0213
1408231.0,-0.0646,0.261,10.5632,-0.0692,0.042,0.0282
1408241.0,-0.0838,0.1532,10.5321,-0.0761,0.0442,0.0335
1408251.0,-0.1173,0.0718,10.5512,-0.066,0.0463,0.033
1408261.0,-0.1197,0.0335,10.5129,-0.0559,0.0388,0.0266
1408271.0,-0.0742,0.0168,10.3813,-0.0569,0.0346,0.0122
1408281.0,-0.0383,0.0646,10.3621,-0.0761,0.0415,-0.0032
1408291.0,-0.103,0.0551,10.5153,-0.1075,0.0452,-0.0202
1408301.0,-0.0718,0.0718,10.5967,-0.1133,0.0335,-0.0303
1408311.0,-0.0239,0.091,10.6063,-0.075,0.0325,-0.0303
1408321.0,-0.0311,0.158,10.5225,-0.0298,0.0309,-0.0266
1408331.0,0.0287,0.2179,10.4435,-0.0053,0.0255,-0.0234
1408341.0,-0.0024,0.249,10.3238,-0.0106,0.0266,-0.0239
1408351.0,-0.0359,0.2897,10.319,-0.0367,0.0325,-0.0277
1408361.0,-0.103,0.3017,10.3118,-0.0543,0.042,-0.0277
1408371.0,-0.1556,0.3304,10.3932,-0.0527,0.0521,-0.0218
1408381.0,-0.1053,0.3112,10.477,-0.0277,0.0633,-0.0106
1408391.0,-0.0359,0.2801,10.477,0.0,0.0713,0.0011
1408401.0,-0.0144,0.2873,10.4028,0.0027,0.0692,0.0032
1408411.0,0.0503,0.2753,10.4267,-0.0255,0.0639,-0.0016
1408421.0,0.0168,0.2897,10.4267,-0.0665,0.0553,-0.0101
1408431.0,-0.0215,0.2634,10.5465,-0.1149,0.0367,-0.0192
1408441.0,-0.0359,0.2322,10.568,-0.1293,0.0154,-0.0223
1408451.0,-0.0192,0.2298,10.5058,-0.108,0.0059,-0.0208
1408461.0,0.0168,0.2586,10.3884,-0.0734,0.0016,-0.0181
1408471.0,0.0024,0.2849,10.1849,-0.0436,0.0096,-0.0122
1408481.0,-0.0215,0.2873,10.0533,-0.0266,0.0351,-0.008
1408491.0,-0.0551,0.2801,10.0748,-0.0133,0.0798,-0.0043
1408501.0,-0.0934,0.3065,10.1778,-0.0085,0.1149,-0.0048
1408511.0,-0.0766,0.3496,10.24,-0.0117,0.1357,-0.008
1408521.0,-0.0838,0.3903,10.3501,-0.0319,0.149,-0.0101
1408531.0,-0.0527,0.4166,10.5465,-0.0782,0.1352,-0.0138
1408541.0,-0.0287,0.3711,10.7188,-0.1288,0.1,-0.0213
1408551.0,-0.0455,0.3448,10.8242,-0.1383,0.0697,-0.0208
1408561.0,-0.1006,0.328,10.8649,-0.1096,0.0442,-0.0138
1408571.0,-0.0742,0.3304,10.6973,-0.0628,0.0202,-0.0016
1408581.0,-0.0431,0.328,10.4411,-0.0192,0.0112,0.0101
1408591.0,-0.0575,0.3208,10.3334,-0.0016,0.0218,0.0149
1408601.0,-0.0575,0.2993,10.2663,-0.0176,0.0372,0.0149
1408611.0,-0.0622,0.2418,10.252,-0.0543,0.0452,0.0117
1408621.0,-0.0335,0.2107,10.2352,-0.0883,0.0516,0.0027
1408631.0,-0.0239,0.1604,10.4052,-0.1107,0.0692,-0.0074
1408641.0,-0.0287,0.2035,10.5249,-0.0974,0.0878,-0.016
1408651.0,-0.0215,0.2945,10.5584,-0.083,0.0894,-0.0218
1408661.0,-0.0335,0.395,10.5848,-0.0724,0.0931,-0.017
1408671.0,-0.1077,0.4286,10.7117,-0.058,0.108,-0.0027
1408682.0,-0.1006,0.3663,10.829,-0.0575,0.0942,0.0128
1408691.0,-0.0407,0.2993,10.7787,-0.0649,0.0649,0.0239
1408701.0,-0.0311,0.1867,10.726,-0.0617,0.05,0.0309
1408711.0,-0.0479,0.1173,10.7045,-0.0639,0.0383,0.0282
1408721.0,-0.0096,0.0455,10.6207,-0.0803,0.0245,0.017
1408731.0,-0.0622,0.0024,10.5201,-0.1043,0.0176,-0.0043
1408741.0,-0.1389,0.0622,10.5465,-0.1298,0.0181,-0.0255
1408751.0,-0.1796,0.1365,10.671,-0.1341,0.0176,-0.0388
1408761.0,-0.1748,0.2203,10.6877,-0.1086,0.0144,-0.041
1408771.0,-0.1413,0.2586,10.6446,-0.0724,0.0074,-0.0351
1408781.0,-0.1245,0.3017,10.5369,-0.0447,-0.0027,-0.0234
1408791.0,-0.1269,0.3136,10.4004,-0.033,-0.0043,-0.0122
1408801.0,-0.0958,0.2562,10.343,-0.042,0.0043,-0.0053
1408811.0,-0.0072,0.146,10.3214,-0.0607,0.0112,-0.0101
1408821.0,0.0,0.1413,10.3645,-0.0777,0.0133,-0.0234
1408831.0,0.0575,0.1891,10.3908,-0.0921,0.0085,-0.0404
1408841.0,0.0455,0.2777,10.4028,-0.1006,0.0069,-0.0506
1408851.0,0.0144,0.3472,10.4579,-0.1038,0.0011,-0.0521
1408861.0,0.0622,0.4094,10.3765,-0.0873,-0.0128,-0.0436
1408871.0,0.0479,0.4166,10.2999,-0.066,-0.0208,-0.0277
1408881.0,0.0479,0.4046,10.1011,-0.0447,-0.0133,-0.0101
1408891.0,0.0503,0.3328,9.9575,-0.0399,0.0074,0.0016
1408901.0,0.0599,0.2562,9.9503,-0.0447,0.0378,0.0059
1408911.0,0.0431,0.2322,9.9575,-0.0564,0.0644,0.0027
1408921.0,-0.0024,0.2083,10.0844,-0.066,0.0851,-0.0048
1408931.0,0.091,0.2131,10.2831,-0.0527,0.1171,-0.0112
1408941.0,-0.0407,0.3089,10.3956,-0.0309,0.1421,-0.0133
1408951.0,0.0096,0.2514,10.477,-0.0601,0.0968,-0.0154
1408961.0,0.0575,0.2562,10.4315,-0.0383,0.0862,-0.0128
1408971.0,-0.0263,0.3208,10.386,0.008,0.1235,-0.0069
1408981.0,-0.0144,0.3615,10.3549,-0.0037,0.1224,-0.0043
1408991.0,0.0407,0.3208,10.4674,-0.0564,0.116,-0.0074
1409001.0,-0.0503,0.2849,10.5656,-0.0894,0.1208,-0.0106
1409011.0,-0.1317,0.2514,10.7476,-0.1022,0.1091,-0.0122
1409021.0,-0.1604,0.2658,10.829,-0.0772,0.0931,-0.0069
1409031.0,-0.1389,0.2753,10.7978,-0.033,0.0777,0.0016
1409041.0,-0.0862,0.2682,10.671,-0.0101,0.0628,0.0069
1409051.0,-0.0934,0.2394,10.5752,-0.0245,0.0506,0.0016
1409061.0,-0.1077,0.2251,10.568,-0.0521,0.0495,-0.008
1409071.0,-0.1269,0.1939,10.6231,-0.0686,0.0511,-0.0154
1409081.0,-0.0814,0.2059,10.6997,-0.0628,0.042,-0.0239
1409091.0,-0.0599,0.249,10.6087,-0.0511,0.0277,-0.0325
1409101.0,-0.0048,0.3448,10.5177,-0.0506,0.0186,-0.0367
1409111.0,0.0024,0.4501,10.501,-0.0676,0.025,-0.0367
1409121.0,-0.0192,0.4405,10.5273,-0.0899,0.0266,-0.0293
1409131.0,-0.0263,0.4381,10.5297,-0.1011,0.025,-0.0181
1409141.0,-0.0479,0.4286,10.489,-0.0883,0.033,-0.0037
1409151.0,-0.0694,0.395,10.422,-0.0601,0.0447,0.0101
1409161.0,-0.0311,0.3807,10.3621,-0.0553,0.0452,0.0202
1409171.0,-0.0192,0.3065,10.3813,-0.0729,0.0532,0.0223
1409181.0,-0.0311,0.2011,10.3908,-0.091,0.0654,0.0213
1409191.0,-0.012,0.1915,10.4962,-0.1038,0.0633,0.0138
1409201.0,0.0,0.1676,10.5776,-0.1064,0.0596,0.0048
1409211.0,-0.0072,0.1772,10.6303,-0.0814,0.0612,0.0037
1409221.0,-0.0551,0.1915,10.635,-0.0537,0.0569,0.0032
1409231.0,-0.0239,0.1844,10.5369,-0.0399,0.0436,-0.0005
1409241.0,-0.0455,0.2346,10.4339,-0.042,0.0357,-0.0064
1409251.0,-0.0766,0.2705,10.3813,-0.0633,0.0351,-0.0112
1409261.0,-0.0239,0.2514,10.3741,-0.0889,0.0309,-0.0138
1409271.0,-0.0287,0.2466,10.3645,-0.1075,0.0335,-0.0186
1409281.0,-0.0311,0.2586,10.41,-0.108,0.0468,-0.0202
1409291.0,-0.0622,0.2682,10.4555,-0.1112,0.0575,-0.0192
1409301.0,-0.091,0.2729,10.5728,-0.1176,0.0575,-0.016
1409311.0,-0.0335,0.261,10.6303,-0.1112,0.0495,-0.0133
1409321.0,-0.0407,0.2562,10.6303,-0.0915,0.0383,-0.0096
1409331.0,-0.0431,0.2322,10.5632,-0.0734,0.0192,-0.0021
1409341.0,0.0287,0.1748,10.3789,-0.0617,0.0064,0.0043
1409351.0,0.0335,0.1245,10.2759,-0.0537,0.0128,0.0048
1409361.0,0.0335,0.0958,10.1706,-0.0612,0.0229,-0.0037
1409371.0,-0.0096,0.1197,10.2352,-0.066,0.0415,-0.0154
1409381.0,-0.0048,0.1389,10.2544,-0.0686,0.0569,-0.0239
1409391.0,0.0144,0.1772,10.2855,-0.0724,0.0607,-0.0325
1409401.0,0.0048,0.2442,10.3597,-0.0724,0.0649,-0.0341
1409411.0,0.0599,0.2801,10.3956,-0.0644,0.066,-0.0277
1409421.0,0.079,0.2251,10.4028,-0.0585,0.0596,-0.0181
1409431.0,0.1173,0.1652,10.3837,-0.0474,0.0596,-0.0138
1409441.0,0.0622,0.17,10.3645,-0.0319,0.0692,-0.016
1409451.0,0.0048,0.1341,10.307,-0.0319,0.066,-0.0223
1409461.0,-0.0072,0.1437,10.3501,-0.0367,0.0665,-0.0309
1409471.0,-0.0048,0.2011,10.3765,-0.041,0.0697,-0.0426
1409481.0,0.0096,0.2753,10.4172,-0.0436,0.0702,-0.0495
1409491.0,0.0383,0.3448,10.4148,-0.0569,0.0553,-0.0532
1409501.0,0.0575,0.3879,10.386,-0.067,0.0463,-0.0495
1409511.0,0.0096,0.4094,10.3932,-0.0559,0.0596,-0.0404
1409521.0,-0.0096,0.419,10.4315,-0.0341,0.0676,-0.0271
1409531.0,-0.0311,0.4238,10.3477,-0.0239,0.0692,-0.016
1409541.0,0.0287,0.4118,10.3022,-0.0213,0.0793,-0.008
1409551.0,-0.0144,0.3831,10.2759,-0.0378,0.0905,-0.0053
1409561.0,-0.0359,0.3543,10.3453,-0.075,0.0867,-0.0096
1409571.0,0.0096,0.3256,10.4052,-0.0979,0.0873,-0.0106
1409581.0,-0.0263,0.2634,10.4842,-0.1059,0.0883,-0.0128
1409591.0,0.0024,0.2346,10.5896,-0.0974,0.0835,-0.016
1409601.0,-0.0407,0.2777,10.5321,-0.0766,0.0788,-0.0186
1409611.0,-0.0718,0.3496,10.5273,-0.0676,0.0734,-0.0213
1409621.0,-0.0934,0.4022,10.4986,-0.0633,0.0745,-0.0181
1409631.0,-0.1293,0.3855,10.5225,-0.0729,0.067,-0.0101
1409641.0,-0.0814,0.3328,10.5273,-0.0814,0.0537,-0.0053
1409651.0,-0.0527,0.2705,10.501,-0.0676,0.0511,0.0053
1409661.0,-0.0527,0.2059,10.4986,-0.0452,0.0521,0.0128
1409671.0,0.0503,0.146,10.4267,-0.0266,0.0607,0.0149
1409681.0,0.0599,0.1077,10.3022,-0.0208,0.0702,0.0085
1409691.0,0.0599,0.1317,10.3453,-0.0404,0.083,-0.0037
1409701.0,-0.0168,0.2035,10.3286,-0.0713,0.0894,-0.0176
1409711.0,-0.0527,0.2035,10.4746,-0.0878,0.0974,-0.0239
1409721.0,-0.1101,0.2107,10.6015,-0.0798,0.107,-0.0239
1409731.0,-0.0766,0.2155,10.6183,-0.0665,0.0979,-0.0202
1409741.0,-0.067,0.2346,10.5967,-0.0548,0.0851,-0.0165
1409751.0,-0.0886,0.1867,10.635,-0.0468,0.0846,-0.0133
1409761.0,-0.0622,0.1101,10.6494,-0.049,0.074,-0.0154
1409771.0,-0.0407,0.0551,10.659,-0.0484,0.0575,-0.0234
1409781.0,-0.0838,0.103,10.6303,-0.041,0.05,-0.0367
1409791.0,-0.0838,0.1604,10.5608,-0.0426,0.0383,-0.0516
1409801.0,-0.0838,0.261,10.4866,-0.0516,0.0303,-0.0633
1409811.0,-0.0742,0.3567,10.4746,-0.0596,0.0309,-0.0681
1409821.0,-0.0862,0.4429,10.4603,-0.0644,0.033,-0.0633
1409831.0,-0.0359,0.5028,10.4196,-0.066,0.0293,-0.0537
1409841.0,0.0048,0.5148,10.3501,-0.066,0.0388,-0.0426
1409851.0,-0.0479,0.4788,10.4052,-0.075,0.0575,-0.0303
1409861.0,-0.0742,0.4621,10.4674,-0.0841,0.0623,-0.0218
1409871.0,-0.1197,0.4405,10.4698,-0.0798,0.0639,-0.0128
1409881.0,-0.1077,0.4166,10.5058,-0.0718,0.0644,-0.0027
1409891.0,-0.0982,0.3711,10.5656,-0.058,0.0639,0.0043
1409901.0,-0.0192,0.3519,10.4411,-0.049,0.0527,0.0101
1409911.0,0.0287,0.3089,10.3645,-0.0591,0.042,0.009
1409921.0,0.0527,0.2682,10.3501,-0.0793,0.0447,0.0032
1409931.0,0.0431,0.2203,10.4004,-0.0883,0.0553,-0.0037
1409941.0,-0.0359,0.1987,10.4674,-0.0867,0.066,-0.0112
1409951.0,-0.0527,0.2179,10.5082,-0.0697,0.066,-0.0149
1409961.0,-0.0958,0.2969,10.4555,-0.0468,0.0649,-0.0154
1409971.0,-0.0311,0.3424,10.3813,-0.0325,0.0649,-0.0128
1409981.0,-0.0359,0.3519,10.3597,-0.0394,0.0628,-0.0074
1409991.0,-0.0455,0.34,10.4148,-0.0436,0.0654,0.0005
1410001.0,-0.0168,0.2897,10.4291,-0.0351,0.0729,0.0069
1410011.0,-0.0287,0.2658,10.398,-0.025,0.0793,0.0112
1410021.0,-0.067,0.2179,10.422,-0.033,0.0788,0.009
1410031.0,-0.103,0.2227,10.4435,-0.041,0.0772,0.0021
1410041.0,-0.0599,0.2298,10.4124,-0.0591,0.0697,-0.0096
1410051.0,-0.0718,0.2274,10.4363,-0.0819,0.0601,-0.0186
1410061.0,-0.0551,0.2562,10.4315,-0.0931,0.0511,-0.0261
1410071.0,-0.0958,0.2897,10.4363,-0.0846,0.0468,-0.0255
1410081.0,-0.079,0.2849,10.4555,-0.0569,0.0537,-0.0186
1410091.0,-0.012,0.2729,10.3597,-0.0271,0.0654,-0.0106
1410101.0,-0.0096,0.2729,10.3214,-0.0112,0.0772,-0.0069
1410111.0,-0.0168,0.2849,10.3022,-0.0176,0.0873,-0.009
1410121.0,0.0072,0.2538,10.3525,-0.0388,0.0947,-0.0128
1410131.0,-0.0263,0.2322,10.3477,-0.0692,0.0867,-0.0234
1410141.0,-0.0215,0.2586,10.4267,-0.0857,0.0788,-0.0378
1410151.0,-0.067,0.3448,10.4507,-0.0894,0.0788,-0.0474
1410161.0,-0.0982,0.395,10.4651,-0.0958,0.0756,-0.0511
1410171.0,-0.1341,0.4645,10.4818,-0.0984,0.0729,-0.0516
1410181.0,-0.1149,0.5387,10.5345,-0.0819,0.0862,-0.0431
1410191.0,-0.2059,0.5818,10.5465,-0.0617,0.0974,-0.0277
1410201.0,-0.1963,0.5794,10.5632,-0.0607,0.0846,-0.0096
1410211.0,-0.1748,0.565,10.568,-0.0559,0.083,0.0064
1410221.0,-0.1365,0.498,10.6231,-0.0601,0.0814,0.0229
1410231.0,-0.0718,0.431,10.6255,-0.0729,0.0708,0.0325
1410241.0,-0.079,0.3089,10.6159,-0.0851,0.0633,0.0394
1410251.0,-0.0503,0.2011,10.6231,-0.0862,0.0633,0.0415
1410261.0,-0.0311,0.1796,10.5536,-0.0761,0.0756,0.0372
1410271.0,-0.1101,0.1269,10.647,-0.0915,0.0862,0.0271
1410281.0,-0.1556,0.1101,10.7571,-0.1128,0.0803,0.0117
1410291.0,-0.2274,0.158,10.8266,-0.1133,0.0676,-0.0016
1410301.0,-0.249,0.2155,10.9463,-0.0968,0.0479,-0.0085
1410311.0,-0.1891,0.2514,10.9104,-0.0681,0.0213,-0.0048
1410321.0,-0.0958,0.2849,10.7667,-0.0452,-0.0112,-0.0021
1410331.0,-0.0263,0.34,10.5201,-0.0394,-0.0341,0.0
1410341.0,0.0168,0.3448,10.3789,-0.0623,-0.0474,0.0027
1410351.0,0.0575,0.2538,10.2592,-0.099,-0.0506,0.0043
1410361.0,-0.067,0.2227,10.2256,-0.1235,-0.0309,0.0021
1410371.0,-0.0814,0.146,10.3046,-0.1293,-0.017,-0.0021
1410381.0,-0.0622,0.1077,10.3358,-0.0952,-0.0059,-0.0048
1410391.0,-0.012,0.1413,10.2639,-0.0506,0.008,-0.009
1410401.0,0.0263,0.2083,10.1682,-0.0298,0.016,-0.0128
1410411.0,0.0479,0.2418,10.1059,-0.0362,0.0234,-0.0197
1410421.0,0.0287,0.2993,10.1299,-0.0474,0.0372,-0.0255
1410431.0,0.0359,0.3304,10.1418,-0.0559,0.0426,-0.0298
1410441.0,0.0718,0.407,10.0868,-0.0591,0.0458,-0.0277
1410451.0,0.0431,0.407,10.082,-0.0601,0.0639,-0.0197
1410461.0,0.0144,0.3926,10.1323,-0.0612,0.091,-0.008
1410471.0,0.0048,0.3543,10.1514,-0.0665,0.1123,0.0021
1410481.0,-0.0359,0.2753,10.3022,-0.0809,0.1192,0.0069
1410491.0,-0.0718,0.1891,10.5105,-0.0782,0.1197,0.008
1410501.0,-0.0886,0.1748,10.4722,-0.0639,0.1117,0.0005
1410511.0,-0.1149,0.2083,10.5321,-0.0458,0.1064,-0.0053
1410521.0,-0.158,0.2514,10.4794,-0.0362,0.099,-0.009
1410531.0,-0.1125,0.2658,10.4651,-0.041,0.0958,-0.0112
1410541.0,-0.1317,0.2682,10.4842,-0.0484,0.0995,-0.0144
1410551.0,-0.1293,0.2777,10.5441,-0.058,0.0926,-0.0176
1410561.0,-0.1173,0.2777,10.5249,-0.0676,0.0766,-0.0202
1410571.0,-0.0886,0.3136,10.4986,-0.0782,0.066,-0.0202
1410581.0,-0.1077,0.3328,10.5058,-0.0873,0.0612,-0.0165
1410591.0,-0.1221,0.2945,10.4866,-0.0798,0.0596,-0.0074
1410601.0,-0.0982,0.2203,10.4531,-0.0633,0.0633,0.0011
1410611.0,-0.0694,0.1772,10.4651,-0.0362,0.074,0.0064
1410621.0,-0.0359,0.1532,10.4315,-0.0266,0.0841,0.0032
1410631.0,-0.0168,0.1772,10.3597,-0.0442,0.0814,-0.0096
1410641.0,-0.0335,0.1676,10.4172,-0.0793,0.0841,-0.025
1410651.0,-0.0503,0.2203,10.5512,-0.0974,0.0963,-0.0367
1410661.0,-0.1221,0.2418,10.6877,-0.0968,0.1,-0.0404
1410671.0,-0.1173,0.2849,10.7045,-0.0798,0.0963,-0.0367
1410681.0,-0.146,0.3041,10.7164,-0.0506,0.0958,-0.0277
1410691.0,-0.1508,0.2682,10.7548,-0.0378,0.0809,-0.0197
1410701.0,-0.0742,0.237,10.7212,-0.0426,0.0607,-0.0192
1410711.0,-0.0814,0.2083,10.6207,-0.0607,0.0383,-0.0293
1410721.0,-0.0718,0.2179,10.5848,-0.0793,0.0197,-0.0447
1410731.0,-0.1269,0.3089,10.5321,-0.0931,0.0122,-0.058
1410741.0,-0.146,0.4118,10.4698,-0.0905,0.0101,-0.0623
1410751.0,-0.1939,0.4693,10.4746,-0.0841,0.0208,-0.0585
1410761.0,-0.1891,0.4717,10.4267,-0.0766,0.0319,-0.0452
1410771.0,-0.1844,0.4764,10.3453,-0.066,0.042,-0.033
1410781.0,-0.1915,0.4693,10.4531,-0.067,0.0543,-0.0197
1410791.0,-0.182,0.4693,10.5129,-0.0654,0.0553,-0.0074
1410801.0,-0.1413,0.486,10.4698,-0.0607,0.0543,0.0032
1410811.0,-0.0814,0.3974,10.5369,-0.0559,0.0596,0.0154
1410821.0,-0.0742,0.3184,10.5536,-0.0516,0.0537,0.0218
1410831.0,0.0096,0.2274,10.4674,-0.0676,0.033,0.0192
1410841.0,0.0168,0.1604,10.489,-0.091,0.0197,0.0069
1410851.0,-0.0551,0.1867,10.4698,-0.1086,0.0186,-0.0085
1410861.0,-0.0862,0.1748,10.4842,-0.1165,0.0085,-0.0192
1410871.0,-0.0646,0.1891,10.4387,-0.0942,0.0043,-0.0229
1410881.0,-0.0431,0.2251,10.3765,-0.0506,0.0149,-0.0213
1410891.0,-0.0263,0.2753,10.2185,-0.0192,0.0245,-0.0165
1410901.0,-0.0072,0.2801,10.0772,-0.017,0.0372,-0.0138
1410911.0,0.0024,0.3041,10.0389,-0.0394,0.0575,-0.016
1410921.0,-0.0359,0.2777,10.1873,-0.0724,0.0878,-0.0208
1410931.0,-0.0766,0.261,10.3884,-0.0862,0.1054,-0.0218
1410941.0,-0.0431,0.2873,10.5465,-0.0686,0.1027,-0.0202
1410951.0,-0.0527,0.3112,10.5512,-0.0463,0.0905,-0.0128
1410961.0,-0.0048,0.2753,10.5656,-0.0431,0.0761,-0.009
1410971.0,0.0407,0.2777,10.5153,-0.0431,0.0644,-0.0112
1410981.0,-0.0263,0.2682,10.4267,-0.05,0.0564,-0.0149
1410991.0,-0.0479,0.2634,10.4124,-0.0623,0.05,-0.0192
1411001.0,-0.091,0.2634,10.3358,-0.0702,0.0511,-0.0255
1411011.0,-0.1389,0.3496,10.3621,-0.0713,0.0644,-0.0298
1411021.0,-0.1652,0.3711,10.3597,-0.0777,0.0809,-0.0277
1411031.0,-0.1844,0.3591,10.5082,-0.083,0.0851,-0.0223
1411041.0,-0.17,0.3184,10.5201,-0.0798,0.0846,-0.0223
1411051.0,-0.1125,0.3759,10.5584,-0.0665,0.0889,-0.0202
1411061.0,-0.1532,0.3448,10.6805,-0.0506,0.0915,-0.0181
1411071.0,-0.1269,0.407,10.6494,-0.0394,0.0766,-0.0165
1411081.0,-0.1149,0.4286,10.6111,-0.0383,0.0665,-0.0138
1411091.0,-0.1125,0.4669,10.5991,-0.0468,0.0591,-0.009
1411101.0,-0.1676,0.4956,10.6231,-0.0591,0.0511,-0.0043
1411111.0,-0.1508,0.4549,10.5848,-0.0718,0.0394,0.0032
1411121.0,-0.1413,0.3687,10.5273,-0.0889,0.0234,0.0106
1411131.0,-0.0694,0.3184,10.5273,-0.0995,0.0165,0.0122
1411141.0,-0.1077,0.2658,10.4986,-0.1,0.0202,0.0128
1411151.0,-0.079,0.2562,10.4435,-0.0974,0.0213,0.009
1411161.0,-0.091,0.261,10.4722,-0.0942,0.025,0.0053
1411171.0,-0.0862,0.2586,10.4387,-0.0772,0.0282,0.0043
1411181.0,-0.091,0.2346,10.4028,-0.0575,0.0325,0.008
1411191.0,-0.0551,0.2418,10.3693,-0.0436,0.0325,0.0106
1411201.0,-0.0215,0.2634,10.2496,-0.0431,0.033,0.0106
1411211.0,-0.0479,0.2298,10.2208,-0.0639,0.0367,0.0074
1411221.0,-0.0359,0.2035,10.2065,-0.0867,0.0458,0.0064
1411231.0,-0.0407,0.1125,10.307,-0.1011,0.0607,0.0
1411241.0,-0.0024,0.0886,10.3549,-0.0915,0.0702,-0.0074
1411251.0,-0.0024,0.1149,10.3837,-0.0596,0.0841,-0.0149
1411261.0,-0.0263,0.1389,10.398,-0.042,0.0841,-0.0197
1411271.0,-0.0383,0.17,10.3573,-0.0335,0.0841,-0.025
1411281.0,-0.0742,0.2873,10.41,-0.0341,0.0867,-0.0303
1411291.0,-0.0886,0.2921,10.4196,-0.042,0.0798,-0.0314
1411301.0,-0.0718,0.2825,10.4507,-0.0559,0.0665,-0.0319
1411311.0,-0.0934,0.2897,10.4842,-0.0596,0.0665,-0.0303
1411321.0,-0.1149,0.2634,10.4746,-0.0553,0.0639,-0.0303
1411331.0,-0.0958,0.2442,10.4818,-0.05,0.0623,-0.0298
1411341.0,-0.091,0.2777,10.5153,-0.0394,0.0729,-0.0341
1411351.0,-0.1341,0.3112,10.5201,-0.0383,0.0702,-0.0394
1411361.0,-0.1077,0.3831,10.4555,-0.0521,0.0543,-0.0468
1411371.0,-0.0575,0.4262,10.4627,-0.066,0.0484,-0.0532
1411381.0,-0.0455,0.5315,10.41,-0.0777,0.0495,-0.0532
1411391.0,-0.0982,0.5674,10.3932,-0.0984,0.0415,-0.0452
1411401.0,-0.0814,0.6225,10.4291,-0.0974,0.0474,-0.0293
1411411.0,-0.103,0.5842,10.4052,-0.0745,0.0686,-0.0053
1411421.0,-0.1317,0.5028,10.4363,-0.0548,0.0819,0.0192
1411431.0,-0.0982,0.3735,10.41,-0.0468,0.0873,0.0357
1411441.0,-0.0814,0.2801,10.4363,-0.0468,0.1,0.042
1411451.0,-0.091,0.2035,10.4986,-0.0543,0.1128,0.0378
1411461.0,-0.0718,0.158,10.5872,-0.0681,0.1064,0.0261
1411471.0,-0.067,0.1317,10.6734,-0.0814,0.0984,0.0133
1411481.0,-0.1101,0.1724,10.7021,-0.0851,0.0889,0.0021
1411491.0,-0.1437,0.1748,10.7811,-0.0995,0.0681,-0.0096
1411501.0,-0.1628,0.1724,10.7907,-0.0995,0.0516,-0.0165
1411511.0,-0.1604,0.1963,10.7883,-0.0809,0.0388,-0.0208
1411521.0,-0.1724,0.2203,10.7763,-0.0628,0.0218,-0.0213
1411531.0,-0.1413,0.261,10.6638,-0.0495,0.0027,-0.0245
1411541.0,-0.1437,0.316,10.5656,-0.0351,-0.0021,-0.0266
1411551.0,-0.1796,0.407,10.4866,-0.0309,-0.0064,-0.025
1411561.0,-0.1437,0.431,10.422,-0.0394,-0.0069,-0.0192
1411571.0,-0.1413,0.3926,10.3238,-0.0511,-0.0048,-0.0085
1411581.0,-0.0958,0.3519,10.2711,-0.0692,-0.0032,-0.0021
1411591.0,-0.0431,0.2658,10.2687,-0.0803,0.0069,-0.0011
1411601.0,-0.0096,0.2179,10.2903,-0.0761,0.0213,-0.0043
1411611.0,0.0168,0.182,10.24,-0.0766,0.0192,-0.0112
1411621.0,0.0718,0.1772,10.2615,-0.0724,0.0213,-0.0213
1411631.0,0.079,0.2418,10.2304,-0.0548,0.0325,-0.0277
1411641.0,0.0718,0.3184,10.2041,-0.0436,0.041,-0.0298
1411651.0,0.0359,0.3831,10.149,-0.0484,0.0506,-0.0277
1411661.0,-0.0072,0.4142,10.1227,-0.0521,0.0713,-0.0218
1411671.0,-0.0527,0.3855,10.1945,-0.0553,0.0937,-0.0154
1411681.0,-0.0694,0.3639,10.307,-0.0644,0.1075,-0.0106
1411691.0,-0.0814,0.3639,10.398,-0.0729,0.1139,-0.009
1411701.0,-0.0718,0.3807,10.4531,-0.0724,0.1128,-0.0069
1411711.0,-0.0622,0.3352,10.5369,-0.0793,0.1086,-0.0064
1411721.0,-0.091,0.3496,10.5608,-0.0729,0.1022,-0.0053
1411731.0,-0.0838,0.3424,10.6231,-0.0607,0.0947,0.0
1411741.0,-0.067,0.2969,10.5896,-0.0442,0.0867,0.0053
1411751.0,-0.0814,0.2777,10.6279,-0.0383,0.0814,0.0048
1411761.0,-0.1173,0.2897,10.5967,-0.0426,0.074,-0.0043
1411771.0,-0.1149,0.3136,10.5584,-0.0559,0.0623,-0.0117
1411781.0,-0.1293,0.3304,10.5536,-0.0846,0.0521,-0.0181
1411791.0,-0.1508,0.3615,10.5824,-0.0968,0.049,-0.0223
1411801.0,-0.1365,0.4238,10.6303,-0.0889,0.0468,-0.0218
1411811.0,-0.0982,0.4908,10.5058,-0.0761,0.0426,-0.016
1411821.0,-0.1365,0.5243,10.4674,-0.0708,0.0521,-0.0032
1411831.0,-0.1556,0.4717,10.6111,-0.0686,0.0734,0.0138
1411841.0,-0.1604,0.3831,10.6973,-0.0644,0.0798,0.0261
1411851.0,-0.1365,0.328,10.6925,-0.0644,0.0676,0.0298
1411861.0,-0.1413,0.2921,10.7236,-0.0649,0.0569,0.0282
1411871.0,-0.1365,0.2705,10.659,-0.0708,0.041,0.0239
1411881.0,-0.0862,0.2658,10.6135,-0.0793,0.0303,0.017
1411891.0,-0.091,0.2658,10.6135,-0.0857,0.0261,0.0101
1411901.0,-0.1365,0.3041,10.6063,-0.0873,0.0202,0.008
1411911.0,-0.1604,0.2777,10.5776,-0.0889,0.0112,0.008
1411921.0,-0.1245,0.2993,10.5201,-0.0814,0.0096,0.009
1411931.0,-0.1341,0.3112,10.4387,-0.0905,0.0053,0.009
1411941.0,-0.0838,0.2658,10.4746,-0.1107,0.0011,0.008
1411951.0,-0.0838,0.249,10.4986,-0.1086,0.0053,0.0112
1411961.0,-0.0599,0.1676,10.4842,-0.1032,-0.0021,0.016
1411971.0,-0.0072,0.1053,10.4555,-0.0809,-0.0117,0.0202
1411981.0,0.0263,0.0766,10.2831,-0.0511,-0.0128,0.0176
1411991.0,0.0694,0.0599,10.1107,-0.041,-0.0043,0.009
1412001.0,0.0646,0.0766,10.0102,-0.0537,0.0059,-0.0069
1412011.0,0.0503,0.103,9.9958,-0.0835,0.025,-0.025
1412021.0,0.0335,0.1556,10.082,-0.1016,0.0553,-0.0351
1412031.0,-0.0192,0.2131,10.1514,-0.1032,0.0777,-0.041
1412041.0,-0.012,0.2442,10.3142,-0.0937,0.0873,-0.0399
1412051.0,-0.0192,0.261,10.4555,-0.0639,0.1,-0.0303
1412061.0,-0.0072,0.2466,10.4291,-0.0261,0.1091,-0.0186
1412071.0,-0.0335,0.2442,10.3956,-0.0197,0.0968,-0.017
1412081.0,-0.0287,0.2753,10.3573,-0.0388,0.0889,-0.0245
1412091.0,-0.1077,0.2897,10.4698,-0.0591,0.0931,-0.0325
1412101.0,-0.1341,0.3112,10.5465,-0.0718,0.0905,-0.0367
1412111.0,-0.1867,0.3543,10.5752,-0.0697,0.0798,-0.0362
1412121.0,-0.1413,0.3735,10.5872,-0.0559,0.0644,-0.0325
1412131.0,-0.067,0.3998,10.501,-0.041,0.0532,-0.0261
1412141.0,-0.0239,0.407,10.4531,-0.0474,0.0468,-0.0261
1412151.0,-0.0048,0.4286,10.4148,-0.066,0.0452,-0.0271
1412161.0,-0.0862,0.4549,10.4507,-0.0825,0.049,-0.0266
1412171.0,-0.1221,0.4836,10.4315,-0.0841,0.0564,-0.0208
1412181.0,-0.1269,0.5148,10.4627,-0.0676,0.0686,-0.0101
1412191.0,-0.1173,0.5028,10.4387,-0.0564,0.0756,0.0016
1412201.0,-0.067,0.5339,10.4244,-0.0601,0.0761,0.0128
1412211.0,-0.0527,0.4908,10.4315,-0.0798,0.0793,0.0245
1412221.0,-0.0958,0.4214,10.5058,-0.108,0.0793,0.0314
1412231.0,-0.0503,0.3184,10.5752,-0.1181,0.0761,0.0372
1412241.0,-0.0718,0.2394,10.6159,-0.1016,0.0782,0.0463
1412251.0,-0.0646,0.1556,10.6015,-0.0809,0.0729,0.0474
1412261.0,-0.0766,0.1006,10.5704,-0.0729,0.067,0.0415
1412271.0,-0.0742,0.103,10.5034,-0.0729,0.0644,0.0271
1412281.0,-0.0646,0.0982,10.5441,-0.0846,0.0591,0.0112
1412291.0,-0.1053,0.1269,10.5129,-0.0984,0.0553,-0.0005
1412301.0,-0.1413,0.1963,10.5776,-0.1027,0.0537,-0.008
1412311.0,-0.158,0.2298,10.659,-0.0899,0.0537,-0.0069
1412321.0,-0.146,0.2442,10.6638,-0.0734,0.0511,-0.0032
1412331.0,-0.1245,0.2298,10.5728,-0.0548,0.0431,0.0048
1412341.0,-0.1006,0.182,10.556,-0.0452,0.033,0.008
1412351.0,-0.0383,0.1413,10.5082,-0.0569,0.0213,0.0053
1412361.0,-0.0024,0.1508,10.4603,-0.0777,0.0101,-0.0059
1412371.0,-0.0359,0.1652,10.4172,-0.0937,0.0053,-0.0197
1412381.0,-0.0215,0.1796,10.4507,-0.0899,0.009,-0.0261
1412391.0,-0.0287,0.2011,10.4124,-0.0718,0.009,-0.0271
1412401.0,-0.0215,0.249,10.2903,-0.049,0.0106,-0.0266
1412411.0,0.0144,0.3041,10.1921,-0.0394,0.0218,-0.025
1412421.0,0.0575,0.316,10.2568,-0.0378,0.0357,-0.0218
1412431.0,-0.0096,0.3232,10.1969,-0.0426,0.0468,-0.0186
1412441.0,0.0192,0.3017,10.2328,-0.0617,0.0516,-0.0218
1412451.0,-0.0048,0.3232,10.2089,-0.0702,0.0676,-0.0239
1412461.0,-0.0503,0.3567,10.3046,-0.0734,0.0857,-0.0239
1412471.0,-0.0575,0.4118,10.3837,-0.0708,0.0942,-0.0192
1412481.0,-0.0455,0.407,10.4076,-0.0692,0.0915,-0.0101
1412491.0,-0.0168,0.3783,10.4579,-0.0708,0.0878,-0.0005
1412501.0,-0.0551,0.3591,10.5082,-0.066,0.091,0.0101
1412511.0,-0.0575,0.2921,10.5177,-0.0633,0.0846,0.0202
1412521.0,-0.0503,0.1867,10.477,-0.0585,0.0803,0.025
1412531.0,-0.0575,0.1173,10.4555,-0.0537,0.0846,0.0192
1412541.0,-0.0934,0.0958,10.489,-0.0623,0.0814,0.0027
1412551.0,-0.1437,0.1365,10.4962,-0.0809,0.0745,-0.017
1412561.0,-0.1891,0.2203,10.5896,-0.0931,0.0788,-0.0298
1412571.0,-0.2035,0.3232,10.6422,-0.091,0.0772,-0.0346
1412581.0,-0.1437,0.3639,10.6662,-0.0825,0.0708,-0.0303
1412591.0,-0.1101,0.4262,10.6446,-0.075,0.0575,-0.0208
1412601.0,-0.0503,0.3974,10.6877,-0.0681,0.0458,-0.0064
1412611.0,-0.0599,0.3567,10.6829,-0.0612,0.0346,0.008
1412621.0,-0.0527,0.2586,10.6183,-0.0612,0.0181,0.016
1412631.0,-0.079,0.1844,10.5034,-0.0644,0.0059,0.0181
1412641.0,-0.0982,0.103,10.4363,-0.0708,0.0016,0.0128
1412651.0,-0.103,0.091,10.3525,-0.0734,0.0069,0.0005
1412661.0,-0.1269,0.1197,10.3525,-0.0724,0.016,-0.0128
1412671.0,-0.1389,0.1963,10.3046,-0.0686,0.0293,-0.0218
1412681.0,-0.1197,0.2418,10.3549,-0.0713,0.0436,-0.0266
1412691.0,-0.1197,0.2729,10.3884,-0.0772,0.0495,-0.0261
1412701.0,-0.0622,0.2825,10.4746,-0.0782,0.0394,-0.0213
1412711.0,-0.0455,0.2825,10.4315,-0.0686,0.033,-0.0112
1412721.0,0.0144,0.1963,10.3573,-0.066,0.0223,-0.0043
1412731.0,0.0551,0.1149,10.3022,-0.0708,0.016,-0.0011
1412741.0,0.0599,0.0263,10.2735,-0.067,0.0261,-0.0043
1412751.0,0.0718,-0.0096,10.2592,-0.0607,0.0346,-0.0144
1412761.0,0.079,0.0168,10.2113,-0.0468,0.0404,-0.0298
1412771.0,0.0527,0.0982,10.1562,-0.0346,0.0553,-0.0436
1412781.0,0.0287,0.1915,10.137,-0.0282,0.0814,-0.05
1412791.0,0.0192,0.2418,10.2208,-0.0298,0.1032,-0.0516
1412801.0,-0.0215,0.2705,10.3022,-0.0335,0.1181,-0.0484
1412811.0,-0.0455,0.2921,10.41,-0.0383,0.1245,-0.0431
1412821.0,-0.0646,0.2322,10.5129,-0.0367,0.1224,-0.0378
1412831.0,-0.1077,0.2131,10.5776,-0.0484,0.1112,-0.0415
1412841.0,-0.1101,0.1987,10.6422,-0.0559,0.0931,-0.0463
1412851.0,-0.1173,0.2179,10.671,-0.0479,0.0798,-0.0553
1412861.0,-0.1053,0.2801,10.6231,-0.0341,0.0697,-0.0633
1412871.0,-0.1245,0.4046,10.6039,-0.0192,0.0601,-0.0681
1412881.0,-0.1221,0.51,10.4722,-0.0181,0.0511,-0.066
1412891.0,-0.1077,0.5794,10.3932,-0.041,0.0468,-0.0591
1412901.0,-0.1053,0.6153,10.4387,-0.0617,0.0537,-0.0468
1412911.0,-0.091,0.5914,10.4722,-0.0686,0.0596,-0.0303
1412921.0,-0.0934,0.5842,10.4914,-0.0724,0.0548,-0.0154
1412931.0,-0.0335,0.5148,10.5129,-0.0654,0.0575,0.0021
1412941.0,-0.0144,0.4812,10.3645,-0.0628,0.0601,0.0154
1412951.0,0.0431,0.3615,10.3956,-0.074,0.0654,0.0245
1412961.0,-0.0096,0.2993,10.3693,-0.0777,0.0841,0.0261
1412971.0,-0.0575,0.2155,10.41,-0.0873,0.0915,0.0229
1412981.0,-0.0599,0.1628,10.5201,-0.0841,0.0979,0.0186
1412991.0,-0.0886,0.1173,10.5632,-0.0713,0.1032,0.0122
1413001.0,-0.0646,0.1269,10.6303,-0.0612,0.0995,0.0053
1413011.0,-0.0622,0.103,10.6446,-0.0559,0.0915,-0.0037
1413021.0,-0.0934,0.1221,10.6949,-0.0607,0.0814,-0.0165
1413031.0,-0.0958,0.1987,10.6614,-0.0649,0.0692,-0.0303
1413041.0,-0.1772,0.2753,10.6973,-0.0654,0.0537,-0.0378
1413051.0,-0.1532,0.3448,10.6542,-0.0623,0.0367,-0.0394
1413061.0,-0.1221,0.3735,10.5776,-0.0692,0.0218,-0.0367
1413071.0,-0.0982,0.395,10.556,-0.0798,0.0122,-0.0287
1413081.0,-0.1532,0.3711,10.501,-0.0803,0.0101,-0.0192
1413091.0,-0.1197,0.2873,10.489,-0.075,0.0059,-0.0122
1413101.0,-0.0742,0.2418,10.4387,-0.058,0.0064,-0.0085
1413111.0,-0.0766,0.2418,10.3525,-0.0468,0.0112,-0.0096
1413121.0,-0.0383,0.2442,10.3118,-0.0399,0.0149,-0.0138
1413131.0,-0.0287,0.2753,10.2663,-0.0357,0.0255,-0.0197
1413141.0,-0.0144,0.2921,10.2256,-0.0367,0.0372,-0.0255
1413151.0,-0.0024,0.3112,10.2544,-0.0442,0.0511,-0.0303
1413161.0,0.0192,0.3639,10.3142,-0.0506,0.0644,-0.0335
1413171.0,-0.012,0.3663,10.3334,-0.0601,0.0718,-0.0346
1413181.0,0.0048,0.407,10.3789,-0.0713,0.0697,-0.0341
1413191.0,-0.0359,0.4501,10.4052,-0.0697,0.0697,-0.0314
1413201.0,-0.0575,0.4956,10.3334,-0.074,0.0665,-0.0271
1413211.0,-0.0862,0.5052,10.3549,-0.075,0.0692,-0.0165
1413221.0,-0.0982,0.486,10.4363,-0.0782,0.0734,-0.0048
1413231.0,-0.1053,0.4741,10.4124,-0.0782,0.0761,0.009
1413241.0,-0.1101,0.4022,10.4148,-0.0702,0.0809,0.0218
1413251.0,-0.0694,0.316,10.4483,-0.0665,0.0793,0.0309
1413261.0,-0.0407,0.2322,10.4076,-0.0702,0.0846,0.0335
1413271.0,-0.0479,0.1556,10.4267,-0.0819,0.0867,0.0287
1413281.0,-0.0742,0.0982,10.4842,-0.0963,0.0814,0.0176
1413291.0,-0.1006,0.1077,10.5273,-0.0974,0.0772,0.0043
1413301.0,-0.0934,0.103,10.5608,-0.0846,0.075,-0.0064
1413311.0,-0.1053,0.1053,10.5704,-0.066,0.0676,-0.0133
1413321.0,-0.0886,0.1628,10.5321,-0.0474,0.0633,-0.0181
1413331.0,-0.0814,0.2059,10.4651,-0.0372,0.0623,-0.0218
1413341.0,-0.0718,0.2011,10.4435,-0.0362,0.0607,-0.0213
1413351.0,-0.0575,0.2083,10.386,-0.0447,0.0596,-0.0223
1413361.0,-0.0814,0.2251,10.4028,-0.0543,0.0644,-0.0266
1413371.0,-0.091,0.2274,10.4411,-0.0591,0.0654,-0.0314
1413381.0,-0.0838,0.249,10.4698,-0.0548,0.0724,-0.0351
1413391.0,-0.1173,0.2705,10.5297,-0.0548,0.0803,-0.0372
1413401.0,-0.1173,0.328,10.5704,-0.0633,0.075,-0.0431
1413411.0,-0.1245,0.3974,10.5249,-0.0734,0.0623,-0.0447
