time_ms,ax,ay,az,gx,gy,gz
1381061.0,0.6057,4.8746,9.5888,-0.0857,-0.033,0.1059
1381071.0,0.7518,4.5633,9.5505,0.0452,-0.0208,0.125
1381081.0,0.9218,4.3574,9.3613,0.1389,-0.0266,0.1123
1381091.0,1.008,4.3838,9.1219,0.1554,-0.0468,0.0692
1381101.0,1.0223,4.5681,8.8298,0.0984,-0.0718,0.0117
1381111.0,1.0534,4.8435,8.6622,-0.0122,-0.0883,-0.0442
1381121.0,0.9768,5.0853,8.5808,-0.1298,-0.0772,-0.0772
1381131.0,0.8595,5.1763,8.7029,-0.2208,-0.0585,-0.0873
1381141.0,0.8332,5.1308,8.9423,-0.2464,-0.0357,-0.0756
1381151.0,0.7781,5.0111,9.165,-0.1937,0.0016,-0.0516
1381161.0,0.7733,4.9344,9.3829,-0.0958,0.0202,-0.0229
1381171.0,0.9122,4.9057,9.2967,0.009,0.0149,0.0016
1381181.0,0.9337,4.8483,9.1004,0.0761,0.0064,0.0197
1381191.0,0.9816,4.8243,8.825,0.0559,-0.0234,0.0165
1381201.0,1.075,4.8722,8.5186,-0.025,-0.033,-0.0043
1381211.0,0.9409,4.9368,8.667,-0.1059,0.008,-0.0239
1381221.0,0.8547,4.9153,8.8873,-0.132,0.0415,-0.0271
1381231.0,0.9002,4.8578,8.9567,-0.1203,0.0532,-0.0234
1381241.0,0.8859,4.8219,9.0453,-0.0921,0.066,-0.0192
1381251.0,0.8547,4.8171,9.1051,-0.0628,0.0692,-0.0149
1381261.0,0.9577,4.7884,9.1219,-0.0197,0.0654,-0.009
1381271.0,0.9768,4.7812,8.9136,-0.0069,0.0543,-0.009
1381281.0,1.0175,4.7285,8.8131,-0.0458,0.0479,-0.0208
1381291.0,0.9984,4.6878,8.904,-0.1054,0.0564,-0.041
1381301.0,0.9529,4.6878,9.1171,-0.1431,0.0649,-0.0628
1381311.0,0.929,4.7285,9.1722,-0.1431,0.0527,-0.0761
1381321.0,0.9697,4.7932,9.1937,-0.1362,0.0346,-0.0867
1381331.0,0.9457,4.9273,9.1506,-0.1112,0.0271,-0.0883
1381341.0,0.8906,5.0398,9.0046,-0.0947,0.0165,-0.083
1381351.0,0.9529,5.1308,8.8849,-0.0979,0.0069,-0.0724
1381361.0,0.9361,5.1643,8.9495,-0.0926,0.0303,-0.0559
1381371.0,0.8954,5.0661,9.0022,-0.0724,0.0516,-0.0335
1381381.0,0.9218,4.8866,9.0716,-0.0442,0.0543,-0.0181
1381391.0,0.9481,4.7716,9.0573,0.0027,0.0681,-0.0122
1381401.0,0.9409,4.7932,9.0692,0.042,0.0809,-0.0197
1381411.0,0.9816,4.9273,8.9687,0.0452,0.0686,-0.0351
1381421.0,0.996,5.0853,8.8466,0.0186,0.0639,-0.05
1381431.0,0.917,5.1906,8.9711,-0.0213,0.0756,-0.0532
1381441.0,0.8499,5.2313,9.1459,-0.0394,0.0766,-0.0474
1381451.0,0.8906,5.193,9.2512,-0.0213,0.0697,-0.0351
1381461.0,0.8284,5.1834,9.153,0.0112,0.0639,-0.0181
1381471.0,0.8571,5.1236,9.074,0.0213,0.0596,-0.0053
1381481.0,0.929,4.9823,9.0453,0.0074,0.0564,-0.0037
1381491.0,0.9409,4.9464,9.0477,-0.0239,0.0527,-0.0202
1381501.0,0.9266,5.023,9.1411,-0.0575,0.0479,-0.0415
1381511.0,0.905,5.1619,9.1937,-0.0761,0.0431,-0.0532
1381521.0,0.9337,5.2648,9.2392,-0.0745,0.0271,-0.0521
1381531.0,0.9409,5.4109,9.098,-0.0596,0.008,-0.0404
1381541.0,0.9385,5.4803,8.928,-0.0548,0.0048,-0.0186
1381551.0,0.8763,5.3343,8.9735,-0.0591,0.0154,0.0101
1381561.0,0.8595,5.1739,9.0142,-0.0239,0.0298,0.0394
1381571.0,0.8882,4.9919,8.9639,0.0463,0.0521,0.0628
1381581.0,0.9242,4.9129,8.7484,0.0958,0.0649,0.0702
1381591.0,1.0606,4.8578,8.6718,0.0889,0.0798,0.0628
1381601.0,1.0918,4.8267,8.7388,0.0607,0.1064,0.0452
1381611.0,1.0654,4.8937,8.7556,0.0128,0.1197,0.0208
1381621.0,0.996,4.9752,9.007,-0.0474,0.1256,0.0
1381631.0,0.905,5.0254,9.2344,-0.0585,0.1325,-0.0043
1381641.0,0.8452,4.9991,9.4212,-0.0458,0.1149,0.0021
1381651.0,0.8787,4.9416,9.3589,-0.0202,0.0766,0.0106
1381661.0,0.972,4.8698,9.2177,-0.0085,0.049,0.0096
1381671.0,1.0343,4.7932,9.0597,-0.0213,0.0351,-0.0027
1381681.0,1.0965,4.81,8.9759,-0.0628,0.017,-0.025
1381691.0,1.0942,4.8985,8.8921,-0.0974,0.0101,-0.0463
1381701.0,0.9625,4.9584,8.825,-0.1357,0.0096,-0.0633
1381711.0,0.9816,5.0326,8.8011,-0.1554,0.0037,-0.0697
1381721.0,0.9744,5.126,8.6981,-0.1453,0.0213,-0.0654
1381731.0,0.8954,5.0781,8.7125,-0.1442,0.0463,-0.0564
1381741.0,0.9792,4.9967,8.8131,-0.1245,0.0697,-0.042
1381751.0,0.9936,4.8363,8.8633,-0.0809,0.1027,-0.0314
1381761.0,1.0199,4.774,8.916,-0.0495,0.1261,-0.0357
1381771.0,0.9792,4.7645,8.8801,-0.0468,0.1405,-0.0495
1381781.0,0.9313,4.853,8.9232,-0.0729,0.1368,-0.0729
1381791.0,0.826,4.9536,8.9902,-0.1139,0.1293,-0.0926
1381801.0,0.7254,5.0015,9.1578,-0.1474,0.1272,-0.1059
1381811.0,0.7614,5.0374,9.1435,-0.1751,0.1027,-0.1149
1381821.0,0.8045,5.0087,9.3087,-0.2027,0.075,-0.1213
1381831.0,0.7518,5.023,9.4451,-0.1772,0.0633,-0.1203
1381841.0,0.7326,5.0949,9.4212,-0.1091,0.0479,-0.1075
1381851.0,0.7973,5.1763,9.2081,-0.0394,0.0319,-0.0921
1381861.0,0.8452,5.2936,8.995,0.0117,0.0436,-0.0756
1381871.0,0.6943,5.3223,8.837,0.008,0.0575,-0.0649
1381881.0,0.6871,5.3534,8.8274,-0.0319,0.0607,-0.0569
1381891.0,0.7063,5.3558,8.8035,-0.0676,0.0734,-0.0495
1381901.0,0.7254,5.2888,8.9998,-0.1107,0.0819,-0.0442
1381911.0,0.7829,5.2529,9.1866,-0.1235,0.0798,-0.0372
1381921.0,0.814,5.2409,9.2177,-0.1,0.075,-0.0271
1381931.0,0.8356,5.2337,9.2488,-0.067,0.0702,-0.0144
1381941.0,0.7949,5.2122,9.2488,-0.0404,0.0649,-0.0011
1381951.0,0.8571,5.2146,9.1482,-0.0197,0.049,0.008
1381961.0,0.814,5.217,8.9711,-0.0309,0.0303,0.0117
1381971.0,0.8715,5.1236,8.9016,-0.0654,0.0218,0.0064
1381982.0,0.8475,5.1404,8.7747,-0.0958,0.0245,-0.0005
1381991.0,0.838,5.1188,8.7843,-0.141,0.0218,-0.0096
1382001.0,0.8356,5.0733,8.7867,-0.1719,0.0394,-0.0144
1382011.0,0.7925,5.0518,8.8992,-0.165,0.0734,-0.0133
1382021.0,0.7374,5.0877,8.9878,-0.1559,0.0905,-0.0112
1382031.0,0.723,5.0446,9.0764,-0.1538,0.0958,-0.0059
1382041.0,0.7829,4.9512,9.2488,-0.1261,0.0974,0.0048
1382051.0,0.8691,4.8961,9.0429,-0.1117,0.0873,0.0064
1382061.0,0.8811,4.8961,9.0214,-0.1799,0.0665,-0.0117
1382071.0,0.8835,4.8794,9.165,-0.2788,0.0426,-0.0351
1382081.0,0.7853,4.8578,9.3972,-0.3161,0.0319,-0.0468
1382091.0,0.7326,4.8698,9.4355,-0.2756,0.0181,-0.0442
1382101.0,0.7901,4.9105,9.232,-0.2059,-0.0043,-0.0346
1382111.0,0.8882,4.9009,8.995,-0.1527,-0.0149,-0.0266
1382121.0,0.9026,4.9536,8.7101,-0.149,-0.0032,-0.0245
1382131.0,0.9026,4.9201,8.7029,-0.1825,0.0234,-0.025
1382141.0,0.8715,4.8937,8.8585,-0.1777,0.0585,-0.0208
1382151.0,0.8643,4.8794,8.9639,-0.141,0.0846,-0.0074
1382161.0,0.8667,4.9033,8.9639,-0.0899,0.1054,0.008
1382171.0,0.8452,4.9368,9.007,-0.049,0.1282,0.0223
1382181.0,0.8116,4.9512,8.9543,-0.0282,0.1426,0.033
1382191.0,0.8092,4.9321,8.9567,-0.0319,0.1453,0.0415
1382201.0,0.8332,4.8459,8.9663,-0.0639,0.1495,0.0415
1382211.0,0.8356,4.695,9.1075,-0.1165,0.1501,0.033
1382221.0,0.8571,4.5107,9.3709,-0.1522,0.1442,0.0197
1382231.0,0.8954,4.4005,9.4978,-0.1368,0.1357,0.0016
1382241.0,0.8045,4.4221,9.596,-0.0947,0.1208,-0.0213
1382251.0,0.7685,4.5657,9.6127,-0.0372,0.1022,-0.041
1382261.0,0.7039,4.7549,9.4116,0.0117,0.091,-0.0527
1382271.0,0.6728,4.9392,9.244,0.025,0.0825,-0.0575
1382281.0,0.6847,5.0805,9.1818,0.008,0.0819,-0.0548
1382291.0,0.7135,5.0254,9.1889,-0.0255,0.0867,-0.0436
1382301.0,0.7638,4.9201,9.2751,-0.0543,0.0963,-0.0367
1382311.0,0.6967,4.889,9.4882,-0.0825,0.0963,-0.0388
1382321.0,0.6895,4.9536,9.6702,-0.0905,0.0724,-0.0415
1382331.0,0.6273,5.035,9.6295,-0.067,0.0468,-0.033
1382341.0,0.5866,5.0566,9.6103,-0.0458,0.016,-0.0181
1382351.0,0.6201,5.0757,9.5577,-0.0106,-0.0192,0.0
1382361.0,0.7015,5.0733,9.2177,0.0255,-0.0506,0.0176
1382371.0,0.8188,5.0829,8.8155,0.0367,-0.0612,0.0341
1382381.0,0.8164,4.8985,8.7652,0.0197,-0.033,0.0463
1382391.0,0.8308,4.7621,8.7843,0.0277,0.0069,0.0516
1382401.0,0.8236,4.6783,8.7676,0.066,0.0521,0.0484
1382411.0,0.8404,4.604,8.9807,0.1101,0.1011,0.0468
1382421.0,0.8308,4.5586,9.2129,0.1538,0.1171,0.0394
1382431.0,0.838,4.695,9.1051,0.1942,0.0889,0.0229
1382441.0,0.9433,4.9057,8.8921,0.2059,0.0734,0.0085
1382451.0,0.893,5.1068,8.7197,0.1575,0.0729,-0.0053
1382461.0,0.9577,5.2385,8.6455,0.0575,0.0623,-0.0186
1382471.0,0.9074,5.2936,8.8131,-0.0596,0.0713,-0.0298
1382481.0,0.7781,5.2768,9.0932,-0.1501,0.0681,-0.033
1382491.0,0.7183,5.2553,9.3015,-0.1543,0.042,-0.0213
1382501.0,0.7494,5.2074,9.1506,-0.0798,0.0218,0.0053
1382511.0,0.8021,5.1834,8.7987,-0.0239,0.009,0.0298
1382521.0,0.8859,5.1068,8.4755,-0.0266,0.0128,0.0436
1382531.0,0.9505,4.9392,8.351,-0.0734,0.0399,0.0399
1382541.0,0.9912,4.7716,8.442,-0.1181,0.0862,0.0277
1382551.0,0.972,4.6831,8.6526,-0.1394,0.1336,0.0037
1382561.0,0.9194,4.6926,8.8131,-0.1346,0.165,-0.0186
1382571.0,0.8236,4.8147,9.0022,-0.1038,0.1873,-0.0335
1382581.0,0.7901,4.8937,9.1602,-0.0596,0.2017,-0.0383
1382591.0,0.7326,4.968,9.1243,-0.0346,0.1963,-0.0404
1382601.0,0.6847,5.0613,9.244,-0.0569,0.1777,-0.0479
1382611.0,0.6704,5.1643,9.3374,-0.0793,0.1591,-0.0527
1382621.0,0.6081,5.2074,9.4499,-0.0984,0.1378,-0.0521
1382631.0,0.6009,5.2098,9.5553,-0.1054,0.116,-0.0447
1382641.0,0.6129,5.1787,9.5816,-0.0841,0.1011,-0.0309
1382652.0,0.6512,5.1308,9.517,-0.0591,0.0798,-0.0202
1382661.0,0.6656,5.1308,9.4355,-0.0612,0.0543,-0.0181
1382671.0,0.6105,5.1212,9.3805,-0.0857,0.0303,-0.0197
1382681.0,0.6225,5.0757,9.3518,-0.1144,0.0016,-0.0192
1382691.0,0.6847,5.0326,9.2249,-0.1309,-0.0239,-0.0149
1382701.0,0.7015,4.9201,9.1674,-0.1394,-0.0394,-0.016
1382711.0,0.7374,4.8243,9.0716,-0.1176,-0.0357,-0.0149
1382721.0,0.7733,4.8243,8.9543,-0.0724,-0.0197,-0.0149
1382731.0,0.8068,4.8554,8.8107,-0.0362,0.0021,-0.0186
1382741.0,0.838,4.8339,8.7676,-0.0229,0.0383,-0.0245
1382751.0,0.8045,4.8123,8.8825,-0.0394,0.0713,-0.0372
1382761.0,0.7925,4.9129,9.0573,-0.0617,0.0798,-0.0569
1382771.0,0.747,5.1332,9.1698,-0.0665,0.0835,-0.066
1382781.0,0.7087,5.3008,9.2703,-0.0745,0.0814,-0.0564
1382791.0,0.7446,5.2888,9.3541,-0.0809,0.0575,-0.0383
1382801.0,0.7733,5.284,9.3278,-0.0708,0.0357,-0.0192
1382811.0,0.7566,5.2122,9.1435,-0.0676,0.0181,-0.0005
1382821.0,0.7398,5.0733,9.0932,-0.0798,0.0048,0.0112
1382831.0,0.7781,4.9895,9.0118,-0.0692,0.0069,0.0149
1382841.0,0.7757,4.9847,8.8705,-0.0665,0.0133,0.0117
1382851.0,0.7925,4.9249,8.9184,-0.0793,0.025,0.0117
1382861.0,0.8188,4.8123,9.0214,-0.0798,0.0383,0.0128
1382871.0,0.8284,4.7932,9.019,-0.0383,0.0559,0.0117
1382881.0,0.8188,4.8171,8.8538,0.0011,0.0649,0.0069
1382891.0,0.8188,4.8219,8.8466,-0.0106,0.0766,-0.0043
1382901.0,0.7614,4.9081,8.904,-0.041,0.0899,-0.0192
1382911.0,0.759,4.9728,8.9663,-0.0782,0.0878,-0.0351
1382921.0,0.7685,4.9991,9.0381,-0.1176,0.0713,-0.0468
1382931.0,0.7015,5.047,9.1459,-0.1469,0.0495,-0.0506
1382941.0,0.68,5.0446,9.2344,-0.1197,0.0436,-0.0431
1382951.0,0.6416,5.0709,9.074,-0.0458,0.0468,-0.0245
1382961.0,0.6728,5.0949,8.8585,-0.0011,0.0527,-0.0122
1382971.0,0.7207,5.0829,8.6838,-0.0202,0.0639,-0.0074
1382981.0,0.7135,4.9991,8.8346,-0.0734,0.0851,-0.009
1382991.0,0.7087,4.9464,9.0285,-0.0974,0.108,-0.0112
1383001.0,0.6919,4.9009,9.1961,-0.0926,0.1155,-0.0117
1383011.0,0.7566,4.9009,9.3111,-0.0718,0.1059,-0.008
1383021.0,0.7566,4.853,9.3685,-0.0601,0.0846,-0.0064
1383031.0,0.7925,4.8411,9.3541,-0.0415,0.0724,-0.0059
1383041.0,0.7638,4.798,9.3326,-0.0229,0.0628,-0.0053
1383051.0,0.7805,4.7812,9.2943,-0.016,0.041,-0.0117
1383061.0,0.8212,4.8363,9.1818,-0.017,0.0239,-0.0223
1383071.0,0.8475,4.8746,9.0884,-0.0479,0.0133,-0.0399
1383081.0,0.8212,4.9129,9.0956,-0.0819,0.016,-0.0553
1383091.0,0.6895,4.9871,9.2584,-0.0947,0.0245,-0.0633
1383101.0,0.6536,5.0422,9.244,-0.0686,0.0255,-0.0607
1383111.0,0.6393,5.0805,9.2081,-0.0388,0.016,-0.0474
1383121.0,0.7614,5.0973,9.0884,-0.0298,-0.0032,-0.0346
1383131.0,0.8619,5.0996,8.904,-0.0543,-0.0245,-0.0282
1383141.0,0.8595,4.9608,8.8945,-0.0921,-0.0325,-0.0234
1383151.0,0.905,4.8387,8.9208,-0.0835,-0.0298,-0.0186
1383161.0,0.8906,4.798,8.7676,-0.0431,-0.0282,-0.0197
1383171.0,0.905,4.8123,8.5736,-0.008,-0.0154,-0.0271
1383181.0,0.8882,4.8794,8.442,0.0117,0.0181,-0.0341
1383191.0,0.9002,4.9249,8.3701,0.0027,0.058,-0.0452
1383201.0,0.9242,4.9752,8.4755,-0.0287,0.0947,-0.0617
1383211.0,0.9002,5.0566,8.6455,-0.0676,0.1181,-0.0718
1383221.0,0.8954,5.114,8.7987,-0.0793,0.1309,-0.0708
1383231.0,0.8092,5.1475,8.9016,-0.0692,0.149,-0.0617
1383241.0,0.7326,5.1068,8.9878,-0.0468,0.165,-0.049
1383251.0,0.6991,5.0111,9.1219,-0.0293,0.174,-0.0452
1383261.0,0.6464,5.0326,9.1794,-0.0101,0.1783,-0.05
1383271.0,0.565,5.0613,9.3589,-0.017,0.1708,-0.0601
1383281.0,0.5555,5.2074,9.4834,-0.033,0.141,-0.0681
1383291.0,0.5722,5.3534,9.4643,-0.0404,0.1128,-0.0665
1383301.0,0.5052,5.442,9.3781,-0.0788,0.0777,-0.0553
1383311.0,0.5243,5.3702,9.4116,-0.1144,0.0474,-0.0372
1383321.0,0.4956,5.2289,9.4044,-0.1075,0.042,-0.0154
1383331.0,0.577,5.0302,9.4116,-0.0894,0.0431,0.0005
1383341.0,0.5842,4.8674,9.5361,-0.0665,0.0394,0.0037
1383351.0,0.6728,4.877,9.4308,-0.0314,0.0197,-0.0027
1383361.0,0.7039,4.9536,9.3326,-0.0117,0.0037,-0.0149
1383371.0,0.7494,5.1164,9.1195,-0.017,-0.0117,-0.0287
1383381.0,0.7781,5.2696,8.9998,-0.0548,-0.0255,-0.0388
1383391.0,0.7254,5.3606,9.0214,-0.0952,-0.0271,-0.0362
1383401.0,0.7326,5.3343,9.0142,-0.1203,-0.016,-0.0229
1383411.0,0.7302,5.2672,9.0142,-0.1203,0.0021,-0.0037
1383421.0,0.7374,5.1547,9.0237,-0.116,0.009,0.0133
1383431.0,0.7757,4.9919,9.0525,-0.1075,0.0181,0.0261
1383441.0,0.759,4.8722,9.0932,-0.0745,0.0261,0.0319
1383451.0,0.7901,4.798,9.0166,-0.0309,0.025,0.0293
1383461.0,0.8212,4.7549,8.8394,-0.0053,0.0325,0.016
1383471.0,0.8021,4.8387,8.7293,-0.016,0.0463,-0.0043
1383481.0,0.8236,4.9081,8.7676,-0.0596,0.0569,-0.0287
1383491.0,0.7494,5.0015,8.8633,-0.1123,0.0644,-0.0479
1383501.0,0.6967,5.0661,9.0932,-0.1325,0.0665,-0.0537
1383511.0,0.7039,5.114,9.1435,-0.1144,0.058,-0.0431
1383521.0,0.7183,5.0853,9.0884,-0.0894,0.042,-0.0261
1383531.0,0.7709,5.0518,8.9759,-0.0756,0.0282,-0.0122
1383541.0,0.7997,5.0326,8.9016,-0.0649,0.0277,-0.0053
1383551.0,0.747,4.9704,8.8394,-0.0623,0.05,-0.0027
1383561.0,0.7063,4.889,8.8825,-0.0734,0.0681,-0.0032
1383571.0,0.7159,4.8435,8.9088,-0.0798,0.0825,-0.0122
1383581.0,0.6776,4.8291,9.0501,-0.0878,0.0963,-0.025
1383591.0,0.6464,4.8866,9.1794,-0.0867,0.1016,-0.0378
1383601.0,0.668,4.9344,9.2656,-0.0793,0.0942,-0.041
1383611.0,0.7039,4.9704,9.3063,-0.0676,0.0825,-0.0415
1383621.0,0.6943,5.0111,9.3805,-0.0537,0.066,-0.041
1383631.0,0.6847,5.0925,9.2249,-0.0415,0.0399,-0.0351
1383641.0,0.735,5.0757,9.1866,-0.0628,0.0197,-0.0319
1383651.0,0.6776,5.0518,9.1937,-0.0899,0.0106,-0.0298
1383661.0,0.6249,5.0566,9.2368,-0.0947,0.0043,-0.0255
1383671.0,0.6919,4.9919,9.1578,-0.0681,0.0,-0.016
1383681.0,0.7518,4.9009,9.1075,-0.0521,-0.0085,-0.0117
1383691.0,0.8356,4.9129,9.0022,-0.0415,-0.0096,-0.0165
1383701.0,0.838,4.9033,8.9016,-0.0293,0.0069,-0.0223
1383711.0,0.8643,4.9632,8.8849,-0.0325,0.017,-0.0298
1383721.0,0.8859,4.9871,8.7819,-0.0697,0.0197,-0.0442
1383731.0,0.8308,5.0398,8.9807,-0.1128,0.0351,-0.0575
1383741.0,0.7374,5.1308,9.0525,-0.1288,0.0325,-0.0607
1383751.0,0.7398,5.1332,9.1363,-0.1314,0.0128,-0.0543
1383761.0,0.7877,5.1164,9.0668,-0.1064,0.0122,-0.041
1383771.0,0.7398,5.0781,9.0237,-0.0814,0.0165,-0.0325
1383781.0,0.8068,5.1068,8.8178,-0.0681,0.008,-0.0271
1383791.0,0.814,5.0494,8.7245,-0.0846,0.017,-0.0282
1383801.0,0.7949,5.0566,8.7771,-0.1171,0.0415,-0.0335
1383811.0,0.7877,5.0781,8.9687,-0.1431,0.0607,-0.0383
1383821.0,0.7494,5.1427,8.9495,-0.1479,0.0559,-0.0383
1383831.0,0.747,5.217,8.9926,-0.1453,0.0511,-0.0319
1383841.0,0.7039,5.2218,9.0261,-0.1293,0.0644,-0.0112
1383851.0,0.723,5.126,9.0237,-0.1133,0.0628,0.0101
1383861.0,0.814,5.035,8.983,-0.0905,0.0628,0.0271
1383871.0,0.7877,4.9225,8.9471,-0.0814,0.0793,0.0341
1383881.0,0.759,4.8219,9.0621,-0.0862,0.0873,0.0319
1383891.0,0.7901,4.7357,9.0357,-0.0814,0.0819,0.0229
1383901.0,0.735,4.7142,9.0788,-0.0798,0.0761,0.0112
1383911.0,0.759,4.7453,9.1435,-0.0772,0.0734,0.0
1383921.0,0.747,4.7836,9.1602,-0.0692,0.0692,-0.0096
1383931.0,0.7829,4.7932,9.1219,-0.0601,0.066,-0.0122
1383941.0,0.7757,4.8195,9.0597,-0.0415,0.0734,-0.0138
1383951.0,0.759,4.8339,9.0573,-0.0404,0.074,-0.0181
1383961.0,0.747,4.8387,9.0525,-0.0452,0.067,-0.0202
1383971.0,0.735,4.7956,9.0884,-0.0527,0.0676,-0.0239
1383981.0,0.7446,4.7764,9.0812,-0.0654,0.0612,-0.0325
1383991.0,0.7422,4.7405,9.1315,-0.0825,0.0468,-0.042
1384001.0,0.7733,4.7285,9.1267,-0.075,0.0479,-0.0479
1384011.0,0.7302,4.8028,9.0908,-0.0548,0.0559,-0.0521
1384021.0,0.7254,4.8866,9.1051,-0.0436,0.0596,-0.0564
1384031.0,0.7326,4.9704,9.074,-0.0447,0.0617,-0.0601
1384041.0,0.6752,5.0518,9.1363,-0.0623,0.0639,-0.0623
1384051.0,0.6297,5.0398,9.2273,-0.0798,0.0596,-0.0575
1384061.0,0.6584,5.0302,9.256,-0.0756,0.0532,-0.0495
1384071.0,0.6632,5.0111,9.2081,-0.0686,0.0474,-0.0399
1384081.0,0.6871,5.0039,9.2057,-0.0644,0.0442,-0.0319
1384091.0,0.747,4.9919,9.1985,-0.0633,0.0362,-0.0282
1384101.0,0.7997,4.9177,9.1913,-0.0654,0.0341,-0.0287
1384111.0,0.7901,4.9105,9.0692,-0.0628,0.0383,-0.0298
1384121.0,0.8092,4.9033,9.1435,-0.0841,0.0277,-0.0399
1384131.0,0.7638,4.9656,9.0477,-0.0984,0.0202,-0.0468
1384141.0,0.747,4.9656,9.0956,-0.0984,0.0298,-0.0506
1384151.0,0.7614,4.9752,9.0764,-0.0825,0.0431,-0.0474
1384161.0,0.7685,4.9392,9.1482,-0.0623,0.058,-0.0442
1384171.0,0.7446,4.9153,9.2488,-0.0415,0.0686,-0.0436
1384181.0,0.7853,4.9033,9.2632,-0.0202,0.0692,-0.0468
1384191.0,0.747,4.9608,9.2464,-0.0229,0.0537,-0.0575
1384201.0,0.7877,5.0973,9.3111,-0.042,0.0351,-0.0681
1384211.0,0.6823,5.2265,9.2895,-0.0521,0.0229,-0.0702
1384221.0,0.7063,5.3103,9.153,-0.0681,-0.0043,-0.0654
1384231.0,0.6321,5.3319,9.1004,-0.0905,-0.0208,-0.0553
1384241.0,0.6416,5.3008,9.1339,-0.1011,-0.0229,-0.041
1384251.0,0.6177,5.2098,9.1291,-0.0894,-0.0154,-0.025
1384261.0,0.7063,5.0733,9.0094,-0.0777,-0.0223,-0.0128
1384271.0,0.7638,5.0039,8.9807,-0.0798,-0.0271,-0.0138
1384281.0,0.7853,4.9752,8.904,-0.0867,-0.0218,-0.0213
1384291.0,0.8284,5.0206,8.8585,-0.0905,-0.017,-0.0245
1384301.0,0.8499,5.0422,8.7604,-0.1048,-0.0133,-0.0266
1384311.0,0.893,5.0757,8.6862,-0.1197,0.0053,-0.0271
1384321.0,0.8499,5.0613,8.7795,-0.1421,0.0293,-0.0245
1384331.0,0.8475,4.9799,8.8849,-0.1458,0.0367,-0.0176
1384341.0,0.8811,4.9153,9.0022,-0.116,0.0516,-0.0096
1384351.0,0.8404,4.877,8.9926,-0.0841,0.0628,-0.0043
1384361.0,0.8595,4.8937,8.983,-0.0639,0.0553,-0.0064
1384371.0,0.9026,4.9321,8.8633,-0.0447,0.0601,-0.0117
1384381.0,0.8739,5.0278,8.8083,-0.0436,0.0766,-0.0138
1384391.0,0.8835,5.0901,8.8849,-0.0734,0.0793,-0.0186
1384401.0,0.8284,5.1332,8.9423,-0.0899,0.0867,-0.0122
1384411.0,0.7566,5.1164,9.0501,-0.0835,0.1054,0.0027
1384421.0,0.7446,5.0206,9.0908,-0.0564,0.1123,0.0186
1384431.0,0.7757,4.9273,9.0668,-0.0277,0.1133,0.0293
1384441.0,0.7997,4.8291,9.086,-0.0298,0.1139,0.0255
1384451.0,0.7781,4.8076,9.0644,-0.0553,0.1101,0.0101
1384461.0,0.7757,4.8507,9.1818,-0.0809,0.1022,-0.0053
1384471.0,0.735,4.9153,9.2273,-0.0857,0.0878,-0.017
1384481.0,0.6728,5.0111,9.2727,-0.0798,0.0745,-0.0176
1384491.0,0.6776,5.0733,9.2368,-0.0591,0.0681,-0.008
1384501.0,0.656,5.0829,9.0884,-0.0346,0.067,0.0101
1384511.0,0.7159,4.9919,9.0621,-0.0271,0.0734,0.0234
1384521.0,0.7087,4.8459,9.0429,-0.0346,0.0803,0.0298
1384531.0,0.7542,4.6878,9.165,-0.0474,0.0835,0.0229
1384541.0,0.7614,4.6639,9.2512,-0.042,0.0777,0.0069
1384551.0,0.7542,4.7429,9.1339,-0.0362,0.058,-0.0133
1384561.0,0.7542,4.8435,9.1219,-0.0474,0.0431,-0.0293
1384571.0,0.7614,4.9488,9.0884,-0.0452,0.049,-0.033
1384581.0,0.735,4.9991,9.0429,-0.0511,0.0543,-0.0314
1384591.0,0.6919,4.9991,9.0501,-0.0686,0.0607,-0.0266
1384601.0,0.6967,4.877,9.1267,-0.0564,0.0788,-0.0154
1384611.0,0.7398,4.798,9.2632,-0.0298,0.0968,-0.0106
1384621.0,0.7829,4.8171,9.2967,-0.017,0.0899,-0.0192
1384631.0,0.7733,4.8602,9.2775,-0.0234,0.0697,-0.0319
1384641.0,0.7566,4.9728,9.3422,-0.0314,0.0569,-0.0404
1384651.0,0.7566,5.1188,9.2847,-0.033,0.0458,-0.0415
1384661.0,0.7494,5.138,9.2943,-0.0516,0.0314,-0.0362
1384671.0,0.7829,5.0757,9.268,-0.0612,0.0122,-0.0261
1384681.0,0.7925,5.0159,9.1722,-0.0633,-0.0064,-0.0181
1384691.0,0.8308,4.8818,9.1147,-0.0835,-0.016,-0.0202
1384701.0,0.8452,4.865,9.0621,-0.0846,-0.0048,-0.0309
1384711.0,0.7853,4.9153,9.0716,-0.0761,0.0074,-0.0431
1384721.0,0.7949,4.9871,9.0333,-0.0718,0.0133,-0.0537
1384731.0,0.759,5.0973,9.019,-0.0575,0.0261,-0.0596
1384741.0,0.7135,5.2529,8.9304,-0.0521,0.0314,-0.0564
1384751.0,0.6728,5.3534,8.9759,-0.074,0.0325,-0.0447
1384761.0,0.6656,5.3032,9.0956,-0.091,0.0399,-0.025
1384771.0,0.6871,5.2146,9.153,-0.0718,0.0479,-0.0027
1384781.0,0.6943,5.1523,9.0932,-0.0484,0.0463,0.0128
1384791.0,0.7135,5.0613,9.1075,-0.0335,0.0511,0.0213
1384801.0,0.7183,5.0494,9.0573,-0.0351,0.0521,0.0202
1384811.0,0.735,5.0374,9.0644,-0.0644,0.0394,0.0128
1384821.0,0.7614,5.0685,9.0812,-0.0974,0.0277,0.0064
1384831.0,0.7135,5.0709,9.1004,-0.1117,0.0239,0.0069
1384841.0,0.7614,5.0757,9.1123,-0.1144,0.0128,0.0122
1384851.0,0.7661,5.035,9.0716,-0.1165,0.0069,0.016
1384861.0,0.8021,4.956,8.9926,-0.1139,0.0106,0.0202
1384871.0,0.8212,4.9392,8.9735,-0.1149,0.0176,0.0202
1384881.0,0.8332,4.9177,9.0261,-0.125,0.0245,0.016
1384891.0,0.826,4.9081,9.0573,-0.125,0.0255,0.0154
1384901.0,0.8523,4.9105,9.0118,-0.1149,0.0255,0.0186
1384911.0,0.8835,4.9057,8.995,-0.1048,0.0335,0.0239
1384921.0,0.8882,4.8722,8.9687,-0.0947,0.0431,0.0271
1384931.0,0.929,4.7884,8.9759,-0.0862,0.0532,0.0298
1384941.0,0.9122,4.695,9.0621,-0.0921,0.0553,0.0277
1384951.0,0.9768,4.5969,9.1171,-0.0889,0.0521,0.0176
1384961.0,0.9433,4.604,9.1219,-0.074,0.0484,0.0043
1384971.0,0.9218,4.5897,9.0716,-0.0458,0.0479,-0.0064
1384981.0,0.9888,4.6184,8.995,-0.0255,0.0479,-0.0181
1384991.0,0.9649,4.695,8.9184,-0.0186,0.0633,-0.0335
1385001.0,0.917,4.8028,8.9232,-0.0341,0.0814,-0.0506
1385011.0,0.8188,4.9105,9.0836,-0.0585,0.0878,-0.0607
1385021.0,0.7446,5.0206,9.2392,-0.066,0.0867,-0.0612
1385031.0,0.7039,5.0877,9.2943,-0.0612,0.0718,-0.0506
1385041.0,0.7494,5.1164,9.2656,-0.0484,0.0506,-0.0357
1385051.0,0.7901,5.0996,9.1626,-0.0335,0.041,-0.0176
1385061.0,0.7829,5.0613,9.0309,-0.0537,0.0271,-0.0096
1385071.0,0.8164,4.968,9.074,-0.0873,0.0128,-0.0085
1385081.0,0.7781,4.9033,9.0549,-0.0883,0.0149,-0.008
1385091.0,0.7997,4.8722,8.9998,-0.0793,0.0149,-0.0106
1385101.0,0.8523,4.8411,8.9328,-0.0729,0.0192,-0.0154
1385111.0,0.8547,4.8267,8.9088,-0.0569,0.0357,-0.0208
1385121.0,0.9098,4.8698,8.904,-0.0351,0.0564,-0.0255
1385131.0,0.905,4.9273,8.9328,-0.0303,0.0713,-0.0319
1385141.0,0.9242,5.0087,8.9447,-0.0351,0.0798,-0.0357
1385151.0,0.9002,5.0374,9.007,-0.0378,0.091,-0.0362
1385161.0,0.8978,5.0733,9.0501,-0.0335,0.0963,-0.0325
1385171.0,0.8763,5.1284,8.995,-0.041,0.1011,-0.0271
1385181.0,0.8452,5.1284,9.0453,-0.0713,0.1086,-0.0229
1385191.0,0.7781,5.0853,9.2799,-0.083,0.1112,-0.0165
1385201.0,0.7302,5.0542,9.3853,-0.0729,0.1022,-0.0085
1385211.0,0.735,5.0661,9.3901,-0.0569,0.0809,-0.0011
1385221.0,0.7542,5.023,9.347,-0.0495,0.0585,0.0016
1385231.0,0.759,5.0374,9.2153,-0.0484,0.0404,0.0027
1385241.0,0.7254,5.0111,9.1913,-0.0654,0.0325,0.0016
1385251.0,0.7278,5.0063,9.1339,-0.0782,0.0314,-0.0011
1385261.0,0.7566,4.9656,9.1243,-0.0937,0.0309,-0.0048
1385271.0,0.7494,4.9488,9.2081,-0.107,0.033,-0.0085
1385281.0,0.759,4.9201,9.256,-0.0926,0.0319,-0.0074
1385291.0,0.723,4.9464,9.1698,-0.0692,0.0245,-0.0074
1385301.0,0.7949,4.9823,9.0932,-0.0548,0.0181,-0.0096
1385311.0,0.7566,5.035,9.074,-0.0537,0.0261,-0.0074
1385321.0,0.7829,5.0159,9.0668,-0.0612,0.0335,-0.0032
1385331.0,0.8045,4.9392,9.0812,-0.0788,0.0282,-0.0016
1385341.0,0.8308,4.9368,9.0836,-0.0899,0.0186,-0.0043
1385351.0,0.8092,4.877,9.0166,-0.1032,0.009,-0.0069
1385361.0,0.8571,4.8243,9.0022,-0.1022,0.0032,-0.009
1385371.0,0.8978,4.8483,8.9328,-0.0788,0.0122,-0.0133
1385381.0,0.8547,4.9177,8.8609,-0.0676,0.0223,-0.0181
1385391.0,0.9002,4.9728,8.8418,-0.0681,0.0303,-0.0197
1385401.0,0.8739,5.0254,8.8059,-0.0633,0.05,-0.0144
1385411.0,0.8715,5.0135,8.849,-0.066,0.0692,-0.0053
1385421.0,0.905,4.9656,8.8873,-0.0766,0.0777,0.0005
1385431.0,0.9266,4.8818,9.0381,-0.0777,0.091,0.0064
1385441.0,0.8595,4.8387,9.1315,-0.0686,0.099,0.0096
1385451.0,0.8954,4.8004,9.0956,-0.0639,0.0883,0.0059
1385461.0,0.8954,4.7692,9.0525,-0.0819,0.0777,-0.0069
1385471.0,0.9026,4.8291,9.0812,-0.0963,0.083,-0.0186
1385481.0,0.838,4.853,9.2081,-0.099,0.0889,-0.0266
1385491.0,0.7973,4.8985,9.2416,-0.083,0.0867,-0.0314
1385501.0,0.7781,4.9512,9.2201,-0.0676,0.0867,-0.0303
1385511.0,0.747,5.0111,9.3063,-0.0521,0.0921,-0.0261
1385521.0,0.7039,5.0206,9.2871,-0.0452,0.0825,-0.0186
1385531.0,0.7853,5.0829,9.1243,-0.0623,0.0591,-0.0149
1385541.0,0.7518,5.0494,9.2416,-0.1346,0.0436,-0.0181
1385551.0,0.6967,4.9608,9.4188,-0.1676,0.0404,-0.0192
1385561.0,0.656,4.8794,9.5457,-0.1357,0.0362,-0.0128
1385571.0,0.7111,4.8459,9.4355,-0.0974,0.0122,-0.0106
1385581.0,0.7302,4.8626,9.3254,-0.0734,-0.0096,-0.0133
1385591.0,0.7733,4.9033,9.1626,-0.0633,-0.0245,-0.016
1385601.0,0.8595,4.9225,8.9902,-0.0803,-0.0335,-0.0197
1385611.0,0.905,4.8698,8.995,-0.1059,-0.0303,-0.0213
1385621.0,0.9242,4.81,9.0309,-0.0947,-0.0234,-0.0181
1385631.0,0.9673,4.7884,8.9208,-0.067,-0.017,-0.016
1385641.0,0.9313,4.7692,8.8131,-0.0351,-0.0016,-0.016
1385651.0,0.9194,4.81,8.7053,-0.0011,0.0277,-0.0192
1385661.0,0.9649,4.8937,8.5808,-0.0027,0.0569,-0.0271
1385671.0,0.9433,4.9153,8.7197,-0.0537,0.0793,-0.0378
1385681.0,0.9553,4.9057,9.0118,-0.0899,0.0921,-0.0426
1385691.0,0.9481,4.9656,9.1291,-0.0798,0.0894,-0.041
1385701.0,0.9481,4.9847,9.1339,-0.0607,0.0814,-0.0372
1385711.0,0.9409,4.9895,9.1243,-0.0495,0.0793,-0.0282
1385721.0,0.929,4.9823,9.1243,-0.041,0.0788,-0.0229
1385731.0,0.893,5.0039,8.9854,-0.0357,0.075,-0.0197
1385741.0,0.8763,5.0039,8.9519,-0.0532,0.0798,-0.0192
1385751.0,0.8404,4.9919,9.0237,-0.0841,0.0851,-0.0213
1385761.0,0.7853,5.0063,9.1339,-0.0984,0.0883,-0.0218
1385771.0,0.7685,5.0039,9.1842,-0.0841,0.0952,-0.0149
1385781.0,0.7781,4.9033,9.2656,-0.0575,0.1038,-0.0043
1385791.0,0.8045,4.8507,9.2416,-0.0314,0.1038,0.0
1385801.0,0.7901,4.8291,9.3111,-0.0362,0.0947,-0.008
1385811.0,0.7709,4.8507,9.2895,-0.0596,0.083,-0.0229
1385821.0,0.7518,4.8602,9.426,-0.0878,0.0708,-0.0383
1385831.0,0.7015,4.9368,9.572,-0.0995,0.0484,-0.049
1385841.0,0.723,5.0661,9.5241,-0.0952,0.0085,-0.0495
1385851.0,0.7278,5.0877,9.3829,-0.0782,-0.0223,-0.0388
1385861.0,0.8212,5.0685,9.2129,-0.0575,-0.0404,-0.0213
1385871.0,0.8859,5.0063,8.9974,-0.0479,-0.0442,-0.0096
1385881.0,0.8739,4.968,8.8609,-0.0548,-0.0346,-0.0069
1385891.0,0.8859,4.9033,8.7724,-0.0639,-0.0138,-0.0053
1385901.0,0.8906,4.8459,8.7388,-0.0617,0.0106,-0.0074
1385911.0,0.9194,4.798,8.7891,-0.0617,0.0314,-0.0138
1385921.0,0.9481,4.7956,8.8226,-0.0617,0.0463,-0.025
1385931.0,0.9912,4.8459,8.8011,-0.0612,0.0612,-0.0357
1385941.0,0.9242,4.9225,8.8298,-0.0867,0.0697,-0.049
1385951.0,0.893,5.0302,8.9783,-0.1022,0.0729,-0.0548
1385961.0,0.838,5.0996,9.1339,-0.0889,0.0814,-0.0463
1385971.0,0.7997,5.1667,9.1722,-0.0569,0.0835,-0.0287
1385981.0,0.826,5.1475,9.0908,-0.0362,0.0708,-0.008
1385991.0,0.8954,5.0805,9.0261,-0.0357,0.0601,0.009
1386001.0,0.9098,5.0015,8.9328,-0.0399,0.0713,0.0202
1386011.0,0.8906,4.8746,8.9783,-0.0591,0.0883,0.025
1386021.0,0.9026,4.7477,9.0668,-0.0761,0.0905,0.0197
1386031.0,0.8859,4.6495,9.1602,-0.0851,0.0931,0.0074
1386041.0,0.8404,4.6902,9.2536,-0.0803,0.0968,-0.0106
1386051.0,0.7997,4.7836,9.2775,-0.074,0.0883,-0.0277
1386061.0,0.8284,4.9177,9.3087,-0.0623,0.0766,-0.0367
1386071.0,0.814,5.0326,9.2296,-0.0607,0.0623,-0.0367
1386081.0,0.838,5.0877,9.177,-0.0729,0.0468,-0.0287
1386091.0,0.8547,5.0637,9.1794,-0.0798,0.041,-0.017
1386101.0,0.8523,5.023,9.1291,-0.0718,0.0404,-0.0053
1386111.0,0.8404,4.9584,9.0405,-0.0697,0.0442,0.0021
1386121.0,0.8116,4.8507,9.0692,-0.0793,0.0521,0.0043
1386131.0,0.8164,4.8363,9.1147,-0.0718,0.0601,0.0021
1386141.0,0.7422,4.8339,9.1554,-0.0623,0.0644,-0.0005
1386151.0,0.7901,4.8578,9.0932,-0.0623,0.0527,-0.0048
1386161.0,0.8308,4.8578,9.0716,-0.0612,0.0479,-0.0053
1386171.0,0.8475,4.8219,9.0884,-0.0596,0.0537,-0.0064
1386181.0,0.8523,4.8004,9.0884,-0.0639,0.0607,-0.0064
1386191.0,0.8906,4.7525,9.0812,-0.0681,0.0612,-0.0122
1386201.0,0.8619,4.7525,9.153,-0.0654,0.074,-0.0202
1386211.0,0.8164,4.8171,9.1794,-0.0591,0.0697,-0.0319
1386221.0,0.8332,4.889,9.165,-0.0639,0.058,-0.0394
1386231.0,0.8452,4.9201,9.1171,-0.0873,0.0463,-0.0426
1386241.0,0.8643,4.8578,9.1363,-0.1224,0.0325,-0.0447
1386251.0,0.8619,4.8195,9.1698,-0.1224,0.0245,-0.0447
1386261.0,0.8691,4.8123,9.1147,-0.0905,0.0229,-0.0426
1386271.0,0.8356,4.8459,9.0046,-0.0537,0.025,-0.0404
1386281.0,0.8667,4.956,8.8705,-0.0404,0.0319,-0.0394
1386291.0,0.8236,4.9752,8.7987,-0.0591,0.0559,-0.0404
1386301.0,0.8068,4.9416,8.9663,-0.1011,0.0708,-0.0452
1386311.0,0.7853,4.9584,9.0644,-0.1133,0.0793,-0.0463
1386321.0,0.7805,4.9392,9.0908,-0.1277,0.0724,-0.0495
1386331.0,0.8643,4.8698,9.1243,-0.1697,0.0628,-0.058
1386341.0,0.8691,4.8291,9.2344,-0.2144,0.0543,-0.0692
1386351.0,0.8811,4.707,9.3446,-0.2246,0.0319,-0.0777
1386361.0,0.8571,4.7381,9.1985,-0.216,0.0208,-0.0883
1386371.0,0.8404,4.7118,9.2943,-0.2448,0.0138,-0.1
1386381.0,0.8667,4.7285,9.4116,-0.2522,-0.0059,-0.1075
1386391.0,0.8787,4.7932,9.2656,-0.2208,-0.0192,-0.1054
1386401.0,0.8859,4.8219,9.1818,-0.1937,-0.0154,-0.1
1386411.0,0.8859,4.8267,9.1435,-0.1729,-0.0101,-0.0915
1386421.0,0.8643,4.8363,9.1794,-0.158,-0.0048,-0.0809
1386431.0,0.9026,4.8698,9.1435,-0.1075,0.0144,-0.066
1386441.0,0.8308,4.8985,9.0094,-0.0484,0.0388,-0.0468
1386451.0,0.8428,4.9009,8.8418,-0.0287,0.0495,-0.0319
1386461.0,0.8978,4.7405,8.8753,-0.0506,0.0729,-0.0234
1386471.0,0.8763,4.6017,9.0285,-0.0772,0.1027,-0.0282
1386481.0,0.8667,4.5179,9.1794,-0.091,0.1101,-0.0474
1386491.0,0.826,4.5777,9.3206,-0.1016,0.1112,-0.0724
1386501.0,0.7877,4.7453,9.517,-0.107,0.1022,-0.0937
1386511.0,0.7398,4.9536,9.5505,-0.1022,0.0745,-0.1006
1386521.0,0.7302,5.0901,9.5672,-0.1054,0.0436,-0.0931
1386531.0,0.6752,5.114,9.505,-0.0915,0.0197,-0.0729
1386541.0,0.6632,5.0613,9.335,-0.0974,-0.0186,-0.0521
1386551.0,0.7973,4.9967,9.1315,-0.075,-0.0176,-0.0298
1386561.0,0.7566,4.8554,8.9735,-0.0867,0.0,-0.0176
1386571.0,0.8595,4.7453,8.9998,-0.132,-0.0053,-0.0223
1386581.0,0.8619,4.7621,8.9304,-0.1495,0.0138,-0.0314
1386591.0,0.7997,4.7836,9.0429,-0.183,0.0325,-0.0372
1386601.0,0.8691,4.7621,9.0908,-0.1868,0.041,-0.0357
1386611.0,0.8547,4.7525,9.0716,-0.1591,0.0607,-0.0293
1386621.0,0.7901,4.7932,9.0764,-0.1336,0.0708,-0.0202
1386631.0,0.814,4.7405,9.2153,-0.1187,0.0676,-0.008
1386641.0,0.838,4.6855,9.0908,-0.0697,0.0803,0.0085
1386651.0,0.8595,4.5729,9.0453,-0.0415,0.0979,0.016
1386661.0,0.893,4.4628,9.0716,-0.0463,0.1011,0.0096
1386671.0,0.9313,4.5203,9.0261,-0.0686,0.1133,-0.0096
1386681.0,0.8356,4.5777,9.2033,-0.1165,0.1213,-0.0357
1386691.0,0.7997,4.6998,9.3039,-0.149,0.1043,-0.049
1386701.0,0.7733,4.7405,9.3661,-0.1522,0.0867,-0.0495
1386711.0,0.759,4.8076,9.3518,-0.1431,0.0639,-0.0442
1386721.0,0.7614,4.7405,9.2105,-0.1357,0.0474,-0.0362
1386731.0,0.7781,4.6735,9.0621,-0.1447,0.0468,-0.0362
1386741.0,0.7661,4.6088,9.2033,-0.1729,0.0639,-0.0484
1386751.0,0.6967,4.6471,9.3254,-0.183,0.0745,-0.0628
1386761.0,0.7326,4.7716,9.3326,-0.1703,0.0724,-0.0639
1386771.0,0.6584,4.8363,9.5241,-0.1724,0.0639,-0.0564
1386781.0,0.7302,4.8339,9.5672,-0.1517,0.0388,-0.0367
1386791.0,0.7302,4.7884,9.4355,-0.1032,0.0218,-0.0122
1386801.0,0.8404,4.7022,9.1028,-0.0729,0.0181,0.0064
1386811.0,0.8523,4.5562,9.0788,-0.1027,0.0383,0.0037
1386821.0,0.8021,4.5155,9.2033,-0.1426,0.0516,-0.0122
1386831.0,0.7063,4.4508,9.3685,-0.1564,0.0516,-0.0287
1386841.0,0.7542,4.4676,9.402,-0.1261,0.0484,-0.0362
1386851.0,0.8092,4.5346,9.3039,-0.0889,0.0388,-0.0388
1386861.0,0.8882,4.5825,9.2249,-0.0766,0.0335,-0.0415
1386871.0,0.893,4.6328,9.1219,-0.0883,0.0378,-0.0442
1386881.0,0.8523,4.6495,9.1554,-0.1155,0.0399,-0.041
1386891.0,0.8763,4.5562,9.2344,-0.1112,0.0521,-0.0314
1386901.0,0.8739,4.6112,9.0932,-0.0809,0.0697,-0.0223
1386911.0,0.8116,4.6064,9.1842,-0.0899,0.0772,-0.0192
1386921.0,0.8212,4.5921,9.256,-0.0788,0.0883,-0.0112
1386931.0,0.7614,4.5777,9.2584,-0.042,0.108,-0.0011
1386941.0,0.7997,4.5346,9.2584,-0.0128,0.1192,0.0048
1386951.0,0.7614,4.5131,9.3015,-0.0101,0.1176,0.0027
1386961.0,0.7925,4.4772,9.3709,-0.0101,0.1229,-0.0048
1386971.0,0.7518,4.5035,9.3972,-0.0064,0.124,-0.0154
1386981.0,0.7446,4.6352,9.3446,-0.0181,0.1165,-0.0255
1386991.0,0.6967,4.6711,9.4762,-0.074,0.1032,-0.0362
1387001.0,0.6728,4.7094,9.5624,-0.107,0.0867,-0.0372
1387011.0,0.6081,4.7333,9.6462,-0.108,0.0734,-0.0293
1387021.0,0.6823,4.6902,9.6031,-0.0979,0.0516,-0.017
1387031.0,0.6943,4.6304,9.5289,-0.0889,0.0357,-0.008
1387041.0,0.6345,4.5514,9.5313,-0.0899,0.0255,-0.0085
1387051.0,0.6153,4.5346,9.5313,-0.0718,0.0192,-0.0096
1387061.0,0.5986,4.5035,9.4475,-0.0442,0.0074,-0.0122
1387071.0,0.6871,4.5203,9.2991,-0.025,-0.0053,-0.0181
1387081.0,0.7398,4.5633,9.1411,-0.0282,-0.0021,-0.0255
1387091.0,0.8164,4.5993,9.1004,-0.05,0.0021,-0.0357
1387101.0,0.7925,4.6711,9.1482,-0.0644,0.017,-0.0394
1387111.0,0.7733,4.7716,9.1698,-0.0596,0.0346,-0.0372
1387121.0,0.7853,4.7716,9.2296,-0.0548,0.0495,-0.025
1387131.0,0.7901,4.7812,9.2488,-0.0367,0.0575,-0.0085
1387141.0,0.7925,4.774,9.2081,-0.025,0.0591,0.0064
1387151.0,0.8188,4.7022,9.1722,-0.0208,0.0617,0.0192
1387161.0,0.814,4.5969,9.165,-0.0223,0.0697,0.0271
1387171.0,0.8404,4.5298,9.2536,-0.0234,0.075,0.025
1387181.0,0.8452,4.4676,9.2344,-0.0128,0.0788,0.0223
1387191.0,0.8308,4.458,9.2895,0.0037,0.0766,0.0149
1387201.0,0.814,4.5107,9.1459,0.0192,0.0772,0.0069
1387211.0,0.8021,4.5179,9.0908,-0.0037,0.0878,-0.0074
1387221.0,0.7709,4.5322,9.1866,-0.0601,0.0974,-0.0309
1387231.0,0.7063,4.5993,9.4691,-0.1224,0.0862,-0.0527
1387241.0,0.6967,4.6663,9.6319,-0.1336,0.0575,-0.0628
1387251.0,0.723,4.798,9.6295,-0.0963,0.0261,-0.0569
1387261.0,0.759,4.8818,9.3661,-0.0495,0.0016,-0.0378
1387271.0,0.7877,4.9249,9.1219,-0.0346,-0.0144,-0.0181
1387281.0,0.747,4.865,8.9136,-0.033,-0.0011,0.0021
1387291.0,0.7398,4.7812,8.7676,-0.0479,0.0388,0.0165
1387301.0,0.7183,4.6855,8.8849,-0.0979,0.0782,0.0154
1387311.0,0.7039,4.5849,9.1866,-0.1282,0.0974,0.0096
1387321.0,0.7063,4.5705,9.3972,-0.116,0.1016,0.0085
1387331.0,0.7302,4.561,9.4667,-0.0777,0.0947,0.0112
1387341.0,0.7709,4.549,9.4499,-0.0346,0.083,0.0165
1387351.0,0.8045,4.561,9.3206,-0.0048,0.0708,0.0202
1387361.0,0.7805,4.4891,9.2057,-0.0021,0.0649,0.017
1387371.0,0.7709,4.3958,9.1937,-0.0229,0.0617,0.0048
1387381.0,0.7949,4.4101,9.1602,-0.0341,0.0697,-0.0144
1387391.0,0.7374,4.4101,9.2296,-0.0734,0.0713,-0.0335
1387401.0,0.7494,4.379,9.402,-0.1064,0.0654,-0.0506
1387411.0,0.7661,4.4245,9.4786,-0.0883,0.0623,-0.0612
1387421.0,0.7949,4.4915,9.4643,-0.0575,0.0506,-0.066
1387431.0,0.8475,4.5705,9.4308,-0.0436,0.0362,-0.0654
1387441.0,0.8523,4.6064,9.3111,-0.0351,0.0319,-0.0633
1387451.0,0.8021,4.7357,9.2368,-0.0399,0.0303,-0.0633
1387461.0,0.7805,4.7238,9.2632,-0.0564,0.0277,-0.0585
1387471.0,0.7685,4.6543,9.3039,-0.0532,0.0415,-0.0537
1387481.0,0.7278,4.6448,9.3063,-0.0452,0.0543,-0.0553
1387491.0,0.7614,4.7094,9.3494,-0.0346,0.0553,-0.0591
1387501.0,0.7733,4.8028,9.2919,-0.0223,0.0553,-0.0585
1387511.0,0.7661,4.8123,9.3446,-0.0335,0.0506,-0.0553
1387521.0,0.7901,4.8483,9.3302,-0.0543,0.0319,-0.0527
1387531.0,0.723,4.8243,9.3589,-0.0686,0.0239,-0.0506
1387541.0,0.723,4.8267,9.347,-0.0511,0.0287,-0.0431
1387551.0,0.6608,4.8554,9.2153,-0.0484,0.0234,-0.0404
1387561.0,0.7159,4.9105,9.1818,-0.0756,0.017,-0.0383
1387571.0,0.6919,4.9225,9.2488,-0.1043,0.0223,-0.0335
1387581.0,0.6895,4.889,9.3613,-0.1096,0.0266,-0.0234
1387591.0,0.7111,4.8411,9.3182,-0.0899,0.0271,-0.0133
1387601.0,0.7733,4.7788,9.2799,-0.074,0.0234,-0.0027
1387611.0,0.826,4.7597,9.2057,-0.0575,0.0208,0.0032
1387621.0,0.8236,4.7429,9.0836,-0.0553,0.0261,0.0048
1387631.0,0.8092,4.6831,9.0932,-0.0803,0.0293,-0.0011
1387641.0,0.7781,4.604,9.1075,-0.0937,0.0346,-0.0059
1387651.0,0.759,4.5993,9.1746,-0.0867,0.0468,-0.0106
1387661.0,0.7135,4.6902,9.1363,-0.0798,0.05,-0.0154
1387671.0,0.7135,4.7333,9.2416,-0.0809,0.0521,-0.0117
1387681.0,0.7614,4.7597,9.2967,-0.0591,0.0521,-0.0011
1387691.0,0.7853,4.7597,9.1961,-0.0458,0.0495,0.0096
1387701.0,0.8045,4.6471,9.1387,-0.0596,0.0362,0.0176
1387711.0,0.814,4.4963,9.1411,-0.0756,0.0319,0.0176
1387721.0,0.8212,4.3981,9.1147,-0.0644,0.0367,0.0106
1387731.0,0.8404,4.3574,8.9687,-0.0516,0.042,-0.0043
1387741.0,0.8954,4.3981,8.9495,-0.058,0.0506,-0.0245
1387751.0,0.8835,4.5274,9.0525,-0.0596,0.0745,-0.0372
1387761.0,0.8404,4.6615,9.0692,-0.0623,0.0926,-0.041
1387771.0,0.826,4.7046,9.2368,-0.0761,0.1091,-0.0394
1387781.0,0.747,4.7645,9.3661,-0.066,0.1155,-0.0335
1387791.0,0.7326,4.7884,9.3757,-0.0495,0.1032,-0.0229
1387801.0,0.7398,4.7956,9.3518,-0.0442,0.0862,-0.0085
1387811.0,0.747,4.7022,9.2871,-0.0516,0.0756,-0.0021
1387821.0,0.7135,4.6878,9.3326,-0.0564,0.0628,-0.0032
1387831.0,0.68,4.6328,9.2201,-0.0553,0.0585,-0.0016
1387841.0,0.6512,4.5322,9.2823,-0.0692,0.058,-0.0074
1387851.0,0.6321,4.5203,9.3158,-0.0585,0.0713,-0.0165
1387861.0,0.6225,4.5969,9.3589,-0.0282,0.0756,-0.0261
1387871.0,0.7111,4.6639,9.2943,-0.0202,0.0559,-0.0351
1387881.0,0.7661,4.7956,9.2584,-0.0341,0.0447,-0.042
1387891.0,0.7733,4.9225,9.2273,-0.0506,0.0447,-0.042
1387901.0,0.8092,4.9871,9.165,-0.0649,0.0399,-0.0314
1387911.0,0.7997,4.9416,9.1051,-0.0862,0.042,-0.0154
1387921.0,0.8092,4.9057,9.1913,-0.0878,0.05,-0.0011
1387931.0,0.7709,4.8937,9.1363,-0.0654,0.0654,0.0144
1387941.0,0.8356,4.7764,9.0429,-0.0506,0.0788,0.0293
1387951.0,0.8643,4.6256,9.0285,-0.0596,0.0952,0.0319
1387961.0,0.8356,4.5825,9.1171,-0.0899,0.1096,0.0197
1387971.0,0.747,4.5921,9.268,-0.1117,0.1235,0.0096
1387981.0,0.7207,4.6184,9.3996,-0.1059,0.133,0.0059
1387991.0,0.6728,4.5849,9.5241,-0.099,0.1309,0.0053
1388001.0,0.6369,4.5753,9.6247,-0.0841,0.1197,0.0074
1388011.0,0.6847,4.5586,9.6845,-0.0734,0.0974,0.0059
1388021.0,0.7135,4.5514,9.6319,-0.0623,0.0819,0.0021
1388031.0,0.6297,4.5657,9.5888,-0.0718,0.0681,-0.0048
1388041.0,0.6536,4.5849,9.6103,-0.0937,0.0431,-0.0101
1388051.0,0.6823,4.5035,9.6654,-0.1016,0.0234,-0.0149
1388061.0,0.6416,4.5226,9.5984,-0.0718,0.0096,-0.0149
1388071.0,0.6608,4.5346,9.4739,-0.0649,-0.0181,-0.0192
1388081.0,0.7398,4.5418,9.3326,-0.0734,-0.0468,-0.0239
1388091.0,0.8092,4.5298,9.1578,-0.0846,-0.0532,-0.0303
1388101.0,0.8284,4.5131,9.074,-0.0963,-0.0436,-0.041
1388111.0,0.8332,4.5274,9.1123,-0.1075,-0.0346,-0.0532
1388121.0,0.8212,4.6304,8.995,-0.1043,-0.0287,-0.0607
1388131.0,0.8068,4.6831,8.9352,-0.0867,-0.0138,-0.0612
1388141.0,0.8045,4.7669,8.8633,-0.0777,0.0128,-0.0569
1388151.0,0.8236,4.8171,8.9902,-0.0798,0.0367,-0.05
1388161.0,0.8643,4.8483,9.1004,-0.0772,0.0511,-0.0399
1388171.0,0.8715,4.8291,9.074,-0.0617,0.0617,-0.0229
1388181.0,0.8906,4.7477,9.0333,-0.0596,0.0713,-0.0069
1388191.0,0.8523,4.6232,9.1554,-0.0686,0.0777,-0.0016
1388201.0,0.8068,4.5969,9.1219,-0.0628,0.0878,-0.0059
1388211.0,0.747,4.5753,9.1554,-0.0612,0.0931,-0.0133
1388221.0,0.7494,4.628,9.2273,-0.0745,0.0974,-0.0245
1388231.0,0.7183,4.7621,9.3111,-0.0883,0.0984,-0.0325
1388241.0,0.6608,4.8578,9.426,-0.0857,0.0878,-0.0293
1388251.0,0.7135,4.8866,9.3972,-0.0713,0.0745,-0.0144
1388261.0,0.7398,4.8459,9.3853,-0.0617,0.0617,0.0043
1388271.0,0.7111,4.7477,9.347,-0.0511,0.049,0.0192
1388281.0,0.7015,4.616,9.1985,-0.0383,0.0479,0.0261
1388291.0,0.7566,4.4748,9.1674,-0.025,0.0575,0.0229
1388301.0,0.7302,4.4412,9.1411,-0.0176,0.0729,0.0085
1388311.0,0.7661,4.5418,9.0405,-0.033,0.0772,-0.0128
1388321.0,0.7805,4.5945,9.1482,-0.0803,0.0793,-0.0346
1388331.0,0.7542,4.6998,9.3829,-0.1091,0.0851,-0.0452
1388341.0,0.7374,4.8028,9.4786,-0.1064,0.0777,-0.0404
1388351.0,0.7638,4.7956,9.4858,-0.1086,0.0532,-0.0266
1388361.0,0.7877,4.774,9.5122,-0.1043,0.0351,-0.0128
1388371.0,0.7446,4.7405,9.414,-0.0734,0.0261,0.0037
1388381.0,0.7757,4.7142,9.2919,-0.0458,0.0197,0.0138
1388391.0,0.7685,4.6352,9.2105,-0.0431,0.0197,0.0192
1388401.0,0.7973,4.604,9.0932,-0.041,0.0298,0.0181
1388411.0,0.8116,4.5777,8.9615,-0.0537,0.0452,0.0144
1388421.0,0.8595,4.537,9.0309,-0.0952,0.0607,0.0043
1388431.0,0.8356,4.5155,9.1889,-0.1112,0.0766,-0.0032
1388441.0,0.8619,4.4772,9.2847,-0.1022,0.0756,-0.0096
1388451.0,0.8811,4.5394,9.2129,-0.0947,0.0644,-0.016
1388461.0,0.8547,4.5753,9.2656,-0.0878,0.0628,-0.0186
1388471.0,0.7973,4.6615,9.1698,-0.0585,0.075,-0.017
1388481.0,0.7757,4.6328,9.1554,-0.033,0.0947,-0.0096
1388491.0,0.7254,4.6304,9.1937,-0.041,0.1032,-0.0112
1388501.0,0.723,4.628,9.2919,-0.0463,0.1107,-0.0117
1388511.0,0.7111,4.6376,9.3278,-0.0426,0.1213,-0.0117
1388521.0,0.7326,4.6448,9.414,-0.067,0.1155,-0.0133
1388531.0,0.6991,4.6807,9.5457,-0.0921,0.1027,-0.0165
1388541.0,0.6345,4.6878,9.6103,-0.1,0.0862,-0.016
1388551.0,0.6416,4.6998,9.6798,-0.0921,0.0639,-0.0122
1388561.0,0.6201,4.6639,9.6367,-0.075,0.0367,-0.0069
1388571.0,0.6584,4.6352,9.5265,-0.0665,0.0096,-0.0027
1388581.0,0.6728,4.5969,9.3805,-0.0585,-0.0048,0.0005
1388591.0,0.7302,4.5442,9.2895,-0.0548,-0.0064,-0.0016
1388601.0,0.7518,4.4867,9.1746,-0.0601,-0.0032,-0.0074
1388611.0,0.8092,4.5203,9.1387,-0.0649,0.0,-0.0165
1388621.0,0.8284,4.5131,9.1075,-0.0665,0.0106,-0.0261
1388631.0,0.8284,4.5131,9.1075,-0.0665,0.0106,-0.0261
1388641.0,0.8499,4.6328,9.1267,-0.0761,0.0282,-0.041
1388651.0,0.8499,4.6328,9.1267,-0.0761,0.0282,-0.041
1388671.0,0.814,4.7908,9.2129,-0.0777,0.0415,-0.0378
1388681.0,0.8452,4.7908,9.1913,-0.0654,0.0452,-0.0213
1388691.0,0.8475,4.7214,9.2225,-0.0452,0.0532,-0.0053
1388701.0,0.905,4.616,9.1411,-0.0298,0.0553,0.0043
1388711.0,0.8882,4.5705,9.0621,-0.0346,0.0569,0.0032
1388721.0,0.8691,4.5705,9.074,-0.0628,0.0686,-0.0085
1388731.0,0.8236,4.6184,9.1171,-0.0889,0.0734,-0.0213
1388741.0,0.7685,4.7285,9.1889,-0.1054,0.0734,-0.0271
1388751.0,0.7733,4.81,9.2895,-0.0958,0.0814,-0.0186
1388761.0,0.7542,4.798,9.3015,-0.0708,0.083,-0.0016
1388771.0,0.7805,4.7381,9.2512,-0.0527,0.0819,0.0122
1388781.0,0.7829,4.6232,9.2129,-0.0404,0.0937,0.0234
1388791.0,0.7805,4.4772,9.3206,-0.0452,0.0979,0.0223
1388801.0,0.7685,4.4101,9.3134,-0.0596,0.0899,0.0064
1388811.0,0.747,4.4556,9.4044,-0.067,0.0857,-0.0133
1388821.0,0.6943,4.5562,9.3158,-0.0729,0.0756,-0.0261
1388831.0,0.7302,4.6543,9.335,-0.0952,0.058,-0.0335
1388841.0,0.7542,4.6974,9.4212,-0.1054,0.0569,-0.0309
1388851.0,0.723,4.719,9.4499,-0.0905,0.0532,-0.0208
1388861.0,0.7494,4.7357,9.3039,-0.067,0.0426,-0.0064
1388871.0,0.7661,4.6376,9.2847,-0.0585,0.0367,0.0021
1388881.0,0.7781,4.5777,9.2392,-0.0521,0.0447,0.0048
1388891.0,0.7542,4.5155,9.1315,-0.0442,0.0543,0.0021
1388901.0,0.7997,4.4772,9.1267,-0.0447,0.0569,-0.0037
1388911.0,0.8021,4.4436,9.177,-0.0442,0.0686,-0.0144
1388921.0,0.7638,4.4652,9.2943,-0.0394,0.0788,-0.0271
1388931.0,0.8188,4.5442,9.2703,-0.0229,0.0798,-0.0346
1388941.0,0.8021,4.6807,9.1459,-0.0367,0.0708,-0.042
1388951.0,0.8021,4.7285,9.2033,-0.0814,0.0697,-0.0452
1388961.0,0.7207,4.7429,9.3829,-0.0952,0.0734,-0.0415
1388971.0,0.7278,4.7956,9.4164,-0.0878,0.0559,-0.0362
1388981.0,0.7015,4.7669,9.3134,-0.0867,0.0388,-0.0277
1388991.0,0.7326,4.7429,9.2703,-0.0639,0.0319,-0.0165
1389001.0,0.7877,4.6902,9.1722,-0.0346,0.0351,-0.0085
1389011.0,0.8068,4.6376,8.9735,-0.0234,0.0458,-0.0074
1389021.0,0.8116,4.6424,8.9615,-0.0431,0.0623,-0.0154
1389031.0,0.7709,4.707,9.0357,-0.058,0.0798,-0.0277
1389041.0,0.7207,4.8459,9.0453,-0.0809,0.0878,-0.0367
1389051.0,0.7135,4.9775,9.1626,-0.1048,0.0926,-0.0346
1389061.0,0.6488,5.0637,9.2656,-0.1101,0.1016,-0.016
1389071.0,0.6512,5.0422,9.335,-0.0915,0.1107,0.0138
1389081.0,0.6416,4.9225,9.3901,-0.0729,0.1165,0.042
1389091.0,0.6847,4.7118,9.3996,-0.0617,0.1197,0.0633
1389101.0,0.723,4.4532,9.4906,-0.0521,0.1224,0.0708
1389111.0,0.7015,4.2856,9.5744,-0.0452,0.1133,0.0601
1389121.0,0.7326,4.2449,9.5696,-0.0468,0.0931,0.0335
1389131.0,0.7111,4.3622,9.5457,-0.0596,0.0777,0.0074
1389141.0,0.735,4.4125,9.651,-0.0905,0.0585,-0.0128
1389151.0,0.7135,4.5011,9.6726,-0.1048,0.0367,-0.0223
1389161.0,0.7183,4.5418,9.7324,-0.0979,0.017,-0.0266
1389171.0,0.7087,4.561,9.6319,-0.0819,-0.0074,-0.0245
1389181.0,0.7159,4.5394,9.4786,-0.074,-0.0319,-0.0223
1389191.0,0.7063,4.4604,9.3733,-0.0639,-0.0447,-0.0192
1389201.0,0.723,4.4149,9.1913,-0.0436,-0.0394,-0.0197
1389211.0,0.7566,4.3981,9.0573,-0.0293,-0.0325,-0.0271
1389221.0,0.8308,4.5179,8.8945,-0.0415,-0.0261,-0.0367
1389231.0,0.893,4.5418,8.8418,-0.0782,-0.0106,-0.0447
1389241.0,0.893,4.5226,8.9687,-0.1032,0.016,-0.0479
1389251.0,0.8691,4.4772,9.1099,-0.1064,0.0282,-0.049
1389261.0,0.8571,4.4891,9.1195,-0.074,0.0346,-0.049
1389271.0,0.8164,4.5298,9.074,-0.0218,0.0468,-0.0463
1389281.0,0.8332,4.5801,8.9447,0.0069,0.058,-0.0479
1389291.0,0.8021,4.6448,8.8442,0.0106,0.0761,-0.05
1389301.0,0.7757,4.695,8.8897,-0.0122,0.0915,-0.0553
1389311.0,0.8116,4.7453,8.9328,-0.041,0.1139,-0.0585
1389321.0,0.6967,4.8219,9.1794,-0.0825,0.133,-0.0639
1389331.0,0.668,4.81,9.4308,-0.1128,0.1229,-0.0623
1389341.0,0.5938,4.8411,9.6151,-0.0889,0.1128,-0.0548
1389351.0,0.577,4.8746,9.6199,-0.0527,0.0931,-0.0442
1389361.0,0.5914,4.9392,9.4523,-0.0245,0.0649,-0.0319
1389371.0,0.6656,4.9847,9.3206,-0.0192,0.0415,-0.0197
1389381.0,0.6919,4.9919,9.2105,-0.0351,0.0378,-0.0059
1389391.0,0.7015,4.889,9.1937,-0.0644,0.0415,0.0059
1389401.0,0.7829,4.7692,9.1674,-0.0878,0.0447,0.0165
1389411.0,0.7949,4.6735,9.1842,-0.1011,0.0553,0.0202
1389421.0,0.8068,4.549,9.2895,-0.1107,0.0639,0.016
1389431.0,0.814,4.5203,9.2296,-0.0995,0.0665,0.0096
1389441.0,0.826,4.4963,9.3111,-0.0809,0.0782,0.0027
1389451.0,0.7925,4.5442,9.3158,-0.0532,0.0937,-0.0048
1389461.0,0.759,4.604,9.323,-0.0346,0.0968,-0.0106
1389471.0,0.7422,4.6543,9.3733,-0.0335,0.0995,-0.0112
1389481.0,0.7685,4.6471,9.3877,-0.0245,0.1022,-0.0064
1389491.0,0.7614,4.6471,9.4403,-0.0277,0.0937,-0.0037
1389501.0,0.7925,4.5945,9.4092,-0.0484,0.0697,-0.0064
1389511.0,0.7518,4.549,9.4499,-0.0772,0.0468,-0.0138
1389521.0,0.7063,4.549,9.4451,-0.0761,0.0394,-0.017
1389531.0,0.6584,4.6017,9.3877,-0.0585,0.0293,-0.0213
1389541.0,0.6752,4.5897,9.2512,-0.0426,0.0208,-0.0234
1389551.0,0.7015,4.6831,9.1147,-0.0447,0.0192,-0.0271
1389561.0,0.7207,4.7357,9.1243,-0.0692,0.0303,-0.0314
1389571.0,0.6871,4.7525,9.1698,-0.0889,0.0426,-0.0314
1389581.0,0.6919,4.707,9.2416,-0.0819,0.05,-0.0229
1389591.0,0.6871,4.6639,9.2512,-0.0654,0.0516,-0.0112
1389601.0,0.7709,4.5705,9.2153,-0.0516,0.0506,-0.0043
1389611.0,0.8021,4.5131,9.1411,-0.042,0.0564,-0.0053
1389621.0,0.8619,4.5131,9.1722,-0.0468,0.0607,-0.0154
1389631.0,0.8212,4.5418,9.1243,-0.0607,0.0676,-0.0287
1389641.0,0.8021,4.5777,9.268,-0.0846,0.0729,-0.0431
1389651.0,0.7398,4.6663,9.3805,-0.0899,0.074,-0.0516
1389661.0,0.6776,4.786,9.3948,-0.075,0.0681,-0.0527
1389671.0,0.6488,4.8722,9.4068,-0.0825,0.0575,-0.0436
1389681.0,0.7063,4.8578,9.4068,-0.0878,0.0479,-0.0293
1389691.0,0.6919,4.8123,9.3446,-0.0899,0.0303,-0.016
1389701.0,0.7614,4.7357,9.3158,-0.0921,0.0133,-0.0069
1389711.0,0.7614,4.6591,9.268,-0.083,0.0223,-0.0021
1389721.0,0.7398,4.6352,9.1794,-0.0639,0.0314,-0.0021
1389731.0,0.7422,4.5945,9.1698,-0.0569,0.0335,-0.0037
1389741.0,0.7135,4.5729,9.1171,-0.049,0.0442,-0.0085
1389751.0,0.7302,4.6232,9.1099,-0.0484,0.0559,-0.0192
1389761.0,0.7422,4.6663,9.1913,-0.0644,0.0649,-0.0255
1389771.0,0.7757,4.6591,9.3374,-0.0819,0.0692,-0.0282
1389781.0,0.7805,4.6591,9.4236,-0.0798,0.0644,-0.0282
1389791.0,0.7685,4.719,9.4284,-0.0713,0.0442,-0.0282
1389801.0,0.7685,4.7381,9.3733,-0.0644,0.0266,-0.025
1389811.0,0.8212,4.6735,9.3015,-0.0511,0.0186,-0.0192
1389821.0,0.7087,4.6448,9.244,-0.0383,0.0202,-0.0186
1389831.0,0.7422,4.7908,9.0261,-0.0341,0.017,-0.0213
1389841.0,0.7422,4.7525,9.007,-0.0803,0.0245,-0.0213
1389851.0,0.7638,4.7262,9.1028,-0.1219,0.0447,-0.0229
1389861.0,0.7135,4.6878,9.3829,-0.1336,0.0596,-0.0229
1389871.0,0.6919,4.7094,9.4523,-0.1032,0.0607,-0.0165
1389881.0,0.668,4.7094,9.4308,-0.0575,0.0511,-0.0064
1389891.0,0.7494,4.719,9.2727,-0.017,0.0388,0.0048
1389901.0,0.7494,4.7262,9.0932,-0.0138,0.0362,0.0112
1389911.0,0.7973,4.6759,9.0166,-0.0527,0.0463,0.0106
1389921.0,0.8045,4.6136,9.098,-0.0894,0.067,0.0085
1389931.0,0.7087,4.5346,9.2991,-0.1277,0.0782,0.0011
1389941.0,0.7254,4.4748,9.5672,-0.1256,0.0724,-0.0037
1389951.0,0.7207,4.4221,9.5481,-0.0708,0.0681,-0.0032
1389961.0,0.7733,4.4293,9.4212,-0.0234,0.0474,-0.0074
1389971.0,0.8523,4.4939,9.2632,-0.0202,0.0261,-0.017
1389981.0,0.8356,4.5562,9.1411,-0.0447,0.0208,-0.0261
1389991.0,0.7877,4.5897,9.1099,-0.0952,0.0154,-0.0383
1390001.0,0.814,4.561,9.2105,-0.1314,0.0218,-0.0468
1390011.0,0.7063,4.5562,9.3374,-0.1219,0.0357,-0.049
1390021.0,0.735,4.5849,9.323,-0.0835,0.033,-0.0479
1390031.0,0.7661,4.6591,9.2368,-0.0463,0.0319,-0.0447
1390041.0,0.7805,4.7477,9.1435,-0.016,0.0458,-0.0372
1390051.0,0.814,4.8602,9.0405,-0.0069,0.0596,-0.0293
1390061.0,0.8236,4.8507,9.0621,-0.0208,0.0734,-0.0197
1390071.0,0.7709,4.8123,9.1506,-0.0484,0.0873,-0.0106
1390081.0,0.735,4.695,9.3613,-0.0681,0.0889,-0.0059
1390091.0,0.68,4.6567,9.3422,-0.0607,0.0851,-0.0059
1390101.0,0.6752,4.6088,9.4092,-0.0575,0.0788,-0.0128
1390111.0,0.7159,4.5993,9.3757,-0.0708,0.0569,-0.025
1390121.0,0.7254,4.6926,9.3972,-0.0756,0.0399,-0.0367
1390131.0,0.723,4.8411,9.3972,-0.0724,0.0325,-0.0399
1390141.0,0.7422,4.9057,9.2727,-0.0745,0.0202,-0.0325
1390151.0,0.8068,4.9153,9.2703,-0.075,0.0138,-0.017
1390161.0,0.7925,4.8435,9.1171,-0.0835,0.0149,-0.0048
1390171.0,0.7614,4.8171,9.0597,-0.1011,0.0176,0.0032
1390181.0,0.7614,4.7214,9.1291,-0.1006,0.0335,0.0096
1390191.0,0.7709,4.6184,9.1698,-0.0718,0.0596,0.0133
1390201.0,0.8021,4.6088,9.1746,-0.0474,0.0756,0.0122
1390211.0,0.8332,4.6591,9.2201,-0.0415,0.0867,0.009
1390221.0,0.8332,4.6735,9.2416,-0.0372,0.0942,0.008
1390231.0,0.8116,4.7166,9.268,-0.0404,0.0921,0.0096
1390241.0,0.8356,4.7285,9.2895,-0.0521,0.0793,0.0128
1390251.0,0.7949,4.707,9.2727,-0.066,0.0686,0.017
1390261.0,0.747,4.628,9.347,-0.0952,0.0532,0.0192
1390271.0,0.7685,4.5346,9.3182,-0.0889,0.0474,0.0208
1390281.0,0.7183,4.4843,9.2416,-0.0772,0.0506,0.0176
1390291.0,0.7566,4.4819,9.177,-0.0883,0.0484,0.0064
1390301.0,0.7087,4.5274,9.165,-0.1272,0.0511,-0.0106
1390311.0,0.723,4.5538,9.2967,-0.1708,0.0431,-0.0245
1390321.0,0.7278,4.5849,9.3254,-0.1852,0.0261,-0.0282
1390331.0,0.7685,4.6495,9.2703,-0.1793,0.0138,-0.025
1390341.0,0.8475,4.5753,9.3398,-0.1522,0.0106,-0.0112
1390351.0,0.7135,4.5179,9.1219,-0.0979,0.0218,0.0021
1390361.0,0.814,4.4604,9.0166,-0.0633,0.0367,0.0064
1390371.0,0.8236,4.3574,8.9663,-0.0314,0.0729,0.0053
1390381.0,0.814,4.3574,9.0022,-0.0138,0.1096,-0.0059
1390391.0,0.8212,4.3934,9.1363,-0.0165,0.1309,-0.0213
1390401.0,0.7781,4.5633,9.1937,-0.0053,0.1501,-0.0319
1390411.0,0.7925,4.6519,9.2919,-0.0016,0.165,-0.0325
1390421.0,0.7757,4.6783,9.4403,-0.017,0.1735,-0.0282
1390431.0,0.7111,4.7309,9.5146,-0.0607,0.157,-0.0271
1390441.0,0.6632,4.6471,9.7516,-0.1038,0.1336,-0.0271
1390451.0,0.6057,4.5993,10.003,-0.1224,0.0984,-0.0271
1390461.0,0.5698,4.6088,10.0149,-0.1197,0.0474,-0.0303
1390471.0,0.6225,4.616,9.8641,-0.1011,-0.0059,-0.0303
1390481.0,0.6249,4.6711,9.6103,-0.0814,-0.0404,-0.0271
1390491.0,0.7207,4.6304,9.426,-0.0782,-0.0612,-0.0229
1390501.0,0.7877,4.6208,9.1674,-0.0745,-0.0596,-0.0202
1390511.0,0.7494,4.5418,9.0357,-0.0745,-0.0404,-0.0208
1390521.0,0.735,4.5059,9.0309,-0.0857,-0.0218,-0.0282
1390531.0,0.6991,4.5059,8.9663,-0.0883,-0.0005,-0.0372
1390541.0,0.7398,4.5969,8.9926,-0.0766,0.0202,-0.0426
1390551.0,0.7805,4.6831,9.0094,-0.0857,0.0314,-0.0452
1390561.0,0.8571,4.7525,9.0573,-0.1091,0.0277,-0.0447
1390571.0,0.905,4.7812,9.086,-0.1208,0.0266,-0.0383
1390581.0,0.9529,4.7501,9.0261,-0.1075,0.0319,-0.0245
1390591.0,0.996,4.6902,8.9232,-0.0814,0.0511,-0.008
1390601.0,0.9002,4.6184,8.8178,-0.0766,0.0772,-0.0032
1390611.0,0.8763,4.537,8.8969,-0.0878,0.1022,-0.0059
1390621.0,0.8475,4.561,9.019,-0.0692,0.1421,-0.009
1390631.0,0.7638,4.5538,9.2105,-0.0612,0.1745,-0.0128
1390641.0,0.7302,4.5681,9.4188,-0.0484,0.1862,-0.0181
1390651.0,0.6464,4.6735,9.5529,-0.0074,0.1942,-0.0144
1390661.0,0.6225,4.7692,9.5984,0.0202,0.1894,-0.0096
1390671.0,0.5818,4.7812,9.6941,-0.0032,0.1628,-0.009
1390681.0,0.5962,4.8315,9.809,-0.0394,0.1288,-0.008
1390691.0,0.5267,4.853,9.8785,-0.0617,0.0846,-0.0037
1390701.0,0.5459,4.8315,9.7731,-0.0857,0.0229,0.0064
1390711.0,0.5962,4.7262,9.6558,-0.1011,-0.0223,0.0176
1390721.0,0.6081,4.5897,9.5098,-0.0974,-0.0474,0.0271
1390731.0,0.7326,4.4843,9.2129,-0.1,-0.066,0.0277
1390741.0,0.7733,4.3407,9.1028,-0.1298,-0.0665,0.0181
1390751.0,0.8092,4.2569,9.0597,-0.1368,-0.0452,-0.0011
1390761.0,0.8212,4.2425,9.074,-0.1176,-0.0186,-0.0213
1390771.0,0.838,4.379,8.9878,-0.0756,0.0027,-0.0357
1390781.0,0.8739,4.5538,8.8633,-0.0367,0.0271,-0.0399
1390791.0,0.9218,4.6831,8.7843,-0.0223,0.0569,-0.0362
1390801.0,0.9218,4.7477,8.7364,-0.0452,0.0905,-0.0282
1390811.0,0.8906,4.7046,9.0166,-0.0745,0.1325,-0.0197
1390821.0,0.7997,4.64,9.2799,-0.0788,0.166,-0.0074
1390831.0,0.6943,4.5586,9.5002,-0.066,0.165,-0.0005
1390841.0,0.6464,4.5155,9.5816,-0.0314,0.1511,0.0064
1390851.0,0.5626,4.549,9.5481,-0.0043,0.1314,0.0096
1390861.0,0.6201,4.5586,9.5193,-0.0128,0.1107,0.0059
1390871.0,0.6249,4.5155,9.5361,-0.0495,0.0947,-0.0027
1390881.0,0.6177,4.4867,9.6391,-0.0825,0.0772,-0.0122
1390891.0,0.6488,4.4293,9.7061,-0.1,0.0436,-0.025
1390901.0,0.6871,4.4604,9.6654,-0.0979,0.0074,-0.0367
1390911.0,0.7278,4.5059,9.5337,-0.0809,-0.0218,-0.0447
1390921.0,0.7566,4.6471,9.3613,-0.0692,-0.0399,-0.0484
1390931.0,0.7781,4.7381,9.1435,-0.067,-0.0309,-0.0426
1390941.0,0.7326,4.7429,9.1219,-0.0803,-0.0069,-0.0335
1390951.0,0.7853,4.6926,9.1578,-0.0734,0.0165,-0.0197
1390961.0,0.8236,4.5801,9.1746,-0.0463,0.0447,-0.0053
1390971.0,0.8404,4.4963,9.1961,-0.0261,0.0601,-0.0011
1390981.0,0.8882,4.4819,9.2105,-0.0277,0.0612,-0.009
1390991.0,0.8236,4.5298,9.2225,-0.0372,0.0633,-0.0208
1391001.0,0.7733,4.616,9.2081,-0.0644,0.0612,-0.0325
1391011.0,0.7278,4.7214,9.2775,-0.0878,0.0548,-0.0362
1391021.0,0.7326,4.7453,9.3039,-0.0995,0.0431,-0.0293
1391031.0,0.7494,4.6926,9.3087,-0.0926,0.0367,-0.0176
1391041.0,0.7518,4.6064,9.2536,-0.0718,0.0426,-0.0059
1391051.0,0.7398,4.5155,9.1674,-0.0543,0.0452,-0.0043
1391061.0,0.7446,4.4891,9.1267,-0.0633,0.0436,-0.0165
1391071.0,0.7087,4.5083,9.1889,-0.0766,0.0564,-0.0298
1391081.0,0.6536,4.6088,9.2488,-0.0772,0.0633,-0.0388
1391091.0,0.7278,4.7453,9.2057,-0.0676,0.0628,-0.042
1391101.0,0.7039,4.8578,9.1602,-0.0697,0.0665,-0.0335
1391111.0,0.7446,4.877,9.2488,-0.0819,0.0713,-0.016
1391121.0,0.7566,4.8004,9.3518,-0.0873,0.0718,0.0037
1391131.0,0.7159,4.7022,9.3829,-0.0798,0.0697,0.0208
1391141.0,0.7302,4.4915,9.3757,-0.0809,0.0628,0.0277
1391151.0,0.7877,4.3718,9.3805,-0.0793,0.0543,0.0202
1391161.0,0.7494,4.379,9.3422,-0.0686,0.0511,0.0021
1391171.0,0.7398,4.3958,9.3518,-0.0607,0.049,-0.0122
1391181.0,0.7661,4.47,9.2919,-0.0601,0.0468,-0.0239
1391191.0,0.7973,4.6088,9.2703,-0.0756,0.0447,-0.0341
1391201.0,0.7829,4.6448,9.3206,-0.1,0.0426,-0.0346
1391211.0,0.838,4.6519,9.4355,-0.099,0.0458,-0.0282
1391221.0,0.7757,4.6926,9.3637,-0.0766,0.0442,-0.0186
1391231.0,0.7757,4.6998,9.2344,-0.066,0.0378,-0.009
1391241.0,0.7853,4.628,9.3063,-0.0639,0.05,0.0005
1391251.0,0.7183,4.5633,9.256,-0.0468,0.0633,0.0053
1391261.0,0.7111,4.5346,9.2799,-0.0548,0.0676,0.0021
1391271.0,0.723,4.5394,9.3302,-0.0697,0.066,-0.0027
1391281.0,0.7159,4.5226,9.4236,-0.0846,0.0601,-0.0096
1391291.0,0.7135,4.5322,9.4379,-0.1032,0.0415,-0.0165
1391301.0,0.7063,4.5011,9.4858,-0.1032,0.0277,-0.0192
1391311.0,0.7685,4.4867,9.4332,-0.0724,0.0208,-0.0186
1391321.0,0.7925,4.5155,9.2919,-0.0553,0.0149,-0.0202
1391331.0,0.7781,4.5298,9.2177,-0.0559,0.0149,-0.025
1391341.0,0.7566,4.5442,9.2129,-0.0506,0.0239,-0.0287
1391351.0,0.7805,4.5945,9.165,-0.0415,0.0372,-0.0271
1391361.0,0.7685,4.628,9.1435,-0.0559,0.041,-0.0277
1391371.0,0.8308,4.6543,9.1698,-0.0633,0.0442,-0.0261
1391381.0,0.7829,4.6974,9.1482,-0.0718,0.0521,-0.0202
1391391.0,0.814,4.6352,9.2464,-0.0979,0.0548,-0.0165
1391401.0,0.7805,4.5657,9.3661,-0.0984,0.0601,-0.0112
1391411.0,0.7853,4.5203,9.3518,-0.0761,0.0479,-0.009
1391421.0,0.8164,4.4915,9.2296,-0.0569,0.042,-0.0128
1391431.0,0.7949,4.5466,9.1554,-0.0458,0.0468,-0.0176
1391441.0,0.7925,4.5657,9.1243,-0.0516,0.05,-0.0229
1391451.0,0.759,4.5753,9.1267,-0.0575,0.0575,-0.0255
1391461.0,0.7805,4.5753,9.2033,-0.0601,0.0702,-0.025
1391471.0,0.7614,4.5538,9.2105,-0.0639,0.0777,-0.0234
1391481.0,0.7685,4.5657,9.3278,-0.066,0.0734,-0.0234
1391491.0,0.7542,4.6017,9.2871,-0.0607,0.0734,-0.0234
1391501.0,0.7374,4.6352,9.3374,-0.0649,0.0676,-0.0218
1391511.0,0.7757,4.616,9.3494,-0.0686,0.0569,-0.0208
1391521.0,0.8212,4.6064,9.2847,-0.0644,0.0474,-0.017
1391531.0,0.814,4.5849,9.244,-0.0686,0.0404,-0.0133
1391541.0,0.8332,4.4915,9.1866,-0.0729,0.0314,-0.016
1391551.0,0.7877,4.4796,9.153,-0.066,0.0394,-0.025
1391561.0,0.7829,4.5179,9.0788,-0.0559,0.0585,-0.0341
1391571.0,0.723,4.6136,9.0788,-0.0676,0.0686,-0.0458
1391581.0,0.6895,4.7262,9.2081,-0.0809,0.0809,-0.049
1391591.0,0.6728,4.8195,9.2895,-0.075,0.0915,-0.0436
1391601.0,0.7135,4.8507,9.3757,-0.0649,0.091,-0.0261
1391611.0,0.7159,4.8123,9.3805,-0.0612,0.0803,-0.0096
1391621.0,0.7494,4.7621,9.3158,-0.0569,0.0649,0.0059
1391631.0,0.7542,4.7046,9.2057,-0.0479,0.0639,0.0192
1391641.0,0.7614,4.5897,9.1674,-0.049,0.0692,0.0234
1391651.0,0.7614,4.4772,9.1937,-0.067,0.0766,0.0202
1391661.0,0.7877,4.3766,9.2943,-0.0766,0.0867,0.0112
1391671.0,0.7997,4.391,9.2775,-0.0596,0.1048,0.0027
1391681.0,0.7518,4.4173,9.3422,-0.074,0.1133,-0.0085
1391691.0,0.814,4.4269,9.5146,-0.0958,0.1059,-0.0202
1391701.0,0.7446,4.4412,9.6486,-0.0825,0.1038,-0.0277
1391711.0,0.7183,4.5155,9.6774,-0.0607,0.0915,-0.0309
1391721.0,0.723,4.5705,9.7109,-0.0436,0.0708,-0.0287
1391731.0,0.7111,4.6424,9.5577,-0.033,0.0559,-0.0261
1391741.0,0.6991,4.6687,9.481,-0.0372,0.0516,-0.0234
1391751.0,0.68,4.6591,9.4475,-0.0623,0.0468,-0.0202
1391761.0,0.6895,4.5849,9.5792,-0.0968,0.0335,-0.0186
1391771.0,0.6776,4.4412,9.663,-0.1091,0.016,-0.0186
1391781.0,0.7183,4.4077,9.5768,-0.0878,-0.008,-0.0239
1391791.0,0.7757,4.4149,9.4332,-0.0708,-0.0303,-0.0325
1391801.0,0.7518,4.4939,9.256,-0.0665,-0.0394,-0.0458
1391811.0,0.759,4.6256,9.1267,-0.0814,-0.0255,-0.0596
1391821.0,0.7063,4.7333,9.1746,-0.1054,-0.0128,-0.066
1391831.0,0.6776,4.8626,9.1746,-0.1107,-0.0064,-0.066
1391841.0,0.6345,4.9392,9.2057,-0.0995,0.0048,-0.0506
1391851.0,0.6967,4.8866,9.1842,-0.0777,0.0165,-0.0229
1391861.0,0.7374,4.798,9.074,-0.0591,0.0255,0.0016
1391871.0,0.8021,4.7118,9.0597,-0.0607,0.0293,0.0149
1391881.0,0.7997,4.604,9.0214,-0.0708,0.0372,0.0192
1391891.0,0.8547,4.5466,9.0597,-0.0819,0.049,0.0165
1391901.0,0.8332,4.537,9.0381,-0.0878,0.0644,0.0106
1391911.0,0.8212,4.5442,9.1099,-0.099,0.075,0.0032
1391921.0,0.7925,4.5777,9.1818,-0.107,0.074,-0.0032
1391931.0,0.8045,4.6017,9.2081,-0.1011,0.0793,-0.0027
1391941.0,0.7805,4.5657,9.256,-0.0931,0.0915,0.0059
1391951.0,0.8092,4.4796,9.3206,-0.0921,0.0851,0.0096
1391961.0,0.8308,4.4221,9.3877,-0.0819,0.0809,0.0112
1391971.0,0.7949,4.4053,9.3494,-0.0575,0.0814,0.0096
1391981.0,0.8212,4.379,9.3254,-0.05,0.074,0.0037
1391991.0,0.8332,4.4125,9.2943,-0.0532,0.0708,-0.0053
1392001.0,0.8021,4.4604,9.335,-0.0665,0.074,-0.0144
1392011.0,0.8068,4.4915,9.3398,-0.0851,0.0718,-0.0192
1392021.0,0.8021,4.4652,9.3422,-0.099,0.0713,-0.0213
1392031.0,0.814,4.4556,9.4355,-0.1048,0.0633,-0.0239
1392041.0,0.7757,4.3981,9.5193,-0.0947,0.0537,-0.025
1392051.0,0.8116,4.4005,9.4667,-0.0681,0.0372,-0.0261
1392061.0,0.8021,4.4149,9.3158,-0.0388,0.0325,-0.0266
1392071.0,0.7733,4.4388,9.2153,-0.0341,0.0303,-0.0346
1392081.0,0.7973,4.5921,9.165,-0.0394,0.0362,-0.0442
1392091.0,0.7518,4.6878,9.1195,-0.0601,0.049,-0.0484
1392101.0,0.7015,4.7453,9.2536,-0.0862,0.0591,-0.0468
1392111.0,0.6823,4.7621,9.3518,-0.0803,0.0649,-0.0341
1392121.0,0.7398,4.7285,9.2799,-0.0447,0.066,-0.016
1392131.0,0.8164,4.7046,9.1578,-0.0293,0.0697,-0.0021
1392141.0,0.8092,4.6448,9.1243,-0.0516,0.0761,0.0005
1392151.0,0.8045,4.5514,9.2296,-0.0729,0.0905,-0.0005
1392161.0,0.7063,4.5155,9.3254,-0.0814,0.1022,-0.0053
1392171.0,0.735,4.4987,9.4044,-0.0825,0.0958,-0.0101
1392181.0,0.6967,4.5562,9.4667,-0.0756,0.0878,-0.0149
1392191.0,0.6776,4.6495,9.414,-0.0665,0.0809,-0.016
1392201.0,0.7039,4.6878,9.3829,-0.0718,0.0803,-0.0122
1392211.0,0.7207,4.6807,9.4355,-0.0851,0.0798,-0.0059
1392221.0,0.6776,4.6639,9.4858,-0.1006,0.075,0.0
1392231.0,0.7207,4.5562,9.5648,-0.1022,0.0612,0.0096
1392241.0,0.6919,4.4628,9.5409,-0.0814,0.0506,0.016
1392251.0,0.7159,4.4245,9.3901,-0.0788,0.033,0.0133
1392261.0,0.723,4.3455,9.3853,-0.0889,0.0271,0.0027
1392271.0,0.7566,4.4029,9.2751,-0.0867,0.0335,-0.0085
1392281.0,0.7685,4.4436,9.3015,-0.1059,0.0399,-0.0208
1392291.0,0.7446,4.458,9.4355,-0.1256,0.0309,-0.0287
1392301.0,0.7973,4.4891,9.4164,-0.0984,0.0266,-0.0277
1392311.0,0.7853,4.5131,9.335,-0.0585,0.0341,-0.0181
1392321.0,0.7997,4.5083,9.1626,-0.0388,0.0362,-0.0117
1392331.0,0.8236,4.5131,9.1051,-0.0537,0.042,-0.0128
1392341.0,0.759,4.4748,9.1482,-0.0809,0.0623,-0.0181
1392351.0,0.7374,4.47,9.268,-0.0899,0.0772,-0.0208
1392361.0,0.6991,4.4676,9.3757,-0.091,0.075,-0.0234
1392371.0,0.7446,4.4843,9.4355,-0.075,0.0708,-0.0234
1392381.0,0.7207,4.5442,9.4164,-0.0569,0.0639,-0.0234
1392391.0,0.7685,4.5657,9.3111,-0.0575,0.0532,-0.0261
1392401.0,0.7207,4.5921,9.414,-0.0676,0.0543,-0.0277
1392411.0,0.6967,4.5777,9.4595,-0.0649,0.0543,-0.0266
1392421.0,0.6943,4.5945,9.4355,-0.0495,0.049,-0.0234
1392431.0,0.723,4.6328,9.3805,-0.042,0.0399,-0.0202
1392441.0,0.7326,4.6687,9.2584,-0.0463,0.0325,-0.0149
1392451.0,0.7757,4.6424,9.2081,-0.067,0.0271,-0.009
1392461.0,0.7805,4.5873,9.1435,-0.0915,0.0319,-0.0048
1392471.0,0.8045,4.5394,9.2392,-0.1086,0.0394,-0.0021
1392481.0,0.8092,4.4748,9.2799,-0.1075,0.05,-0.0027
1392491.0,0.7709,4.4197,9.3326,-0.0947,0.0654,-0.0037
1392501.0,0.7614,4.4293,9.3541,-0.0644,0.075,-0.0059
1392511.0,0.7733,4.4652,9.3494,-0.0399,0.0761,-0.009
1392521.0,0.7733,4.549,9.3087,-0.0474,0.0756,-0.0144
1392531.0,0.7757,4.5777,9.3733,-0.0777,0.067,-0.016
1392541.0,0.7997,4.5993,9.4571,-0.0931,0.0564,-0.0138
1392551.0,0.7877,4.5442,9.4475,-0.0899,0.0564,-0.0048
1392561.0,0.7614,4.4125,9.4547,-0.0926,0.0431,-0.0016
1392571.0,0.8092,4.3718,9.3637,-0.0825,0.0282,-0.0048
1392581.0,0.759,4.3766,9.3182,-0.0665,0.0298,-0.0128
1392591.0,0.747,4.4508,9.2799,-0.0569,0.0293,-0.0245
1392601.0,0.7661,4.5466,9.2033,-0.0585,0.0378,-0.0303
1392611.0,0.7422,4.6232,9.1985,-0.0612,0.0553,-0.0293
1392621.0,0.7422,4.6711,9.2656,-0.0718,0.0596,-0.0218
1392631.0,0.747,4.6567,9.2296,-0.0692,0.0665,-0.0101
1392641.0,0.7207,4.5586,9.335,-0.0585,0.0761,0.0011
1392651.0,0.7733,4.4987,9.3206,-0.0484,0.0718,0.0085
1392661.0,0.7494,4.4317,9.3254,-0.0436,0.0697,0.0064
1392671.0,0.7829,4.4005,9.2751,-0.0442,0.0724,0.0
1392681.0,0.759,4.4388,9.3087,-0.0623,0.0793,-0.0133
1392691.0,0.7398,4.5011,9.4308,-0.0841,0.0788,-0.0261
1392701.0,0.6967,4.5442,9.5553,-0.0825,0.0702,-0.0303
1392711.0,0.6847,4.6328,9.5481,-0.0649,0.0527,-0.0271
1392721.0,0.7278,4.6711,9.4547,-0.0548,0.0341,-0.0176
1392731.0,0.7949,4.6376,9.3589,-0.0527,0.0218,-0.0069
1392741.0,0.8188,4.5921,9.2344,-0.0585,0.0181,0.0021
1392751.0,0.7973,4.5179,9.2201,-0.074,0.0303,0.0016
1392761.0,0.7853,4.4269,9.2799,-0.0851,0.0447,-0.0021
1392771.0,0.8021,4.4077,9.3374,-0.074,0.0553,-0.0069
1392781.0,0.8116,4.4604,9.3254,-0.0617,0.0601,-0.0128
1392791.0,0.838,4.4796,9.3637,-0.0628,0.0591,-0.017
1392801.0,0.8164,4.5322,9.3565,-0.0686,0.0559,-0.0197
1392811.0,0.8428,4.5562,9.4044,-0.074,0.0516,-0.0202
1392821.0,0.7949,4.5562,9.3781,-0.0772,0.049,-0.0186
1392831.0,0.8356,4.5011,9.3829,-0.0745,0.0404,-0.0165
1392841.0,0.8092,4.537,9.335,-0.0607,0.0484,-0.017
1392851.0,0.7494,4.5945,9.2847,-0.058,0.0553,-0.0202
1392861.0,0.7614,4.6017,9.3853,-0.0591,0.058,-0.0186
1392871.0,0.7614,4.6208,9.3015,-0.0585,0.0564,-0.0144
1392881.0,0.759,4.64,9.335,-0.0756,0.0463,-0.0106
1392891.0,0.7805,4.6352,9.3637,-0.0793,0.0394,-0.0011
1392901.0,0.7853,4.5538,9.3541,-0.066,0.0458,0.0085
1392911.0,0.8045,4.525,9.3087,-0.0516,0.0569,0.0133
1392921.0,0.7781,4.5131,9.256,-0.0569,0.0649,0.0085
1392931.0,0.7781,4.4867,9.2751,-0.0788,0.0686,-0.0016
1392941.0,0.7183,4.5035,9.3709,-0.1032,0.0676,-0.0096
1392951.0,0.735,4.5514,9.4547,-0.107,0.0607,-0.0128
1392961.0,0.7398,4.5873,9.4451,-0.0995,0.049,-0.0053
1392971.0,0.7614,4.5203,9.4308,-0.1043,0.0319,0.0048
1392981.0,0.8021,4.4365,9.3925,-0.0915,0.0255,0.0128
1392991.0,0.8475,4.4125,9.2153,-0.0724,0.0298,0.0144
