time_ms,ax,ay,az,gx,gy,gz
350851.0,0.3998,1.7885,10.6542,-0.1501,-0.125,-0.0394
350861.0,0.4357,1.6352,10.3765,-0.0926,-0.1421,-0.0202
350871.0,0.4525,1.5251,10.0173,-0.0431,-0.158,-0.0106
350881.0,0.4932,1.4341,9.6007,-0.0192,-0.1458,-0.0138
350891.0,0.5171,1.324,9.3733,-0.0314,-0.1112,-0.0293
350901.0,0.4717,1.2713,9.2177,-0.0676,-0.0591,-0.0601
350911.0,0.395,1.3431,9.2392,-0.0926,0.0048,-0.0979
350921.0,0.4956,1.47,9.402,-0.0724,0.0819,-0.1261
350931.0,0.4286,1.6831,9.4762,-0.0149,0.1687,-0.1341
350941.0,0.4142,1.8459,9.5768,-0.0032,0.2176,-0.1341
350951.0,0.2969,2.0207,9.8545,-0.033,0.248,-0.1304
350961.0,0.1748,2.0566,10.2376,-0.0628,0.2623,-0.1187
350971.0,0.1413,2.0782,10.5249,-0.0378,0.2661,-0.0984
350981.0,0.1652,2.138,10.6949,0.0037,0.2607,-0.0814
350991.0,0.0982,2.2098,10.8026,-0.0027,0.2309,-0.0708
351001.0,0.0838,2.2649,10.8338,-0.0319,0.182,-0.0623
351011.0,0.0886,2.3679,10.7284,-0.0532,0.1394,-0.0458
351021.0,0.0072,2.4517,10.659,-0.0899,0.1144,-0.0223
351031.0,-0.0575,2.387,10.7907,-0.1431,0.0974,0.0074
351041.0,0.0072,2.1835,10.9487,-0.1777,0.0756,0.0378
351051.0,0.158,1.8914,11.054,-0.1735,0.0521,0.0649
351061.0,0.2538,1.6592,10.975,-0.1623,0.0234,0.0686
351071.0,0.2155,1.5036,10.9487,-0.1884,-0.0255,0.041
351081.0,0.1939,1.5658,10.8409,-0.2011,-0.0601,0.0043
351091.0,0.0814,1.7741,10.6662,-0.1857,-0.0553,-0.0202
351101.0,-0.0168,1.901,10.6662,-0.1697,-0.0261,-0.025
351111.0,0.0,2.0327,10.6614,-0.1596,0.0149,-0.0144
351121.0,-0.0814,1.9776,11.0923,-0.1836,0.0527,-0.0027
351131.0,-0.0766,1.9585,11.5017,-0.1628,0.075,0.0133
351141.0,-0.1053,1.8579,11.9135,-0.133,0.0681,0.0293
351151.0,-0.1844,1.9321,12.1625,-0.0819,0.042,0.0452
351161.0,-0.1341,1.9513,12.39,-0.0442,-0.0021,0.0654
351171.0,-0.0862,1.9321,12.5073,-0.0537,-0.0952,0.0793
351181.0,0.0072,1.9178,12.3613,-0.0995,-0.2198,0.0798
351191.0,0.0551,1.8555,12.2272,-0.1676,-0.3182,0.0713
351201.0,0.0527,1.7166,12.1961,-0.2639,-0.4273,0.0564
351211.0,0.0383,1.5371,12.0524,-0.331,-0.5406,0.0367
351221.0,0.0072,1.3958,11.8154,-0.3549,-0.621,0.016
351231.0,0.1006,1.3527,11.4778,-0.3778,-0.6896,-0.0133
351241.0,0.0814,1.3815,11.212,-0.4188,-0.7375,-0.049
351251.0,0.1724,1.4653,10.8649,-0.4576,-0.7615,-0.074
351261.0,0.3065,1.4772,10.7212,-0.5076,-0.779,-0.091
351271.0,0.5148,1.6065,10.5297,-0.539,-0.795,-0.1016
351281.0,0.6057,1.7645,10.3453,-0.5539,-0.7838,-0.0947
351291.0,0.7302,1.7885,10.3884,-0.5875,-0.779,-0.0745
351301.0,0.8404,1.6783,10.3908,-0.597,-0.7897,-0.0394
351311.0,0.8787,1.6017,10.2592,-0.5555,-0.7944,0.0021
351321.0,0.7997,1.4389,10.2161,-0.5018,-0.795,0.0527
351331.0,0.893,1.1229,10.2855,-0.3906,-0.7764,0.1181
351341.0,1.0223,0.6991,10.3765,-0.2112,-0.7567,0.1809
351351.0,1.2857,0.5124,10.0126,-0.0186,-0.77,0.2134
351361.0,1.6376,0.6105,9.347,0.0984,-0.796,0.2118
351371.0,2.0016,0.7326,8.746,0.0639,-0.8189,0.1841
351381.0,2.2386,0.7542,8.272,-0.0788,-0.8312,0.1453
351391.0,2.3511,0.6009,8.0182,-0.2751,-0.8439,0.1027
351401.0,2.5498,0.4741,7.8051,-0.4677,-0.8806,0.0564
351411.0,2.7988,0.261,7.5848,-0.6284,-0.9195,0.0101
351421.0,2.8946,0.17,7.4819,-0.6619,-0.9264,-0.0213
351431.0,3.0071,0.3663,7.1251,-0.5231,-0.928,-0.0122
351441.0,2.9521,0.5411,6.8929,-0.2123,-0.9163,0.0665
351451.0,2.9281,0.4908,5.3893,0.3528,-0.9269,0.2432
351461.0,3.4907,0.1077,2.375,1.0413,-0.8535,0.4608
351471.0,4.3096,-0.2227,-1.9058,1.5123,-0.5332,0.6034
351481.0,4.5203,-0.8212,-4.6759,1.4676,0.0809,0.5938
351491.0,4.6017,-1.154,-6.8761,1.028,0.7982,0.4507
351501.0,3.7757,-2.0159,-6.5457,0.2022,1.5782,0.1916
351511.0,2.7222,-2.5331,-4.9249,-0.4145,2.4195,-0.0841
351521.0,1.4581,-2.8635,-1.0439,-0.6141,3.2831,-0.3113
351531.0,0.0527,-2.308,2.9018,-0.1447,3.9408,-0.4395
351541.0,-0.8284,-0.9888,4.9153,0.7753,4.2856,-0.4842
351551.0,-1.403,0.7518,5.7365,1.6735,4.5017,-0.4794
351561.0,-2.0231,1.9848,7.0701,2.3142,4.7959,-0.4528
351571.0,-3.4477,3.8068,8.2408,2.4754,4.971,-0.4789
351581.0,-3.9528,4.4293,11.3581,1.8225,4.7794,-0.5832
351591.0,-4.3886,5.4205,13.5225,1.0238,4.3889,-0.7003
351601.0,-5.3965,5.7796,17.9685,0.2937,3.9674,-0.77
351611.0,-5.6168,7.1898,19.0626,0.0819,3.2879,-0.713
351621.0,-6.2201,8.5401,18.737,-0.1282,2.4706,-0.5688
351631.0,-6.3159,9.4499,16.6277,-0.2762,1.7113,-0.3368
351641.0,-7.2329,10.3789,13.9869,-0.2182,1.3973,-0.0585
351651.0,-7.9392,10.1586,13.8888,0.0506,1.6283,0.2975
351661.0,-8.3414,9.1411,15.3756,0.5779,2.0311,0.6742
351671.0,-8.1906,8.2121,16.8624,0.9929,2.1269,0.9264
351681.0,-7.7955,8.2193,17.7578,1.0552,1.9443,1.0089
351691.0,-7.9799,8.6407,19.0914,0.7322,1.6602,0.9966
351701.0,-8.2169,8.9088,21.0115,0.1979,1.1978,0.9796
351711.0,-8.3175,8.9998,22.3571,-0.2602,0.5406,1.0307
351721.0,-8.26,8.5952,22.1392,-0.5087,-0.2336,1.1786
351731.0,-8.0014,7.5944,20.3483,-0.5444,-0.9557,1.3867
351741.0,-7.3119,6.4452,17.9972,-0.4246,-1.4074,1.5884
351751.0,-6.4045,5.3439,15.9597,-0.2677,-1.5399,1.731
351761.0,-5.7844,4.6519,14.7219,-0.3118,-1.5618,1.7677
351771.0,-5.4109,4.1348,14.3532,-0.6795,-1.6809,1.7123
351781.0,-5.1044,3.225,14.5927,-1.1882,-1.9502,1.6362
351791.0,-4.6735,2.1644,14.5807,-1.5165,-2.2727,1.5692
351801.0,-4.2306,1.3623,13.9558,-1.541,-2.5435,1.5245
351811.0,-3.6488,0.723,13.0388,-1.3782,-2.7271,1.4894
351821.0,-3.2154,0.3017,12.1865,-1.1307,-2.8133,1.4564
351831.0,-2.7701,-0.2562,11.3246,-0.8987,-2.8931,1.4239
351841.0,-2.2817,-0.5698,10.2256,-0.7396,-3.0208,1.35
351851.0,-1.6257,-0.407,8.8969,-0.6385,-3.1357,1.2398
351861.0,-1.0104,-0.0263,7.5585,-0.5444,-3.1357,1.1494
351871.0,-0.5698,0.2705,6.3686,-0.4885,-3.0458,1.1031
351881.0,-0.0096,0.2945,5.3558,-0.522,-2.958,1.0828
351891.0,0.4405,-0.0575,4.8411,-0.555,-2.8282,1.0791
351901.0,1.0654,-0.5818,4.5466,-0.4326,-2.6026,1.0956
351911.0,1.3695,-1.1277,4.9249,-0.1612,-2.2684,1.1132
351921.0,1.731,-1.6999,5.8466,0.2533,-1.9534,1.1281
351931.0,1.9249,-1.9465,6.3183,0.7482,-1.7464,1.1307
351941.0,2.3391,-2.1284,6.1172,1.1712,-1.6836,1.1137
351951.0,2.9185,-2.2051,5.1667,1.466,-1.6586,1.0621
351961.0,3.4261,-2.1165,3.9768,1.566,-1.5756,0.9594
351971.0,4.0103,-1.9944,2.7414,1.4154,-1.4686,0.8093
351981.0,4.3144,-2.2194,2.332,0.9887,-1.3702,0.6173
351991.0,4.7309,-2.7557,1.9058,0.5023,-1.3212,0.4028
352001.0,4.9225,-3.5769,1.6017,0.1016,-1.2579,0.1644
352011.0,5.3271,-4.3239,0.565,-0.1293,-1.1355,-0.1043
352021.0,5.2864,-4.8626,-0.3807,-0.2762,-0.8727,-0.4252
352031.0,5.2433,-5.0326,-1.8459,-0.4895,-0.6098,-0.8003
352041.0,5.3151,-5.2864,-2.7749,-0.7939,-0.3017,-1.2185
352051.0,5.2816,-4.8507,-4.3263,-0.8865,0.2033,-1.6368
352061.0,4.0845,-3.9169,-4.695,-0.9168,0.9339,-2.0289
352071.0,2.8419,-2.7078,-4.6615,-0.854,1.6639,-2.3243
352081.0,1.3982,-1.3312,-4.7525,-0.6939,2.4036,-2.4929
352091.0,-0.4501,-0.5674,-3.5913,-0.4709,3.2299,-2.5281
352101.0,-1.6448,-0.1125,-2.0901,0.0325,4.118,-2.4616
352111.0,-2.9688,0.577,-0.1077,0.572,4.9864,-2.4121
352121.0,-4.3503,1.0989,3.2226,0.9402,5.6133,-2.4126
352131.0,-5.2696,1.8794,6.3973,1.325,5.9788,-2.4259
352141.0,-6.7804,2.8036,10.1179,1.6112,6.1044,-2.4376
352151.0,-7.3933,4.2617,12.4858,1.8049,5.8735,-2.4179
352161.0,-8.1235,6.0956,15.6772,1.8635,5.6622,-2.386
352171.0,-9.7683,8.5114,19.0866,1.8661,5.4036,-2.2594
352181.0,-10.6638,9.2273,24.0019,1.6969,4.8209,-1.9874
352191.0,-10.6781,9.0501,27.2915,1.7448,3.9398,-1.6229
352201.0,-10.7164,8.8035,28.5125,1.8198,2.7782,-1.3138
352211.0,-10.3046,8.7747,27.8134,1.84,1.5192,-1.0844
352221.0,-9.9671,9.1147,25.1942,1.8528,0.4667,-0.8966
352231.0,-9.0644,9.0142,21.622,1.6453,-0.3704,-0.762
352241.0,-8.5449,8.5736,18.7705,1.0834,-0.9243,-0.7396
352251.0,-8.3103,7.908,17.4825,0.2964,-1.2962,-0.8179
352261.0,-8.0996,7.0246,17.4178,-0.414,-1.6054,-0.9216
352271.0,-8.0038,5.8945,17.5567,-0.8631,-1.9294,-1.0126
352281.0,-7.6495,4.8674,17.583,-0.9605,-2.2242,-1.0876
352291.0,-7.355,4.3981,16.7618,-0.8333,-2.5211,-1.1744
352301.0,-6.9599,4.3383,15.6724,-0.6912,-2.8308,-1.2813
352311.0,-6.6822,4.7716,14.461,-0.5103,-3.0506,-1.3739
352321.0,-6.2465,5.545,12.8162,-0.3001,-3.2012,-1.4319
352331.0,-5.6431,6.5625,10.7883,-0.2038,-3.2773,-1.4399
352341.0,-5.1427,7.1419,9.4978,-0.3932,-3.2874,-1.4133
352351.0,-4.6232,7.2042,8.9352,-0.763,-3.3023,-1.3622
352361.0,-4.1156,6.8307,8.9759,-1.0552,-3.2954,-1.284
352371.0,-3.7876,6.3039,9.1219,-1.1047,-3.2326,-1.1728
352381.0,-3.4692,5.7365,9.2105,-0.9434,-3.1485,-1.0382
352391.0,-2.8563,5.3223,8.8202,-0.6455,-3.0671,-0.8966
352401.0,-2.1572,5.1356,8.0732,-0.3432,-2.9671,-0.7769
352411.0,-1.7382,5.2625,7.1682,-0.1878,-2.842,-0.7066
352421.0,-1.2282,5.6431,6.2034,-0.2927,-2.7244,-0.6955
352431.0,-0.984,6.2513,5.7988,-0.6768,-2.5797,-0.7386
352441.0,-1.0989,6.6679,6.213,-1.317,-2.4876,-0.7854
352451.0,-1.1205,6.0956,7.999,-1.9741,-2.4887,-0.7833
352461.0,-1.0487,5.4109,9.0405,-2.2131,-2.5541,-0.7162
352471.0,-0.9984,4.3574,10.6255,-2.038,-2.552,-0.5992
352481.0,-0.3256,3.8427,11.1043,-1.3526,-2.4876,-0.4289
352491.0,0.1844,3.6296,10.6326,-0.6582,-2.5286,-0.265
352501.0,0.7853,3.6224,9.1482,-0.2708,-2.7255,-0.1474
352511.0,1.3862,3.6607,7.616,-0.1346,-2.8654,-0.075
352521.0,1.9393,3.7589,6.1148,-0.0793,-2.8495,-0.0128
352531.0,2.3439,3.723,4.8291,-0.1362,-2.7649,0.0399
352541.0,2.9592,3.7182,3.5362,-0.3038,-2.6435,0.0724
352551.0,3.3974,3.6081,2.9568,-0.5885,-2.4541,0.0889
352561.0,3.9504,3.304,2.7246,-0.9046,-2.2982,0.1006
352571.0,4.312,3.0071,2.6815,-1.1185,-2.1183,0.1117
352581.0,4.4963,2.9185,2.7653,-1.2095,-1.947,0.1272
352591.0,4.8961,3.0167,2.4325,-1.2377,-1.8943,0.1554
352601.0,5.3486,3.1771,1.5275,-1.1781,-1.864,0.2118
352611.0,5.6431,3.2968,0.237,-1.0584,-1.7852,0.3086
352621.0,6.2752,3.0813,-1.8603,-0.9461,-1.7161,0.4369
352631.0,6.8211,2.6408,-4.5442,-0.8046,-1.5006,0.5608
352641.0,6.6535,2.4181,-7.4005,-0.5662,-0.9605,0.6625
352651.0,5.6671,2.5666,-10.1418,-0.3395,-0.1453,0.7524
352661.0,4.6519,2.9161,-12.7228,-0.249,0.8897,0.8689
352671.0,3.1532,2.8659,-13.5703,-0.39,2.1811,1.0334
352681.0,1.1875,1.6376,-11.6143,-0.563,3.5205,1.2414
352691.0,0.8188,-0.3184,-8.9878,-0.2879,4.7608,1.4144
352701.0,-2.2314,-1.0319,-6.268,0.4922,6.0065,1.4622
352711.0,-2.8898,-1.0391,-4.8243,1.5527,7.1596,1.3995
352721.0,-4.853,-0.0311,-2.1524,2.3094,8.3238,1.1355
352731.0,-7.5561,2.0351,1.81,2.4759,9.1007,0.7391
352741.0,-10.2711,4.8291,7.2161,2.0774,9.3827,0.3443
352751.0,-12.7515,7.8075,14.7124,1.2744,9.1406,0.132
352761.0,-13.2232,9.2464,22.618,0.8418,8.5952,0.3241
352771.0,-13.0292,9.0836,29.7001,0.9498,7.805,0.745
352781.0,-12.378,8.3199,33.4949,1.1185,6.3114,1.1249
352791.0,-10.9822,7.4603,33.6721,1.1887,4.3937,1.3814
352801.0,-10.0748,7.4819,29.5037,1.2201,2.6946,1.5256
352811.0,-9.4068,7.3622,24.4137,0.8157,1.4181,1.5309
352821.0,-9.1051,7.4723,20.0347,0.0793,0.7104,1.4213
352831.0,-9.1866,7.2161,17.9948,-0.9493,0.3507,1.2568
352841.0,-9.1482,6.0741,18.4425,-1.8752,0.0724,1.1291
352851.0,-9.2081,4.9081,19.4313,-2.1338,-0.0979,1.1095
352861.0,-9.0956,3.699,20.5949,-1.7969,-0.2176,1.1738
352871.0,-8.5162,3.0095,20.796,-1.1254,-0.4624,1.2542
352881.0,-7.501,2.7797,19.7857,-0.4294,-0.7971,1.3058
352891.0,-6.6128,3.1005,17.8416,0.0575,-1.1052,1.3079
352901.0,-5.8969,3.7134,15.9861,0.1788,-1.3228,1.2606
352911.0,-5.3846,4.2042,15.0236,-0.008,-1.4346,1.1967
352921.0,-4.9297,4.4556,14.7579,-0.4331,-1.5825,1.1345
352931.0,-4.6591,4.1827,15.1577,-1.0094,-1.8943,1.085
352941.0,-4.4556,3.6488,15.2343,-1.4191,-2.312,1.0802
352951.0,-4.4748,3.0335,14.7291,-1.483,-2.6946,1.1382
352961.0,-4.3431,2.3056,13.4746,-1.1643,-2.9367,1.2797
352971.0,-3.9552,1.0127,12.5265,-0.5502,-2.9064,1.4889
352981.0,-3.2226,-0.2083,11.4132,0.199,-2.751,1.6756
352991.0,-2.4253,-1.1037,10.3142,0.7551,-2.6574,1.7411
353001.0,-1.4461,-1.4557,8.9711,1.0648,-2.6074,1.6895
353011.0,-0.7661,-1.4653,7.92,1.16,-2.5233,1.5687
353021.0,-0.1245,-1.2163,6.8594,1.1254,-2.4062,1.4335
353031.0,0.2801,-1.1875,6.2704,0.9658,-2.2556,1.3031
353041.0,0.4334,-1.3336,6.0334,0.7045,-2.1285,1.1637
353051.0,0.2346,-1.7358,6.7133,0.4858,-1.9853,1.0211
353061.0,0.5794,-2.1644,7.4364,0.5768,-1.7762,0.9094
353071.0,0.9194,-2.4852,8.8897,0.879,-1.4521,0.7998
353081.0,1.415,-2.3631,9.8952,1.0967,-1.4005,0.622
353091.0,1.7813,-1.6305,10.0173,1.085,-1.6384,0.3475
353101.0,1.8483,0.0048,8.7364,0.9104,-1.8986,0.0639
353111.0,1.9704,1.4724,7.3717,0.4166,-2.1274,-0.1532
353121.0,2.1117,2.4062,6.2584,-0.315,-2.2907,-0.2767
353131.0,2.2577,2.4756,5.7964,-1.0935,-2.378,-0.3299
353141.0,2.3415,2.0087,5.5474,-1.7033,-2.4206,-0.3464
353151.0,2.5163,1.3168,5.7197,-1.9619,-2.3307,-0.332
353161.0,2.8754,0.6464,6.3063,-1.815,-2.0987,-0.2852
353171.0,3.1627,0.2155,6.7588,-1.4495,-1.9539,-0.2341
353181.0,3.4165,0.0838,6.4165,-0.9706,-1.9422,-0.1884
353191.0,3.7541,0.3496,4.944,-0.4672,-1.9502,-0.1389
353201.0,4.1252,0.5818,2.8012,-0.1564,-1.9326,-0.0878
353211.0,4.8626,0.8523,-0.1556,-0.1735,-1.8778,-0.0649
353221.0,5.9472,0.5387,-2.9521,-0.7503,-1.8129,-0.1064
353231.0,6.754,-0.838,-4.6064,-1.6676,-1.7091,-0.2379
353241.0,6.4236,-2.0686,-5.5545,-2.1641,-1.2914,-0.4236
353251.0,5.4803,-2.3535,-5.9975,-1.8092,-0.3916,-0.5678
353261.0,4.4987,-2.1356,-6.0597,-0.8759,0.7694,-0.6274
353271.0,3.7685,-1.3671,-6.505,0.1969,1.9119,-0.6455
353281.0,3.2561,-0.2849,-7.6495,0.8775,2.8692,-0.6891
353291.0,2.2194,0.3926,-8.2384,0.821,3.6295,-0.7806
353301.0,1.0319,0.7254,-8.7197,0.2692,4.2686,-0.8939
353311.0,-1.0702,0.1437,-7.1611,-0.4491,5.0008,-0.9871
353321.0,-3.79,-0.7087,-4.2521,-0.7247,5.8602,-1.0078
353331.0,-6.0908,-1.8483,0.0838,-0.2937,6.794,-0.9823
353341.0,-7.6351,-2.4636,4.4269,0.8759,7.7311,-0.9892
353351.0,-9.1506,-1.9345,9.675,2.2993,8.5143,-1.1542
353361.0,-11.1881,1.7358,13.0125,3.3454,8.6474,-1.4591
353371.0,-12.1458,5.5522,15.9095,3.1772,7.9519,-1.7224
353381.0,-12.785,8.9711,19.0818,2.4259,7.1388,-1.7895
353391.0,-13.6709,10.8529,23.8008,1.8001,6.462,-1.5963
353401.0,-14.0372,11.157,28.6323,1.7097,5.7899,-1.1887
353411.0,-14.1809,10.9463,31.3784,1.7879,4.7965,-0.7572
353421.0,-13.2016,9.9264,32.8054,1.4319,3.2336,-0.4704
353431.0,-12.3206,9.2273,31.5675,1.1105,1.6639,-0.2895
353441.0,-11.9758,8.8035,28.6825,0.8689,0.373,-0.166
353451.0,-11.3557,8.1738,25.2445,0.5124,-0.729,-0.0958
353461.0,-10.8386,7.3167,21.9692,0.1341,-1.5335,-0.0793
353471.0,-10.4363,6.8163,18.9621,-0.1256,-2.0343,-0.1048
353481.0,-9.8234,6.4476,16.6445,-0.323,-2.3232,-0.1506
353491.0,-9.1291,6.1986,14.9159,-0.3991,-2.4083,-0.1873
353501.0,-8.4922,6.0932,13.8457,-0.4103,-2.3892,-0.2134
353511.0,-7.6519,6.0262,12.9933,-0.4518,-2.4067,-0.2315
353521.0,-7.0222,5.7916,12.5767,-0.5555,-2.4195,-0.2389
353531.0,-6.4572,5.4133,12.5959,-0.6593,-2.4616,-0.2379
353541.0,-5.794,5.0111,12.5791,-0.7019,-2.569,-0.2304
353551.0,-5.2625,4.7405,12.0979,-0.6859,-2.7249,-0.216
353561.0,-4.8722,4.5466,11.5951,-0.688,-2.8979,-0.2054
353571.0,-4.4556,4.2497,11.3006,-0.6401,-3.0245,-0.1852
353581.0,-4.0247,3.9528,10.6757,-0.4645,-3.1038,-0.1458
353591.0,-3.4429,3.7517,9.8521,-0.2261,-3.0836,-0.1043
353601.0,-2.8563,3.8618,9.1004,-0.0686,-3.0224,-0.091
353611.0,-2.4229,4.221,8.6574,-0.0788,-2.9575,-0.1059
353621.0,-2.1261,4.6639,8.2384,-0.2623,-2.9495,-0.125
353631.0,-1.8052,4.8267,8.1906,-0.6242,-3.0187,-0.1352
353641.0,-1.5131,4.6663,8.3055,-0.9929,-3.1294,-0.1219
353651.0,-1.2833,4.1156,8.2815,-1.2904,-3.2815,-0.0889
353661.0,-1.154,3.3016,8.1858,-1.441,-3.4108,-0.0511
353671.0,-0.7805,2.4445,7.9966,-1.4112,-3.5205,-0.0234
353681.0,0.2729,1.6831,7.3694,-1.1605,-3.5694,-0.0016
353691.0,0.9481,1.3001,6.1914,-0.8423,-3.5481,-0.0101
353701.0,1.3192,1.1684,5.0566,-0.6311,-3.513,-0.0548
353711.0,1.8148,1.2905,3.6966,-0.4752,-3.4295,-0.1112
353721.0,2.4588,1.4485,2.3559,-0.398,-3.2709,-0.1538
353731.0,2.9329,1.4748,1.2306,-0.4284,-3.0575,-0.1958
353741.0,3.45,1.3288,0.5171,-0.563,-2.8165,-0.2464
353751.0,4.0007,0.9361,0.2251,-0.6854,-2.5424,-0.2996
353761.0,4.4365,0.4812,0.1844,-0.6604,-2.2099,-0.3464
353771.0,4.81,0.1987,0.1077,-0.4768,-1.8645,-0.3938
353781.0,5.2553,0.2203,-0.4836,-0.1671,-1.532,-0.4358
353791.0,5.5138,0.51,-1.5682,0.141,-1.1792,-0.4725
353801.0,5.9065,0.9577,-3.0742,0.3177,-0.8083,-0.5204
353811.0,6.2297,1.4437,-4.4556,0.3225,-0.3416,-0.5821
353821.0,6.2058,1.8794,-5.6168,0.1266,0.1916,-0.647
353831.0,5.7533,1.8771,-6.3758,-0.3022,0.7098,-0.7199
353841.0,4.9823,1.7238,-6.7253,-0.7652,1.2877,-0.7998
353851.0,3.8451,1.6807,-6.6463,-1.1637,1.9316,-0.8775
353861.0,2.5929,1.8794,-5.8179,-1.3995,2.6228,-0.9312
353871.0,1.6903,3.0789,-5.4492,-1.3356,3.3725,-0.9365
353881.0,0.2203,4.5538,-4.4101,-1.2324,4.1201,-0.8668
353891.0,-0.9864,5.8419,-3.8475,-1.2547,4.6294,-0.7114
353901.0,-3.0622,6.4452,-3.0574,-1.3904,5.062,-0.4943
353911.0,-5.3103,6.4476,-2.229,-1.3329,5.6149,-0.1602
353921.0,-5.9927,4.7022,0.6273,-1.1164,6.3348,0.2208
353931.0,-7.5848,3.8307,5.5186,-0.4103,7.2601,0.4895
353941.0,-10.1059,4.4915,12.5169,0.6353,8.0227,0.6439
353951.0,-10.8002,6.256,17.4011,1.4309,7.913,0.7636
353961.0,-11.4132,7.4723,22.1727,1.7102,7.2857,0.8865
353971.0,-11.2336,8.1523,24.9188,1.8214,6.3417,1.0387
353981.0,-10.7883,8.667,25.4863,1.674,5.3062,1.1291
353991.0,-11.0181,8.9663,26.1064,1.0291,4.3122,1.1036
354001.0,-11.1594,8.7053,27.2412,0.075,3.207,1.0307
354011.0,-11.1402,8.2049,27.1526,-0.7061,2.0625,1.0014
354021.0,-11.0947,7.2065,26.5804,-1.2212,1.0429,1.0397
354031.0,-10.5249,5.8754,25.345,-1.3393,0.1607,1.1414
354041.0,-9.7205,4.6878,22.8527,-1.1084,-0.5353,1.2558
354051.0,-8.9016,3.7924,19.8982,-0.8051,-1.028,1.3196
354061.0,-8.0373,2.8778,17.5974,-0.5193,-1.2877,1.3377
354071.0,-7.0413,2.3559,15.2535,-0.2134,-1.359,1.309
354081.0,-6.031,2.4517,13.2184,-0.0596,-1.3074,1.2063
354091.0,-5.5545,2.7366,12.4068,-0.1878,-1.2026,1.0562
354101.0,-5.1667,2.9521,12.3948,-0.464,-1.1643,0.9094
354111.0,-4.6232,3.2274,12.7252,-0.6997,-1.1424,0.7897
354121.0,-4.7908,3.644,13.5727,-0.8892,-1.152,0.7098
354131.0,-4.6831,3.6152,14.7938,-1.0052,-1.3287,0.705
354141.0,-4.312,3.5147,15.0308,-0.8801,-1.5926,0.7779
354151.0,-4.5514,3.0813,14.6238,-0.6146,-1.8507,0.9019
354161.0,-4.0031,2.1739,13.8648,-0.224,-2.0364,1.0456
354171.0,-3.3758,1.8411,12.5983,0.2272,-2.0928,1.1329
354181.0,-3.0406,2.0327,11.0852,0.3991,-2.1785,1.1302
354191.0,-2.5833,2.3727,9.6798,0.2331,-2.3253,1.0818
354201.0,-2.1907,2.5977,8.3534,-0.0702,-2.3892,1.0334
354211.0,-1.7717,2.557,7.4005,-0.4065,-2.3503,1.0036
354221.0,-1.3216,2.2984,6.8187,-0.713,-2.2375,0.9897
354231.0,-1.1085,1.8148,6.9432,-0.9631,-2.0667,0.9865
354241.0,-0.9601,1.2139,7.5226,-1.0876,-1.8911,0.9908
354251.0,-0.9146,0.7997,8.4683,-1.0195,-1.7411,0.9956
354261.0,-0.5626,0.6369,9.0237,-0.7412,-1.6261,1.0233
354271.0,-0.0718,0.7877,9.1674,-0.4113,-1.5596,1.0605
354281.0,0.237,1.0175,8.7101,-0.1995,-1.5878,1.102
354291.0,0.577,1.0151,7.9464,-0.1799,-1.6788,1.1355
354301.0,0.9936,0.8284,6.9863,-0.2639,-1.7384,1.1478
354311.0,1.3168,0.5171,6.1292,-0.3986,-1.7235,1.1382
354321.0,1.4222,0.0814,5.5809,-0.5268,-1.6267,1.1148
354331.0,1.6688,-0.4166,5.8442,-0.5864,-1.4234,1.0749
354341.0,1.901,-0.7638,6.2058,-0.5273,-1.2228,1.0243
354351.0,2.1404,-1.1037,6.4308,-0.4704,-1.144,0.9535
354361.0,2.4397,-1.2115,6.1986,-0.3693,-1.1052,0.8711
354371.0,2.6504,-1.2641,5.9424,-0.249,-1.0275,0.7865
354381.0,2.794,-1.1301,5.533,-0.0846,-0.9296,0.7146
354391.0,3.1005,-1.063,5.0805,0.0798,-0.8312,0.6566
354401.0,3.3591,-0.9888,4.4029,0.2469,-0.7056,0.6013
354411.0,3.6631,-0.8763,3.9002,0.3996,-0.4917,0.5348
354421.0,3.7469,-0.5459,3.316,0.4512,-0.2522,0.4486
354431.0,3.6272,-0.2179,3.0191,0.2703,-0.0814,0.3411
354441.0,3.5003,-0.1628,3.2513,-0.0176,0.0484,0.2363
354451.0,3.4644,-0.1652,3.1723,-0.2097,0.1713,0.157
354461.0,3.3208,-0.2945,2.9999,-0.2554,0.3485,0.1128
354471.0,3.2561,-0.4525,2.8706,-0.1799,0.5938,0.091
354481.0,3.1364,-0.7159,2.8419,-0.0314,0.8642,0.0777
354491.0,3.0095,-1.1061,2.6456,0.1602,1.1073,0.0564
354501.0,2.8108,-1.4341,2.0135,0.39,1.3846,0.0112
354511.0,2.4493,-1.7621,1.5083,0.6125,1.7852,-0.0713
354521.0,1.9178,-2.1069,1.5826,0.787,2.2578,-0.2027
354531.0,1.4174,-2.2458,2.1524,0.8689,2.6973,-0.3986
354541.0,0.7398,-2.0853,3.1675,0.8806,3.0634,-0.6263
354551.0,0.0982,-1.4293,3.6583,0.8226,3.273,-0.8599
354561.0,-1.1516,-0.7853,4.288,0.613,3.3986,-1.0658
354571.0,-2.3607,-0.4669,4.5897,0.4177,3.4805,-1.2047
354581.0,-3.1101,-0.4046,5.0542,0.398,3.7493,-1.2819
354591.0,-4.0318,-0.4956,6.6822,0.4619,4.1585,-1.3537
354601.0,-4.786,-0.5507,8.9184,0.5449,4.4304,-1.4532
354611.0,-5.5809,-0.1556,11.0732,0.6949,4.5448,-1.5772
354621.0,-6.4476,0.7661,13.0556,0.8205,4.4905,-1.6969
354631.0,-7.4077,1.731,15.0284,0.8195,4.2117,-1.7693
354641.0,-7.9583,2.5498,16.4506,0.8498,3.8057,-1.757
354651.0,-8.5688,3.1795,17.492,0.9865,3.4241,-1.6724
354661.0,-8.8729,3.5099,18.3492,1.1941,3.0724,-1.5415
354671.0,-8.8921,3.7924,19.2398,1.441,2.7595,-1.4064
354681.0,-8.9926,4.0654,19.9892,1.5804,2.3509,-1.3122
354691.0,-8.8992,4.4748,20.164,1.5915,1.798,-1.2579
354701.0,-9.0357,4.9608,19.9437,1.5006,1.2292,-1.218
354711.0,-9.0501,5.2026,19.2901,1.3271,0.6258,-1.1632
354721.0,-8.9663,5.0039,18.3228,1.1808,0.1123,-1.0956
354731.0,-9.1411,4.8387,16.9222,1.1414,-0.2506,-1.0312
354741.0,-8.8825,4.6543,15.5384,1.0653,-0.5092,-0.9951
354751.0,-8.4827,4.4436,14.7028,0.8775,-0.6731,-1.011
354761.0,-8.2959,4.4508,14.2024,0.6337,-0.7881,-1.0754
354771.0,-8.0278,4.3167,14.4777,0.3544,-0.9067,-1.1579
354781.0,-7.7859,4.2928,14.7315,0.1517,-1.0642,-1.2297
354791.0,-7.6183,4.2425,14.8441,0.0085,-1.3015,-1.2888
354801.0,-7.3694,4.2186,14.3437,-0.099,-1.6075,-1.3409
354811.0,-7.0126,4.1851,13.5967,-0.166,-1.8816,-1.384
354821.0,-6.7947,4.1803,12.56,-0.1799,-2.0683,-1.4133
354831.0,-6.6248,4.221,11.7388,-0.166,-2.17,-1.4255
354841.0,-6.5362,4.3287,11.0612,-0.108,-2.2024,-1.4117
354851.0,-6.3518,4.4532,10.5943,-0.0282,-2.1742,-1.3702
354861.0,-6.0023,4.6184,10.422,0.0176,-2.1391,-1.318
354871.0,-5.624,4.7262,10.2639,-0.0271,-2.1817,-1.2765
354881.0,-5.296,4.9273,9.9335,-0.1064,-2.2476,-1.2446
354891.0,-5.0182,5.0206,9.7444,-0.1963,-2.2711,-1.2058
354901.0,-4.7597,5.1308,9.7133,-0.2501,-2.2572,-1.1616
354911.0,-4.5705,5.3822,9.6941,-0.2857,-2.2354,-1.1073
354921.0,-4.3694,5.4564,10.0149,-0.3406,-2.2285,-1.0307
354931.0,-4.1037,5.3391,10.6087,-0.3634,-2.2572,-0.9301
354941.0,-3.7014,5.1308,11.1211,-0.2921,-2.3365,-0.7998
354951.0,-3.3998,4.8602,10.9607,-0.1958,-2.5137,-0.6641
354961.0,-3.0047,4.5418,10.1538,-0.1586,-2.7675,-0.5497
354971.0,-2.4636,4.2473,8.849,-0.1751,-2.9905,-0.4608
354981.0,-2.0135,3.9409,7.4508,-0.207,-3.0948,-0.3975
354991.0,-1.7286,3.5865,6.4667,-0.1618,-3.0251,-0.3406
355001.0,-1.2977,3.2106,5.7796,0.0234,-2.7941,-0.2719
355011.0,-0.5962,3.0335,5.5929,0.3283,-2.452,-0.1969
355021.0,0.0215,3.1292,5.2385,0.564,-2.1593,-0.1458
355031.0,0.5363,3.383,5.0159,0.5497,-1.9896,-0.1325
355041.0,0.8523,3.5985,4.9919,0.315,-1.9188,-0.141
355051.0,1.2977,3.4381,4.877,-0.008,-1.9215,-0.1554
355061.0,1.6999,3.2681,4.7357,-0.2421,-1.8874,-0.1751
355071.0,2.0279,3.1101,4.4149,-0.3246,-1.7714,-0.1932
355081.0,2.1763,2.9904,4.1922,-0.3177,-1.5995,-0.207
355091.0,2.2146,3.0454,4.1875,-0.232,-1.3707,-0.2128
355101.0,2.3703,3.1388,5.0422,-0.0085,-1.0488,-0.191
355111.0,2.4565,3.5841,5.7964,0.2953,-0.7891,-0.1378
355121.0,2.4397,3.8259,5.952,0.3943,-0.7902,-0.0814
355131.0,2.7007,3.9361,5.2625,0.2815,-0.9637,-0.0447
355141.0,2.9856,4.0031,4.1061,0.0702,-1.0669,-0.0309
355151.0,3.1484,3.9624,3.1939,-0.1368,-1.0153,-0.017
355161.0,3.2537,3.8978,2.4205,-0.2533,-0.8365,0.0064
355171.0,3.2848,3.9433,1.7286,-0.3012,-0.5545,0.0367
355181.0,3.1891,4.0247,1.3862,-0.3076,-0.2059,0.075
355191.0,3.0143,4.3335,1.1157,-0.2873,0.165,0.1304
355201.0,2.7294,4.5873,1.1947,-0.2698,0.5326,0.2134
355211.0,2.4325,4.9728,0.9026,-0.2309,0.8391,0.332
355221.0,2.5259,5.1978,-0.5722,-0.4145,0.9716,0.4555
355231.0,2.6624,4.7669,-2.1021,-0.944,1.0376,0.5417
355241.0,2.4205,4.3431,-3.5913,-1.3888,1.3542,0.6013
355251.0,1.1133,4.1946,-4.3742,-1.6102,2.0071,0.671
355261.0,-0.4286,3.7613,-3.4644,-1.6634,2.8415,0.7918
355271.0,-1.5897,3.3375,-1.5754,-1.4277,3.7466,0.9711
355281.0,-2.8826,2.8204,1.2067,-1.0541,4.5081,1.1499
355291.0,-4.2617,2.6719,3.4644,-0.5305,5.0082,1.3042
355301.0,-5.7102,2.6959,5.8778,0.1761,5.4983,1.4543
355311.0,-7.3526,2.9975,8.9471,1.1052,6.1017,1.6134
355321.0,-8.2576,3.0622,12.8928,2.0752,6.6014,1.7496
355331.0,-8.5401,3.5434,16.1896,2.908,6.7961,1.7794
355341.0,-9.0142,4.9967,18.4641,3.1788,6.603,1.6272
355351.0,-9.0477,6.9073,20.9325,2.5541,5.973,1.3431
355361.0,-9.0668,7.9392,24.191,1.2962,4.9928,1.0786
355371.0,-8.8394,7.841,26.5445,-0.0559,3.6812,0.9115
355381.0,-8.3294,6.8953,27.1335,-1.1669,2.188,0.8285
355391.0,-7.7548,6.1052,25.3857,-1.8587,0.7567,0.7849
355401.0,-7.3215,5.6814,21.9955,-2.1854,-0.3916,0.7604
355411.0,-6.8163,5.8442,17.4442,-2.2689,-1.1632,0.763
355421.0,-6.6415,5.8921,13.6398,-2.2604,-1.5006,0.8168
355431.0,-6.778,5.7269,10.75,-2.0795,-1.4436,0.9573
355441.0,-6.3207,4.8842,9.5026,-1.641,-1.0296,1.1898
355451.0,-5.5857,3.8882,8.4779,-1.0211,-0.4752,1.4314
355461.0,-5.1882,3.0454,7.8027,-0.5954,-0.0043,1.5586
355471.0,-4.9081,2.6288,7.6064,-0.4294,0.3794,1.5687
355481.0,-4.7238,2.3631,8.2935,-0.4246,0.7317,1.5192
355491.0,-4.7812,2.308,9.493,-0.4337,1.0041,1.4511
355501.0,-4.7621,2.49,10.2711,-0.4358,1.1244,1.383
355511.0,-4.7573,2.9233,10.6542,-0.5475,1.1233,1.3005
355521.0,-5.1332,3.2298,11.0852,-0.8599,1.0637,1.2164
355531.0,-5.4612,3.2417,11.9231,-1.3255,0.9349,1.1462
355541.0,-5.94,2.8826,13.6206,-1.798,0.7471,1.0962
355551.0,-6.2704,2.6097,15.0476,-2.0146,0.4603,1.0887
355561.0,-6.4141,2.2697,15.864,-1.9449,0.1298,1.1387
355571.0,-6.4955,2.0758,15.8496,-1.6671,-0.2017,1.2207
355581.0,-6.3805,1.968,15.1936,-1.3377,-0.4986,1.3085
355591.0,-6.1196,1.8459,14.2694,-1.0813,-0.7583,1.3755
355601.0,-5.6719,2.0231,13.1729,-0.9243,-0.9275,1.417
355611.0,-5.2744,2.0279,12.4594,-0.9488,-1.0589,1.4436
355621.0,-4.9847,1.798,12.1027,-1.1345,-1.2185,1.45
355631.0,-4.8961,1.3647,12.0572,-1.3851,-1.425,1.4404
355641.0,-4.6998,0.8236,11.9135,-1.55,-1.6506,1.4255
355651.0,-4.4412,0.3065,11.6813,-1.5484,-1.8071,1.4112
355661.0,-4.2138,-0.0646,11.224,-1.4069,-1.8933,1.3941
355671.0,-3.7445,-0.2251,10.7907,-1.2457,-1.9491,1.3457
355681.0,-3.3184,0.2322,10.3645,-1.093,-1.9321,1.2813
355691.0,-3.3279,0.5746,10.3166,-1.1201,-1.9731,1.2441
355701.0,-3.2441,0.6704,10.1562,-1.267,-2.1508,1.2478
355711.0,-3.055,0.5507,9.7205,-1.4032,-2.3477,1.2856
355721.0,-2.8443,0.1891,9.1459,-1.4601,-2.5073,1.3516
355731.0,-2.4277,-0.3663,8.4779,-1.376,-2.5717,1.4351
355741.0,-2.1165,-1.0367,7.6495,-1.1919,-2.5371,1.5085
355751.0,-1.5586,-1.7621,7.094,-0.9589,-2.4248,1.5426
355761.0,-1.0223,-2.0518,6.8019,-0.6513,-2.1838,1.5309
355771.0,-0.7063,-2.1117,6.8378,-0.4555,-1.9928,1.4841
355781.0,-0.3065,-2.1548,6.8642,-0.423,-1.9268,1.4154
355791.0,-0.0263,-2.1332,7.0677,-0.4667,-1.9002,1.3372
355801.0,0.2442,-2.1452,6.9576,-0.5204,-1.914,1.2606
355811.0,0.644,-2.2027,6.4907,-0.6151,-1.9768,1.184
355821.0,1.1109,-2.2601,5.8993,-0.7391,-2.0258,1.102
355831.0,1.4676,-2.411,5.2505,-0.8296,-2.0077,1.0238
355841.0,1.798,-2.624,4.707,-0.8865,-1.955,0.9519
355851.0,2.0758,-2.873,4.2353,-0.8764,-1.8581,0.8908
355861.0,2.3367,-3.2753,3.6703,-0.746,-1.7177,0.8375
355871.0,2.739,-3.6081,3.2106,-0.4752,-1.4591,0.779
355881.0,2.9449,-3.6344,2.6408,-0.1532,-1.1334,0.6971
355891.0,3.1963,-3.5865,2.0806,0.058,-0.8365,0.5901
355901.0,3.4979,-3.2801,1.3815,0.165,-0.5326,0.4746
355911.0,3.802,-3.3088,1.2833,0.1596,-0.2528,0.3847
355921.0,4.3598,-3.8164,0.6393,0.2006,-0.0463,0.3182
355931.0,4.1922,-4.312,-0.328,0.3868,0.2746,0.2309
355941.0,4.0965,-4.7788,-1.7885,0.6779,0.7391,0.1149
355951.0,3.553,-5.1092,-2.7533,0.8769,1.325,-0.0724
355961.0,2.7916,-5.1284,-3.3782,0.9951,1.989,-0.3267
355971.0,1.4078,-4.6974,-3.4046,1.0632,2.709,-0.622
355981.0,0.1556,-3.9935,-3.2394,1.0445,3.3699,-0.9168
355991.0,-1.4868,-3.0765,-2.4876,0.9653,4.0249,-1.1696
356001.0,-3.0813,-2.3822,-1.5203,0.8759,4.6954,-1.3356
356011.0,-4.3335,-2.1835,0.1293,0.6907,5.3062,-1.4479
356021.0,-5.375,-2.5187,2.7438,0.4997,5.8868,-1.549
356031.0,-6.8929,-3.0478,6.6367,0.274,6.2842,-1.7033
356041.0,-8.43,-3.4141,10.726,0.1272,6.2837,-1.8996
356051.0,-9.4188,-3.2968,13.7116,0.307,6.0028,-2.0768
356061.0,-10.331,-2.32,15.5551,0.8221,5.7468,-2.212
356071.0,-11.1833,-0.8643,17.6692,1.441,5.5749,-2.2865
356081.0,-11.6526,0.5267,20.31,1.9784,5.3562,-2.286
356091.0,-12.1027,1.7765,22.8646,2.2391,4.8364,-2.2492
356101.0,-12.2416,2.8706,24.689,2.1455,3.9307,-2.1998
356111.0,-12.0404,3.6655,25.5677,1.8847,2.8303,-2.105
356121.0,-11.5903,4.2665,25.3378,1.6937,1.7613,-1.9358
356131.0,-11.3078,4.5466,24.2269,1.5942,0.82,-1.7075
356141.0,-11.3126,4.5897,22.2421,1.4745,-0.0202,-1.4601
356151.0,-10.9415,4.209,19.7617,1.2185,-0.7998,-1.2398
356161.0,-10.6159,3.4812,17.4322,0.9519,-1.3611,-1.0685
356171.0,-10.137,2.806,15.1385,0.8429,-1.6139,-0.9344
356181.0,-9.5696,2.0973,13.5895,0.845,-1.6261,-0.837
356191.0,-8.9304,1.5083,13.0029,0.9323,-1.5075,-0.7827
356201.0,-8.3055,1.0726,12.7443,1.1009,-1.3766,-0.7561
356211.0,-7.8697,0.7518,12.7467,1.3212,-1.2962,-0.7593
356221.0,-7.3598,0.8356,12.2631,1.5623,-1.2765,-0.7902
356231.0,-6.6152,1.1372,11.5401,1.6458,-1.3122,-0.8642
356241.0,-6.0071,1.549,11.0828,1.5325,-1.3457,-0.961
356251.0,-5.8419,1.9345,11.0133,1.2808,-1.3888,-1.0637
356261.0,-5.8299,2.1189,11.2192,0.9472,-1.4995,-1.1632
356271.0,-5.624,2.059,11.6669,0.6795,-1.6261,-1.2489
356281.0,-5.6144,2.0949,11.9902,0.5944,-1.6996,-1.3106
356291.0,-5.6288,2.0997,12.4307,0.6311,-1.7762,-1.3548
356301.0,-5.43,2.3727,12.4953,0.7774,-1.8592,-1.3867
356311.0,-5.2337,2.9209,12.1386,0.879,-1.996,-1.409
356321.0,-5.0566,3.486,11.5041,0.7944,-2.2317,-1.4277
356331.0,-4.5657,4.0917,10.2615,0.4975,-2.5238,-1.4548
356341.0,-4.1492,4.5394,9.1889,0.0192,-2.7627,-1.4862
356351.0,-3.893,4.7405,8.3869,-0.4518,-2.8723,-1.4878
356361.0,-3.9265,4.707,8.1906,-0.8184,-2.8649,-1.4548
356371.0,-3.7709,4.4101,8.4396,-0.9418,-2.7744,-1.3681
356381.0,-3.4596,4.1061,8.7771,-0.7482,-2.6063,-1.2297
356391.0,-3.0263,3.9504,9.2464,-0.3235,-2.4099,-1.0568
356401.0,-2.6695,4.0893,9.2919,0.2033,-2.2572,-0.8519
356411.0,-2.3296,4.0414,8.9854,0.6034,-2.2354,-0.638
356421.0,-1.6376,3.9911,7.7835,0.8354,-2.3025,-0.4459
356431.0,-1.0415,3.8068,6.5888,0.8679,-2.3094,-0.3017
356441.0,-0.5459,3.6464,5.3678,0.7215,-2.2397,-0.2112
356451.0,-0.0718,3.4046,4.8985,0.4331,-2.105,-0.1777
356461.0,0.3567,3.2896,4.7956,0.1346,-1.931,-0.1708
356471.0,0.6776,3.1053,5.2074,-0.1229,-1.7373,-0.1628
356481.0,1.0032,2.8252,5.7245,-0.3108,-1.6033,-0.1474
356491.0,1.3958,2.5283,5.9975,-0.4315,-1.5383,-0.141
356501.0,1.7406,2.3607,6.2153,-0.4725,-1.4596,-0.1458
356511.0,1.9632,2.3343,6.1866,-0.4704,-1.4016,-0.1532
356521.0,2.1668,2.3272,5.9664,-0.4768,-1.3713,-0.1575
356531.0,2.2817,2.3559,5.5569,-0.5433,-1.3633,-0.1634
356541.0,2.4157,2.2505,5.2385,-0.6274,-1.342,-0.1644
356551.0,2.6336,2.1141,4.7573,-0.6816,-1.2909,-0.1602
356561.0,2.7964,1.9848,4.2976,-0.738,-1.234,-0.1596
356571.0,2.9568,1.8196,3.8834,-0.7497,-1.1249,-0.1543
356581.0,2.9975,1.7047,3.486,-0.6619,-0.9461,-0.1352
356591.0,2.9473,1.6664,3.0071,-0.4842,-0.7364,-0.0915
356601.0,2.9975,1.4772,2.2649,-0.2746,-0.5172,-0.0223
356611.0,3.2394,1.1971,1.4653,-0.0713,-0.2597,0.0431
356621.0,3.4165,0.893,0.6345,0.0937,0.0431,0.0697
356631.0,3.5913,0.7039,-0.4094,0.1602,0.3512,0.0362
356641.0,3.5793,0.735,-1.4222,0.1048,0.7146,-0.0527
356651.0,3.3543,1.0846,-2.5857,-0.0947,1.1366,-0.1772
356661.0,2.7031,1.5921,-3.3902,-0.5236,1.5905,-0.3294
356671.0,1.585,2.4636,-3.5602,-1.0674,2.0795,-0.4725
356681.0,0.0838,3.6248,-2.8611,-1.4984,2.6382,-0.5284
356691.0,-1.8268,5.2146,-1.391,-1.5953,3.289,-0.415
356701.0,-3.6775,6.3518,1.0415,-1.2755,3.9754,-0.0745
356711.0,-4.6519,6.5194,2.9185,-0.588,4.5544,0.4395
356721.0,-5.3822,5.9711,4.525,0.2474,5.0939,0.9498
356731.0,-6.3901,5.4612,6.2393,1.0408,5.658,1.3047
356741.0,-7.7524,5.6503,8.0038,1.5623,6.115,1.4718
356751.0,-9.0764,6.2321,10.7212,1.6799,6.4306,1.5064
356761.0,-10.5369,7.003,14.5615,1.5644,6.6083,1.5038
356771.0,-11.734,7.6926,18.907,1.2723,6.463,1.5325
356781.0,-12.2272,7.7069,22.8886,0.7721,5.8128,1.6144
356791.0,-12.1314,6.8139,26.2165,0.3006,4.8486,1.748
356801.0,-11.7436,5.5737,28.321,0.0596,3.8057,1.8874
356811.0,-11.1067,4.2401,28.9124,-0.0521,2.6505,1.9656
356821.0,-10.307,3.1196,27.8134,-0.191,1.4112,1.9358
356831.0,-9.5648,2.4134,25.5725,-0.3757,0.2575,1.8134
356841.0,-8.7412,1.8675,22.7473,-0.5401,-0.696,1.6448
356851.0,-7.9344,1.664,19.3404,-0.6204,-1.4026,1.4654
356861.0,-7.3382,1.5514,15.9238,-0.7125,-1.8603,1.2803
356871.0,-6.6679,1.4916,12.5672,-0.8524,-2.0885,1.0882
356881.0,-6.2273,1.3982,10.0556,-1.0126,-2.0407,0.8918
356891.0,-5.7437,1.4629,8.2935,-1.1052,-1.7501,0.7125
356901.0,-5.4516,1.5874,7.8123,-1.2185,-1.3239,0.5566
356911.0,-5.2002,1.6113,8.7173,-1.2808,-0.9014,0.4523
356921.0,-5.0254,1.6688,10.0149,-1.1776,-0.5736,0.4166
356931.0,-4.7501,1.7837,11.3054,-0.9397,-0.3852,0.4214
356941.0,-4.3646,2.1045,11.8896,-0.6518,-0.3602,0.4507
356951.0,-4.063,2.4541,11.7938,-0.4438,-0.4454,0.4848
356961.0,-3.9025,2.897,11.3916,-0.3874,-0.5593,0.5151
356971.0,-3.9049,3.1651,10.9822,-0.5193,-0.6577,0.5422
356981.0,-4.1132,3.1508,11.0828,-0.7902,-0.7551,0.58
356991.0,-4.0582,2.7174,11.4491,-1.0733,-0.8721,0.6274
357001.0,-4.0438,2.2075,11.9926,-1.2425,-1.0073,0.663
357011.0,-4.1922,1.8866,12.1482,-1.2568,-1.1563,0.6976
357021.0,-4.2162,1.5682,12.1793,-1.1467,-1.2925,0.7455
357031.0,-4.0534,1.415,12.0189,-0.8955,-1.3675,0.8131
357041.0,-3.6943,1.2689,11.6191,-0.6188,-1.4239,0.887
357051.0,-3.486,1.2641,10.8122,-0.4597,-1.5155,0.9323
357061.0,-3.2825,1.233,10.2328,-0.4688,-1.5963,0.9498
357071.0,-3.1005,1.1923,9.6845,-0.5422,-1.6352,0.9658
357081.0,-2.9281,0.9002,9.5864,-0.63,-1.6213,0.9945
357091.0,-2.8994,0.4836,9.6462,-0.679,-1.5697,1.0382
357101.0,-2.4612,-0.1939,10.1634,-0.6971,-1.5101,1.0695
357111.0,-2.1261,-0.6704,10.7356,-0.6864,-1.4798,1.0605
357121.0,-1.8364,-1.154,11.157,-0.771,-1.6309,0.9935
357131.0,-1.4892,-1.4006,10.817,-0.8673,-1.8837,0.8865
357141.0,-1.2091,-1.4198,10.1562,-0.9003,-2.0662,0.7636
357151.0,-1.2163,-1.2234,9.5505,-0.8673,-2.1082,0.6566
357161.0,-1.1085,-1.1779,9.4284,-0.7817,-2.0806,0.5917
357171.0,-0.6536,-1.1732,9.3709,-0.6018,-2.0018,0.563
357181.0,-0.431,-1.0918,9.0429,-0.4661,-1.9864,0.538
357191.0,-0.0144,-1.2737,8.521,-0.4656,-2.0614,0.5066
357201.0,0.4812,-1.4629,7.6806,-0.5013,-2.0992,0.4571
357211.0,0.9098,-1.6544,7.185,-0.5449,-2.0369,0.3959
357221.0,1.3623,-1.8627,7.1826,-0.5614,-1.914,0.3331
357231.0,1.8028,-1.9321,7.2377,-0.5332,-1.8188,0.2634
357241.0,1.9656,-1.9082,7.0437,-0.5252,-1.8294,0.1937
357251.0,2.2769,-1.8938,6.2968,-0.5193,-1.8863,0.1261
357261.0,2.5331,-1.8052,5.6527,-0.4805,-1.8278,0.0692
357271.0,2.7557,-1.8842,5.0302,-0.448,-1.7331,0.0277
357281.0,3.0287,-2.0375,4.3311,-0.431,-1.6421,-0.0138
357291.0,3.474,-2.2338,3.6152,-0.3991,-1.4894,-0.0559
357301.0,3.6703,-2.4948,3.2825,-0.3501,-1.2771,-0.108
357311.0,3.9313,-2.9018,3.0813,-0.2081,-1.0488,-0.1602
357321.0,4.3024,-3.1795,2.3966,0.0293,-0.8232,-0.2192
357331.0,4.6735,-3.4716,1.3599,0.1868,-0.6476,-0.3118
357341.0,5.1308,-3.814,-0.4262,0.2416,-0.4986,-0.4581
357351.0,5.1356,-3.7541,-2.7725,0.1963,-0.2166,-0.6806
357361.0,4.5083,-3.474,-4.7477,0.0894,0.3155,-0.9333
357371.0,3.1891,-3.0239,-5.7413,0.0239,1.1126,-1.1573
357381.0,1.8914,-2.4588,-5.6431,0.1123,2.1338,-1.3042
357391.0,0.3496,-1.8459,-4.3503,0.2575,3.1794,-1.3851
357401.0,-0.7829,-1.5012,-2.3487,0.4342,4.0786,-1.3984
357411.0,-1.8747,-1.2354,-0.0958,0.6417,4.7986,-1.3888
357421.0,-3.0191,-1.0343,2.2793,0.862,5.3302,-1.3893
357431.0,-4.3455,-0.9553,4.8818,1.0179,5.6489,-1.4191
357441.0,-5.4133,-0.8356,7.015,1.1526,5.7351,-1.4697
357451.0,-6.3973,-0.6081,9.1674,1.4186,5.8415,-1.5351
357461.0,-7.6686,0.6057,11.0684,1.7932,6.0038,-1.6235
357471.0,-8.9184,2.15,14.0037,1.9709,6.0703,-1.7006
357481.0,-10.0054,3.3543,18.4377,1.9763,5.9426,-1.6953
357491.0,-10.1945,4.1084,22.3307,1.8831,5.3153,-1.6182
357501.0,-10.2855,4.3742,25.0386,1.8198,4.367,-1.4915
357511.0,-10.3094,4.8818,25.7975,1.9268,3.3667,-1.3292
357521.0,-10.1538,5.0709,25.7449,1.9901,2.3535,-1.1786
357531.0,-9.6127,5.4971,24.0162,1.9821,1.3665,-1.0483
357541.0,-9.1554,5.4277,21.8567,1.7549,0.4858,-0.9472
357551.0,-8.8035,5.3989,19.1057,1.3494,-0.2304,-0.8961
357561.0,-8.4898,4.8818,17.097,0.7439,-0.7694,-0.9025
357571.0,-8.2241,4.2904,15.615,0.2006,-1.1329,-0.9456
357581.0,-8.2241,4.2904,15.615,0.2006,-1.1329,-0.9456
357591.0,-7.9559,3.9265,14.3963,-0.099,-1.2941,-0.9887
357601.0,-7.7907,3.7014,13.5392,-0.2081,-1.3207,-1.0084
357611.0,-7.6758,3.4931,13.3908,-0.1634,-1.2702,-0.9966
357621.0,-7.355,3.2058,13.8241,0.0819,-1.1749,-0.9413
357631.0,-6.845,2.9688,13.7786,0.48,-1.1403,-0.8642
357641.0,-6.2393,2.9281,13.2471,0.8136,-1.2191,-0.8195
357651.0,-5.7748,3.1819,12.3301,0.9599,-1.3675,-0.8216
357661.0,-5.442,3.3998,11.248,0.8833,-1.5442,-0.853
357671.0,-4.9752,3.4907,10.1131,0.6588,-1.7054,-0.9046
357681.0,-4.5179,3.6607,9.1482,0.3672,-1.7671,-0.9732
357691.0,-4.2665,3.8355,8.7149,0.0181,-1.7443,-1.0467
357701.0,-4.1707,3.9025,8.9256,-0.3304,-1.6889,-1.1025
357711.0,-4.1779,3.8403,9.6917,-0.5353,-1.6277,-1.1158
357721.0,-3.9792,3.7134,10.5632,-0.4864,-1.5633,-1.0711
357731.0,-3.5745,3.6224,10.9271,-0.2591,-1.5367,-0.986
357741.0,-3.3255,3.5937,10.7619,-0.0692,-1.6155,-0.9057
357751.0,-3.043,3.5985,10.1107,-0.0303,-1.7671,-0.8503
357761.0,-2.6576,3.6512,9.1746,-0.1112,-1.9023,-0.8179
357771.0,-2.4469,3.632,8.4108,-0.2501,-1.9529,-0.7966
357781.0,-2.4253,3.6631,7.7883,-0.3565,-1.9135,-0.7694
357791.0,-2.2649,3.6248,7.6614,-0.3746,-1.7661,-0.7136
357801.0,-2.217,3.5698,7.9631,-0.2703,-1.5495,-0.6194
357811.0,-2.0327,3.1723,8.8131,-0.0825,-1.3425,-0.4949
357821.0,-1.664,2.8204,9.402,0.2038,-1.1951,-0.3725
357831.0,-1.5083,2.5786,9.7971,0.4007,-1.177,-0.298
357841.0,-1.1851,2.4373,9.4858,0.4385,-1.3191,-0.2794
357851.0,-0.747,2.5522,8.6598,0.3613,-1.4654,-0.3076
357861.0,-0.6393,2.897,7.865,0.1974,-1.4995,-0.364
357871.0,-0.6776,3.3447,7.4508,-0.0287,-1.4442,-0.4124
357881.0,-0.6153,3.5985,7.6926,-0.257,-1.3574,-0.4193
357891.0,-0.5914,3.6583,8.1044,-0.4023,-1.2648,-0.3735
357901.0,-0.4262,3.3519,8.9495,-0.4677,-1.1855,-0.2916
357911.0,-0.3759,3.0454,9.6558,-0.4395,-1.1648,-0.2112
357921.0,-0.2682,2.6576,10.4363,-0.3485,-1.2175,-0.1378
357931.0,0.1293,2.375,10.4267,-0.116,-1.2968,-0.0612
357941.0,0.4118,2.5307,9.8354,0.1176,-1.3691,-0.0096
357951.0,0.7542,2.7797,9.1506,0.1942,-1.4436,0.0271
357961.0,1.2234,2.7988,8.406,0.0724,-1.5633,0.0543
357971.0,1.6472,2.6887,7.5824,-0.1575,-1.6671,0.0596
357981.0,1.9273,2.4038,6.9504,-0.4624,-1.7533,0.0415
357991.0,2.2553,2.0087,6.3662,-0.7625,-1.8555,0.0053
358001.0,2.4828,1.6712,5.8873,-0.9371,-1.8975,-0.0351
358011.0,2.6576,1.4509,5.4253,-0.8743,-1.8369,-0.0458
358021.0,2.9473,1.3958,4.695,-0.5566,-1.6836,-0.0101
358031.0,3.2801,1.5131,3.1532,-0.157,-1.4931,0.0537
358041.0,3.4596,1.4365,1.8364,0.1054,-1.2749,0.1171
358051.0,4.288,1.4533,-0.8164,0.2336,-1.0626,0.1612
358061.0,4.549,1.0271,-2.5642,0.0085,-0.7364,0.1309
358071.0,4.4987,0.6895,-4.1851,-0.4454,-0.4182,0.0069
358081.0,4.1132,0.5267,-5.4708,-0.9163,-0.0112,-0.1713
358091.0,3.383,0.7997,-6.2321,-1.0924,0.7492,-0.3065
358101.0,2.0494,1.1803,-5.4181,-0.9855,1.8076,-0.3448
358111.0,0.6752,1.7119,-3.5171,-0.6518,2.8548,-0.2948
358121.0,-0.3184,2.3008,-1.5993,-0.1532,3.7152,-0.191
358131.0,-1.2186,3.2178,-0.6129,0.3443,4.3564,-0.074
358141.0,-2.296,4.0701,0.079,0.6103,4.8502,0.0341
358151.0,-3.5721,4.7836,1.0822,0.6832,5.2982,0.132
358161.0,-5.3199,5.6862,2.6288,0.7492,5.825,0.2357
358171.0,-8.7293,6.8307,5.7269,0.8019,6.3971,0.3672
358181.0,-10.4435,7.4364,9.6295,0.9727,6.8254,0.5938
358191.0,-11.7053,7.9272,14.0875,1.2361,7.1133,0.8354
358201.0,-12.1937,8.1762,18.7179,1.3659,6.9462,1.0264
358211.0,-11.7843,8.4132,22.4456,1.3585,6.3162,1.1701
358221.0,-11.2695,8.7508,24.4113,1.1824,5.3552,1.2749
358231.0,-10.9535,8.77,25.0481,0.7466,4.1521,1.3313
358241.0,-10.5177,8.6933,23.8822,0.2299,2.9208,1.3548
358251.0,-10.489,8.6263,21.3228,-0.3363,1.8305,1.3633
358261.0,-10.0245,8.1307,18.6508,-0.9919,0.969,1.3846
358271.0,-10.1203,7.2688,17.2047,-1.6054,0.4204,1.4133
358281.0,-9.9862,5.8945,17.9302,-1.8448,0.1538,1.5091
358291.0,-9.5122,4.5586,18.4042,-1.4894,-0.0697,1.6815
358301.0,-8.916,3.5123,17.3508,-0.9062,-0.4124,1.8363
358311.0,-8.1666,2.66,15.4258,-0.4363,-0.7524,1.9151
358321.0,-7.5298,2.1141,13.2256,-0.133,-0.9206,1.8986
358331.0,-6.7804,1.81,11.1713,-0.0245,-0.9179,1.79
358341.0,-6.122,1.8627,9.5936,-0.1916,-0.7881,1.5777
358351.0,-5.8658,2.4277,8.9519,-0.6768,-0.5869,1.2957
358361.0,-5.9951,2.8323,10.0556,-1.4665,-0.4927,1.0206
358371.0,-5.7628,2.7438,11.8298,-2.2093,-0.6396,0.8381
358381.0,-5.363,2.3008,13.1729,-2.5627,-0.9094,0.7785
358391.0,-5.2577,1.7549,13.5272,-2.4977,-1.1653,0.8056
358401.0,-5.1332,1.154,13.307,-2.1582,-1.3505,0.878
358411.0,-4.719,0.5842,12.5336,-1.6836,-1.4564,0.9482
358421.0,-4.3958,0.2155,11.6669,-1.2494,-1.5139,0.97
358431.0,-4.0414,0.1796,10.829,-0.928,-1.5367,0.9371
358441.0,-3.6727,0.4932,9.845,-0.7205,-1.5351,0.8785
358451.0,-3.5003,0.7135,9.2584,-0.6832,-1.5293,0.8237
358461.0,-3.225,0.7661,8.7556,-0.6902,-1.467,0.7987
358471.0,-3.0358,0.6345,8.746,-0.7237,-1.3431,0.7881
358481.0,-2.7461,0.3304,9.0453,-0.7907,-1.267,0.7732
358491.0,-2.3152,-0.0575,9.5696,-0.8381,-1.2313,0.7476
358501.0,-2.2338,-0.3208,9.9671,-0.8306,-1.2271,0.705
358511.0,-2.2194,-0.5267,10.2448,-0.7913,-1.3021,0.6502
358521.0,-1.8579,-0.5315,10.2089,-0.6518,-1.351,0.5859
358531.0,-1.7813,-0.2155,10.1323,-0.4417,-1.2952,0.5305
358541.0,-1.8483,0.0622,10.3286,-0.2959,-1.242,0.5013
358551.0,-1.6448,0.2035,10.6135,-0.2288,-1.2499,0.4901
358561.0,-1.3886,0.2442,10.7811,-0.2927,-1.3622,0.4699
358571.0,-1.1444,0.1532,10.4746,-0.4922,-1.6054,0.4299
358581.0,-0.8954,-0.0527,10.0102,-0.6917,-1.839,0.3789
358591.0,-0.7302,-0.1508,9.1147,-0.771,-1.9544,0.3363
358601.0,-0.6704,-0.3496,8.5449,-0.7966,-1.9539,0.3081
358611.0,-0.3615,-0.6393,8.4013,-0.6939,-1.8406,0.3006
358621.0,-0.0503,-0.7997,8.4851,-0.4959,-1.6895,0.2921
358631.0,0.5507,-0.7685,8.7819,-0.2565,-1.5506,0.2772
358641.0,0.8595,-0.5267,9.0621,-0.067,-1.4777,0.2655
358651.0,0.9457,-0.3136,9.0812,-0.0133,-1.5644,0.2591
358661.0,1.1325,-0.2897,8.5377,-0.0085,-1.7352,0.2677
358671.0,1.5347,-0.4046,7.5082,-0.0069,-1.8757,0.282
358681.0,1.8723,-0.6249,6.0741,-0.0218,-1.9348,0.2863
358691.0,2.1835,-0.8978,4.7932,-0.075,-1.8757,0.265
358701.0,2.6049,-1.2594,3.7326,-0.1266,-1.6841,0.2203
358711.0,2.9257,-1.4988,3.1316,-0.1591,-1.3915,0.1453
358721.0,3.1987,-1.7238,2.8036,-0.1628,-1.0664,0.0484
358731.0,3.3471,-1.7238,2.5977,-0.1245,-0.7242,-0.0591
358741.0,3.4812,-1.5036,2.1644,-0.1038,-0.4385,-0.1634
358751.0,3.7685,-1.4102,1.6831,-0.1676,-0.224,-0.265
358761.0,3.8954,-1.0798,0.4573,-0.2426,-0.0208,-0.3501
358771.0,3.5985,-1.2737,-0.4453,-0.4299,0.1894,-0.4257
358781.0,3.486,-1.5275,-1.8148,-0.522,0.455,-0.4965
358791.0,3.4022,-1.7262,-3.2896,-0.4826,0.8987,-0.5859
358801.0,2.624,-1.4581,-4.7285,-0.3831,1.5373,-0.7019
358811.0,1.0942,-0.8308,-5.3486,-0.2613,2.3668,-0.8056
358821.0,-0.7111,-0.0742,-4.7812,-0.1139,3.2932,-0.8423
358831.0,-2.2266,0.7374,-3.8283,0.0394,4.135,-0.8019
358841.0,-3.7661,1.2474,-2.8898,0.0271,4.7699,-0.7263
358851.0,-5.6647,1.233,-1.3934,-0.0144,5.3499,-0.6109
358861.0,-8.011,0.9433,0.6847,0.2554,6.0746,-0.439
358871.0,-9.0764,-0.5267,5.3127,0.9344,7.0095,-0.2395
358881.0,-10.6207,-1.166,11.3102,2.1098,8.0514,-0.1836
358891.0,-12.3469,-0.4214,17.7243,3.0112,8.4116,-0.3922
358901.0,-12.7755,1.7095,23.3076,3.2853,7.8641,-0.7508
358911.0,-13.3046,4.2162,28.3354,3.0394,6.7179,-1.085
358921.0,-13.3309,6.5338,30.9403,2.6116,5.2051,-1.2483
358931.0,-13.1777,8.2121,31.7711,2.0497,3.6008,-1.2334
358941.0,-13.3956,8.8035,31.4167,1.3611,1.9922,-1.0972
358951.0,-13.3405,8.8083,29.3505,0.7551,0.505,-0.9019
358961.0,-13.0484,8.3055,26.8127,0.2139,-0.729,-0.7072
358971.0,-12.5456,7.4795,24.2174,-0.1197,-1.6426,-0.5013
358981.0,-11.9303,6.541,21.0833,-0.2778,-2.3748,-0.3086
358991.0,-10.9678,5.6431,17.6836,-0.331,-2.9165,-0.149
359001.0,-9.8593,4.7022,14.4035,-0.3118,-3.1709,-0.0202
359011.0,-8.7484,3.7852,11.6885,-0.2602,-3.1496,0.0702
359021.0,-7.7812,2.9951,9.7444,-0.2469,-2.966,0.1064
359031.0,-6.8019,2.229,8.588,-0.2788,-2.7164,0.0958
359041.0,-5.9855,1.5754,8.169,-0.2815,-2.4259,0.0506
359051.0,-5.3846,1.0726,8.3797,-0.1974,-2.1418,-0.0064
359061.0,-4.7022,0.7135,8.5545,-0.0357,-1.9337,-0.0692
359071.0,-3.9121,0.5914,8.4156,0.1288,-1.8092,-0.1469
359081.0,-3.1867,0.7326,8.0517,0.2198,-1.7437,-0.2469
359091.0,-2.7438,1.0439,7.6447,0.1884,-1.6852,-0.3645
359101.0,-2.4469,1.4437,7.3287,0.0495,-1.6283,-0.4879
359111.0,-2.2913,1.8292,7.2616,-0.1777,-1.557,-0.6024
359121.0,-2.1739,2.059,7.4747,-0.4246,-1.4942,-0.6896
359131.0,-2.1931,2.1021,7.841,-0.6066,-1.4346,-0.7503
359141.0,-2.059,2.0399,8.2863,-0.6417,-1.3186,-0.7753
359151.0,-1.9992,1.9513,8.9376,-0.6077,-1.2249,-0.7859
359161.0,-1.8435,1.9273,9.4715,-0.5593,-1.2217,-0.796
359171.0,-1.7957,1.9848,9.6199,-0.5098,-1.2898,-0.8056
359181.0,-1.6807,2.138,9.3925,-0.4693,-1.4048,-0.8131
359191.0,-1.5897,2.4062,8.8394,-0.4103,-1.4692,-0.8109
359201.0,-1.5251,2.7102,8.2624,-0.3384,-1.4479,-0.7843
359211.0,-1.6137,2.9329,8.1594,-0.2703,-1.3697,-0.7317
359221.0,-1.6113,3.1077,8.1235,-0.1511,-1.2531,-0.6455
359231.0,-1.5107,3.1627,8.4324,0.0223,-1.1148,-0.53
359241.0,-1.2378,3.3423,8.339,0.1979,-1.0142,-0.3991
359251.0,-1.1013,3.3327,8.4994,0.2607,-0.97,-0.2767
359261.0,-0.8906,3.1987,8.5545,0.2841,-0.9509,-0.1564
359271.0,-0.6871,2.8946,8.5545,0.3145,-0.9418,-0.049
359281.0,-0.486,2.6791,8.3175,0.3592,-0.9243,0.0404
359291.0,-0.5483,2.3607,8.3342,0.3597,-0.8977,0.1128
359301.0,-0.3639,1.9321,8.497,0.4071,-0.8642,0.1724
359311.0,-0.1125,1.7549,8.4659,0.5768,-0.771,0.2144
359321.0,0.1006,1.7071,8.2672,0.7066,-0.7008,0.2373
359331.0,0.3567,1.7573,7.9823,0.7093,-0.6822,0.2373
359341.0,0.5626,1.7502,7.8027,0.5997,-0.6763,0.2198
359351.0,0.8452,1.6448,7.5393,0.4188,-0.6971,0.1926
359361.0,1.1061,1.4988,7.0868,0.2001,-0.7295,0.149
359371.0,1.3886,1.3791,6.7062,-0.0436,-0.7274,0.0921
359381.0,1.6257,1.1851,6.505,-0.3108,-0.7306,0.0239
359391.0,1.7645,1.0487,6.1196,-0.5257,-0.7263,-0.0479
359401.0,1.6951,1.0008,5.8371,-0.6619,-0.6337,-0.1091
359411.0,1.6257,0.826,5.9256,-0.7428,-0.505,-0.1522
359421.0,1.6735,0.6464,5.928,-0.7599,-0.4097,-0.1884
359431.0,1.8028,0.5818,5.6312,-0.7008,-0.2884,-0.2182
359441.0,1.6424,0.5483,5.4612,-0.6396,-0.1421,-0.2442
359451.0,1.4796,0.565,5.2529,-0.5731,-0.0176,-0.2586
359461.0,1.5897,0.5267,4.956,-0.4757,0.1203,-0.2639
359471.0,1.5395,0.5722,4.6495,-0.3251,0.3214,-0.2634
359481.0,1.4964,0.6608,4.4508,-0.1341,0.5635,-0.2559
359491.0,1.5778,0.8787,4.1492,0.0378,0.7987,-0.2496
359501.0,1.6161,1.0247,3.7613,0.1176,1.0036,-0.2437
359511.0,1.3408,1.1253,2.7629,0.0298,1.143,-0.248
359521.0,0.972,0.9146,1.4222,-0.3294,1.1935,-0.2826
359531.0,0.6273,0.498,0.0287,-0.7678,1.342,-0.3416
359541.0,-0.2035,0.1844,-0.905,-1.0073,1.8124,-0.4055
359551.0,-1.8387,0.2514,-0.6464,-0.9402,2.6089,-0.448
359561.0,-3.4189,0.747,0.328,-0.5736,3.4981,-0.4379
359571.0,-5.5569,1.6065,2.0039,-0.0218,4.3819,-0.3661
359581.0,-7.8362,2.6121,4.197,0.629,5.1982,-0.2075
359591.0,-9.1267,3.2992,7.5058,1.3388,5.9873,0.049
359601.0,-9.9862,3.2322,12.8736,2.0364,6.6748,0.3283
359611.0,-10.5919,3.055,19.3356,2.701,6.8972,0.5177
359621.0,-11.0468,3.5075,24.5525,3.2294,6.4583,0.5667
359631.0,-11.0636,4.4029,28.4742,3.421,5.4531,0.4773
359641.0,-11.2599,5.9041,31.0265,3.3486,4.192,0.3124
359651.0,-10.8218,7.3454,31.3808,2.9426,2.66,0.1415
359661.0,-11.0373,8.6742,29.3912,2.0939,1.0387,-0.0186
359671.0,-11.1498,8.4467,27.4974,0.7503,-0.6109,-0.1293
359681.0,-10.5896,6.8977,24.792,-0.3214,-2.0247,-0.1671
359691.0,-10.1825,5.3678,20.8918,-0.8955,-3.0208,-0.2027
359701.0,-9.6103,4.2306,16.7546,-1.2127,-3.6045,-0.2794
359711.0,-9.232,3.1556,14.2216,-1.3862,-3.7844,-0.3943
359721.0,-8.4922,2.4924,12.1721,-1.3351,-3.7753,-0.5215
359731.0,-7.5729,2.0231,10.7548,-1.0658,-3.5907,-0.6444
359741.0,-6.699,2.2218,9.2249,-0.7184,-3.3406,-0.7615
359751.0,-5.861,2.4995,8.3031,-0.513,-3.1027,-0.8631
359761.0,-5.0063,2.897,7.6255,-0.3794,-2.8782,-0.9291
359771.0,-4.221,3.316,7.0198,-0.298,-2.659,-0.9573
359781.0,-3.6943,3.6344,6.6343,-0.3049,-2.4552,-0.961
359791.0,-3.1412,3.8427,6.3662,-0.4012,-2.2876,-0.945
359801.0,-2.7126,3.7421,6.6511,-0.514,-2.1056,-0.912
359811.0,-2.2027,3.5243,7.039,-0.5396,-1.9491,-0.8673
359821.0,-1.8723,3.3088,7.5585,-0.4789,-1.798,-0.8253
359831.0,-1.403,3.2633,7.8817,-0.3347,-1.6756,-0.7838
359841.0,-1.154,3.3902,8.0062,-0.2075,-1.6155,-0.7508
359851.0,-1.1037,3.6344,7.8219,-0.1671,-1.6501,-0.721
359861.0,-0.996,3.9863,7.2401,-0.1745,-1.6852,-0.679
359871.0,-1.1372,4.2282,6.7732,-0.2166,-1.6474,-0.613
359881.0,-1.3599,4.2593,6.7205,-0.1953,-1.5224,-0.5039
359891.0,-1.1803,3.9648,7.4891,0.0239,-1.2568,-0.3421
359901.0,-0.8882,3.7541,8.1858,0.4486,-0.9759,-0.1591
359911.0,-0.6632,3.5386,8.7484,0.8189,-0.8423,0.0011
359921.0,-0.4573,3.5291,8.521,1.0099,-0.8796,0.1176
359931.0,0.0287,3.4979,7.7788,0.969,-1.0131,0.1713
359941.0,0.1317,3.7373,6.9695,0.7556,-1.0653,0.1703
359951.0,0.0335,3.9049,6.9145,0.4294,-1.0291,0.1469
359961.0,-0.0646,4.1683,7.2903,0.1634,-0.9216,0.1474
359971.0,-0.4166,4.0462,8.5976,-0.0442,-0.821,0.1916
359981.0,-0.0192,3.5745,9.7923,-0.0867,-0.8242,0.2751
359991.0,0.1365,3.1747,10.3477,-0.0186,-0.9195,0.3395
360001.0,0.3519,2.8754,10.1299,0.0314,-1.1281,0.3666
360011.0,0.5986,2.7964,9.2273,0.0644,-1.3191,0.3704
360021.0,0.9697,2.8611,8.1451,0.0745,-1.3947,0.3682
360031.0,1.1181,2.9281,7.276,0.0367,-1.3452,0.364
360041.0,1.2617,2.9736,6.9743,-0.0633,-1.2281,0.3549
360051.0,1.4006,3.0909,7.0461,-0.1852,-1.085,0.3358
360061.0,1.5083,3.146,6.9456,-0.4315,-1.0711,0.3097
360071.0,1.7454,2.8802,7.0629,-0.7599,-1.1329,0.2831
360081.0,1.9968,2.557,6.8043,-0.9791,-1.1542,0.2692
360091.0,2.1955,2.1548,6.4667,-1.0765,-1.1217,0.2661
360101.0,2.3942,1.901,5.9424,-1.0211,-0.9945,0.2756
360111.0,2.4948,1.7071,5.4995,-0.8743,-0.762,0.2964
360121.0,2.6025,1.5203,5.205,-0.7194,-0.4954,0.3246
360131.0,2.9425,1.312,4.8961,-0.5608,-0.2352,0.34
360141.0,3.0311,1.3671,4.865,-0.4198,0.0442,0.3278
360151.0,2.9137,1.5586,4.853,-0.3464,0.2735,0.307
360161.0,2.9113,1.5826,4.6543,-0.3352,0.4033,0.3012
360171.0,3.067,1.4772,3.8906,-0.3411,0.5002,0.3108
360181.0,3.1316,1.221,2.9066,-0.357,0.68,0.3182
360191.0,2.9353,0.8643,1.8651,-0.4081,0.9668,0.299
360201.0,2.2913,0.6153,1.1205,-0.4885,1.3537,0.2554
360211.0,1.6041,0.3136,1.1827,-0.5252,1.856,0.2134
360221.0,1.1875,-0.0886,1.9178,-0.4528,2.4163,0.1857
360231.0,0.5028,-0.3903,2.9904,-0.331,2.9037,0.1431
360241.0,-0.2705,-0.6201,4.0677,-0.1639,3.2714,0.0857
360251.0,-1.0151,-0.7422,5.1188,0.1027,3.6412,0.0282
360261.0,-1.7741,-0.6895,6.2225,0.3906,4.0238,-0.0495
360271.0,-2.6767,-0.6847,7.865,0.5928,4.3229,-0.1591
360281.0,-3.3854,-0.4764,9.347,0.7199,4.4532,-0.3097
360291.0,-4.0342,-0.0287,10.9128,0.7966,4.4841,-0.4895
360301.0,-4.7405,0.8164,12.0524,0.8157,4.4054,-0.6641
360311.0,-5.6671,1.8938,12.6629,0.6822,4.1797,-0.8056
360321.0,-6.5673,2.7222,13.9486,0.4358,4.0148,-0.8721
360331.0,-7.5154,3.0263,16.7594,0.2735,3.943,-0.8567
360341.0,-8.5114,3.1268,19.8384,0.2852,3.6838,-0.8014
360351.0,-8.8873,3.383,22.4432,0.5672,3.2704,-0.7035
360361.0,-9.1123,3.8714,24.0498,0.9456,2.6936,-0.5869
360371.0,-9.098,4.4604,24.6627,1.2366,1.9497,-0.472
360381.0,-8.7628,5.1834,24.1814,1.3654,1.1089,-0.373
360391.0,-8.4467,5.5785,22.6515,1.2622,0.2267,-0.2916
360401.0,-8.7867,5.5833,20.7793,0.9653,-0.5944,-0.2091
360411.0,-8.3151,5.6024,18.1672,0.7258,-1.1855,-0.1112
360421.0,-7.9966,4.9752,16.7091,0.3459,-1.6091,-0.0532
360431.0,-7.5226,4.3431,15.0547,0.0032,-1.9763,-0.0261
360441.0,-7.1826,3.4907,14.2551,-0.2267,-2.1806,-0.033
360451.0,-6.608,3.1316,13.1442,-0.2724,-2.3072,-0.0623
360461.0,-5.9999,2.7773,12.0404,-0.3491,-2.4445,-0.125
360471.0,-5.2888,2.6408,10.6877,-0.455,-2.5499,-0.2182
360481.0,-4.628,2.7749,9.5672,-0.6119,-2.5653,-0.3411
360491.0,-4.1635,3.1125,8.9902,-0.8216,-2.4956,-0.473
360501.0,-3.814,3.4788,8.8705,-1.0664,-2.4355,-0.5683
360511.0,-3.4716,3.5482,8.8825,-1.2925,-2.4307,-0.613
360521.0,-3.0909,3.4405,8.8131,-1.3665,-2.4073,-0.6002
360531.0,-2.7126,3.3088,8.6431,-1.2563,-2.3195,-0.5385
360541.0,-2.5187,3.1292,8.4204,-1.0163,-2.17,-0.4443
360551.0,-2.2362,2.8108,8.6814,-0.6832,-1.9768,-0.332
360561.0,-1.6951,2.7126,8.8178,-0.1868,-1.7107,-0.2128
360571.0,-1.3431,3.0742,8.6215,0.215,-1.508,-0.1336
360581.0,-1.1492,3.7948,8.3342,0.3267,-1.4149,-0.0952
360591.0,-0.972,4.3574,8.3318,0.1032,-1.4548,-0.0543
360601.0,-0.6105,4.4676,8.3007,-0.2857,-1.6033,0.0059
360611.0,-0.4884,4.2617,8.0924,-0.6125,-1.7091,0.0873
360621.0,-0.51,3.7852,7.9487,-0.7758,-1.7171,0.1916
360631.0,-0.5219,3.1603,8.3893,-0.7199,-1.6006,0.3102
360641.0,-0.4717,2.7031,9.0261,-0.3879,-1.3957,0.447
360651.0,0.0814,2.3966,9.8593,0.1378,-1.1834,0.5912
360661.0,0.4717,2.7318,9.7659,0.663,-1.0504,0.7082
360671.0,0.3639,3.1627,9.5337,0.8413,-1.0876,0.7705
360681.0,0.5986,3.6751,8.7556,0.6705,-1.2882,0.8062
360691.0,1.008,3.632,8.0038,0.2352,-1.5314,0.829
360701.0,1.2474,3.2825,7.1706,-0.2528,-1.724,0.837
360711.0,1.0247,2.7126,6.7325,-0.655,-1.8214,0.829
360721.0,1.4198,2.2386,6.8809,-0.7359,-1.7315,0.8232
360731.0,1.6999,2.5259,7.0318,-0.4342,-1.4128,0.8418
360741.0,1.5251,3.0813,7.5776,-0.1357,-1.1483,0.8812
360751.0,1.4269,3.7828,7.4124,-0.025,-1.0908,0.9456
360761.0,1.6807,3.9768,7.1491,-0.1511,-1.1467,1.0344
360771.0,2.0973,3.7254,6.529,-0.3597,-1.2004,1.1313
360781.0,2.4828,3.1651,5.8897,-0.5614,-1.1893,1.2148
360791.0,2.5618,2.6049,5.3223,-0.6971,-1.0711,1.2755
360801.0,2.4062,1.9632,5.3439,-0.7662,-0.8657,1.326
360811.0,2.5594,1.166,5.9975,-0.6396,-0.5699,1.384
360821.0,2.8826,0.5459,6.6367,-0.2788,-0.2144,1.4293
360831.0,3.146,0.2945,7.1587,0.1101,0.0718,1.4181
360841.0,3.2896,0.3855,7.501,0.3576,0.2331,1.3537
360851.0,3.3543,0.6464,7.6519,0.4246,0.2857,1.2686
360861.0,3.4357,0.8715,7.5681,0.3331,0.2437,1.1855
360871.0,3.5769,0.9122,7.1563,0.1442,0.1442,1.1153
360881.0,3.6751,0.9074,6.1507,-0.0436,0.0724,1.0594
360891.0,3.711,0.8332,5.138,-0.1953,0.1187,1.0264
360901.0,3.6488,0.5291,4.4197,-0.2661,0.3044,1.0238
360911.0,3.45,0.0742,4.0342,-0.2379,0.5848,1.0355
360921.0,3.2753,-0.3998,3.8547,-0.0984,0.9115,1.0477
360931.0,3.1029,-0.7829,3.7852,0.1219,1.2563,1.0488
360941.0,2.9808,-1.142,3.7158,0.3251,1.5453,1.0238
360951.0,3.0861,-1.4293,3.0837,0.4337,1.7405,0.9541
360961.0,3.067,-1.5802,1.8531,0.4331,1.9603,0.8312
360971.0,2.1644,-1.561,0.9122,0.3065,2.2982,0.6731
360981.0,0.9146,-1.4844,0.249,0.0974,2.6803,0.5103
360991.0,-0.4693,-1.4365,0.3256,-0.0415,3.2395,0.39
361001.0,-2.0016,-1.822,2.2793,0.0069,3.9728,0.339
361011.0,-2.9161,-2.4541,4.81,0.3336,4.6464,0.3177
361021.0,-3.62,-2.8467,7.5346,0.8093,5.1727,0.2261
361031.0,-4.719,-2.6312,10.252,1.2622,5.4877,0.0346
361041.0,-5.3965,-1.9034,12.2535,1.5,5.4366,-0.2363
361051.0,-5.6886,-0.8523,13.69,1.4564,5.1551,-0.5422
361061.0,-6.4093,0.838,14.7148,1.2116,4.8561,-0.8402
361071.0,-7.5657,2.5738,16.508,0.7136,4.4979,-1.0791
361081.0,-8.327,3.8523,19.4625,0.2373,4.101,-1.1845
361091.0,-8.6383,4.8291,22.8311,0.1389,3.7402,-1.1132
361101.0,-8.9878,5.4971,25.5509,0.1963,3.1208,-0.9397
361111.0,-8.8992,5.7964,26.6355,0.141,2.0311,-0.7439
361121.0,-8.5617,5.8969,25.7832,0.1091,0.8344,-0.5358
361131.0,-8.3151,6.0406,23.2645,0.2091,-0.1602,-0.3028
361141.0,-7.92,5.8347,20.0562,0.3272,-0.8652,-0.0686
361151.0,-7.288,5.7341,16.6541,0.3773,-1.2819,0.1282
361161.0,-6.9959,5.5761,14.0085,0.1937,-1.4899,0.2634
361171.0,-6.6367,5.0542,12.4211,-0.1559,-1.6006,0.3613
361181.0,-6.1555,4.3934,11.3509,-0.397,-1.5719,0.4581
361191.0,-5.7174,3.4644,10.9774,-0.4965,-1.4442,0.5561
361201.0,-5.193,2.6647,11.0085,-0.4225,-1.2744,0.6385
361211.0,-4.7309,2.0327,11.1546,-0.2341,-1.1313,0.6902
361221.0,-4.2832,1.6568,10.8505,-0.0176,-1.077,0.7109
361231.0,-3.8451,1.391,10.2855,0.149,-1.0546,0.6939
361241.0,-3.2537,1.5586,9.6774,0.2347,-0.9956,0.6252
361251.0,-2.9425,2.1428,9.4523,0.1703,-0.887,0.5289
361261.0,-2.7988,2.5833,9.5792,-0.1245,-0.8977,0.4422
361271.0,-2.6097,2.6432,9.8952,-0.539,-1.0259,0.3789
361281.0,-2.3966,2.5498,10.1179,-0.8519,-1.1733,0.3491
361291.0,-2.2769,2.375,10.0628,-0.9812,-1.267,0.3592
361301.0,-2.1332,1.9992,10.0413,-0.9424,-1.2941,0.4028
361311.0,-1.9537,1.6735,9.8593,-0.7226,-1.2398,0.4587
361321.0,-1.6281,1.5131,9.845,-0.4124,-1.1063,0.4986
361331.0,-1.3312,1.7765,9.9,-0.1187,-0.945,0.5263
361341.0,-1.3048,1.9896,10.1347,-0.0319,-0.9195,0.5353
361351.0,-1.063,2.2338,10.0149,-0.0963,-1.0525,0.5332
361361.0,-0.7446,2.3056,9.651,-0.223,-1.202,0.5374
361371.0,-0.3926,2.1907,9.1387,-0.3342,-1.3069,0.5577
361381.0,-0.079,1.9704,8.6742,-0.3874,-1.3361,0.5832
361391.0,0.2131,1.719,8.2001,-0.3693,-1.3138,0.6055
361401.0,0.5315,1.5275,7.9895,-0.2959,-1.2425,0.6125
361411.0,0.4908,1.4389,8.2935,-0.149,-1.0967,0.6178
361421.0,0.735,1.5538,9.0501,0.116,-0.9317,0.6449
361431.0,0.7159,1.7693,9.833,0.4401,-0.8109,0.7035
361441.0,0.6728,1.8387,10.0437,0.6534,-0.8695,0.7721
361451.0,0.8595,1.9034,9.3948,0.6795,-1.0802,0.8221
361461.0,1.0487,1.7885,8.3773,0.5284,-1.2749,0.8434
361471.0,1.2665,1.4222,7.3909,0.3092,-1.3595,0.845
361481.0,1.5036,1.0558,6.3901,0.1086,-1.3218,0.8184
361491.0,1.494,0.8236,5.7126,-0.0931,-1.1845,0.7577
361501.0,1.5921,0.5962,5.8514,-0.2788,-0.9759,0.6811
361511.0,1.7717,0.3663,6.45,-0.3347,-0.7168,0.6215
361521.0,1.7885,0.1317,7.082,-0.3044,-0.5433,0.5715
361531.0,1.8364,-0.0383,7.0725,-0.248,-0.5055,0.5204
361541.0,2.0111,-0.2131,6.6583,-0.1469,-0.464,0.4672
361551.0,2.1955,-0.2059,5.9328,0.008,-0.3358,0.4166
361561.0,2.3032,-0.2083,5.2385,0.1437,-0.1378,0.3624
361571.0,2.4157,-0.2897,4.628,0.2166,0.0777,0.3038
361581.0,2.466,-0.4645,4.051,0.1932,0.298,0.2299
361591.0,2.4708,-0.7614,3.6296,0.0968,0.5156,0.1293
361601.0,2.4349,-0.996,3.292,-0.0074,0.7577,0.0027
361611.0,2.0901,-1.2594,2.8156,-0.1623,0.9706,-0.149
361621.0,1.8076,-1.47,2.2721,-0.3379,1.1744,-0.3262
361631.0,1.2857,-1.5036,1.7262,-0.4576,1.5069,-0.5215
361641.0,0.2969,-1.2617,1.822,-0.5284,1.9683,-0.712
361651.0,-0.5962,-0.7566,2.4732,-0.5672,2.4584,-0.8727
361661.0,-1.3431,-0.2107,3.9097,-0.6306,2.8633,-0.9982
361671.0,-2.1308,0.4645,5.2792,-0.6268,3.1544,-1.0722
361681.0,-2.7869,1.1779,6.2273,-0.5741,3.3241,-1.0844
361691.0,-3.5362,1.8483,6.6439,-0.5545,3.3901,-1.0424
361701.0,-4.4628,1.9609,7.2616,-0.5295,3.4731,-0.9461
361711.0,-5.7054,1.9585,7.9583,-0.2969,3.6982,-0.8019
361721.0,-6.7397,1.6209,9.8521,0.1282,4.0558,-0.6284
361731.0,-7.0844,1.415,12.4953,0.7694,4.4671,-0.455
361741.0,-7.5513,1.3384,15.6581,1.3415,4.6054,-0.3549
361751.0,-7.6591,1.6688,17.8512,1.7118,4.2777,-0.3411
361761.0,-7.8793,2.3248,19.3571,1.9736,3.7514,-0.3597
361771.0,-8.1714,3.1125,19.836,2.1646,3.149,-0.3539
361781.0,-8.1451,3.5578,19.3188,2.2184,2.5206,-0.323
361791.0,-8.1187,3.8044,18.2007,2.0981,1.9757,-0.3076
361801.0,-8.0637,3.9911,17.2933,1.674,1.4809,-0.3576
361811.0,-8.0972,3.8978,17.0539,1.0094,1.002,-0.4576
361821.0,-8.1475,3.9648,17.2263,0.3278,0.5715,-0.5704
361831.0,-8.3151,3.7948,18.3779,-0.2118,0.1804,-0.6423
361841.0,-8.2672,3.474,19.0267,-0.4124,-0.2708,-0.6375
361851.0,-8.0421,3.0598,18.646,-0.3783,-0.7753,-0.5875
361861.0,-7.75,2.624,17.4322,-0.2794,-1.2622,-0.5406
361871.0,-7.3023,2.2003,15.7945,-0.1905,-1.673,-0.5289
361881.0,-6.845,1.9872,14.0851,-0.099,-1.9433,-0.5486
361891.0,-6.4907,1.9752,12.4307,-0.0218,-2.0827,-0.5885
361901.0,-5.9496,1.9632,10.987,0.0064,-2.1391,-0.6375
361911.0,-5.4803,2.0063,9.8928,-0.0021,-2.1029,-0.6902
361921.0,-5.0542,2.1308,9.0309,-0.0825,-2.0268,-0.7551
361931.0,-4.6232,2.3128,8.5593,-0.2581,-1.9326,-0.8328
361941.0,-4.4604,2.411,8.8131,-0.5018,-1.8427,-0.9142
361951.0,-4.312,2.3631,9.5265,-0.6822,-1.7938,-0.9754
361962.0,-4.1635,2.3918,10.1011,-0.68,-1.7725,-1.0009
361971.0,-3.9313,2.5283,10.2807,-0.5486,-1.7826,-0.9913
361981.0,-3.7014,2.7174,10.0772,-0.389,-1.8055,-0.9567
361991.0,-3.3016,2.8754,9.5816,-0.2586,-1.8454,-0.9152
362001.0,-3.0263,3.3878,8.9184,-0.1761,-1.806,-0.8892
362011.0,-2.9281,3.9121,8.7293,-0.2389,-1.7304,-0.8615
362021.0,-2.8587,4.2593,8.9471,-0.4406,-1.7203,-0.8163
362031.0,-2.873,4.288,9.3541,-0.6619,-1.7693,-0.7359
362041.0,-2.5235,3.8403,10.0317,-0.7157,-1.7884,-0.6055
362051.0,-2.2913,3.3375,10.2496,-0.5534,-1.7868,-0.4555
362061.0,-2.1045,2.9544,9.9623,-0.3523,-1.8507,-0.3294
362071.0,-1.8316,2.7102,9.4667,-0.1421,-1.8906,-0.2299
362081.0,-1.3551,2.6432,9.074,0.1096,-1.8448,-0.1362
362091.0,-1.0271,2.7174,8.4204,0.3475,-1.7687,-0.0399
362101.0,-0.7398,2.6217,7.5537,0.4438,-1.7267,0.0325
362111.0,-0.407,2.6863,7.1012,0.4379,-1.6064,0.0697
362121.0,-0.3807,2.8563,7.1611,0.364,-1.433,0.0979
362131.0,-0.4477,2.6145,7.6758,0.2235,-1.3441,0.1362
362141.0,-0.1125,2.2434,8.1379,0.2038,-1.2851,0.1926
362151.0,0.3208,2.0399,8.1738,0.3049,-1.201,0.2437
362161.0,0.6033,1.8244,8.011,0.3347,-1.1653,0.2629
362171.0,0.9577,1.7478,7.6806,0.2724,-1.1685,0.2453
362181.0,1.2785,1.6735,7.3598,0.1623,-1.1345,0.2086
362191.0,1.4533,1.6185,7.1156,0.0277,-1.0914,0.1559
362201.0,1.5682,1.64,6.9767,-0.1054,-1.035,0.0899
362211.0,1.5826,1.81,6.8929,-0.2033,-0.9562,0.0319
362221.0,1.7047,2.0016,6.79,-0.29,-0.8897,-0.0021
362231.0,1.8316,2.0518,6.6702,-0.3688,-0.8397,-0.0181
362241.0,2.0255,2.0375,6.2273,-0.4119,-0.7854,-0.0202
362251.0,2.1715,2.0638,5.8802,-0.422,-0.687,-0.0106
362261.0,2.217,2.0925,5.5091,-0.3751,-0.5555,0.0181
362271.0,2.4062,1.889,4.9608,-0.29,-0.3996,0.0702
362281.0,2.5283,1.5754,4.1252,-0.1963,-0.2171,0.1309
362291.0,2.5546,0.9744,3.6105,-0.1745,-0.0351,0.1751
362301.0,2.8395,0.2203,2.8802,-0.1112,0.1681,0.1963
362311.0,2.9928,-0.5124,1.5251,-0.0117,0.4358,0.1719
362321.0,2.6839,-1.0989,0.1604,0.0117,0.7918,0.0756
362331.0,2.4086,-1.1827,-1.3743,-0.0623,1.2723,-0.0841
362341.0,1.6975,-1.1301,-2.0662,-0.3549,1.8459,-0.2921
362351.0,0.7949,-0.7973,-2.0327,-0.8179,2.4025,-0.5167
362361.0,-0.4836,-0.2514,-0.8284,-1.2904,2.9942,-0.7008
362371.0,-2.3822,-0.0431,2.5498,-1.4984,3.6524,-0.7625
362381.0,-3.632,-0.2801,7.1132,-1.0823,4.2957,-0.6705
362391.0,-4.5059,-0.316,11.4634,-0.0708,4.7975,-0.5124
362401.0,-5.0877,0.0646,14.7124,1.119,5.0098,-0.3874
362411.0,-5.5785,1.2186,16.6517,2.0949,4.9497,-0.3475
362421.0,-6.2632,3.0981,18.0978,2.5041,4.6134,-0.4166
362431.0,-6.8714,5.2481,19.4481,2.3088,4.0637,-0.5183
362441.0,-7.0126,6.8738,20.9253,1.6378,3.3507,-0.5736
362451.0,-7.6543,7.4699,23.0059,0.7354,2.552,-0.5598
362461.0,-8.1451,7.264,24.8494,-0.0367,1.6277,-0.456
362471.0,-8.1163,6.4093,25.6132,-0.5119,0.5789,-0.2857
362481.0,-7.6854,5.4588,24.0881,-0.6401,-0.4816,-0.0894
362491.0,-7.118,4.4556,21.2198,-0.5981,-1.3319,0.0745
362501.0,-6.5912,3.7421,17.9182,-0.5199,-1.8794,0.1767
362511.0,-6.1411,3.0909,15.0763,-0.4741,-2.1455,0.2267
362521.0,-5.3774,2.4373,12.8976,-0.4432,-2.1992,0.2395
362531.0,-4.695,1.8435,11.4227,-0.3805,-2.08,0.2246
362541.0,-3.9337,1.3072,10.4315,-0.3475,-1.9321,0.1756
362551.0,-3.2872,1.0104,9.7636,-0.365,-1.7938,0.0809
362561.0,-2.7342,0.7733,9.3733,-0.4028,-1.6511,-0.0362
362571.0,-2.1763,0.6704,9.153,-0.423,-1.5176,-0.1596
362581.0,-1.834,0.7302,9.0166,-0.4422,-1.3867,-0.2884
362591.0,-1.5083,0.917,8.9328,-0.5007,-1.2861,-0.4172
362601.0,-1.2594,1.1372,9.0094,-0.588,-1.2127,-0.5326
362611.0,-1.1468,1.4413,9.0644,-0.696,-1.1675,-0.6332
362621.0,-1.2091,1.7406,9.4332,-0.7897,-1.1132,-0.7088
362631.0,-1.166,2.1237,9.9144,-0.7998,-1.0318,-0.7412
362641.0,-1.2905,2.4804,10.1634,-0.8386,-1.035,-0.7386
362651.0,-1.245,2.6408,10.3453,-0.9637,-1.1579,-0.7141
362661.0,-1.1301,2.7557,10.1682,-1.0302,-1.2616,-0.6635
362671.0,-1.0439,2.8395,10.003,-1.0254,-1.2994,-0.5805
362681.0,-1.0606,2.8371,9.8162,-0.9594,-1.3015,-0.4715
362691.0,-1.1037,2.7318,9.7923,-0.8354,-1.2638,-0.3464
362701.0,-0.9792,2.6959,10.0628,-0.6018,-1.151,-0.1995
362711.0,-1.0223,2.6552,10.4267,-0.3076,-1.0451,-0.033
362721.0,-0.8906,2.5067,10.4842,-0.0585,-1.0664,0.141
362731.0,-0.5842,2.3032,10.0461,0.1479,-1.1424,0.3049
362741.0,-0.2466,1.9944,9.1746,0.2719,-1.2052,0.4374
362751.0,0.0622,1.6352,8.3055,0.2863,-1.2132,0.5204
362761.0,0.3017,1.3623,7.5369,0.2293,-1.152,0.5587
362771.0,0.5794,1.1468,6.8881,0.1139,-1.0291,0.5598
362781.0,0.8332,0.9433,6.6487,-0.091,-0.878,0.5188
362791.0,0.8547,0.8116,6.9336,-0.3225,-0.7199,0.4544
362801.0,0.905,0.6345,7.5729,-0.4715,-0.571,0.4028
362811.0,1.0534,0.4908,8.0589,-0.481,-0.4475,0.3751
362821.0,1.1588,0.2753,8.4611,-0.4331,-0.3794,0.3544
362831.0,1.3144,0.2298,8.3701,-0.3517,-0.3443,0.3278
362841.0,1.4988,0.1891,8.1906,-0.2543,-0.2687,0.2985
362851.0,1.415,0.34,8.1235,-0.1745,-0.1607,0.2661
362861.0,1.1301,0.4525,8.2983,-0.1213,-0.0532,0.24
362871.0,1.3096,0.4932,8.4515,-0.0394,0.0628,0.2379
362881.0,1.2163,0.4884,8.7795,0.0298,0.1905,0.2315
