time_ms,ax,ay,az,gx,gy,gz
610841.0,-0.3232,1.4964,10.6063,0.0772,0.1527,-0.1953
610851.0,-0.5243,1.6664,10.5872,0.0516,0.1054,-0.2139
610861.0,-0.7685,1.8148,10.3477,0.0452,0.0766,-0.2198
610871.0,-0.9433,1.8387,10.2831,0.0229,0.067,-0.2166
610881.0,-0.9098,1.901,10.3741,0.0341,0.0899,-0.2075
610891.0,-0.723,2.0183,10.5465,0.0718,0.1261,-0.1953
610901.0,-0.5962,2.2482,10.7643,0.1086,0.1501,-0.1724
610911.0,-0.5722,2.4181,11.1187,0.1101,0.1485,-0.1426
610921.0,-0.6632,2.5474,11.2982,0.0958,0.0926,-0.1027
610931.0,-0.723,2.5546,11.4179,0.0803,-0.0064,-0.0543
610941.0,-0.759,2.5283,11.1833,0.1144,-0.107,0.0043
610951.0,-0.9337,2.4349,10.8505,0.1979,-0.166,0.0686
610961.0,-1.0415,2.2266,10.2879,0.307,-0.1937,0.1357
610971.0,-0.7709,1.9106,9.6606,0.3613,-0.1974,0.1692
610981.0,-0.4357,1.8483,9.2464,0.3374,-0.1181,0.1453
610991.0,-0.237,2.1428,9.2201,0.2639,0.0202,0.0803
611001.0,-0.1437,2.6887,9.4571,0.1288,0.124,0.0096
611011.0,0.012,3.3998,9.7444,-0.0383,0.1618,-0.0442
611021.0,0.0072,4.051,10.2639,-0.1681,0.1788,-0.0569
611031.0,0.0407,4.6519,10.5752,-0.1336,0.2112,0.0144
611041.0,0.0287,5.1092,10.5345,0.0144,0.2496,0.1373
611051.0,0.1532,5.6719,9.5193,0.1596,0.2879,0.2788
611061.0,-0.1532,6.3135,8.7771,0.1426,0.4837,0.4257
611071.0,-1.087,6.9863,8.8514,0.0027,0.8099,0.6061
611081.0,-2.0614,6.9983,10.2256,-0.182,1.1169,0.8264
611091.0,-2.7342,6.9767,11.0852,-0.2192,1.3484,1.0642
611101.0,-3.45,6.5601,12.2775,-0.2687,1.5069,1.284
611111.0,-3.8499,5.9041,13.6972,-0.3203,1.5841,1.4862
611121.0,-3.8762,4.9895,15.5767,-0.3347,1.5644,1.6549
611131.0,-3.5745,4.1635,17.0587,-0.3464,1.3212,1.7554
611141.0,-3.3806,3.304,18.0355,-0.3975,0.8817,1.7746
611151.0,-3.201,2.7246,18.2318,-0.4656,0.3549,1.7182
611161.0,-3.1627,2.3463,18.0283,-0.6109,-0.174,1.6107
611171.0,-3.4237,2.0638,17.6333,-0.8482,-0.7343,1.4809
611181.0,-3.3303,1.5778,17.0156,-1.0951,-1.3127,1.3611
611191.0,-3.2561,1.2186,16.1321,-1.2505,-1.839,1.2521
611201.0,-3.3327,0.7877,15.1936,-1.2611,-2.2391,1.1749
611211.0,-2.8395,0.3208,14.3915,-1.0701,-2.4477,1.1238
611221.0,-2.2697,0.4693,13.6613,-0.7732,-2.5158,1.0632
611231.0,-2.1668,0.6728,12.8209,-0.7364,-2.6957,0.9982
611241.0,-2.0399,0.5076,11.7148,-1.0568,-3.0692,0.9025
611251.0,-1.4461,0.2514,10.2783,-1.5681,-3.4891,0.7455
611261.0,-0.6033,0.1125,8.3749,-2.1045,-3.8323,0.5529
611271.0,-0.0838,-0.146,6.9073,-2.5419,-3.9579,0.3624
611281.0,0.4836,-0.0982,5.2888,-2.7744,-3.8892,0.2011
611291.0,0.7757,0.1101,4.1635,-2.9447,-3.6913,0.075
611301.0,1.1061,0.3041,3.5626,-3.1416,-3.4635,-0.0011
611311.0,1.5754,0.249,3.6607,-3.2853,-3.2342,-0.025
611321.0,2.0063,0.2227,4.1444,-3.2581,-3.0298,0.0069
611331.0,2.1859,0.1963,5.0422,-2.9202,-2.8479,0.133
611341.0,2.3296,0.0335,5.0901,-2.17,-2.6978,0.3821
611351.0,2.8276,-0.5076,3.7493,-1.2164,-2.593,0.7003
611361.0,4.0462,-1.4557,0.6009,-0.373,-2.4733,1.0014
611371.0,5.5785,-2.4828,-3.2274,0.0899,-2.1529,1.1818
611381.0,6.3494,-3.4069,-6.0166,0.0197,-1.5995,1.2095
611391.0,6.189,-4.7094,-6.7181,-0.2937,-0.8796,1.1196
611401.0,6.1172,-5.6934,-6.6966,-0.3485,-0.016,0.9647
611411.0,5.7772,-6.4284,-5.6623,-0.0979,0.9498,0.7636
611421.0,5.1571,-6.7588,-4.0797,0.5002,1.9513,0.5486
611431.0,4.3574,-6.2991,-2.4086,1.2829,2.8856,0.3097
611441.0,3.2513,-5.2194,-1.0511,1.9151,3.5859,0.0484
611451.0,2.0638,-3.8044,-0.1197,2.262,4.0568,-0.2027
611461.0,1.2641,-1.9944,-0.2825,2.246,4.3718,-0.4129
611471.0,0.1269,-0.996,0.2921,1.6597,4.4804,-0.5795
611481.0,-1.4916,-0.2514,0.4764,1.1371,4.6299,-0.6417
611491.0,-3.723,0.5531,1.1923,0.9679,5.0476,-0.5954
611501.0,-5.4444,0.8523,3.3639,1.1552,5.6388,-0.4225
611511.0,-6.2393,1.0965,6.3255,1.6772,6.2938,-0.1878
611521.0,-6.936,1.6568,9.6223,2.0705,6.6562,-0.0037
611531.0,-7.9344,2.2027,12.9335,2.0417,6.5402,0.1091
611541.0,-8.7604,2.8228,15.3133,1.8906,6.2076,0.232
611551.0,-9.4044,2.6193,18.16,1.6389,5.8809,0.3964
611561.0,-9.7755,1.7238,21.0402,1.3367,5.3956,0.5624
611571.0,-9.5936,0.6225,23.1495,0.9897,4.6134,0.6534
611581.0,-9.6582,-0.1245,23.9971,0.8381,3.8466,0.6864
611591.0,-10.1778,-0.6991,24.4592,0.8333,3.2012,0.6678
611601.0,-10.2807,-1.3072,24.3035,0.7721,2.511,0.6008
611611.0,-10.3358,-2.5043,25.0841,0.6423,1.9135,0.4741
611621.0,-9.6199,-4.0534,25.5629,0.5704,1.2755,0.2639
611631.0,-9.1961,-5.3822,25.9005,0.4315,0.5098,-0.124
611641.0,-8.6024,-6.2489,26.25,0.3895,-0.2341,-0.6476
611651.0,-8.667,-5.7317,25.8095,0.538,-0.9477,-1.2414
611661.0,-9.1195,-3.9217,24.0857,0.5864,-1.8198,-1.8454
611671.0,-9.323,-1.8699,21.3084,0.5103,-2.6622,-2.3487
611681.0,-9.2632,0.1963,18.3061,0.4103,-3.214,-2.7132
611691.0,-9.4092,2.0901,15.9885,0.2698,-3.5173,-2.9405
611701.0,-9.232,3.7062,14.3389,0.191,-3.6455,-3.0112
611711.0,-8.8442,4.8507,13.3118,0.199,-3.6333,-2.9319
611721.0,-8.4013,5.4755,12.9167,0.1868,-3.6444,-2.743
611731.0,-7.5274,5.351,12.5911,0.1788,-3.7567,-2.4961
611741.0,-6.359,5.1763,11.5736,0.2389,-3.944,-2.2503
611751.0,-5.1356,5.1092,9.9431,0.3294,-4.084,-2.0359
611761.0,-4.2162,5.3008,7.9895,0.364,-4.0829,-1.847
611771.0,-3.5817,5.3798,6.8067,0.2538,-3.9658,-1.674
611781.0,-3.4333,5.2888,6.4141,0.0825,-3.7956,-1.4952
611791.0,-2.6528,4.3574,6.8354,-0.0059,-3.6125,-1.2957
611801.0,-1.5083,3.4237,6.6702,0.0271,-3.5205,-1.1361
611811.0,-0.498,2.5522,5.9807,0.0043,-3.5338,-1.069
611821.0,0.2729,2.308,4.9416,0.0287,-3.48,-1.0664
611831.0,0.6608,2.6432,4.0151,0.1038,-3.2773,-1.0807
611841.0,0.8763,3.3016,3.1005,0.116,-3.0591,-1.0738
611851.0,1.1516,3.6009,2.6456,0.0101,-2.8324,-1.0286
611861.0,1.0942,3.383,2.5259,-0.1405,-2.5823,-0.9482
611871.0,1.7071,2.2314,3.2346,-0.223,-2.3115,-0.8514
611881.0,2.7366,1.3623,3.5721,-0.2065,-2.1316,-0.8264
611891.0,3.6751,1.1205,3.8355,-0.1634,-2.0348,-0.8908
611901.0,4.0773,1.8148,3.2681,-0.0261,-1.9156,-0.969
611911.0,4.0414,2.9137,2.7007,0.0239,-1.7879,-1.0094
611921.0,4.1108,3.8571,2.0351,-0.0085,-1.6746,-0.9802
611931.0,4.5155,4.4125,1.0918,-0.0452,-1.5383,-0.8705
611941.0,4.8459,4.4867,0.1293,-0.1,-1.3303,-0.7237
611951.0,5.2696,4.0055,-0.656,-0.133,-1.0121,-0.5614
611961.0,5.5043,3.3734,-1.0534,-0.1256,-0.5875,-0.423
611971.0,5.6144,2.6456,-0.8547,-0.1187,-0.1548,-0.3241
611981.0,5.6695,2.0279,-0.8332,-0.0426,0.2528,-0.2575
611991.0,5.8634,1.7166,-0.8045,0.0654,0.6625,-0.2309
612001.0,6.0166,1.664,-0.8452,0.1713,1.094,-0.2331
612011.0,6.0047,1.913,-1.2258,0.1687,1.4904,-0.2629
612021.0,5.521,2.4134,-1.9609,-0.0059,1.8603,-0.3161
612031.0,4.209,2.7557,-1.6089,-0.2762,2.3237,-0.3416
612041.0,2.9449,2.6384,0.2538,-0.2884,2.9442,-0.2863
612051.0,1.9369,2.5618,2.332,0.0835,3.5412,-0.1772
612061.0,1.391,2.6695,3.4764,0.5151,3.919,-0.0681
612071.0,0.7494,2.7533,4.1061,0.7482,4.1377,0.0096
612081.0,0.2418,2.7988,4.6591,0.8338,4.3287,0.0516
612091.0,-0.2969,3.4955,4.7166,0.8759,4.5836,0.0607
612101.0,-1.1875,4.4556,5.3391,0.7184,4.863,0.0452
612111.0,-2.6288,5.6982,6.0118,0.3086,5.0508,0.0351
612121.0,-5.0757,6.7636,7.9966,-0.2575,5.2051,0.0942
612131.0,-7.5729,6.7924,12.1769,-0.5486,5.4217,0.3214
612141.0,-8.691,5.6743,17.1832,-0.2634,5.5569,0.6917
612151.0,-8.5186,4.3407,21.4233,0.397,5.3153,1.0328
612161.0,-7.8697,3.4453,23.5853,1.102,4.6672,1.251
612171.0,-7.3909,3.1819,23.9947,1.6879,3.8456,1.3218
612181.0,-6.8618,3.7924,22.0841,2.1136,3.0394,1.2771
612191.0,-6.3662,4.8028,19.0243,2.047,2.3583,1.1196
612201.0,-6.5888,6.0118,16.2878,1.3846,1.8533,0.8684
612211.0,-7.8338,6.9839,15.7778,0.4581,1.6219,0.6385
612221.0,-8.4779,6.7301,17.6022,-0.0835,1.7235,0.571
612231.0,-8.6694,6.0238,19.9844,-0.3187,1.715,0.5603
612241.0,-8.5736,5.4109,22.4361,-0.6694,1.1845,0.4864
612251.0,-8.4013,5.5857,23.9229,-0.8253,0.4379,0.4129
612261.0,-8.4683,6.4428,23.535,-0.6657,-0.306,0.422
612271.0,-8.1211,7.0964,21.7705,-0.5422,-1.0999,0.505
612281.0,-7.355,7.3981,19.0626,-0.5502,-1.8017,0.6284
612291.0,-6.754,7.3047,16.3452,-0.663,-2.2918,0.7625
612301.0,-6.2082,7.0797,13.8361,-0.8014,-2.5861,0.895
612311.0,-5.7174,6.6056,12.2104,-0.9243,-2.6765,1.0371
612321.0,-5.4181,5.9496,11.2504,-1.0041,-2.6696,1.1946
612331.0,-4.9464,4.9057,10.6063,-1.061,-2.726,1.351
612341.0,-4.2689,3.6105,9.4595,-1.0254,-2.8127,1.499
612351.0,-3.5554,2.1021,8.6095,-0.9269,-2.8165,1.6128
612361.0,-2.6217,0.7207,7.8554,-0.7024,-2.7271,1.6719
612371.0,-1.834,-0.1772,6.9839,-0.4017,-2.5765,1.6602
612381.0,-1.0463,-0.6728,6.0645,-0.1809,-2.4206,1.5841
612391.0,-0.6249,-0.838,5.3463,-0.1309,-2.2876,1.4548
612401.0,-0.2394,-1.0271,5.3199,-0.1298,-2.0939,1.3101
612411.0,0.2514,-0.984,5.5857,-0.0372,-1.8267,1.1829
612421.0,0.6057,-0.8308,5.8754,-0.0112,-1.6432,1.0531
612431.0,0.9577,-0.7183,5.873,-0.1266,-1.6043,0.9216
612441.0,1.3024,-0.7207,5.3103,-0.3182,-1.6192,0.7987
612451.0,1.5826,-0.8212,5.1547,-0.4848,-1.5378,0.6832
612461.0,1.8124,-0.6105,5.3798,-0.448,-1.3175,0.5906
612471.0,1.9106,-0.2274,5.2002,-0.357,-1.1499,0.522
612481.0,2.2003,0.0192,4.7956,-0.3661,-1.0855,0.4667
612491.0,2.3655,0.1053,4.3311,-0.3858,-0.9695,0.4326
612501.0,2.375,-0.0048,4.0438,-0.3033,-0.7333,0.4204
612511.0,2.241,-0.158,4.6208,-0.1219,-0.3783,0.4156
612521.0,2.4972,0.0455,5.9855,0.1836,0.0436,0.4071
612531.0,2.3798,0.6871,7.1946,0.3874,0.2895,0.3837
612541.0,2.32,1.1109,8.2145,0.2512,0.1948,0.3421
612551.0,2.3774,1.245,8.3558,-0.033,-0.0798,0.3086
612561.0,2.3296,1.1205,7.4962,-0.2671,-0.3459,0.2937
612571.0,2.5546,0.7494,6.031,-0.381,-0.4895,0.2873
612581.0,2.7845,0.3759,4.0677,-0.3757,-0.3959,0.2772
612591.0,2.8826,-0.1053,2.9736,-0.3746,-0.0809,0.2405
612601.0,2.8802,-0.498,2.624,-0.373,0.3363,0.1697
612611.0,2.4397,-0.7159,3.055,-0.357,0.7748,0.0766
612621.0,2.2003,-0.9242,3.6895,-0.265,1.1786,-0.0096
612631.0,2.1284,-1.1468,4.4891,-0.1772,1.5,-0.1043
612641.0,1.8962,-1.2402,5.2313,-0.1165,1.7432,-0.2219
612651.0,1.4413,-1.2282,5.6336,-0.0718,1.8879,-0.3539
612661.0,1.4892,-1.1277,5.3965,-0.074,1.9337,-0.4997
612671.0,1.0415,-0.6776,4.8363,-0.074,2.0417,-0.6476
612681.0,0.0551,-0.0479,4.5059,-0.0234,2.2897,-0.7662
612691.0,-0.4908,0.407,4.8722,0.0745,2.6467,-0.8312
612701.0,-1.1612,0.8978,5.8323,0.1692,2.9963,-0.8711
612711.0,-2.1404,1.3264,6.9791,0.1564,3.1863,-0.8961
612721.0,-2.4445,1.3096,8.0517,0.1086,3.2613,-0.8918
612731.0,-2.794,1.0989,9.0094,0.042,3.2826,-0.8955
612741.0,-3.1508,0.8475,10.1323,0.009,3.2507,-0.9253
612751.0,-3.5362,1.1899,10.6231,0.1027,3.2172,-0.9786
612761.0,-4.2569,1.8387,11.7627,0.2054,3.2246,-1.035
612771.0,-4.9249,2.5474,13.1705,0.348,3.2363,-1.0392
612781.0,-5.7604,2.9928,14.88,0.422,3.1054,-1.0025
612791.0,-5.8179,2.8108,16.4601,0.4773,2.8186,-0.9328
612801.0,-5.8802,2.7031,17.5327,0.5805,2.4701,-0.8838
612811.0,-6.1675,2.9568,18.0714,0.6673,2.0534,-0.8673
612821.0,-6.3805,3.4093,18.3587,0.7934,1.666,-0.8471
612831.0,-6.7612,4.2832,17.8871,0.9759,1.3792,-0.7998
612841.0,-7.2329,4.8387,17.911,0.9855,1.1414,-0.7306
612851.0,-7.331,4.8602,18.239,0.8562,0.8833,-0.6486
612861.0,-7.2472,4.6495,18.7155,0.6348,0.563,-0.5933
612871.0,-7.2089,4.3694,19.3499,0.3916,0.2001,-0.5715
612881.0,-7.1922,4.1946,19.8503,0.2198,-0.1985,-0.5561
612891.0,-7.0174,3.9145,19.7953,0.0963,-0.6705,-0.5433
612901.0,-6.6032,3.632,19.1057,-0.0277,-1.1957,-0.5428
612911.0,-6.3207,3.4692,17.8416,-0.182,-1.7033,-0.5704
612921.0,-6.0478,3.3255,16.5152,-0.3352,-2.1316,-0.6125
612931.0,-5.7389,3.2298,14.9183,-0.397,-2.4552,-0.6423
612941.0,-5.3702,3.1939,13.1944,-0.406,-2.6611,-0.6667
612951.0,-5.0637,3.2801,11.5305,-0.4422,-2.7723,-0.6939
612961.0,-4.6136,3.2202,10.5536,-0.4975,-2.7585,-0.7082
612971.0,-4.2808,3.2274,9.8809,-0.5459,-2.6744,-0.712
612981.0,-3.8164,2.9808,9.7827,-0.6784,-2.6473,-0.7162
612991.0,-3.4093,2.557,9.6462,-0.7902,-2.6834,-0.7189
613001.0,-3.122,1.992,9.5217,-0.8115,-2.7388,-0.7189
613011.0,-2.5929,1.4174,8.9352,-0.6843,-2.7659,-0.7247
613021.0,-2.1093,1.1037,8.0421,-0.5263,-2.7739,-0.7817
613031.0,-1.2546,1.4964,7.4867,-0.4044,-2.6941,-0.9009
613041.0,-1.0008,2.5426,7.2065,-0.3421,-2.5142,-1.0158
613051.0,-1.2833,3.5674,7.3981,-0.539,-2.4876,-1.093
613061.0,-1.1372,4.2521,7.8266,-0.7662,-2.5791,-1.0882
613071.0,-0.9792,4.719,7.5776,-0.7934,-2.6185,-0.9679
613081.0,-0.7183,4.4484,7.4077,-0.7162,-2.6185,-0.7641
613091.0,0.0814,3.7613,6.754,-0.5119,-2.5749,-0.5316
613101.0,1.0223,2.9521,5.9759,-0.3336,-2.5036,-0.3528
613111.0,1.8986,2.4397,5.0805,-0.2288,-2.403,-0.2538
613121.0,2.4828,2.3367,4.2832,-0.2128,-2.2679,-0.2198
613131.0,2.7533,2.5881,3.5314,-0.3086,-2.1407,-0.2144
613141.0,2.7797,2.8012,3.0335,-0.4528,-1.9874,-0.1921
613151.0,2.7749,2.6384,2.7845,-0.5124,-1.7666,-0.116
613161.0,3.2561,2.0207,2.375,-0.4289,-1.4569,0.0005
613171.0,3.9959,1.0942,2.0399,-0.3358,-1.119,0.0851
613181.0,4.6232,0.3639,1.8316,-0.315,-0.7992,0.0862
613191.0,4.8339,-0.0551,1.9848,-0.3108,-0.4624,0.0223
613201.0,4.7285,-0.1891,2.2242,-0.2065,-0.0926,-0.0596
613211.0,4.5322,0.0239,2.1284,-0.0144,0.2841,-0.1282
613221.0,4.4604,0.2274,1.7933,0.0873,0.6098,-0.1979
613231.0,4.5897,0.5483,0.5602,-0.0309,0.8226,-0.2943
613241.0,4.5777,0.5578,-1.2043,-0.4587,1.0041,-0.4182
613251.0,4.1899,0.3304,-2.0734,-0.8689,1.4473,-0.5353
613261.0,3.1196,0.4525,-2.557,-0.9924,2.1609,-0.6125
613271.0,1.8627,0.9553,-2.217,-0.994,2.9016,-0.6779
613281.0,0.3376,2.4062,-1.403,-0.7705,3.6849,-0.6939
613291.0,-1.5945,4.7142,-0.4645,-0.3874,4.4948,-0.6018
613301.0,-4.2473,6.9552,1.1923,-0.1548,5.1721,-0.3767
613311.0,-7.0437,8.4587,3.5961,-0.0772,5.6601,0.0005
613321.0,-9.1195,8.43,7.5561,0.1293,6.139,0.53
613331.0,-9.4451,7.094,12.1554,0.5906,6.5253,1.093
613341.0,-8.8921,5.7748,16.587,1.0674,6.57,1.4857
613351.0,-8.5114,5.4827,20.2023,1.2877,6.2422,1.6315
613361.0,-8.6622,6.1699,22.7353,1.0967,5.5212,1.6086
613371.0,-8.8657,7.1012,23.7337,0.555,4.499,1.5421
613381.0,-9.2799,7.9487,22.9508,-0.2102,3.3693,1.5091
613391.0,-10.6901,8.3606,21.409,-1.0578,2.3855,1.5564
613401.0,-11.4203,7.0964,21.6867,-1.607,1.8134,1.7661
613411.0,-11.5041,4.9536,22.2924,-1.616,1.4543,2.0694
613421.0,-10.6326,2.2913,23.2166,-1.4324,0.9397,2.2806
613431.0,-9.505,0.5602,23.0753,-1.0456,0.339,2.328
613441.0,-8.7915,-0.1724,22.4935,-0.564,-0.1873,2.2375
613451.0,-8.4803,-0.1101,21.3347,-0.1575,-0.7152,2.0822
613461.0,-8.1882,0.3496,20.0658,0.1277,-1.2265,1.9236
613471.0,-7.8314,1.1037,18.591,0.3911,-1.616,1.8071
613481.0,-7.434,1.9896,17.1209,0.58,-1.8576,1.7411
613491.0,-7.0916,2.6911,15.6964,0.522,-2.079,1.7091
613501.0,-6.8307,2.6552,14.6836,0.0697,-2.4493,1.6767
613511.0,-6.3829,1.9321,13.7236,-0.4528,-2.8734,1.6474
613521.0,-5.8107,0.8595,12.8593,-0.6987,-3.1304,1.6341
613531.0,-5.3199,-0.2107,11.801,-0.6758,-3.2507,1.6086
613541.0,-4.6017,-0.9481,10.8122,-0.4901,-3.3018,1.5405
613551.0,-3.7757,-1.0175,9.8282,-0.1804,-3.2294,1.4399
613561.0,-3.0287,-0.5938,8.7197,0.0553,-3.1086,1.3319
613571.0,-2.5187,-0.1197,8.0493,0.0378,-3.0197,1.2116
613581.0,-2.0446,0.4334,7.4555,-0.1431,-2.9681,1.102
613591.0,-1.7837,0.7422,7.0605,-0.39,-2.9282,1.0211
613601.0,-1.5155,0.6871,6.7133,-0.5869,-2.8681,0.9823
613611.0,-0.7542,0.2682,6.5529,-0.646,-2.7196,0.97
613621.0,-0.2203,-0.1604,6.5242,-0.6609,-2.5717,0.9429
613631.0,0.182,-0.5794,6.5098,-0.6598,-2.5068,0.8865
613641.0,0.6632,-0.7709,6.4476,-0.5342,-2.4504,0.8189
613651.0,1.0199,-0.735,5.8538,-0.2549,-2.3386,0.77
613661.0,1.257,-0.4956,5.5067,0.075,-2.1481,0.7215
613671.0,1.8483,0.3376,4.7573,0.3634,-1.9332,0.6816
613681.0,2.162,0.9361,4.4388,0.3586,-1.7874,0.6572
613691.0,2.4301,1.2402,3.6536,0.1282,-1.773,0.647
613701.0,2.794,1.063,2.8778,-0.182,-1.7698,0.6444
613711.0,2.9951,0.7542,1.5347,-0.4124,-1.6932,0.6524
613721.0,3.3351,-0.079,-0.0048,-0.6279,-1.5351,0.6582
613731.0,3.79,-1.1229,-1.6161,-0.7764,-1.2052,0.638
613741.0,4.1683,-2.3463,-2.5642,-0.861,-0.7066,0.5667
613751.0,4.3359,-3.4716,-2.9209,-0.8439,-0.1149,0.4188
613761.0,4.2713,-4.1228,-2.7318,-0.5997,0.6013,0.2102
613771.0,3.9959,-4.1683,-2.1859,-0.1735,1.3388,-0.0335
613781.0,3.3686,-3.6799,-1.889,0.29,1.9997,-0.2767
613791.0,2.5594,-3.0622,-1.9489,0.6045,2.5499,-0.4938
613801.0,1.9561,-2.6743,-2.4565,0.6577,2.9937,-0.6933
613811.0,0.6991,-2.6264,-2.2027,0.5071,3.4587,-0.8966
613821.0,-0.9122,-2.4086,-1.5778,0.4736,3.9946,-1.0924
613831.0,-2.5929,-1.8124,-0.0168,0.6327,4.6363,-1.2723
613841.0,-4.1515,-1.0199,2.569,0.9823,5.2823,-1.4
613851.0,-5.0254,0.1963,5.2577,1.3255,5.7287,-1.4995
613861.0,-5.6503,1.4796,8.3103,1.4144,5.8516,-1.591
613871.0,-6.1268,3.0478,10.422,1.2898,5.6622,-1.6575
613881.0,-6.9935,4.9704,11.2408,0.9445,5.2833,-1.6692
613891.0,-8.4898,6.1962,13.2016,0.4534,4.9619,-1.5655
613901.0,-9.1985,6.5457,16.3285,0.4353,4.9486,-1.2824
613911.0,-10.1179,6.7516,19.9078,0.7678,4.929,-0.9461
613921.0,-10.5824,6.6822,23.4847,1.0073,4.4921,-0.6481
613931.0,-10.4411,6.438,25.946,1.1605,3.7216,-0.3975
613941.0,-10.3956,6.3542,27.0353,1.2377,2.7771,-0.216
613951.0,-10.5848,6.2537,26.7217,1.2068,1.7757,-0.0878
613961.0,-10.5225,5.8059,25.2038,1.0477,0.803,0.0016
613971.0,-10.1131,4.944,23.3913,0.7966,-0.0367,0.0357
613981.0,-9.7013,4.0677,21.0259,0.5859,-0.6556,0.0106
613991.0,-9.2296,3.1699,19.0578,0.3757,-1.0658,-0.0766
614001.0,-8.8107,2.5881,17.3795,0.1602,-1.35,-0.2315
614011.0,-8.4084,2.2601,16.6708,-0.0452,-1.5266,-0.4204
614021.0,-8.1163,2.2553,16.599,-0.1309,-1.6378,-0.6013
614031.0,-7.8961,2.557,16.429,-0.1373,-1.8113,-0.7577
614041.0,-7.5944,3.1508,15.9981,-0.1527,-2.0806,-0.8833
614051.0,-7.0126,3.9193,15.1816,-0.2144,-2.3732,-0.97
614061.0,-6.6942,4.5873,14.382,-0.3895,-2.659,-1.0169
614071.0,-6.3327,5.1882,13.465,-0.6119,-2.9623,-1.0206
614081.0,-6.031,5.5952,12.8688,-0.7545,-3.1794,-0.9684
614091.0,-5.8179,5.8059,12.0979,-0.7646,-3.3241,-0.8423
614101.0,-5.3582,5.4995,11.4371,-0.729,-3.4577,-0.6768
614111.0,-4.7118,5.0805,10.5369,-0.6188,-3.5668,-0.5023
614121.0,-3.9983,4.6352,9.8067,-0.4523,-3.5981,-0.339
614131.0,-3.3782,4.4748,8.9112,-0.1942,-3.5327,-0.1804
614141.0,-2.7797,4.4149,7.7045,-0.0772,-3.5088,-0.041
614151.0,-1.9321,4.1755,6.1339,-0.2277,-3.537,0.0585
614161.0,-1.3791,3.7469,5.0135,-0.5571,-3.4864,0.1059
614171.0,-0.972,3.2609,4.2713,-0.8753,-3.3619,0.1282
614181.0,-0.6991,2.6264,4.2138,-1.0201,-3.1203,0.1469
614191.0,-0.1125,2.0782,4.2832,-0.9094,-2.7867,0.1804
614201.0,0.2658,1.4988,4.6998,-0.7279,-2.4961,0.2049
614211.0,0.6967,1.0439,4.9967,-0.5092,-2.2732,0.2097
614221.0,1.2043,0.6273,5.794,-0.2357,-2.0508,0.1979
614231.0,1.8699,0.4956,5.964,0.1293,-1.88,0.1846
614241.0,2.3559,0.4286,5.7365,0.3922,-1.8092,0.1421
614251.0,2.7174,0.7518,4.9704,0.5289,-1.7432,0.0756
614261.0,2.7821,1.1157,4.5346,0.5103,-1.6272,0.0085
614271.0,2.8012,1.391,4.1803,0.4076,-1.5075,-0.041
614281.0,2.9257,1.4461,4.0965,0.2799,-1.3697,-0.0718
614291.0,3.201,1.3838,4.1539,0.199,-1.1722,-0.0862
614301.0,3.4069,1.0678,4.4149,0.0984,-1.0052,-0.1016
614311.0,3.7397,0.4453,4.537,-0.0708,-0.944,-0.1447
614321.0,4.1587,-0.103,4.4436,-0.2107,-0.9014,-0.2331
614331.0,4.3,-0.395,4.0438,-0.2799,-0.8258,-0.3523
614341.0,4.4053,-0.419,3.5219,-0.2783,-0.7189,-0.4826
614351.0,4.5801,-0.2131,2.7294,-0.1713,-0.5188,-0.5981
614361.0,4.6974,0.0383,1.4222,-0.0899,-0.2586,-0.6928
614371.0,4.7716,0.1197,-0.7494,-0.3038,-0.0644,-0.7982
614381.0,5.0302,-0.5267,-2.7102,-0.9126,0.1272,-0.9386
614391.0,4.8004,-1.4269,-4.0175,-1.5548,0.513,-1.1089
614401.0,3.8547,-2.32,-4.8267,-1.9699,1.1244,-1.2925
614411.0,3.0215,-2.8347,-4.6471,-2.0673,1.9167,-1.5075
614421.0,1.9249,-2.1739,-4.1468,-1.7943,2.8303,-1.7262
614431.0,0.2274,-0.6608,-3.3351,-1.4069,3.7354,-1.8858
614441.0,-1.5012,1.0894,-1.7765,-1.135,4.4932,-1.9369
614451.0,-2.9185,2.5666,0.5938,-1.027,5.0529,-1.8603
614461.0,-4.6304,3.5865,4.7692,-0.7742,5.5255,-1.6522
614471.0,-6.2201,4.8339,9.2871,0.1171,5.9884,-1.3037
614481.0,-7.2113,6.2082,13.4746,1.4692,6.3114,-0.8684
614491.0,-7.6279,7.9224,16.4075,2.7617,6.3321,-0.4427
614501.0,-7.6782,9.991,17.9661,3.3922,5.9352,-0.0899
614511.0,-7.2927,11.133,19.4409,3.1858,5.1987,0.1942
614521.0,-7.0557,11.631,20.2573,2.5909,4.4112,0.4369
614531.0,-6.8714,11.6406,20.1496,1.8262,3.646,0.6279
614541.0,-6.7924,11.2312,19.0124,0.8471,2.8441,0.7466
614551.0,-6.7493,10.3406,17.6429,-0.2889,2.0699,0.8104
614561.0,-6.9168,9.2296,16.2494,-1.2334,1.4787,0.861
614571.0,-8.3246,8.734,14.7339,-1.8241,1.0946,0.9227
614581.0,-8.5784,7.2832,15.445,-1.9449,1.0222,1.0844
614591.0,-7.6447,5.5402,16.259,-1.4532,1.0988,1.3015
614601.0,-7.1778,4.4724,16.6134,-0.9296,0.9088,1.3718
614611.0,-6.3662,4.4293,15.8927,-0.505,0.58,1.3202
614621.0,-5.9903,4.7836,15.117,-0.2208,0.3842,1.242
614631.0,-5.8849,5.3774,14.3556,-0.1676,0.2081,1.1536
614641.0,-5.7269,5.9113,13.8744,-0.3437,0.0048,1.0722
614651.0,-5.5785,6.4955,13.3118,-0.6199,-0.1894,1.0227
614661.0,-5.6192,7.1275,12.9526,-0.953,-0.3331,1.0068
614671.0,-6.019,7.8841,13.2256,-1.2223,-0.3895,1.0562
614681.0,-6.8546,8.442,13.8002,-1.3691,-0.3911,1.2366
614691.0,-7.3837,7.671,15.1266,-1.4974,-0.4853,1.5426
614701.0,-7.2975,5.9759,16.2255,-1.5171,-0.7854,1.8911
614711.0,-7.1467,3.9289,16.7307,-1.3297,-1.1691,2.2072
614721.0,-6.6535,2.1117,16.2925,-0.8987,-1.5069,2.4514
614731.0,-6.1986,0.7278,15.4761,-0.4417,-1.7767,2.577
614741.0,-5.4827,-0.0886,14.5639,-0.067,-1.9539,2.5877
614751.0,-5.0446,-0.407,13.544,0.0649,-2.1018,2.5009
614761.0,-4.865,-0.6919,12.7731,-0.182,-2.3589,2.3259
614771.0,-4.4915,-0.9194,12.129,-0.5906,-2.6313,2.1013
614781.0,-3.9385,-1.2857,11.3964,-0.961,-2.8266,1.8847
614791.0,-3.0502,-1.9656,10.8457,-1.3276,-3.0016,1.6549
614801.0,-2.6887,-2.4493,10.0772,-1.6437,-3.2033,1.3792
614811.0,-2.3104,-2.818,9.3087,-1.7852,-3.3241,1.1015
614821.0,-1.9345,-2.9305,8.6814,-1.6921,-3.297,0.8594
614831.0,-1.7142,-2.873,8.2504,-1.3936,-3.1581,0.6609
614841.0,-1.1157,-2.7007,7.9487,-1.0126,-3.007,0.5039
614851.0,-0.5315,-2.5043,7.422,-0.6673,-2.9176,0.3719
614861.0,0.261,-2.2362,6.9504,-0.3938,-2.8356,0.2379
614871.0,0.747,-1.6185,6.0741,-0.1671,-2.7079,0.124
614881.0,1.2139,-1.4341,5.375,-0.1394,-2.6356,0.0303
614891.0,1.7909,-1.1588,4.6448,-0.2022,-2.5446,-0.0708
614901.0,2.1691,-1.0511,4.616,-0.2804,-2.3769,-0.1591
614911.0,2.3703,-1.0175,4.4819,-0.2857,-2.2285,-0.223
614921.0,2.7988,-1.0319,4.3,-0.2054,-2.0891,-0.2783
614931.0,3.0813,-1.0223,3.7565,-0.0633,-1.9491,-0.3171
614941.0,3.2058,-1.2737,3.1939,0.0713,-1.7911,-0.3549
614951.0,3.7302,-1.4365,2.5786,0.232,-1.5852,-0.4166
614961.0,4.3407,-1.5107,1.9656,0.3959,-1.351,-0.5013
614971.0,4.7788,-1.336,1.008,0.5688,-1.0823,-0.6024
614981.0,5.0733,-1.0271,-0.6967,0.6242,-0.8083,-0.7125
614991.0,5.4396,-0.9146,-3.2178,0.3762,-0.5406,-0.8301
615001.0,5.5138,-1.5083,-5.284,-0.257,-0.2267,-0.9935
615011.0,5.284,-2.047,-6.5386,-0.8679,0.3092,-1.2079
615021.0,4.5633,-2.162,-7.0653,-1.1627,1.1057,-1.4255
615031.0,3.2178,-1.7933,-6.8354,-1.1717,2.0082,-1.6208
615041.0,1.5969,-0.972,-6.1076,-0.8759,2.9298,-1.7501
615051.0,-0.237,0.4429,-6.1411,-0.3214,3.8445,-1.7868
615061.0,-2.7892,1.7861,-5.7652,0.1612,4.7337,-1.7437
615071.0,-5.1499,2.8778,-4.6759,0.5986,5.6505,-1.6134
615081.0,-7.106,3.3495,-2.1308,0.9323,6.5178,-1.4346
615091.0,-8.7843,3.5027,1.6879,1.1286,7.1548,-1.2771
615101.0,-9.7133,3.9241,6.4524,1.4239,7.6369,-1.1456
615111.0,-10.8194,4.8914,11.7316,1.7256,7.8247,-1.0472
615121.0,-11.6095,6.0286,16.9533,1.9385,7.5863,-0.936
615131.0,-12.0141,7.082,21.6532,2.1646,7.0271,-0.7726
615141.0,-11.9734,7.5274,25.6036,2.3456,6.1693,-0.5619
615151.0,-11.5065,7.6399,27.7895,2.4887,5.0827,-0.3539
615161.0,-11.0971,7.8721,28.6538,2.4898,3.8871,-0.2065
615171.0,-10.4459,8.3246,27.7464,2.2407,2.5898,-0.1256
615181.0,-10.1466,8.6431,25.9077,1.6857,1.3681,-0.0984
615191.0,-9.9599,8.5545,23.7912,0.9993,0.3299,-0.0873
615201.0,-9.8043,8.0756,21.6412,0.4076,-0.4523,-0.0686
615211.0,-9.6558,7.3694,19.4768,0.041,-0.9695,-0.0442
615221.0,-9.7636,6.8307,17.5758,-0.1894,-1.317,-0.0436
615231.0,-9.6462,6.098,17.0563,-0.2097,-1.4394,-0.0277
615241.0,-9.1411,5.3463,17.6501,0.1522,-1.3313,0.0165
615251.0,-8.6622,5.2816,18.1648,0.5236,-1.3729,0.0048
615261.0,-8.2337,5.8466,17.9206,0.4347,-1.8624,-0.1027
615271.0,-7.6854,6.5074,17.2454,0.017,-2.56,-0.2426
615281.0,-7.4555,7.3526,15.7826,-0.2847,-3.0639,-0.3118
615291.0,-7.2496,7.8099,13.8696,-0.5598,-3.4396,-0.2895
615301.0,-6.7038,7.604,12.0045,-0.9546,-3.7956,-0.2309
615311.0,-6.4308,7.1563,10.6614,-1.2776,-3.9626,-0.1501
615321.0,-6.1627,6.4979,10.3813,-1.3143,-3.8993,-0.0181
615331.0,-5.6886,5.6024,10.8002,-0.9956,-3.7147,0.1713
615341.0,-5.0781,4.7716,10.6805,-0.5805,-3.678,0.3634
615351.0,-3.9983,3.8523,9.8162,-0.2533,-3.7567,0.5146
615361.0,-2.964,3.0861,8.5066,-0.0963,-3.8461,0.5837
615371.0,-1.992,2.6384,6.8929,-0.1016,-3.8759,0.5747
615381.0,-1.142,2.4972,5.4995,-0.2038,-3.7743,0.5177
615391.0,-0.7853,2.5115,4.5921,-0.3863,-3.5465,0.4502
615401.0,-0.8715,2.4373,4.7429,-0.6428,-3.2688,0.3927
615411.0,-0.8715,1.9489,5.8179,-0.9009,-3.074,0.3533
615421.0,-0.1365,1.2354,6.1818,-1.044,-3.0533,0.3134
615431.0,0.8715,0.3591,5.8107,-1.1637,-3.1741,0.2171
615441.0,1.8627,-0.2466,4.6639,-1.1696,-3.2336,0.0644
615451.0,2.5355,-0.2801,2.964,-1.0711,-3.1182,-0.1187
615461.0,3.0694,0.0048,1.6328,-1.06,-2.8638,-0.3182
615471.0,3.565,0.5339,0.5483,-1.1393,-2.5281,-0.4949
615481.0,3.8738,0.9816,-0.0287,-1.3351,-2.1737,-0.6364
615491.0,4.0294,1.2522,-0.3496,-1.5431,-1.8283,-0.7274
615501.0,4.3239,1.1708,-1.2761,-1.7075,-1.5341,-0.7652
615511.0,4.9273,0.723,-2.9664,-1.8853,-1.2579,-0.779
615521.0,5.2912,0.067,-5.4396,-2.1327,-0.9142,-0.804
615531.0,5.0446,-0.7063,-7.3502,-2.337,-0.3193,-0.8604
615541.0,4.1563,-1.1085,-8.0158,-2.1992,0.6204,-0.9222
615551.0,2.8443,-1.1827,-7.1227,-1.5511,1.8225,-0.9466
615561.0,1.4796,-0.7542,-5.7796,-0.3948,3.1118,-0.928
615571.0,-0.0311,-0.1508,-4.5945,0.796,4.2303,-0.911
615581.0,-1.6257,0.3136,-2.6121,1.6432,5.1333,-0.9397
615591.0,-2.6456,0.893,0.2969,2.055,5.7942,-1.0413
615601.0,-3.3806,1.415,4.0654,2.022,6.065,-1.2106
615611.0,-4.2593,2.2266,7.58,1.914,6.0528,-1.4085
615621.0,-4.9632,3.8475,9.3972,1.8353,5.824,-1.5894
615631.0,-4.9608,5.7988,10.6662,1.5538,5.4307,-1.7368
615641.0,-5.2481,8.4755,11.5113,1.2675,5.1556,-1.781
615651.0,-6.9815,11.7531,12.8138,0.928,5.004,-1.6559
615661.0,-8.5545,13.8169,15.7084,0.5316,4.8422,-1.2866
615671.0,-9.0764,13.8936,20.243,0.3576,4.6022,-0.7098
615681.0,-8.8178,12.9359,23.9827,0.6178,4.1526,-0.0654
615691.0,-8.1451,11.9159,25.5868,0.9009,3.2762,0.4667
615701.0,-7.6591,11.2695,24.9548,1.0318,2.2109,0.861
615711.0,-7.6351,10.7117,23.1064,1.0988,1.2909,1.1669
615721.0,-7.3885,10.319,19.9772,1.144,0.6141,1.4112
615731.0,-7.2233,9.6869,17.0156,0.9509,0.1921,1.5772
615741.0,-6.9192,8.4204,15.6437,0.5374,-0.0037,1.674
615751.0,-6.7612,7.039,15.2008,0.1405,-0.0814,1.6974
615761.0,-6.8283,5.7796,15.8712,-0.1809,-0.1868,1.6511
615771.0,-6.6487,4.8004,17.1736,-0.2682,-0.331,1.5745
615781.0,-6.2034,4.2449,17.9086,-0.1681,-0.5938,1.4793
615791.0,-5.4444,4.3287,17.8272,-0.083,-1.0275,1.3335
615801.0,-5.1356,5.2146,16.7594,-0.1522,-1.5165,1.1616
615811.0,-5.0518,6.1172,15.4234,-0.4895,-2.0337,1.019
615821.0,-4.7285,6.62,14.0564,-0.9498,-2.4765,0.9333
615831.0,-4.5825,6.5793,12.809,-1.392,-2.8133,0.9206
615841.0,-4.2952,6.0837,11.5496,-1.7544,-3.0926,0.9498
615851.0,-3.9073,5.363,10.6518,-1.9443,-3.2448,0.9956
615861.0,-3.5961,4.7429,9.9718,-1.8986,-3.2656,1.0653
615871.0,-3.1029,3.9409,9.4379,-1.6751,-3.24,1.1675
615881.0,-2.6073,3.1747,8.8921,-1.3282,-3.1953,1.2717
615891.0,-2.4421,2.5977,8.2959,-0.8849,-3.1171,1.3675
615901.0,-1.6664,2.1763,8.2289,-0.2815,-2.9123,1.4676
615911.0,-1.0654,2.162,7.6447,0.3214,-2.6669,1.5788
615921.0,-0.6297,1.7382,7.3143,0.5108,-2.6175,1.6442
615931.0,-0.0694,1.1947,6.3063,0.3964,-2.7175,1.6346
615941.0,0.7254,0.4693,5.2481,0.1612,-2.7712,1.55
615951.0,1.0439,0.182,4.604,-0.0245,-2.6494,1.408
615961.0,1.5347,0.1891,4.6304,-0.0809,-2.3418,1.268
615971.0,1.7358,0.0359,4.8411,-0.248,-2.2051,1.1238
615981.0,2.2553,-0.2322,4.6352,-0.4534,-2.2162,0.9647
615991.0,2.8132,-0.2921,4.1635,-0.506,-2.0731,0.8109
616001.0,3.0646,-0.2322,3.4812,-0.6588,-1.9672,0.6455
616011.0,3.5075,-0.4142,2.9473,-0.9679,-1.964,0.455
616021.0,4.0223,-0.2394,2.1572,-1.1494,-1.848,0.2735
616031.0,4.0558,0.0215,1.8699,-1.2052,-1.5756,0.1309
616041.0,4.118,0.0407,1.7789,-1.1552,-1.3383,0.0394
616051.0,4.4149,0.103,1.2929,-0.8982,-1.0536,-0.0085
616061.0,4.64,0.1437,0.747,-0.4943,-0.6513,-0.0186
616071.0,4.6807,0.0958,0.1484,-0.0777,-0.2022,-0.016
616081.0,4.8435,0.0383,-0.328,0.2772,0.2841,-0.033
616091.0,5.0709,0.0886,-0.8428,0.5007,0.8014,-0.0878
616101.0,4.8028,0.2586,-0.9864,0.4911,1.2909,-0.1884
616111.0,4.2952,0.5267,-1.8723,0.215,1.6474,-0.3092
616121.0,3.6703,0.1053,-2.1763,-0.3139,1.9672,-0.4385
616131.0,2.9616,-0.5818,-2.308,-0.6497,2.4791,-0.5428
616141.0,1.6448,-1.2067,-1.3934,-0.7109,3.1602,-0.6412
616151.0,0.3472,-1.6161,0.103,-0.5412,3.8216,-0.7508
616161.0,-0.6512,-1.4174,1.4293,-0.1724,4.4208,-0.8727
616171.0,-2.2769,-1.0678,3.1244,0.1219,4.8742,-1.0014
616181.0,-3.1747,-0.7422,4.7142,0.3879,5.1604,-1.1233
616191.0,-4.2641,0.0215,5.861,0.68,5.4148,-1.2664
616201.0,-5.7772,1.2498,6.8953,0.7843,5.5212,-1.4372
616211.0,-6.4117,2.8084,7.7548,0.8008,5.6234,-1.5841
616221.0,-7.7644,4.6974,8.1451,0.5933,5.7021,-1.6911
616231.0,-9.7133,6.3662,9.9527,0.0809,5.7452,-1.7139
616241.0,-11.2073,7.5681,13.6781,-0.1974,5.9868,-1.5586
616251.0,-12.8688,8.0732,19.4002,-0.1266,6.1635,-1.2435
616261.0,-13.5248,8.1331,25.1415,0.2559,5.8836,-0.8338
616271.0,-13.2088,8.0876,29.5612,0.7987,5.1253,-0.4198
616281.0,-12.3014,8.272,31.8501,1.2308,3.9424,-0.0782
616291.0,-11.5401,8.6742,31.8261,1.4484,2.5616,0.182
616301.0,-11.0061,8.9184,29.578,1.3377,1.1531,0.3757
616311.0,-10.2663,8.3989,26.0705,0.8429,-0.1442,0.497
616321.0,-9.5241,7.4412,22.2924,0.1729,-1.1164,0.5342
616331.0,-9.1842,6.359,18.5622,-0.5507,-1.781,0.5018
616341.0,-8.679,4.6256,16.6996,-1.1946,-2.1306,0.4358
616351.0,-7.8554,2.8611,15.6317,-1.4846,-2.2487,0.3448
616361.0,-7.1539,1.6807,14.7291,-1.5905,-2.3929,0.1724
616371.0,-6.4452,1.3503,13.6302,-1.5947,-2.585,-0.0516
616381.0,-6.0525,1.5155,12.6893,-1.4665,-2.6872,-0.2453
616391.0,-5.6192,1.8172,11.8369,-1.2329,-2.7063,-0.3704
616401.0,-5.3103,2.2218,11.0875,-0.969,-2.684,-0.4406
616411.0,-4.9536,2.4541,10.9678,-0.7593,-2.6254,-0.4746
616421.0,-4.4484,2.8156,11.078,-0.6247,-2.5765,-0.4975
616431.0,-4.2473,3.2968,10.9391,-0.7455,-2.7271,-0.5412
616441.0,-3.9121,3.5003,10.7141,-1.0956,-3.0352,-0.5917
616451.0,-3.5027,3.5027,10.4267,-1.3436,-3.2821,-0.6045
616461.0,-3.2561,3.5099,9.6271,-1.358,-3.4263,-0.555
616471.0,-3.0885,3.4548,8.6622,-1.2462,-3.5109,-0.4576
616481.0,-2.6839,3.0047,8.1116,-1.0041,-3.4662,-0.3033
616491.0,-1.9489,2.4373,7.6614,-0.6183,-3.3507,-0.1155
616501.0,-1.3791,1.7549,7.0054,-0.2538,-3.2853,0.0452
616511.0,-0.6536,1.1229,6.0741,0.0607,-3.2273,0.1591
616521.0,0.1652,0.5507,5.0494,0.3022,-3.1043,0.224
616531.0,0.7685,0.0407,4.221,0.4629,-2.9287,0.2341
616541.0,1.0774,-0.2203,3.4884,0.5795,-2.7058,0.1948
616551.0,1.4437,0.146,3.3088,0.7184,-2.3594,0.1213
616561.0,1.4581,0.8595,4.4293,0.8769,-1.9012,0.0702
616571.0,1.1013,1.5706,6.0454,1.0259,-1.582,0.0894
616581.0,1.2929,1.8699,7.6303,1.1478,-1.4473,0.1628
616591.0,1.834,1.8555,8.2744,1.1095,-1.574,0.232
616601.0,2.49,1.3551,8.0086,0.8375,-1.9092,0.2458
616611.0,2.9449,0.893,6.7038,0.489,-2.2391,0.1862
616621.0,3.3806,0.6823,4.9273,0.1724,-2.3855,0.075
616631.0,3.79,0.4836,3.8523,-0.0947,-2.3195,-0.0569
616641.0,4.0247,0.6225,2.9568,-0.2331,-2.1088,-0.1873
616651.0,4.063,0.8188,2.4229,-0.3129,-1.8464,-0.299
616661.0,4.4221,0.8475,2.0279,-0.3528,-1.5873,-0.3815
616671.0,4.7429,0.7542,1.5945,-0.3182,-1.3053,-0.4432
616681.0,5.0613,0.6704,0.5459,-0.2384,-1.0099,-0.4997
616691.0,5.4277,0.5435,-1.5155,-0.2692,-0.7306,-0.5779
616701.0,6.1579,0.1006,-3.9193,-0.563,-0.4225,-0.7003
616711.0,6.3853,-0.3926,-6.3063,-0.9498,0.0793,-0.8652
616721.0,5.5234,-0.8284,-7.5848,-1.2068,0.887,-1.0445
616731.0,4.0749,-1.0894,-7.8051,-1.1323,1.9736,-1.1887
616741.0,1.9369,-1.2258,-6.4787,-0.7263,3.1895,-1.3074
616751.0,-0.0838,-1.3024,-4.2665,0.0202,4.3798,-1.4042
616761.0,-1.7813,-1.1468,-1.5514,0.9392,5.4297,-1.5181
616771.0,-3.4069,-0.4573,1.2258,1.7677,6.181,-1.7028
616781.0,-4.9321,1.1037,4.2473,2.3104,6.6477,-1.9486
616791.0,-6.3853,3.1173,7.7979,2.4701,6.802,-2.1891
616801.0,-7.3047,5.2361,11.2815,2.4067,6.6014,-2.3525
616811.0,-7.7883,7.9847,13.5727,2.3429,6.2129,-2.4211
616821.0,-9.1866,11.1067,15.2295,2.1258,5.741,-2.3652
616831.0,-10.149,13.2495,17.3604,1.7661,5.2285,-2.1253
616841.0,-9.7947,14.2527,20.5901,1.5,4.7369,-1.7368
616851.0,-9.8402,15.1792,23.5853,1.4372,4.1521,-1.2861
616861.0,-9.4691,15.6581,25.4073,1.2856,3.2092,-0.8157
616871.0,-8.7724,15.1721,25.6946,1.0052,2.0359,-0.3448
616881.0,-7.9918,14.2647,24.1359,0.7886,0.9184,0.0963
616891.0,-7.3454,13.4889,21.2438,0.6103,-0.0021,0.4725
616901.0,-7.0964,12.3876,17.674,0.3613,-0.6619,0.779
616911.0,-6.4811,10.8577,14.5232,-0.0138,-1.0685,0.9961
616921.0,-5.8754,9.1937,12.481,-0.4087,-1.1925,1.1111
616931.0,-5.3893,7.8793,11.3389,-0.7529,-1.1531,1.1302
616941.0,-5.0135,6.8642,10.9176,-1.0956,-1.118,1.0818
616951.0,-4.6831,5.9879,10.9918,-1.3324,-1.0898,1.011
616961.0,-4.3167,5.442,10.9798,-1.4319,-1.0669,0.9312
616971.0,-3.8666,5.1332,11.0253,-1.4633,-1.0717,0.8471
616981.0,-3.4788,5.1499,10.7548,-1.4548,-1.1031,0.7758
616991.0,-3.055,5.2074,10.2975,-1.4617,-1.1504,0.7247
617001.0,-2.6001,5.4971,9.7923,-1.4936,-1.1669,0.6917
617011.0,-2.3679,5.7174,9.414,-1.6219,-1.1706,0.6715
617021.0,-2.2745,5.7676,9.1937,-1.8406,-1.2159,0.6731
617031.0,-2.2889,5.6671,9.3637,-1.9917,-1.2026,0.7109
617041.0,-2.3391,5.5067,10.0317,-1.9805,-1.0962,0.7913
617051.0,-2.3463,5.217,10.908,-1.8682,-1.0477,0.9019
617061.0,-2.0877,4.8267,11.4898,-1.69,-1.1041,1.0211
617071.0,-2.0303,4.6902,11.4994,-1.4734,-1.1967,1.126
617081.0,-2.0566,4.7573,11.8657,-1.259,-1.2755,1.226
617091.0,-1.9585,5.0422,11.9303,-0.9637,-1.3372,1.367
617101.0,-2.1141,5.0206,11.4754,-0.7992,-1.5075,1.5346
617111.0,-2.0375,4.6184,10.3621,-0.8466,-1.8177,1.6841
617121.0,-1.8627,3.9121,9.2967,-0.8908,-1.9922,1.8214
617131.0,-1.5897,3.1244,8.3917,-0.7944,-1.9529,1.9513
617141.0,-1.2091,2.1787,7.9392,-0.7263,-1.8874,2.0364
617151.0,-0.7207,1.3599,7.7333,-0.6407,-1.8076,2.0699
617161.0,-0.2849,0.7422,7.8051,-0.4842,-1.6714,2.0683
617171.0,0.0192,0.2514,7.92,-0.3443,-1.5825,2.0359
617181.0,0.3998,-0.1532,7.7548,-0.3076,-1.6176,1.9603
617191.0,0.826,-0.3759,7.1994,-0.3241,-1.6756,1.8502
617201.0,1.1612,-0.4166,6.7732,-0.3661,-1.6698,1.7193
617211.0,1.5083,-0.2586,6.292,-0.397,-1.616,1.591
617221.0,1.7382,-0.1844,5.8466,-0.489,-1.5889,1.4793
617231.0,1.9585,-0.1365,5.1499,-0.5837,-1.5665,1.3947
617241.0,2.2027,-0.4046,4.4484,-0.638,-1.4553,1.3372
617251.0,2.545,-0.7542,4.0917,-0.622,-1.2324,1.2882
617261.0,2.7749,-0.972,4.1851,-0.5369,-0.9237,1.2292
617271.0,2.9975,-1.2091,5.0709,-0.4438,-0.6306,1.1563
617281.0,3.371,-1.2019,5.7437,-0.2788,-0.4305,1.0685
617291.0,3.4524,-0.9337,5.9304,-0.1362,-0.332,0.9668
617301.0,3.5458,-0.5626,5.5282,-0.1181,-0.3544,0.8642
617311.0,3.8092,-0.4262,4.8602,-0.1453,-0.356,0.7822
617321.0,3.814,-0.2394,3.9456,-0.0772,-0.2171,0.7311
617331.0,3.8307,-0.1101,3.0311,0.0537,0.0372,0.705
617341.0,3.8307,-0.0383,2.1668,0.1639,0.3725,0.6907
617351.0,3.4812,0.0455,1.6712,0.1985,0.7561,0.6662
617361.0,3.1316,-0.0766,1.3791,0.1442,1.1265,0.6375
617371.0,3.0789,-0.3783,1.1923,0.0452,1.4798,0.5954
617381.0,2.5546,-0.7949,0.8452,-0.0357,1.8624,0.5412
617391.0,1.913,-1.4413,0.7542,-0.0543,2.3285,0.4757
617401.0,1.1564,-1.9537,0.9816,0.0106,2.8894,0.3704
617411.0,0.316,-2.1739,1.7502,0.0766,3.4321,0.2166
617421.0,-0.5315,-2.0782,2.6049,0.1245,3.8679,0.0298
617431.0,-2.3272,-1.4581,3.1244,0.1772,4.2026,-0.1474
617441.0,-4.7429,-1.2234,3.9433,0.3113,4.5751,-0.2315
617451.0,-6.6248,-1.7166,5.636,0.6524,5.0881,-0.2251
617461.0,-7.2089,-2.6743,8.3725,1.0871,5.5866,-0.2373
617471.0,-7.1036,-3.5386,11.4539,1.3654,5.7819,-0.3826
617481.0,-7.2951,-3.8355,14.267,1.4447,5.6478,-0.671
617491.0,-7.7812,-3.1101,16.4075,1.351,5.27,-1.0578
617501.0,-8.6646,-1.6257,17.9924,1.0685,4.7204,-1.4527
617511.0,-9.3853,0.0886,19.587,0.7753,4.2042,-1.7379
617521.0,-10.0173,1.8292,21.5454,0.5608,3.8552,-1.8651
617531.0,-10.6662,2.6073,24.6986,0.1357,3.314,-1.8693
617541.0,-10.2496,2.2146,27.7057,-0.3421,2.4158,-1.7922
617551.0,-9.8928,1.7214,29.6785,-0.6114,1.2872,-1.7177
617561.0,-10.1299,1.731,30.0161,-0.5023,0.0447,-1.632
617571.0,-10.2304,2.2913,28.1965,0.1011,-1.0828,-1.466
617581.0,-9.8019,2.964,24.6986,0.9546,-1.9582,-1.2207
617591.0,-9.0884,3.6727,19.6085,1.599,-2.6372,-0.969
617601.0,-8.2791,4.063,15.4211,1.7347,-3.0352,-0.7758
617611.0,-7.4531,4.4269,12.2607,1.6506,-3.073,-0.6114
617621.0,-6.7253,4.2306,10.7164,1.4559,-2.8952,-0.4619
617631.0,-5.8538,3.8427,9.6438,1.2137,-2.7159,-0.3544
617641.0,-4.9728,3.1795,9.4978,0.9307,-2.5515,-0.3038
617651.0,-4.2401,2.5977,9.4954,0.7317,-2.4105,-0.299
617661.0,-3.5745,2.2218,9.4308,0.5896,-2.3503,-0.3469
617671.0,-2.8371,2.2984,8.8394,0.4746,-2.3195,-0.4369
617681.0,-2.4972,2.5139,8.4874,0.2937,-2.2679,-0.5417
617691.0,-2.3008,2.8156,8.6431,0.1309,-2.1662,-0.6247
617701.0,-2.2386,2.885,9.0333,-0.0027,-2.1002,-0.6731
617711.0,-1.8364,2.7102,9.3302,-0.0788,-2.1226,-0.7029
617721.0,-1.494,2.6384,9.086,-0.0686,-2.1636,-0.7333
617731.0,-1.2019,2.5379,8.6,-0.0458,-2.2264,-0.7657
617741.0,-0.9361,2.4445,7.8889,0.0564,-2.2365,-0.7891
617751.0,-0.577,2.49,6.8378,0.2347,-2.1572,-0.8008
617761.0,-0.2203,2.6193,5.8371,0.3826,-1.9944,-0.8179
617771.0,-0.0431,2.9784,5.1308,0.4576,-1.765,-0.8391
617781.0,0.3136,3.5003,5.114,0.4954,-1.4559,-0.8482
617791.0,0.3663,4.027,5.3893,0.4347,-1.1824,-0.8391
617801.0,0.3232,4.2114,5.8945,0.2389,-1.0642,-0.8152
617811.0,0.4405,4.1348,6.3398,0.0915,-0.9849,-0.7716
617821.0,0.5052,3.9672,6.6439,0.0921,-0.8727,-0.7104
617831.0,0.4573,3.8188,6.9647,0.2011,-0.738,-0.6476
617841.0,0.5219,3.8044,7.6136,0.3725,-0.5896,-0.5954
617851.0,0.577,4.0845,8.0421,0.5859,-0.4486,-0.5497
617861.0,0.5243,4.4173,8.5569,0.6529,-0.4055,-0.5119
617871.0,0.6823,4.6256,8.8969,0.5459,-0.4805,-0.4768
617881.0,0.8212,4.7453,9.0501,0.3288,-0.6295,-0.4502
617891.0,0.9266,4.6783,8.8538,0.0803,-0.8088,-0.4209
617901.0,0.8428,4.4556,8.497,-0.1096,-0.9472,-0.3842
617911.0,0.9409,4.0127,8.1594,-0.182,-0.9935,-0.3363
617921.0,1.1205,3.5051,7.8243,-0.1495,-0.9706,-0.2937
617931.0,1.5155,3.0143,7.4364,-0.1213,-0.9663,-0.2889
617941.0,1.8411,2.7485,6.8426,-0.1357,-0.9823,-0.3315
617951.0,2.0997,2.6863,6.0789,-0.1751,-0.9615,-0.3991
617961.0,2.2529,2.5738,5.4468,-0.2022,-0.8679,-0.4603
617971.0,2.4612,2.5235,4.4532,-0.2208,-0.7348,-0.5177
617981.0,2.7054,2.1787,3.3303,-0.3464,-0.6077,-0.5869
617991.0,2.9401,1.6424,1.7454,-0.5832,-0.4475,-0.6854
618001.0,2.8898,0.9098,0.4118,-0.9408,-0.1846,-0.8402
618011.0,2.6312,0.2777,-0.158,-1.2313,0.2661,-1.0413
618021.0,2.2721,0.1053,-0.0742,-1.3521,0.8913,-1.2627
618031.0,1.4341,0.3543,1.0319,-1.4319,1.4936,-1.4889
618041.0,0.9146,0.589,2.7102,-1.4442,1.9662,-1.674
618051.0,0.5435,1.0726,4.4987,-1.3085,2.3349,-1.8134
618061.0,0.0622,1.9345,5.9592,-1.0062,2.6153,-1.9066
618071.0,-0.419,4.3144,6.9719,-0.5949,2.8521,-1.9491
618081.0,-1.3408,5.7748,8.3031,-0.2666,3.0948,-1.8933
618091.0,-2.5331,7.6614,9.3111,-0.0048,3.1714,-1.7272
618101.0,-4.0031,9.5888,10.8745,0.2905,3.3193,-1.4335
618111.0,-4.81,11.0995,12.8449,0.6071,3.4965,-1.0099
618121.0,-4.9823,11.3629,15.7155,0.6896,3.4667,-0.5523
618131.0,-4.8459,11.303,17.9182,0.5066,3.1012,-0.1596
618141.0,-5.0087,10.8026,20.073,0.1277,2.4919,0.1607
618151.0,-5.1811,10.386,21.0331,-0.1256,1.7757,0.4566
618161.0,-5.5498,10.0556,20.5973,-0.1713,1.086,0.7577
618171.0,-5.5641,9.5505,19.1153,-0.0931,0.4959,1.0711
618181.0,-5.2433,8.6694,17.1616,0.0043,0.1123,1.3734
618191.0,-4.7908,7.4819,15.2774,-0.0213,-0.149,1.608
618201.0,-4.2665,6.1196,13.6685,-0.2022,-0.3613,1.7336
618211.0,-3.7996,4.968,12.1242,-0.4337,-0.4911,1.7549
618221.0,-3.4189,4.0701,10.9295,-0.6534,-0.5289,1.6932
618231.0,-3.0095,3.6176,9.7827,-0.8024,-0.4864,1.5804
618241.0,-2.6719,3.6296,8.5712,-0.9206,-0.3922,1.441
618251.0,-2.4062,4.0031,7.4699,-1.0461,-0.2251,1.3101
618261.0,-2.6432,4.537,6.9336,-1.193,0.0388,1.2271
618271.0,-2.7485,4.8219,7.1371,-1.3319,0.331,1.2185
618281.0,-2.9185,4.7262,8.0613,-1.4367,0.5694,1.2696
618291.0,-2.7054,4.2832,9.1291,-1.4415,0.705,1.358
618301.0,-2.5163,3.9049,9.8833,-1.3718,0.7311,1.4404
618311.0,-2.4924,3.7852,10.1778,-1.2866,0.6486,1.5123
618321.0,-2.2841,3.7661,9.7947,-1.1733,0.5358,1.5873
618331.0,-2.2865,3.9337,8.8753,-1.085,0.4741,1.666
618341.0,-2.6504,3.9313,7.9918,-1.1228,0.4757,1.7491
618351.0,-2.976,3.5434,7.92,-1.2153,0.5944,1.8454
618361.0,-3.6559,2.8754,8.8873,-1.2909,0.7551,1.947
618371.0,-4.0342,1.7741,10.5728,-1.2404,0.862,2.0609
618381.0,-3.383,0.5171,12.6079,-0.9535,0.9376,2.1577
618391.0,-2.7988,-0.2251,14.1737,-0.5784,0.8849,2.1726
618401.0,-2.7581,-0.3041,15.0523,-0.339,0.6194,2.0848
618411.0,-3.0167,0.3519,15.3708,-0.2224,0.2607,1.9576
618421.0,-3.2394,1.2139,15.0332,-0.2277,-0.1256,1.8656
618431.0,-3.6751,1.8699,14.1545,-0.4347,-0.5635,1.823
618441.0,-4.2545,1.913,13.3429,-0.7822,-0.9679,1.8305
618451.0,-3.9145,1.1779,13.3788,-1.0115,-1.202,1.8853
618461.0,-3.4022,0.5267,13.4123,-1.0339,-1.3388,1.9332
618471.0,-3.395,-0.0215,13.4171,-1.0701,-1.6022,1.9342
618481.0,-3.2034,-0.3687,12.9167,-1.0371,-1.9539,1.9204
618491.0,-3.0215,-0.5315,11.7986,-0.8636,-2.2067,1.922
618501.0,-2.8108,-0.7494,10.2161,-0.7003,-2.4232,1.931
618511.0,-2.2314,-1.0965,8.5018,-0.5608,-2.5781,1.9305
618521.0,-1.7813,-1.3767,6.7301,-0.3932,-2.5738,1.9236
618531.0,-1.3168,-1.8459,5.035,-0.2996,-2.4674,1.9028
618541.0,-0.4597,-2.5283,3.3854,-0.2948,-2.2838,1.8454
618551.0,0.5004,-3.2848,1.9513,-0.3964,-2.0492,1.7251
618561.0,1.1995,-4.0893,0.8571,-0.5906,-1.7741,1.5394
618571.0,1.743,-4.7309,-0.1748,-0.7231,-1.4287,1.3138
618581.0,2.4157,-5.1116,-1.6592,-0.8636,-1.0738,1.0504
618591.0,2.9233,-5.8419,-2.7892,-1.0983,-0.7226,0.7583
618601.0,2.9712,-6.2441,-3.5291,-1.1004,-0.1644,0.4464
618611.0,2.4732,-6.0861,-3.7469,-0.8232,0.5571,0.1325
618621.0,1.494,-5.545,-3.6416,-0.3427,1.3005,-0.1405
618631.0,0.5459,-4.8339,-3.4117,0.3709,2.1439,-0.3368
618641.0,-0.4932,-4.0438,-2.8635,1.1435,3.0565,-0.4869
618651.0,-1.9393,-3.1508,-1.7454,1.7118,3.8759,-0.6295
618661.0,-3.2346,-2.3535,0.1796,2.0109,4.5714,-0.7732
618671.0,-4.5705,-1.6161,3.0358,2.0949,5.1493,-0.9126
618681.0,-6.2776,-0.9649,6.5481,1.9662,5.4488,-1.0461
618691.0,-7.4986,-0.5674,10.2927,1.7948,5.5042,-1.1494
618701.0,-8.0828,-0.2849,13.7954,1.7203,5.3908,-1.2297
618711.0,-8.5425,0.3112,17.2287,1.7193,5.1344,-1.3191
618721.0,-8.7963,1.4389,20.1664,1.7416,4.7092,-1.4085
618731.0,-9.2608,2.9305,22.6156,1.6703,4.0733,-1.4649
618741.0,-9.5074,4.3646,24.3251,1.5373,3.2634,-1.4362
618751.0,-9.6654,5.3103,25.0266,1.4287,2.3626,-1.309
618761.0,-9.6893,5.9759,24.5693,1.3846,1.4468,-1.1116
618771.0,-9.675,6.3351,23.0825,1.3872,0.6226,-0.8748
618781.0,-9.5936,6.3446,21.0594,1.3947,-0.0516,-0.6337
618791.0,-9.3158,6.1124,18.9549,1.4074,-0.5401,-0.4097
618801.0,-9.2081,5.7437,16.9055,1.4,-0.8508,-0.2219
618811.0,-8.6095,5.2577,15.2678,1.2946,-1.0695,-0.0931
618821.0,-7.9966,4.6974,13.9893,1.1201,-1.201,-0.0335
618831.0,-7.6399,4.1875,13.0843,0.886,-1.2808,-0.0372
618841.0,-7.2042,3.5338,12.7922,0.6396,-1.3244,-0.0862
618851.0,-6.8331,3.0023,12.7659,0.4225,-1.3521,-0.1809
618861.0,-6.3734,2.6312,12.9742,0.1692,-1.4617,-0.3278
618871.0,-6.1196,2.5019,13.1633,-0.1064,-1.6618,-0.5007
618881.0,-5.9735,2.5426,13.034,-0.3166,-1.897,-0.663
618891.0,-5.8012,2.7198,12.5193,-0.4417,-2.1253,-0.7944
618901.0,-5.6982,2.9161,11.8226,-0.5247,-2.3168,-0.8924
618911.0,-5.3415,3.1268,11.3844,-0.539,-2.4089,-0.9504
618921.0,-4.9823,3.3232,10.8936,-0.5225,-2.4631,-0.9839
618931.0,-4.5035,3.7062,10.3477,-0.5513,-2.5462,-1.0158
618941.0,-3.948,4.1013,9.572,-0.6428,-2.6196,-1.0291
618951.0,-3.5195,4.276,8.7604,-0.8498,-2.684,-1.0179
618961.0,-3.1819,4.1994,8.2313,-1.1398,-2.7377,-0.9919
618971.0,-2.8132,3.9049,7.9703,-1.3611,-2.7367,-0.9472
618981.0,-2.6863,3.5458,7.865,-1.4298,-2.6707,-0.879
618991.0,-2.5905,3.0454,7.9703,-1.3436,-2.5893,-0.7838
619001.0,-2.3727,2.4325,8.0254,-1.1206,-2.511,-0.6721
619011.0,-1.6879,1.6735,8.0589,-0.8179,-2.4536,-0.5731
619021.0,-0.8882,1.1779,7.4101,-0.539,-2.4498,-0.5257
619031.0,-0.0814,0.9218,6.4236,-0.4257,-2.5015,-0.5438
619041.0,0.6919,0.8045,5.1691,-0.4667,-2.5243,-0.605
619051.0,1.1612,0.7638,4.1683,-0.5997,-2.4445,-0.6896
619061.0,1.2905,0.8715,3.4093,-0.7577,-2.2971,-0.7811
619071.0,1.4341,0.9553,2.8228,-0.8977,-2.1258,-0.854
619081.0,1.6113,0.9792,2.5091,-0.9174,-1.8608,-0.8913
619091.0,1.8771,1.0056,2.6312,-0.7599,-1.4793,-0.8908
619101.0,2.2051,1.1396,2.739,-0.513,-1.102,-0.8631
619111.0,2.5307,1.2713,2.6863,-0.3347,-0.8125,-0.8381
619121.0,2.7485,1.5897,2.466,-0.2325,-0.5502,-0.8125
619131.0,2.9664,1.8603,2.4062,-0.2075,-0.2916,-0.7795
619141.0,3.0454,2.1165,2.4493,-0.2011,-0.042,-0.7317
619151.0,2.9113,2.3296,2.4277,-0.1591,0.2081,-0.6646
619161.0,2.6552,2.557,2.1787,-0.0521,0.4762,-0.5789
619171.0,2.3224,2.6312,1.889,0.0692,0.7769,-0.4778
619181.0,1.9369,2.6624,1.7789,0.2357,1.1584,-0.3656
619191.0,1.3647,2.6815,1.9824,0.4097,1.5852,-0.2549
619201.0,0.8045,2.5259,2.6408,0.5571,2.0045,-0.1485
619211.0,0.4693,2.2889,3.5434,0.6859,2.3876,-0.0591
619221.0,0.1987,2.0901,4.5179,0.7258,2.66,-0.0144
619231.0,0.0096,1.9201,5.3917,0.6753,2.808,-0.009
619241.0,-0.3735,1.7071,6.0885,0.6162,2.9149,-0.0309
619251.0,-1.2043,1.8148,6.371,0.6119,3.0325,-0.0772
619261.0,-2.6145,2.2601,6.6702,0.6694,3.206,-0.1203
619271.0,-4.0701,2.6432,7.7572,0.8381,3.5125,-0.1048
619281.0,-4.8507,2.6576,9.7947,1.119,3.8764,-0.033
619291.0,-5.193,2.6217,12.0117,1.2749,4.0276,0.0096
619301.0,-5.3127,2.4421,14.3772,1.1999,3.8594,-0.0165
619311.0,-5.1954,2.3248,16.0076,1.0355,3.4805,-0.1011
619321.0,-5.3846,2.5762,16.8145,0.8647,3.0357,-0.2277
619331.0,-5.4995,3.0454,16.8217,0.6886,2.585,-0.3672
619341.0,-5.9161,4.0342,16.0938,0.431,2.1875,-0.513
619351.0,-7.039,5.023,15.9286,0.033,1.8996,-0.6109
619361.0,-7.9631,5.3223,17.1209,-0.3092,1.7602,-0.5917
619371.0,-8.1523,4.8722,18.9788,-0.4693,1.5958,-0.4826
619381.0,-7.8314,4.1492,20.3531,-0.5172,1.2132,-0.3821
619391.0,-7.5202,3.5865,21.294,-0.5007,0.6577,-0.3363
619401.0,-7.3143,3.4309,21.0857,-0.3129,0.0495,-0.3161
619411.0,-7.6088,3.7637,19.9748,0.0277,-0.4725,-0.2884
619421.0,-7.2425,3.9624,18.6484,0.3847,-0.8604,-0.2379
619431.0,-6.9528,4.3479,16.9031,0.5428,-1.2148,-0.2102
619441.0,-6.6559,4.4628,15.6126,0.4028,-1.5415,-0.2097
619451.0,-6.5673,4.5131,14.6693,0.1096,-1.8017,-0.2309
619461.0,-6.359,4.2641,14.3245,-0.2065,-2.014,-0.2496
619471.0,-6.2513,3.9552,14.3341,-0.3682,-2.1769,-0.2501
619481.0,-6.0549,3.5554,14.3772,-0.357,-2.344,-0.2267
619491.0,-5.5019,3.1891,14.0875,-0.2368,-2.5563,-0.2134
619501.0,-4.7357,3.3543,13.0676,-0.0639,-2.7563,-0.2277
619511.0,-4.2904,3.8451,11.5017,-0.0612,-2.9474,-0.2629
619521.0,-3.9433,4.3383,10.0126,-0.3097,-3.1065,-0.298
619531.0,-3.8068,4.5274,8.9687,-0.7295,-3.2251,-0.3086
619541.0,-3.3351,4.2234,8.7412,-1.0738,-3.24,-0.2714
619551.0,-2.8204,3.9528,8.6024,-1.1664,-3.1725,-0.1868
619561.0,-2.3439,3.3854,8.406,-1.1174,-3.1533,-0.0782
619571.0,-1.719,2.9281,7.7141,-0.92,-3.1363,0.0404
619581.0,-1.2546,2.4086,7.0366,-0.6492,-3.057,0.1634
619591.0,-0.7709,1.8004,6.3183,-0.3459,-2.9367,0.2852
619601.0,-0.0622,1.2474,5.3415,-0.0702,-2.8175,0.3725
619611.0,0.7901,0.814,4.1946,0.0803,-2.7026,0.3964
619621.0,1.7358,0.5171,2.7797,0.0809,-2.5467,0.3592
619631.0,2.3535,0.3974,1.6089,-0.0889,-2.3269,0.2581
619641.0,2.6863,0.3831,1.075,-0.3794,-2.0375,0.1171
619651.0,3.0095,0.4453,0.917,-0.6843,-1.7193,-0.025
619661.0,3.3998,0.3998,1.2809,-0.9158,-1.3963,-0.1399
619671.0,3.5578,0.4094,1.5562,-0.9823,-1.0424,-0.2107
619681.0,3.3303,0.3639,2.2218,-0.9184,-0.6822,-0.2458
619691.0,3.1603,0.3041,3.0454,-0.704,-0.3203,-0.2421
619701.0,3.1196,0.2658,3.9552,-0.3884,-0.0064,-0.2155
619711.0,3.2968,0.182,4.5897,-0.0122,0.2437,-0.1836
619721.0,3.6703,0.2274,4.4987,0.3033,0.406,-0.1772
619731.0,3.7685,0.395,4.0558,0.4789,0.563,-0.2091
619741.0,3.7206,0.6488,3.6559,0.5172,0.7716,-0.2623
619751.0,3.4764,1.0295,3.2705,0.4592,1.0115,-0.3262
619761.0,2.8299,1.4892,2.9784,0.3315,1.2909,-0.3799
619771.0,1.5778,1.9776,3.2753,0.2107,1.6783,-0.3895
619781.0,0.5219,2.1284,4.6878,0.1655,2.1428,-0.3278
619791.0,0.2466,1.7909,6.4141,0.116,2.4509,-0.2405
619801.0,0.3855,1.2617,7.9966,0.0149,2.5217,-0.1942
619811.0,0.4477,0.8499,9.0357,-0.0447,2.4972,-0.2011
619821.0,0.2682,0.6081,9.7444,-0.0293,2.4318,-0.2416
619831.0,-0.0431,0.6201,9.809,0.0697,2.3663,-0.3044
619841.0,-0.4477,0.972,9.5553,0.2171,2.3551,-0.3842
619851.0,-1.1085,1.5969,9.3182,0.3219,2.4036,-0.4581
619861.0,-1.6281,2.3798,9.1794,0.3624,2.4796,-0.4986
619871.0,-2.3008,3.1675,9.0668,0.2661,2.5009,-0.5082
619881.0,-3.1029,3.5769,9.2775,0.0958,2.5052,-0.4624
619891.0,-3.6966,3.5434,9.8785,0.075,2.6191,-0.3459
619901.0,-4.1372,3.3279,10.7045,0.1857,2.7649,-0.2107
619911.0,-4.3503,3.1244,11.6071,0.34,2.8548,-0.1043
619921.0,-4.4843,3.2058,12.3253,0.4927,2.8958,-0.041
619931.0,-4.7142,3.565,12.9598,0.5316,2.8638,-0.0208
619941.0,-4.9344,4.039,13.3932,0.4432,2.7244,-0.0266
619951.0,-5.5785,4.8004,13.4674,0.2756,2.5339,-0.0346
619961.0,-6.8785,5.5881,13.7834,0.1256,2.4153,0.0144
619971.0,-8.2169,5.861,14.9398,0.1383,2.4397,0.1719
619981.0,-8.6862,5.3391,16.9605,0.2948,2.4429,0.4071
619991.0,-8.0613,4.288,18.4928,0.4778,2.2184,0.6178
620001.0,-7.2927,3.2441,19.496,0.5481,1.7852,0.6997
620011.0,-6.8235,2.7054,19.9413,0.5114,1.2664,0.6486
620021.0,-6.5888,2.6839,19.9413,0.3858,0.7024,0.5172
620031.0,-6.6176,3.043,19.3523,0.1767,0.1043,0.3576
620041.0,-6.857,3.4093,18.5335,-0.1022,-0.4768,0.2155
620051.0,-6.7325,3.5482,17.6884,-0.3257,-0.92,0.1224
620061.0,-6.8546,3.4596,17.085,-0.5098,-1.2776,0.0628
620071.0,-6.7924,3.1532,16.7738,-0.654,-1.6368,0.0213
620081.0,-6.3327,2.7605,16.3045,-0.6582,-1.9667,-0.0059
620091.0,-5.9304,2.5666,15.4833,-0.5832,-2.3051,-0.0474
620101.0,-5.4324,2.8084,14.2407,-0.4981,-2.6233,-0.1048
620111.0,-4.9368,3.2992,12.7659,-0.4273,-2.8463,-0.1394
620121.0,-4.7333,3.8188,11.315,-0.456,-3.0187,-0.1447
620131.0,-4.5681,4.221,10.0245,-0.5683,-3.1288,-0.1107
620141.0,-4.1348,4.3144,9.0692,-0.6939,-3.1389,-0.0223
620151.0,-3.7421,3.972,8.442,-0.8524,-3.1448,0.0889
620161.0,-2.9521,3.3327,7.944,-0.9775,-3.1623,0.2022
620171.0,-2.2721,2.5402,7.6255,-0.9695,-3.1134,0.3054
620181.0,-1.5945,1.9489,7.2018,-0.8141,-3.0341,0.3911
620191.0,-0.9361,1.4006,6.6918,-0.5635,-2.9357,0.4603
620201.0,-0.2059,1.0726,6.1794,-0.2182,-2.775,0.5146
620211.0,0.2059,0.996,5.5929,0.1224,-2.5813,0.5566
620221.0,0.668,1.0104,4.9033,0.3374,-2.4211,0.5864
620231.0,1.221,0.9577,4.039,0.3783,-2.2923,0.5976
620241.0,1.8148,0.8475,3.371,0.2687,-2.1556,0.5859
620251.0,2.1883,0.656,2.8946,0.0873,-1.9842,0.5561
620261.0,2.5714,0.3615,2.5211,-0.1176,-1.8108,0.513
620271.0,2.9592,-0.0048,2.4732,-0.2751,-1.6064,0.455
620281.0,3.1891,-0.3017,2.4253,-0.3225,-1.3755,0.3831
620291.0,3.5602,-0.5866,2.2362,-0.2953,-1.1563,0.3022
620301.0,3.9672,-0.7805,1.8268,-0.2139,-0.9264,0.2065
620311.0,4.2784,-0.8811,1.2186,-0.1064,-0.6439,0.0952
620321.0,4.4077,-0.7949,0.6584,0.0229,-0.2815,-0.0309
620331.0,4.3072,-0.4908,0.1197,0.1415,0.141,-0.1655
620341.0,3.7852,-0.0192,-0.1556,0.2501,0.6332,-0.2847
620351.0,2.6767,0.5219,0.1053,0.3778,1.1861,-0.3645
620361.0,1.7502,0.9361,0.8475,0.5396,1.764,-0.3906
620371.0,1.257,1.154,1.9082,0.6651,2.2615,-0.3964
620381.0,1.1995,1.2641,2.9497,0.6854,2.6254,-0.4135
620391.0,0.9313,1.2857,3.9935,0.5678,2.8686,-0.4603
620401.0,0.4022,1.4054,5.1068,0.3709,3.0293,-0.5316
620411.0,-0.2035,1.5179,6.2513,0.2118,3.1501,-0.6045
620421.0,-0.6273,1.7142,7.2329,0.1815,3.2656,-0.6646
620431.0,-1.3192,2.3367,7.9655,0.2538,3.3731,-0.7194
620441.0,-2.3511,3.2633,8.8921,0.3336,3.4742,-0.7396
620451.0,-3.3519,4.1875,10.1035,0.3757,3.5444,-0.6822
620461.0,-3.8714,4.4843,11.6238,0.315,3.4534,-0.5598
620471.0,-3.9672,4.5274,12.6127,0.2416,3.2017,-0.4209
620481.0,-3.8595,4.5059,13.1873,0.2559,2.949,-0.2911
620491.0,-4.0558,4.6088,13.362,0.3693,2.7601,-0.1751
620501.0,-4.2856,4.8794,13.1035,0.4709,2.5573,-0.0793
620511.0,-4.288,5.3175,12.2846,0.4805,2.37,-0.0043
620521.0,-4.889,5.8059,11.3701,0.3363,2.2418,0.0639
620531.0,-6.1339,5.8562,11.1426,0.0681,2.1944,0.1618
620541.0,-7.2018,5.2744,12.2344,-0.0819,2.2844,0.3214
620551.0,-7.4005,4.209,14.1018,0.0639,2.4264,0.5177
620561.0,-7.1347,3.1101,15.5767,0.3576,2.4025,0.6476
620571.0,-6.7612,2.4636,16.3428,0.5981,2.1737,0.654
620581.0,-6.608,2.3152,16.7666,0.7348,1.8619,0.555
620591.0,-6.5122,2.6073,16.7498,0.7998,1.5282,0.4113
620601.0,-6.6248,3.0765,16.4242,0.7726,1.1824,0.2506
620611.0,-6.6008,3.6703,15.5408,0.5885,0.8062,0.0835
620621.0,-6.4811,4.0773,14.5567,0.2299,0.4619,-0.0676
620631.0,-6.3111,4.3503,13.6039,-0.2272,0.1889,-0.2043
620641.0,-6.4117,4.695,12.9718,-0.7045,0.0037,-0.3267
620651.0,-7.1323,5.1451,12.9359,-1.0648,-0.0867,-0.3821
620661.0,-7.4292,5.3008,13.5512,-1.201,-0.0947,-0.3299
620671.0,-7.0629,5.138,14.1833,-1.1526,-0.1352,-0.207
620681.0,-6.4883,4.8411,14.7219,-1.0781,-0.3022,-0.0915
620691.0,-6.0525,4.6663,14.6812,-1.0525,-0.5885,-0.0122
620701.0,-5.7844,4.5825,14.2455,-1.0839,-0.9115,0.041
620711.0,-5.6431,4.5514,13.5871,-1.1339,-1.1898,0.0862
620721.0,-5.6,4.5131,12.8018,-1.2255,-1.4372,0.1373
620731.0,-5.466,4.2258,12.1338,-1.3643,-1.6873,0.1942
620741.0,-5.296,3.8307,11.6286,-1.434,-1.8693,0.2634
620751.0,-5.1643,3.4213,11.5161,-1.3516,-1.9454,0.3469
620761.0,-4.889,3.2178,11.6454,-1.1185,-1.9912,0.447
620771.0,-4.5514,2.9568,11.4395,-0.8386,-2.1141,0.5683
620781.0,-4.0558,2.5786,10.7141,-0.5954,-2.3147,0.6822
620791.0,-3.462,2.1931,9.3733,-0.3789,-2.4834,0.7721
620801.0,-2.909,1.7957,7.8578,-0.2256,-2.5611,0.8296
620811.0,-2.3966,1.5131,6.3734,-0.1437,-2.536,0.8482
620821.0,-1.8148,1.2929,5.0015,-0.1181,-2.3982,0.8434
620831.0,-1.4533,1.0487,4.3455,-0.1261,-2.1311,0.82
620841.0,-1.1995,0.9529,4.2641,-0.1224,-1.7874,0.7886
620851.0,-0.9577,0.7925,4.8076,-0.0968,-1.4394,0.7668
620861.0,-0.5052,0.5555,5.521,-0.0239,-1.1377,0.7588
620871.0,-0.0048,0.3184,6.2465,0.0362,-0.9344,0.7375
620881.0,0.4022,0.2274,6.62,0.0388,-0.8418,0.6854
620891.0,0.6345,0.1484,6.7109,-0.0208,-0.812,0.6157
620901.0,0.7877,0.1413,6.6008,-0.0883,-0.7907,0.5385
620911.0,0.7015,0.2059,6.3997,-0.1197,-0.7173,0.4629
620921.0,0.5578,0.3567,6.4763,-0.0851,-0.5561,0.406
620931.0,0.3424,0.5052,6.8307,-0.0101,-0.3374,0.3762
620941.0,0.4453,0.4597,7.6303,0.0303,-0.1623,0.3613
620951.0,0.7685,0.3112,8.4731,-0.0037,-0.1155,0.323
620961.0,1.1181,0.1437,9.0764,-0.0814,-0.1963,0.2559
620971.0,1.2474,-0.0335,9.2943,-0.149,-0.339,0.1777
620981.0,1.1923,-0.1077,9.019,-0.1426,-0.4752,0.0963
620991.0,0.972,0.012,8.5018,-0.0681,-0.5422,0.0128
621001.0,0.9026,0.2514,7.8913,0.0309,-0.5364,-0.0591
621011.0,0.7063,0.5459,7.4292,0.1458,-0.4268,-0.1059
621021.0,0.4262,0.747,7.4436,0.2123,-0.2772,-0.1394
621031.0,0.51,0.9242,7.6758,0.2538,-0.1272,-0.165
621041.0,0.6584,1.0487,8.2911,0.2395,0.0064,-0.1974
621051.0,0.826,1.0798,8.77,0.1559,0.008,-0.2325
621061.0,0.7805,0.9984,8.995,0.0596,-0.0676,-0.2794
621071.0,0.6943,1.0175,8.849,0.0585,-0.1075,-0.3214
621081.0,0.6105,1.1372,8.6814,0.1421,-0.0889,-0.3544
621091.0,0.7111,1.2761,8.2025,0.2581,-0.0596,-0.3757
621101.0,0.8116,1.403,7.5657,0.364,-0.0021,-0.4001
621111.0,0.8763,1.6376,6.9145,0.4683,0.1458,-0.4289
621121.0,1.2785,1.3934,6.8474,0.5007,0.3661,-0.4853
621131.0,0.0838,2.3367,6.5505,0.4741,0.5396,-0.58
621141.0,0.2107,2.49,6.4835,0.323,0.6236,-0.597
621151.0,0.3974,2.6145,6.1675,0.149,0.7226,-0.613
621161.0,0.0503,2.6671,6.2752,0.0404,0.9046,-0.6215
621171.0,-0.407,2.806,6.1363,0.0665,1.1414,-0.597
621181.0,-0.9361,2.7126,6.1339,0.158,1.4309,-0.5539
621191.0,-1.482,2.6695,6.1387,0.2751,1.7336,-0.5177
621201.0,-1.7502,2.5857,6.2297,0.3491,2.0268,-0.5076
621211.0,-1.9561,2.5522,6.5888,0.3331,2.32,-0.5369
621221.0,-2.2146,2.8036,7.1874,0.2469,2.5882,-0.6018
621231.0,-2.7557,3.2154,8.1906,0.0873,2.8143,-0.6774
621241.0,-3.2705,3.7086,9.1554,-0.1421,2.9197,-0.738
621251.0,-3.735,4.13,9.979,-0.4039,2.9234,-0.7625
621261.0,-4.3838,4.6902,10.398,-0.6939,2.8564,-0.7593
621271.0,-5.9664,5.4133,11.0109,-1.028,2.7989,-0.7061
621281.0,-7.1347,5.4899,12.7132,-1.2835,2.7776,-0.5353
621291.0,-6.9983,4.8602,15.0404,-1.234,2.7947,-0.2634
621301.0,-6.6655,3.9983,17.188,-0.9823,2.6669,-0.0096
621311.0,-6.2944,3.3232,18.4377,-0.7024,2.2758,0.1628
621321.0,-6.0525,2.8635,18.8711,-0.4321,1.7624,0.2634
621331.0,-5.8921,2.5738,18.5694,-0.1751,1.2345,0.3193
621341.0,-5.8562,2.5379,17.6141,0.0431,0.7561,0.3464
621351.0,-6.0358,2.5857,16.3213,0.1591,0.3326,0.3464
621361.0,-6.3398,2.6432,15.0404,0.2049,0.0351,0.3475
621371.0,-6.2249,2.5355,14.3892,0.2783,-0.0282,0.3741
621381.0,-6.1842,2.2577,14.5615,0.2788,-0.0575,0.3927
621391.0,-5.7174,1.7957,14.935,0.1825,-0.2528,0.364
621401.0,-5.4348,1.6448,15.1553,0.1032,-0.4757,0.2788
621411.0,-5.3989,1.8435,15.1936,0.0362,-0.7242,0.1724
621421.0,-5.0542,2.1691,15.3564,-0.0101,-1.0084,0.0702
621431.0,-4.9919,2.7007,15.0739,-0.0037,-1.292,0.0064
621441.0,-5.0063,3.043,14.2311,-0.0394,-1.6256,-0.0255
621451.0,-4.877,3.4309,13.0532,-0.1447,-1.906,-0.0516
621461.0,-5.0302,3.7541,12.0859,-0.3363,-2.0987,-0.0537
621471.0,-4.7908,3.6248,11.7819,-0.5518,-2.2333,-0.016
621481.0,-4.6136,3.3232,11.6646,-0.6109,-2.2796,0.0537
621491.0,-4.2545,2.8946,11.6023,-0.5608,-2.3695,0.1325
621501.0,-4.1324,2.4972,11.2767,-0.3783,-2.4536,0.2144
621511.0,-3.4836,2.2601,10.5465,-0.124,-2.5158,0.282
621521.0,-3.1268,2.4852,10.1107,0.0846,-2.4828,0.3113
621531.0,-2.8802,2.6887,9.6079,0.1123,-2.5499,0.3374
621541.0,-2.5115,2.6097,8.7269,0.0096,-2.7154,0.3448
621551.0,-1.9154,2.7366,7.7835,-0.0841,-2.742,0.3347
621561.0,-1.7478,2.8874,7.1922,-0.1815,-2.6441,0.3352
621571.0,-1.5945,2.7677,6.9384,-0.3198,-2.5701,0.3624
621581.0,-1.1899,2.4086,6.9911,-0.3512,-2.4312,0.4161
621591.0,-0.7446,2.0039,7.1754,-0.2347,-2.2578,0.4805
621601.0,-0.2562,1.573,7.1371,-0.0628,-2.154,0.5348
621611.0,0.1484,1.1827,6.8163,0.1298,-2.0593,0.5688
621621.0,0.6033,0.8906,6.4236,0.2879,-1.9576,0.5763
621631.0,1.0271,0.6632,5.8826,0.3374,-1.9108,0.5412
621641.0,1.5107,0.6393,5.2577,0.3278,-1.8539,0.4736
621651.0,1.8364,0.7159,4.7094,0.2756,-1.7528,0.4017
621661.0,2.2098,0.6345,4.0869,0.1559,-1.6841,0.3283
621671.0,2.8419,0.5555,3.4884,0.0692,-1.5437,0.2522
621681.0,2.4038,0.7997,3.3255,0.0931,-1.259,0.1729
621691.0,2.8276,1.0319,2.7294,0.1197,-1.0419,0.1309
621701.0,3.5985,0.8739,2.1955,0.0873,-0.8184,0.1219
621711.0,3.5099,0.7302,2.0159,0.0819,-0.4677,0.1064
621721.0,3.1915,0.5339,1.7382,0.083,-0.1405,0.0777
621731.0,3.1316,0.2227,1.585,0.1,0.1783,0.0255
621741.0,2.9808,0.1987,1.3695,0.2128,0.6178,-0.0458
621751.0,2.7701,0.2179,1.7573,0.3315,1.1265,-0.1309
621761.0,2.5498,0.4764,2.3032,0.4103,1.6171,-0.2283
621771.0,2.1237,0.9673,3.2465,0.3608,2.022,-0.3368
621781.0,1.7262,1.324,4.3431,0.1559,2.2594,-0.4385
621791.0,1.3479,1.6352,5.2768,-0.1219,2.3887,-0.5209
621801.0,0.8308,1.7645,6.4883,-0.357,2.4796,-0.571
621811.0,0.3496,1.7573,7.3334,-0.4906,2.4685,-0.588
621821.0,0.0048,1.6975,7.5657,-0.4959,2.4195,-0.5976
621831.0,-0.4549,1.8794,7.2951,-0.365,2.4562,-0.6024
621841.0,-0.8404,2.1548,6.9983,-0.2049,2.6047,-0.596
621851.0,-1.3958,2.4373,7.1539,-0.1437,2.8032,-0.5853
621861.0,-1.8028,2.6001,7.5968,-0.2368,2.9096,-0.5747
621871.0,-2.0853,2.6049,8.2073,-0.398,2.9415,-0.5651
621881.0,-2.6312,2.6839,8.5281,-0.5055,2.9309,-0.5486
621891.0,-3.5434,2.7988,8.509,-0.5284,2.9229,-0.5108
621901.0,-4.7118,3.1101,8.7125,-0.34,3.1176,-0.4395
621911.0,-5.7221,3.565,9.3446,-0.0202,3.4678,-0.3278
621921.0,-6.2441,3.8786,10.8098,0.1948,3.7636,-0.2043
621931.0,-6.3997,4.0175,12.6534,0.2357,3.8738,-0.0931
621941.0,-6.6942,4.0582,14.868,0.1469,3.7764,-0.0053
621951.0,-6.9576,3.9217,16.7857,0.0404,3.4678,0.083
621961.0,-7.0461,3.5386,18.0714,-0.0202,3.0027,0.1751
621971.0,-7.0749,3.2154,18.3563,0.0101,2.4621,0.2437
621981.0,-7.3095,3.158,17.7506,0.0952,1.939,0.2794
621991.0,-7.8578,3.2944,16.8911,0.1932,1.5484,0.3134
622001.0,-8.0517,3.2034,16.4027,0.3421,1.3675,0.3815
622011.0,-8.0493,2.9066,16.5607,0.4741,1.2595,0.4491
622021.0,-7.6926,2.5929,17.1329,0.5374,1.0648,0.4789
622031.0,-7.3119,2.32,17.5232,0.5757,0.763,0.4746
622041.0,-7.0006,2.0614,17.4298,0.5779,0.3485,0.4347
622051.0,-6.8115,1.9225,16.7618,0.58,-0.0612,0.3656
622061.0,-6.6535,1.8268,15.8161,0.5561,-0.4374,0.2687
622071.0,-6.3901,1.8124,14.6549,0.497,-0.7625,0.1447
622081.0,-6.1172,1.9609,13.2639,0.4108,-1.0068,-0.0005
622091.0,-5.8873,2.4157,11.7867,0.2645,-1.1414,-0.1602
622101.0,-6.1483,2.9329,11.0133,-0.0101,-1.1765,-0.307
622111.0,-6.1723,3.201,10.975,-0.3006,-1.1994,-0.4033
622121.0,-6.0932,3.3639,11.315,-0.4278,-1.1754,-0.4369
622131.0,-5.8921,3.4022,11.7268,-0.4177,-1.1797,-0.4262
622141.0,-5.5857,3.474,11.7986,-0.3299,-1.2568,-0.3948
622151.0,-5.4229,3.5698,11.6358,-0.2384,-1.3803,-0.3597
622161.0,-5.1619,3.8235,11.1618,-0.1719,-1.5181,-0.3283
622171.0,-4.9991,4.0917,10.7188,-0.1602,-1.6272,-0.2916
622181.0,-4.8123,4.2401,10.1634,-0.2176,-1.7491,-0.2442
622191.0,-4.4891,4.3072,9.8378,-0.2783,-1.8347,-0.1878
622201.0,-4.2018,4.379,9.5792,-0.2682,-1.8369,-0.1144
622211.0,-4.0893,4.446,9.3996,-0.2953,-1.8821,-0.0325
622221.0,-3.7397,4.312,9.2608,-0.3161,-1.9635,0.0686
622231.0,-3.2489,4.1803,9.1099,-0.2533,-1.9832,0.1815
622241.0,-2.818,3.9744,8.8562,-0.1735,-2.0055,0.2948
622251.0,-2.4421,3.6847,8.339,-0.1538,-2.088,0.3927
622261.0,-2.0853,3.4189,7.8266,-0.1783,-2.1588,0.4629
622271.0,-1.9369,3.1723,7.2329,-0.1889,-2.1636,0.5204
622281.0,-1.7957,2.9664,6.845,-0.1612,-2.088,0.58
622291.0,-1.8483,2.6647,6.8761,-0.1256,-1.9656,0.6449
622301.0,-1.4605,2.2913,7.3191,-0.0266,-1.7852,0.713
622311.0,-0.9098,1.8579,8.0613,0.0766,-1.6623,0.7609
622321.0,-0.1963,1.4365,8.1283,0.1048,-1.7336,0.7668
622331.0,0.4597,1.1349,7.8506,0.0883,-1.8198,0.7258
622341.0,0.8715,0.9673,7.2018,0.017,-1.8704,0.6518
622351.0,1.0271,0.8571,6.5146,-0.1602,-1.9262,0.5459
622361.0,1.1995,0.8021,5.9687,-0.3666,-1.9273,0.4278
622371.0,1.2306,0.8092,5.6336,-0.5305,-1.8613,0.3251
622381.0,1.2115,0.6129,5.636,-0.6316,-1.782,0.2464
622391.0,1.4988,0.5602,5.4803,-0.539,-1.6043,0.2022
622401.0,1.8148,0.4884,5.4947,-0.4188,-1.4064,0.1655
622411.0,2.0638,0.4142,5.4396,-0.3315,-1.2771,0.1261
622421.0,2.3535,0.2131,5.2792,-0.2235,-1.1637,0.0889
622431.0,2.5905,0.1676,4.7238,-0.0474,-0.9802,0.05
622441.0,2.5833,0.1245,4.47,0.1293,-0.7402,0.0011
622451.0,2.7246,0.2322,3.9744,0.2905,-0.5055,-0.0734
622461.0,3.4141,0.3639,3.6966,0.4448,-0.1974,-0.165
622471.0,3.8571,0.5938,3.5865,0.5816,0.165,-0.2666
622481.0,3.6488,1.0008,3.2322,0.5928,0.4954,-0.3932
622491.0,3.3208,1.2905,3.0742,0.3624,0.7194,-0.5438
622501.0,2.7749,1.5754,3.2896,0.0851,1.0062,-0.6992
622511.0,1.9968,2.2434,3.4596,-0.1187,1.3143,-0.8264
622521.0,1.166,2.9449,3.8307,-0.3656,1.5745,-0.8982
622531.0,0.6416,3.4093,4.2138,-0.688,1.7443,-0.9019
622541.0,0.4381,3.3543,4.7429,-1.036,1.8044,-0.861
622551.0,0.3879,3.0622,4.7812,-1.1999,1.8709,-0.7902
622561.0,0.1939,2.9257,4.4412,-1.0759,2.0949,-0.7082
622571.0,-0.8236,3.0598,4.312,-0.7391,2.5153,-0.6146
622581.0,-2.083,3.4836,4.6807,-0.2921,3.0203,-0.4943
622591.0,-2.8874,3.8642,5.5809,0.1442,3.479,-0.3565
622601.0,-3.3208,4.1515,6.5673,0.513,3.8227,-0.2166
622611.0,-3.632,4.4173,7.4148,0.737,4.0387,-0.1032
622621.0,-4.4819,4.7477,8.4013,0.7412,4.1696,-0.0271
622631.0,-5.3726,4.8004,9.7133,0.5502,4.142,0.0298
622641.0,-5.9448,4.7501,11.0373,0.4113,4.0802,0.0851
622651.0,-6.4452,4.8602,12.6342,0.4603,4.1186,0.1469
622661.0,-6.7349,5.193,14.1497,0.5938,4.0749,0.2049
622671.0,-6.6104,5.4085,15.1673,0.6513,3.8791,0.2629
622681.0,-8.1403,5.4013,16.7235,0.5513,3.5726,0.3108
622691.0,-9.0214,5.9328,17.7027,0.6279,3.2672,0.3863
622701.0,-9.1219,5.6647,19.3667,0.6524,2.8213,0.5055
622711.0,-8.8538,5.4324,19.9413,0.7306,2.2886,0.6497
622721.0,-8.588,4.4724,20.8152,0.7146,1.7028,0.7423
622731.0,-8.09,3.8571,20.571,0.6662,1.0105,0.7253
622741.0,-7.853,3.5482,19.8623,0.5369,0.3331,0.6024
622751.0,-7.7812,3.6583,18.7035,0.3267,-0.2772,0.4182
622761.0,-7.7093,4.051,17.0778,-0.0239,-0.8519,0.2054
622771.0,-7.695,4.3263,15.8568,-0.4581,-1.2882,0.0011
622781.0,-7.8602,4.7884,14.9949,-0.8093,-1.55,-0.1485
622791.0,-7.853,4.865,14.7938,-1.0898,-1.7911,-0.2288
622801.0,-7.762,4.7597,14.0588,-1.2058,-2.03,-0.2379
622811.0,-7.3765,4.3886,13.702,-1.1946,-2.1822,-0.2139
622821.0,-7.0797,4.2545,13.386,-1.0477,-2.2583,-0.1767
622831.0,-6.3542,4.2521,12.7563,-0.9323,-2.4323,-0.1522
622841.0,-5.8419,4.47,11.7603,-0.8668,-2.5632,-0.1399
622851.0,-5.5498,5.0063,10.7404,-0.9216,-2.6265,-0.132
622861.0,-5.2385,5.466,10.5369,-1.1313,-2.6489,-0.0968
622871.0,-5.0111,5.5905,10.4603,-1.4005,-2.751,-0.0064
622881.0,-4.6663,5.1787,10.5417,-1.607,-2.9005,0.1447
622891.0,-4.6256,4.4604,10.2855,-1.5937,-2.9985,0.3421
622901.0,-4.3527,3.3998,10.0054,-1.4053,-3.0634,0.5529
622911.0,-3.8906,2.411,9.5289,-1.0637,-3.0719,0.7402
622921.0,-3.0957,1.4916,9.4427,-0.6119,-2.9915,0.8918
622931.0,-2.3918,0.905,9.2967,-0.0793,-2.8441,1.0174
622941.0,-1.6065,0.3903,8.7317,0.2677,-2.8553,1.0743
622951.0,-0.9433,0.1389,7.8769,0.406,-2.9373,1.044
622961.0,-0.6177,0.182,6.9097,0.4188,-2.9628,0.9647
622971.0,-0.3232,0.2586,6.1244,0.307,-2.9357,0.8743
622981.0,-0.0287,0.261,5.4636,0.1256,-2.8846,0.7928
622991.0,0.2705,-0.0455,5.1044,-0.0596,-2.8069,0.7226
623001.0,0.7997,-0.3903,4.6136,-0.1783,-2.7026,0.6423
623011.0,1.3647,-0.5602,4.2593,-0.2102,-2.5164,0.5449
623021.0,1.7406,-0.6536,4.2832,-0.1666,-2.2546,0.4581
623031.0,2.4948,-0.8715,4.2737,-0.0931,-2.0603,0.3735
623041.0,2.5666,-0.7446,4.2665,0.0883,-1.814,0.2794
623051.0,2.8252,-0.5986,4.0797,0.3336,-1.5304,0.2176
623061.0,2.7821,-0.4046,4.3,0.5619,-1.2271,0.1628
623071.0,2.794,-0.2083,4.3096,0.7843,-0.9796,0.1282
623081.0,2.8228,-0.0144,3.8954,0.9381,-0.7779,0.099
623091.0,3.201,0.0862,3.5147,0.9817,-0.5779,0.0532
623101.0,3.7852,0.0,3.0191,0.9158,-0.364,-0.0074
623111.0,4.0342,0.0718,2.5379,0.7944,-0.0596,-0.1091
623121.0,3.6583,0.2993,2.6671,0.5098,0.2368,-0.2496
623131.0,3.3567,0.4812,2.9521,0.1101,0.3943,-0.3991
623141.0,3.3375,0.5962,2.9113,-0.2432,0.4906,-0.5332
623151.0,3.1651,0.6728,2.6145,-0.4422,0.6848,-0.6353
623161.0,2.8539,0.7494,2.3248,-0.5082,1.003,-0.705
623171.0,2.1835,0.838,2.2386,-0.5172,1.3979,-0.7636
623181.0,1.6664,0.8882,2.8276,-0.4656,1.8608,-0.8136
623191.0,1.1756,1.1085,4.051,-0.2889,2.402,-0.8508
623201.0,0.8212,1.3838,5.4803,-0.0846,2.8181,-0.8753
623211.0,0.6823,1.6472,6.7684,0.0814,3.0628,-0.8987
623221.0,0.1077,1.8818,7.9009,0.2059,3.2134,-0.9195
623231.0,-0.4741,1.9082,8.3366,0.2426,3.19,-0.9477
623241.0,-1.2857,1.9465,7.9559,0.1958,3.1469,-0.9951
623251.0,-2.1596,1.8196,7.7955,0.0537,3.1879,-1.0562
623261.0,-2.9113,1.6161,8.1403,-0.1144,3.3177,-1.1286
623271.0,-3.2681,1.4078,9.2871,-0.1506,3.571,-1.2026
623281.0,-3.7062,1.5012,10.9463,-0.0702,3.8498,-1.2882
623291.0,-4.2521,1.8435,12.7707,-0.0702,3.9169,-1.3947
623301.0,-4.7333,2.1811,14.5184,-0.2097,3.7067,-1.516
623311.0,-5.0159,2.6647,15.7275,-0.3065,3.3858,-1.6102
623321.0,-5.2433,3.2202,16.6253,-0.2927,3.0421,-1.6613
623331.0,-5.4731,3.9552,16.7546,-0.2043,2.668,-1.6607
623341.0,-5.7102,4.7525,16.4817,-0.1165,2.2977,-1.615
623351.0,-6.6918,6.0166,15.7131,-0.0676,1.9795,-1.5133
623361.0,-7.4196,6.9288,16.0819,-0.0617,1.8081,-1.2936
623371.0,-7.4627,7.0533,17.2766,0.0208,1.6618,-0.9514
623381.0,-6.9145,6.5984,18.3324,0.2086,1.3755,-0.5805
623391.0,-6.4596,6.0693,18.6532,0.4438,0.9796,-0.2655
623401.0,-6.031,5.6072,18.0858,0.6066,0.4917,-0.0309
623411.0,-5.7245,5.3941,17.006,0.6742,0.0447,0.1117
623421.0,-5.7652,5.6431,15.9238,0.6556,-0.2522,0.1921
623431.0,-5.8227,5.7676,15.3851,0.4422,-0.5225,0.2559
623441.0,-5.6886,5.4971,14.7507,0.0639,-0.8977,0.3198
623451.0,-5.3774,4.6878,14.2072,-0.2895,-1.2467,0.3863
623461.0,-5.0757,3.8235,13.5272,-0.4832,-1.5101,0.4299
623471.0,-4.7118,3.0382,12.7036,-0.5646,-1.748,0.4284
623481.0,-4.2713,2.5307,11.734,-0.5279,-1.931,0.3922
623491.0,-3.9241,2.2577,10.659,-0.39,-2.0156,0.3421
623501.0,-3.5195,2.1883,9.5289,-0.2118,-2.0337,0.2847
623511.0,-2.976,2.2697,8.1235,-0.0756,-2.0156,0.2235
623521.0,-2.4756,2.5666,6.8498,-0.0357,-1.9082,0.1634
623531.0,-2.0279,2.7916,6.0071,-0.107,-1.7262,0.116
623541.0,-1.7549,2.9233,5.4564,-0.2437,-1.5117,0.0798
623551.0,-1.5778,2.9808,5.454,-0.4103,-1.2616,0.0506
623561.0,-1.3336,2.9233,5.7006,-0.5853,-1.0531,0.0303
623571.0,-1.0798,2.6983,6.1244,-0.7343,-0.9094,0.016
623581.0,-0.8859,2.6073,6.3159,-0.7599,-0.7492,0.0074
623591.0,-0.8547,2.6049,6.62,-0.7072,-0.5816,0.0122
623601.0,-0.8356,2.5953,6.8546,-0.6316,-0.4534,0.0388
623611.0,-0.6991,2.5043,7.1084,-0.4874,-0.3214,0.083
623621.0,-0.6895,2.5474,7.2784,-0.282,-0.1612,0.1336
623631.0,-0.7661,2.6456,7.4172,-0.1256,-0.0431,0.1868
623641.0,-0.7207,2.5809,7.4771,-0.0319,0.0415,0.241
623651.0,-0.759,2.5498,7.5729,0.0293,0.1373,0.2873
623661.0,-0.7661,2.4421,7.7069,0.0314,0.2065,0.3193
623671.0,-0.8547,2.296,7.8793,-0.008,0.2719,0.3363
623681.0,-0.8691,2.1859,8.1403,-0.0521,0.3235,0.3427
623691.0,-0.9577,2.1284,8.3342,-0.0649,0.3895,0.339
623701.0,-1.0415,2.1859,8.5688,-0.0575,0.4709,0.3358
623711.0,-1.1205,2.138,8.8394,-0.0708,0.5247,0.3368
623721.0,-1.2258,2.059,9.0836,-0.1123,0.5518,0.3326
623731.0,-1.3719,1.9728,9.2368,-0.1676,0.5603,0.323
623741.0,-1.5155,1.901,9.4882,-0.2166,0.5757,0.307
623751.0,-1.719,1.8196,9.9,-0.2421,0.605,0.2948
623761.0,-1.8818,1.7262,10.3501,-0.2224,0.6258,0.2863
623771.0,-1.8268,1.6735,10.8242,-0.1825,0.6337,0.2692
623781.0,-1.7262,1.6975,11.3677,-0.1495,0.6247,0.2363
623791.0,-1.7693,1.8531,11.8585,-0.1836,0.539,0.1884
623801.0,-1.8699,1.9728,12.1554,-0.3065,0.3496,0.1426
623811.0,-1.9656,1.9632,12.3589,-0.4401,0.1059,0.116
