time_ms,ax,ay,az,gx,gy,gz
444781.0,0.4262,1.0942,10.6183,-0.0367,0.0112,-0.0484
444791.0,0.4669,1.1372,10.5896,-0.0133,0.0176,-0.0564
444801.0,0.4741,1.1875,10.5536,0.0064,0.0202,-0.0596
444811.0,0.5124,1.2115,10.5225,0.008,0.0096,-0.0607
444821.0,0.565,1.2929,10.4148,0.0043,0.0085,-0.0617
444831.0,0.6584,1.2474,10.4172,-0.0388,-0.0112,-0.0644
444841.0,0.6464,1.2139,10.3549,-0.0931,-0.0426,-0.0697
444851.0,0.6297,1.2498,10.3813,-0.1245,-0.0564,-0.0734
444861.0,0.5986,1.3072,10.2592,-0.1165,-0.0575,-0.0676
444871.0,0.6129,1.391,10.1059,-0.0947,-0.0468,-0.05
444881.0,0.6177,1.3575,10.0556,-0.0756,-0.0287,-0.0239
444891.0,0.6608,1.3312,9.9838,-0.0521,-0.0043,0.008
444901.0,0.7901,1.1923,9.9551,-0.0442,0.0101,0.033
444911.0,0.9242,1.0295,9.8689,-0.0303,0.0208,0.05
444921.0,1.0199,0.8188,9.8665,-0.0192,0.0234,0.0532
444931.0,1.1588,0.6728,9.7971,-0.0144,0.0048,0.0415
444941.0,1.2354,0.5842,9.5672,-0.0032,-0.0064,0.0218
444951.0,1.2785,0.5818,9.2751,0.0239,0.0165,-0.0043
444961.0,1.2426,0.6871,9.0453,0.0335,0.0724,-0.0319
444971.0,1.2354,0.7302,9.0501,0.0234,0.1612,-0.0506
444981.0,1.233,0.7709,9.1506,0.0032,0.2719,-0.0633
444991.0,1.2186,0.6416,9.6893,-0.0681,0.357,-0.0873
445001.0,1.2378,0.6393,10.2137,-0.1235,0.3954,-0.1213
445011.0,1.1803,0.7063,10.6638,-0.1495,0.4097,-0.1559
445021.0,0.905,0.8595,11.0421,-0.1309,0.4305,-0.174
445031.0,0.6009,1.0343,11.4156,-0.0724,0.4491,-0.1703
445041.0,0.2993,1.3934,11.6885,0.0548,0.4848,-0.1453
445051.0,0.079,1.719,11.892,0.1681,0.5263,-0.1032
445061.0,-0.1149,1.9489,12.2607,0.2038,0.5422,-0.0521
445071.0,-0.2466,2.0303,12.7874,0.1644,0.514,-0.0032
445081.0,-0.2251,1.8675,13.3405,0.0857,0.4145,0.0357
445091.0,-0.2969,1.6975,13.7044,0.0154,0.2629,0.0559
445101.0,-0.3424,1.561,13.8217,-0.0383,0.0788,0.058
445111.0,-0.4357,1.4988,13.5464,-0.0857,-0.1128,0.0463
445121.0,-0.4022,1.4724,13.1753,-0.1266,-0.2645,0.0197
445131.0,-0.3472,1.6759,12.7276,-0.1687,-0.3469,-0.0245
445141.0,-0.3735,1.9609,12.4929,-0.2746,-0.3986,-0.0708
445151.0,-0.5746,2.1237,12.5648,-0.447,-0.4704,-0.1038
445161.0,-0.6919,2.2266,12.8138,-0.5773,-0.5321,-0.1032
445171.0,-0.668,2.2194,13.0723,-0.6194,-0.6061,-0.0697
445181.0,-0.5315,2.0423,13.1633,-0.589,-0.7178,-0.0144
445191.0,-0.3208,1.8747,12.73,-0.5055,-0.828,0.049
445201.0,-0.1556,1.5706,12.39,-0.472,-0.9307,0.0963
445211.0,0.1796,1.3551,11.9495,-0.4459,-1.0195,0.1277
445221.0,0.3496,1.2091,11.5616,-0.448,-1.0892,0.1399
445231.0,0.5555,1.0487,11.1618,-0.4768,-1.1717,0.1458
445241.0,0.6823,0.8021,10.7428,-0.4789,-1.2239,0.1548
445251.0,0.8715,0.5555,10.228,-0.4651,-1.2648,0.1586
445261.0,1.0918,0.182,9.7851,-0.4401,-1.292,0.1602
445271.0,1.3096,-0.1891,9.3134,-0.4012,-1.2994,0.1501
445281.0,1.6281,-0.6057,8.7843,-0.3597,-1.2898,0.1155
445291.0,1.9656,-0.8595,8.169,-0.3539,-1.2691,0.0495
445301.0,2.3463,-0.8571,7.6567,-0.3938,-1.2169,-0.0463
445311.0,2.4828,-0.6512,7.4603,-0.4028,-1.102,-0.1373
445321.0,2.5714,-0.4381,7.4891,-0.3847,-0.9871,-0.1958
445331.0,2.7342,-0.2083,7.4364,-0.3618,-0.9073,-0.2341
445341.0,2.8683,-0.0335,7.4579,-0.3602,-0.8727,-0.2554
445351.0,2.8683,-0.0335,7.4579,-0.3602,-0.8727,-0.2554
445361.0,2.8659,0.0934,7.2999,-0.3395,-0.8769,-0.249
445371.0,2.9257,0.1341,6.8283,-0.2336,-0.8429,-0.2166
445381.0,3.3615,0.2442,6.4763,-0.0947,-0.7652,-0.1809
445391.0,3.371,0.4357,6.3518,0.066,-0.6513,-0.1266
445401.0,3.2681,0.419,6.2489,0.3065,-0.5358,-0.0266
445411.0,3.3112,0.3735,5.454,0.622,-0.4443,0.0883
445421.0,3.4955,0.3974,3.9744,0.9057,-0.2554,0.183
445431.0,3.79,0.4429,3.134,0.9381,0.0793,0.2176
445441.0,4.1061,0.3807,3.2465,0.6944,0.439,0.1756
445451.0,3.6536,0.4741,4.4484,0.3783,0.8881,0.074
445461.0,2.9353,0.9936,6.4763,0.0133,1.2733,-0.0527
445471.0,2.7653,1.4365,8.7388,-0.4954,1.3713,-0.1655
445481.0,2.5929,1.3096,11.0301,-1.0408,1.2148,-0.24
445491.0,1.6903,0.9888,12.7156,-1.3659,0.936,-0.2575
445501.0,0.9697,0.7207,13.386,-1.325,0.6385,-0.2033
445511.0,1.0654,0.6512,14.0372,-1.0115,0.3879,-0.108
445521.0,1.1779,0.8164,13.0795,-0.4166,0.1453,0.0436
445531.0,1.7238,1.1516,11.2575,0.2341,0.0202,0.2001
445541.0,2.466,1.7238,8.4659,0.6619,-0.0048,0.3469
445551.0,2.9042,1.2474,5.2002,0.5337,-0.0793,0.4597
445561.0,4.0151,0.2298,1.992,-0.0862,-0.1245,0.4709
445571.0,4.6831,-1.6568,0.237,-0.8439,-0.0511,0.406
445581.0,5.5952,-3.0502,-1.4605,-1.1632,0.2112,0.2692
445591.0,5.1906,-2.9856,-2.5786,-0.8716,0.7668,0.0937
445601.0,3.5434,-2.1979,-3.5123,0.0239,1.4974,0.0085
445611.0,0.9792,-0.1556,-5.6527,1.4899,2.5925,0.0633
445621.0,-1.9776,1.5227,-7.0916,2.7947,3.9424,0.2384
445631.0,-3.6559,1.8986,-6.3614,3.4385,5.3179,0.3996
445641.0,-5.217,2.0183,-2.5043,3.4758,6.644,0.3986
445651.0,-7.2832,1.9201,5.533,3.1054,7.6715,0.2277
445661.0,-9.8402,3.122,13.5177,2.511,7.8817,-0.0474
445671.0,-11.0588,3.6536,21.5239,1.7448,7.2133,-0.2857
445681.0,-12.2655,4.8291,26.6786,1.5873,6.2938,-0.3613
445691.0,-12.1386,5.387,29.9515,1.8166,5.2961,-0.2655
445701.0,-11.1761,5.6503,31.1174,1.9113,4.0403,-0.1618
445711.0,-10.3956,5.5067,31.0193,1.715,2.5946,-0.1235
445721.0,-9.5984,5.6431,29.5373,1.5415,1.3244,-0.1293
445731.0,-9.0381,6.1627,26.5325,1.4309,0.3283,-0.1383
445741.0,-8.4946,6.2872,22.8622,1.0499,-0.5396,-0.1596
445751.0,-7.4771,5.5833,19.1752,0.3065,-1.3282,-0.2299
445761.0,-6.7038,4.3407,16.3859,-0.4236,-1.7602,-0.348
445771.0,-6.213,3.6607,14.0085,-0.9222,-1.8512,-0.5023
445781.0,-5.8227,2.9209,13.0316,-1.3904,-1.8651,-0.6758
445791.0,-5.4492,2.4277,12.8138,-1.6357,-1.7927,-0.8226
445801.0,-5.363,2.2817,13.0723,-1.6384,-1.6916,-0.9237
445811.0,-5.4133,2.3583,13.3956,-1.5155,-1.7054,-0.9839
445821.0,-4.9153,2.8132,13.2998,-1.2946,-1.8044,-1.0131
445831.0,-4.1132,3.4069,12.9239,-1.0962,-1.9241,-1.0126
445841.0,-3.881,3.9409,12.5432,-1.0483,-2.0848,-0.9919
445851.0,-3.802,4.3024,12.3325,-1.0818,-2.2684,-0.9402
445861.0,-3.5003,4.4676,11.7483,-1.0616,-2.427,-0.8359
445871.0,-3.1699,4.2306,11.0014,-1.0892,-2.602,-0.7066
445881.0,-2.8874,3.6823,10.173,-1.1265,-2.7611,-0.58
445891.0,-2.6647,3.0574,9.3972,-1.052,-2.8245,-0.4645
445901.0,-2.3439,2.909,8.0852,-0.8274,-2.7771,-0.3693
445911.0,-1.8986,2.8132,7.3837,-0.6635,-2.6244,-0.2985
445921.0,-1.3958,2.9185,6.7014,-0.5949,-2.4424,-0.2267
445931.0,-1.0989,2.7677,6.6176,-0.7423,-2.3189,-0.1788
445941.0,-0.5962,2.5642,6.4691,-0.9168,-2.2317,-0.1399
445951.0,-0.3615,2.2146,6.6032,-1.003,-2.0997,-0.0894
445961.0,0.0838,1.8699,6.675,-0.9264,-1.8927,-0.0138
445971.0,0.1389,1.3791,7.0533,-0.8684,-1.7171,0.0484
445981.0,0.565,0.8882,7.3981,-0.7737,-1.5969,0.0905
445991.0,0.9625,0.577,7.8721,-0.5747,-1.3899,0.1064
446001.0,1.087,0.5291,8.4994,-0.3491,-1.2122,0.0899
446011.0,1.0678,0.7997,8.7412,-0.2123,-1.1605,0.0431
446021.0,1.2522,1.1995,8.6048,-0.2368,-1.251,-0.0112
446031.0,1.7095,1.4916,8.0996,-0.3283,-1.3425,-0.0362
446041.0,1.992,1.5203,7.3885,-0.431,-1.3345,-0.0165
446051.0,2.1284,1.2833,6.754,-0.6151,-1.3133,0.0144
446061.0,2.3727,0.9146,6.5817,-0.8035,-1.235,0.0463
446071.0,2.8299,0.4717,6.5769,-0.886,-1.1116,0.0926
446081.0,3.225,-0.1053,6.79,-0.8253,-0.969,0.1501
446091.0,3.4644,-0.5531,6.7086,-0.6178,-0.845,0.207
446101.0,3.5003,-0.893,6.4356,-0.3437,-0.729,0.2543
446111.0,3.6536,-1.1133,5.7485,-0.0718,-0.6609,0.2889
446121.0,4.0438,-1.3623,4.391,0.1346,-0.6146,0.298
446131.0,4.5753,-1.3934,2.4086,0.1479,-0.5449,0.2559
446141.0,5.0518,-1.6305,0.7973,-0.1282,-0.4177,0.1655
446151.0,5.2002,-2.0662,0.1125,-0.4661,-0.1485,0.0612
446161.0,4.9775,-2.3774,0.1389,-0.6204,0.257,-0.0372
446171.0,4.5322,-2.6576,0.6057,-0.5449,0.7279,-0.107
446181.0,3.9313,-2.727,1.4198,-0.3022,1.1717,-0.1655
446191.0,3.1987,-2.636,2.059,0.067,1.5479,-0.2022
446201.0,2.5714,-2.5857,2.1069,0.455,1.8315,-0.2256
446211.0,2.5379,-2.5163,1.664,0.7407,2.0683,-0.2841
446221.0,2.3655,-2.4014,1.4653,0.9014,2.3668,-0.3932
446231.0,1.6472,-1.7717,1.1492,1.0328,2.7505,-0.539
446241.0,0.814,-0.6776,0.7661,1.0339,3.1799,-0.6933
446251.0,-0.158,0.4573,1.0391,0.7955,3.6003,-0.8157
446261.0,-2.1811,1.5969,2.3703,0.5305,4.1303,-0.8519
446271.0,-4.9895,2.6097,5.6958,0.4571,4.7741,-0.7322
446281.0,-6.4165,2.7988,9.6606,0.7141,5.2796,-0.4321
446291.0,-6.4859,1.9992,14.042,1.1621,5.4738,-0.1165
446301.0,-6.778,1.7119,18.0403,1.7804,5.4558,0.0633
446311.0,-7.3167,2.1931,21.385,2.2876,5.0572,0.0803
446321.0,-7.6351,3.5195,23.2597,2.594,4.3947,0.0192
446331.0,-8.1187,5.1332,24.0282,2.5419,3.5955,-0.0452
446341.0,-8.2983,6.098,24.5262,2.0476,2.6393,-0.0745
446351.0,-8.1355,6.4165,24.5837,1.4277,1.6953,-0.0708
446361.0,-8.1139,6.3063,24.0881,0.8477,0.8109,-0.0575
446371.0,-8.1499,5.8514,23.3602,0.4049,0.0383,-0.0346
446381.0,-8.1044,5.1906,22.5677,0.1793,-0.6087,0.0048
446391.0,-7.6375,4.47,21.3946,0.2118,-1.1467,0.0553
446401.0,-7.1084,4.209,19.7019,0.3719,-1.5761,0.0825
446411.0,-6.5769,4.1827,17.5543,0.4321,-1.997,0.0761
446421.0,-6.0789,4.4436,15.2798,0.3682,-2.3142,0.05
446431.0,-5.4851,4.6759,13.2232,0.1894,-2.4887,0.033
446441.0,-4.9153,4.5083,11.813,-0.0447,-2.5318,0.0463
446451.0,-4.3,4.2114,10.7955,-0.2469,-2.4403,0.0718
446461.0,-3.8355,3.7517,10.8721,-0.4768,-2.2998,0.0809
446471.0,-3.3519,3.1963,11.5233,-0.6832,-2.2248,0.0676
446481.0,-2.7821,2.8132,11.8968,-0.8407,-2.2716,0.0208
446491.0,-2.3463,2.7174,11.9997,-1.0264,-2.4291,-0.0628
446501.0,-2.1021,2.5905,11.7795,-1.2808,-2.6728,-0.1474
446511.0,-1.8603,2.3535,11.6693,-1.4553,-2.9144,-0.2054
446521.0,-1.561,2.1883,11.0708,-1.3702,-3.0458,-0.2049
446532.0,-1.1396,1.9321,9.912,-1.1802,-3.1469,-0.1671
446541.0,-0.747,1.5874,8.6024,-0.9876,-3.1852,-0.1181
446551.0,-0.328,1.1301,7.3933,-0.7779,-3.1113,-0.0686
446561.0,0.4405,0.6991,6.5745,-0.4832,-2.8867,-0.0202
446571.0,1.0175,0.4214,5.9927,-0.1905,-2.5829,0.0059
446581.0,1.731,0.17,5.5498,-0.0436,-2.3754,-0.0176
446591.0,2.3391,0.2993,5.0973,0.0857,-2.1295,-0.0798
446601.0,2.5139,0.7925,4.9153,0.1793,-1.8161,-0.1426
446611.0,2.4277,1.1851,5.1404,0.2123,-1.5192,-0.1687
446621.0,2.3128,1.4222,5.5258,0.2331,-1.2547,-0.1564
446631.0,2.3559,1.482,6.213,0.2081,-1.0291,-0.1272
446641.0,2.7629,1.245,7.4603,0.1352,-0.8844,-0.1048
446651.0,3.1532,0.9218,8.1139,0.0346,-0.9301,-0.1197
446661.0,3.3279,0.7829,8.0589,-0.05,-1.069,-0.1756
446671.0,3.225,0.8236,7.4651,-0.0798,-1.1605,-0.2416
446681.0,3.2298,0.9912,6.6774,-0.0559,-1.1675,-0.2959
446691.0,3.462,1.2953,5.6743,0.0085,-1.077,-0.3294
446701.0,3.6727,1.7454,4.7788,-0.0096,-0.8812,-0.3555
446711.0,3.6847,2.0111,4.5346,-0.2788,-0.754,-0.3943
446721.0,3.6344,2.0853,4.4412,-0.638,-0.6976,-0.4326
446731.0,3.7709,1.9848,4.0342,-0.9275,-0.6316,-0.4464
446741.0,4.0103,1.5874,3.4357,-1.1887,-0.5662,-0.4411
446751.0,4.1563,0.929,3.2465,-1.3133,-0.397,-0.4214
446761.0,4.2449,0.644,2.4397,-1.1887,-0.1336,-0.3842
446771.0,4.1803,0.1867,1.8818,-1.003,0.149,-0.3384
446781.0,4.2042,-0.1125,0.9577,-0.6481,0.4997,-0.2953
446791.0,3.9624,-0.0886,-0.4262,-0.2097,0.9855,-0.2661
446801.0,3.5338,0.2059,-1.8651,-0.0144,1.5069,-0.29
446811.0,2.7725,0.4693,-2.727,-0.282,1.98,-0.3586
446821.0,2.4636,0.1245,-2.4181,-0.9237,2.3727,-0.4438
446831.0,1.9369,-0.3496,-0.8715,-1.4894,2.7712,-0.5268
446841.0,1.2761,-0.1413,2.0303,-1.5096,3.3209,-0.5507
446851.0,0.182,0.6081,5.2481,-0.9589,3.8035,-0.4699
446861.0,-0.6464,1.5036,7.3358,-0.0027,4.0414,-0.298
446871.0,-0.7997,2.7126,7.1635,1.0371,4.1483,-0.108
446881.0,-0.8021,3.6919,5.9879,1.5942,4.1952,0.016
446891.0,-2.6264,5.5498,4.5083,1.4718,4.2431,0.0303
446901.0,-3.8547,7.2449,4.944,0.7364,4.3591,0.0458
446911.0,-5.8131,7.8171,8.9184,-0.0484,4.6576,0.2139
446921.0,-7.3957,7.355,13.8241,-0.3102,4.7821,0.5449
446931.0,-7.5776,6.6463,17.8224,0.0208,4.6597,0.9179
446941.0,-7.501,6.438,20.1903,0.5938,4.316,1.2148
446951.0,-7.1371,6.6655,21.2174,1.0318,3.7184,1.4032
446961.0,-7.1012,7.3334,20.8703,1.3255,3.0847,1.5208
446971.0,-7.2856,8.181,19.2637,1.3058,2.4525,1.6022
446981.0,-7.4891,8.3749,17.662,0.8689,1.8581,1.6607
446991.0,-7.6854,7.841,16.0579,0.2623,1.3351,1.7203
447001.0,-8.0948,6.8642,15.1409,-0.1921,1.0546,1.8012
447011.0,-8.3462,5.5067,15.3109,-0.1479,1.1398,1.9502
447021.0,-8.0972,4.0845,15.8376,0.2841,1.3713,2.1183
447031.0,-7.6016,3.0933,16.259,0.6476,1.4633,2.1822
447041.0,-7.0677,2.5043,16.9414,0.7343,1.3548,2.1109
447051.0,-6.7684,2.332,17.2406,0.6646,1.1111,1.9752
447061.0,-6.5817,2.2146,17.516,0.4922,0.8344,1.8204
447071.0,-6.3853,2.2194,17.5208,0.2405,0.5034,1.6644
447081.0,-6.1914,2.2003,17.2646,-0.1112,0.0798,1.5085
447091.0,-5.8442,2.0087,16.7522,-0.4603,-0.3528,1.375
447101.0,-5.3941,1.5658,16.2782,-0.7194,-0.7066,1.2797
447111.0,-5.023,0.9242,15.9406,-0.8705,-1.0217,1.1988
447121.0,-4.8626,0.3879,15.3133,-0.9041,-1.3377,1.1047
447131.0,-4.8459,0.0982,14.4849,-0.8301,-1.616,0.9951
447141.0,-4.3431,-0.0072,13.3525,-0.6284,-1.8124,0.8913
447151.0,-3.6464,0.237,11.7292,-0.3932,-1.9007,0.7838
447161.0,-3.0382,0.8571,10.1873,-0.3358,-1.9007,0.6407
447171.0,-2.9592,1.81,9.3158,-0.5289,-1.8209,0.4848
447181.0,-2.8754,2.411,9.2536,-0.9573,-1.8198,0.3741
447191.0,-2.9066,2.4804,9.3972,-1.3351,-1.8656,0.3368
447201.0,-2.7461,2.0949,9.3589,-1.5006,-1.8635,0.3645
447211.0,-2.4565,1.5227,9.4571,-1.5075,-1.8214,0.4055
447221.0,-2.2625,1.0726,9.8713,-1.3723,-1.7544,0.4289
447231.0,-2.0255,1.0127,10.2185,-1.0467,-1.657,0.4523
447241.0,-1.8268,1.1444,10.2376,-0.6492,-1.6171,0.4911
447251.0,-1.5251,1.4581,9.6031,-0.2985,-1.6219,0.5374
447261.0,-1.257,1.6783,8.9639,-0.1144,-1.591,0.5816
447271.0,-0.8739,1.7142,8.2217,-0.1564,-1.5894,0.6109
447281.0,-0.5171,1.391,7.6806,-0.4204,-1.6198,0.6055
447291.0,-0.3424,0.8859,7.1682,-0.7859,-1.6394,0.5646
447301.0,-0.146,0.1796,7.0581,-1.1691,-1.6299,0.4927
447311.0,0.2394,-0.5483,7.3287,-1.408,-1.5234,0.4023
447321.0,0.4812,-1.1061,7.8673,-1.4904,-1.4101,0.2863
447331.0,0.8667,-1.3934,8.4491,-1.4335,-1.3393,0.1559
447341.0,1.1492,-1.3288,8.5808,-1.2675,-1.3138,0.0346
447351.0,1.2354,-1.324,8.3558,-1.135,-1.3627,-0.066
447361.0,1.4916,-1.3527,7.8171,-1.028,-1.4191,-0.1554
447371.0,1.8531,-1.3551,7.3837,-0.9844,-1.4596,-0.2543
447381.0,2.1596,-1.3886,6.7732,-0.9849,-1.5564,-0.3507
447391.0,2.545,-1.3982,5.4731,-0.9051,-1.6198,-0.4225
447401.0,2.6839,-1.3527,3.9289,-0.7476,-1.5309,-0.4693
447411.0,2.988,-1.4222,2.4636,-0.5662,-1.3431,-0.4879
447421.0,3.4333,-1.4078,0.747,-0.3613,-1.0605,-0.4943
447431.0,3.7804,-1.549,-0.7542,-0.2373,-0.7088,-0.5092
447441.0,4.1827,-1.5897,-2.6193,-0.183,-0.3352,-0.5497
447451.0,4.1587,-1.5275,-4.1396,-0.1703,0.1719,-0.6258
447461.0,3.4357,-1.1325,-5.4396,-0.1719,0.8205,-0.7093
447471.0,2.7509,-0.6943,-6.5888,-0.3076,1.4755,-0.7966
447481.0,1.5778,-0.1125,-7.039,-0.563,2.2056,-0.8748
447491.0,-0.1915,0.3783,-6.1268,-0.7865,3.0852,-0.8849
447501.0,-1.6927,0.6321,-3.1077,-0.7907,3.9754,-0.8184
447511.0,-3.2872,1.0702,0.5243,-0.2272,4.8374,-0.6593
447521.0,-5.1882,1.652,3.5961,0.8647,5.6697,-0.4188
447531.0,-6.1627,2.1859,6.7804,1.9672,6.3438,-0.1788
447541.0,-7.5346,2.4684,11.4922,2.6989,6.7637,-0.042
447551.0,-8.7652,3.158,15.3804,2.8984,6.5322,-0.0271
447561.0,-8.9471,3.4716,19.1704,2.8048,6.0416,-0.0788
447571.0,-9.4643,4.4772,22.9556,2.7814,5.5904,-0.1538
447581.0,-9.6678,5.7557,25.2205,2.4674,4.722,-0.2368
447591.0,-9.4715,6.5745,27.1335,1.7352,3.5694,-0.3145
447601.0,-9.4092,6.7756,28.8358,0.9551,2.3471,-0.3326
447611.0,-9.5864,6.8354,28.6394,0.5023,1.1169,-0.2597
447621.0,-9.4834,6.3901,26.6475,0.2836,-0.0319,-0.1235
447631.0,-8.9735,5.4875,23.4009,0.1,-1.0286,0.0112
447641.0,-8.3031,4.5107,19.2877,-0.0782,-1.7592,0.0846
447651.0,-7.5034,3.3064,15.7179,-0.3342,-2.1758,0.0851
447661.0,-6.4763,2.2146,12.9838,-0.4725,-2.2077,0.033
447671.0,-5.6,1.5347,11.0923,-0.5114,-1.996,-0.0681
447681.0,-4.8985,1.0582,10.0676,-0.605,-1.7501,-0.2134
447691.0,-4.4891,0.7949,10.0293,-0.6486,-1.4734,-0.3544
447701.0,-4.1659,0.6321,10.1969,-0.5593,-1.2382,-0.4624
447711.0,-3.9313,0.5219,10.4148,-0.3943,-1.0669,-0.5465
447721.0,-3.6081,0.7901,10.5608,-0.2182,-0.9184,-0.6231
447731.0,-3.5769,1.0654,11.4922,-0.1309,-0.8051,-0.6928
447741.0,-3.3902,1.3647,12.4259,-0.0633,-0.8253,-0.7482
447751.0,-3.2561,1.7166,12.864,0.0234,-0.9312,-0.7881
447761.0,-3.1795,2.2362,12.7922,0.0362,-1.1153,-0.8274
447771.0,-3.3447,2.7653,12.6773,-0.05,-1.3138,-0.8482
447781.0,-3.9648,3.0837,12.8449,-0.1634,-1.508,-0.8232
447791.0,-4.4245,3.0742,13.1681,-0.1575,-1.6868,-0.7434
447801.0,-4.4436,2.9377,13.3668,0.0889,-1.7985,-0.6151
447811.0,-3.9217,2.66,13.5655,0.4826,-1.8454,-0.473
447821.0,-3.474,2.636,13.5129,0.8179,-1.9662,-0.3741
447831.0,-3.0335,2.9904,13.3668,0.986,-2.1827,-0.3342
447841.0,-2.6312,3.5913,12.5576,1.0679,-2.427,-0.2959
447851.0,-2.4972,4.2928,11.3198,1.0371,-2.6552,-0.2368
447861.0,-2.3415,4.7262,9.9335,0.8498,-2.8314,-0.1564
447871.0,-1.9058,4.8698,8.5114,0.5603,-2.9245,-0.0654
447881.0,-1.4653,4.6926,7.4627,0.157,-2.9649,0.0122
447891.0,-1.0151,4.3383,6.5386,-0.2506,-2.9468,0.0772
447901.0,-0.6393,3.7373,6.5362,-0.5289,-2.7925,0.1442
447911.0,0.1867,3.1029,6.3566,-0.5859,-2.5946,0.2251
447921.0,0.7829,2.3942,6.4212,-0.5507,-2.4147,0.274
447931.0,1.3288,2.0734,6.6439,-0.3805,-2.2131,0.2937
447941.0,1.7119,2.1069,6.7109,-0.166,-2.0247,0.3038
447951.0,2.0111,2.1739,6.6152,-0.0341,-1.9358,0.315
447961.0,2.3942,2.2601,6.0861,0.0,-1.922,0.3171
447971.0,2.7294,2.3104,5.4181,-0.108,-1.9231,0.306
447981.0,3.067,2.1907,4.81,-0.3315,-1.9624,0.2868
447991.0,3.5458,1.8962,4.0893,-0.5321,-2.0023,0.2634
448001.0,4.0199,1.6424,2.988,-0.605,-1.9624,0.2426
448011.0,4.0534,1.4653,1.9321,-0.5843,-1.8039,0.2246
448021.0,3.9887,1.2522,1.2689,-0.4576,-1.5176,0.2363
448031.0,4.1731,0.9146,0.6776,-0.2347,-1.1967,0.2687
448041.0,4.549,0.6369,-0.2562,0.0149,-0.8721,0.2937
448051.0,4.7381,0.4477,-1.7238,0.1815,-0.5438,0.2916
448061.0,4.8171,0.1891,-3.3758,0.1575,-0.1921,0.2448
448071.0,4.853,0.0886,-4.9895,0.0303,0.2666,0.1602
448081.0,5.0111,-0.1101,-6.0693,-0.0793,0.9078,0.058
448091.0,4.9129,-0.0263,-6.6463,-0.158,1.6942,-0.0713
448101.0,4.5107,-0.0575,-6.2489,-0.2735,2.502,-0.2192
448111.0,3.0742,0.1437,-5.3079,-0.3815,3.2778,-0.3778
448121.0,-0.8116,1.3431,-4.3144,-0.5161,3.8967,-0.5114
448131.0,-1.5012,1.9728,-4.0175,-0.6274,4.3378,-0.514
448141.0,-3.122,2.3846,-2.9233,-0.6987,4.9215,-0.4379
448151.0,-5.8969,2.4804,-0.5555,-0.4816,5.6649,-0.2804
448161.0,-8.193,2.4014,2.1237,0.108,6.4295,-0.0697
448171.0,-9.5361,2.1237,5.7748,0.9663,7.225,0.1266
448181.0,-9.6295,1.8364,12.469,2.0039,8.1349,0.1937
448191.0,-10.8218,3.7781,18.6796,2.7468,8.3989,0.0341
448201.0,-11.2001,5.4612,25.187,2.6675,7.5342,-0.1979
448211.0,-11.6622,7.853,28.9363,2.5781,6.3476,-0.3017
448221.0,-11.6023,9.6343,30.4495,2.2881,4.9008,-0.2645
448231.0,-10.7907,10.2568,30.2388,1.8055,3.397,-0.1346
448241.0,-10.6111,10.5489,28.4048,1.1824,2.0353,0.0016
448251.0,-10.1778,9.8234,26.6235,0.4347,0.829,0.1192
448261.0,-9.7779,9.3158,24.1072,-0.1112,-0.0931,0.2102
448271.0,-9.4379,8.6431,21.6412,-0.5933,-0.8604,0.2778
448281.0,-8.7484,7.9296,19.223,-0.8801,-1.4133,0.3576
448291.0,-8.0038,7.3478,16.7546,-0.9131,-1.6857,0.4534
448301.0,-7.3861,6.8067,14.6046,-0.8854,-1.7874,0.531
448311.0,-6.608,6.4955,12.9311,-0.8796,-1.7608,0.5741
448321.0,-6.1172,6.2704,12.0764,-0.9498,-1.6565,0.6018
448331.0,-5.8897,5.7988,12.0764,-1.0828,-1.5931,0.6343
448341.0,-5.5522,5.3726,12.8497,-1.077,-1.5442,0.6753
448351.0,-5.1978,5.5019,13.3165,-0.8594,-1.5325,0.7364
448361.0,-4.9799,5.6288,13.2471,-0.696,-1.6932,0.8338
448371.0,-4.6831,5.5545,12.5624,-0.6694,-1.9529,0.953
448381.0,-4.5179,5.217,11.9471,-0.7136,-2.17,1.0844
448391.0,-4.1061,4.5035,10.963,-0.7742,-2.3918,1.2164
448401.0,-3.6009,3.7134,9.5577,-0.8051,-2.5345,1.3234
448411.0,-3.0287,2.9161,8.6024,-0.8524,-2.544,1.3851
448421.0,-2.5187,2.0159,8.193,-0.8785,-2.4514,1.4165
448431.0,-2.4852,1.2689,8.8609,-0.7758,-2.2897,1.4005
448441.0,-2.3798,1.3001,9.5816,-0.3863,-2.0875,1.3739
448451.0,-1.8938,1.7669,9.7468,0.0495,-1.9779,1.3776
448461.0,-1.4605,2.2098,9.4882,0.2911,-1.9816,1.4112
448471.0,-1.2857,2.4684,8.7005,0.2698,-2.0715,1.4649
448481.0,-0.6871,2.1237,7.3981,-0.0309,-2.2338,1.5064
448491.0,0.0263,1.4341,6.0908,-0.4752,-2.303,1.5069
448501.0,0.7685,0.4741,5.1978,-1.0073,-2.2572,1.458
448511.0,1.2665,-0.8308,5.1092,-1.5261,-2.1737,1.3484
448521.0,1.5682,-2.0399,5.3319,-1.815,-2.0215,1.1685
448531.0,1.889,-2.8874,5.8778,-1.823,-1.8443,0.9243
448541.0,2.7605,-3.1747,6.2513,-1.5075,-1.6442,0.6577
448551.0,3.1508,-2.8108,6.3566,-0.9929,-1.3963,0.4135
448561.0,3.0023,-2.1811,6.189,-0.5273,-1.2036,0.2134
448571.0,2.9951,-1.4605,5.7054,-0.2299,-1.1132,0.0559
448581.0,3.1364,-0.8811,4.9919,-0.1149,-1.0637,-0.0639
448591.0,3.1077,-0.5698,4.3814,-0.1586,-0.9977,-0.1474
448601.0,3.2801,-0.6249,3.8523,-0.2661,-0.8934,-0.2022
448611.0,3.5937,-0.9002,3.4046,-0.3549,-0.7476,-0.2634
448621.0,3.62,-1.1349,3.316,-0.3688,-0.5326,-0.3507
448631.0,3.5913,-1.2139,3.2609,-0.24,-0.2746,-0.4401
448641.0,3.7254,-1.1444,3.0239,-0.025,0.0037,-0.5337
448651.0,3.5243,-0.8188,2.9305,0.1591,0.2985,-0.6465
448661.0,3.3184,-0.3017,2.885,0.2448,0.5231,-0.7668
448671.0,3.3662,0.2897,2.5786,0.2778,0.7306,-0.8732
448681.0,3.1723,1.1205,1.8962,0.2176,0.9301,-0.9466
448691.0,2.9736,1.585,1.0271,-0.1261,1.0014,-0.9823
448701.0,2.9233,1.1923,0.3687,-0.6066,1.027,-0.9653
448711.0,2.7294,0.2274,-0.4884,-0.8125,1.1797,-0.9211
448721.0,2.0351,-0.091,-1.6089,-0.5459,1.6357,-0.9126
448731.0,0.5866,0.5171,-2.4373,0.0218,2.3338,-0.9418
448741.0,-0.8859,1.8651,-2.9664,0.6609,3.1203,-0.9589
448751.0,-2.478,3.4261,-3.9409,1.135,3.8674,-0.9264
448761.0,-4.9919,4.6088,-4.4029,1.2739,4.6102,-0.8338
448771.0,-7.762,5.4444,-4.0127,1.3127,5.5749,-0.6572
448781.0,-9.9718,5.0254,-1.1851,1.1909,6.6551,-0.4353
448791.0,-11.5401,4.1899,3.3639,1.0791,7.6502,-0.2501
448801.0,-12.7539,3.3303,10.5752,1.1169,8.4633,-0.183
448811.0,-13.7092,2.8563,20.4608,1.5405,8.8772,-0.2687
448821.0,-14.8728,5.0542,27.5357,2.1316,8.301,-0.455
448831.0,-13.6877,6.7133,32.1374,2.1582,6.6828,-0.5981
448841.0,-13.5081,8.8849,34.3209,2.0816,5.062,-0.6151
448851.0,-13.3644,10.1754,34.9577,1.8081,3.3874,-0.4757
448861.0,-12.7132,10.0461,34.1413,1.3218,1.5878,-0.248
448871.0,-12.1266,9.2536,31.0815,0.7982,-0.1144,-0.025
448881.0,-11.6167,7.6974,27.3825,0.2586,-1.5719,0.1208
448891.0,-11.1091,6.4931,22.7569,0.0011,-2.6063,0.1963
448901.0,-10.3884,5.7437,17.8679,-0.0623,-3.1953,0.215
448911.0,-9.426,5.2744,13.5799,-0.1415,-3.4289,0.1783
448921.0,-7.9679,4.9416,9.8785,-0.3065,-3.3933,0.1208
448931.0,-7.1802,4.6136,7.6614,-0.4986,-3.0708,0.0617
448941.0,-6.3279,4.2784,6.2153,-0.6689,-2.6435,0.0197
448951.0,-5.5426,3.881,6.0741,-0.8195,-2.1359,-0.0074
448961.0,-5.102,3.4309,6.8378,-0.9589,-1.6974,-0.0362
448971.0,-4.4796,2.9305,8.0206,-1.0312,-1.4117,-0.0788
448981.0,-4.0534,2.6264,9.335,-0.97,-1.1855,-0.1421
448991.0,-3.6248,2.7988,10.422,-0.8647,-1.0876,-0.232
449001.0,-3.4381,3.4453,11.3437,-0.8418,-1.1041,-0.3342
449011.0,-3.395,4.0462,12.0859,-1.0275,-1.3585,-0.4076
449021.0,-3.3902,4.2521,12.1578,-1.2654,-1.7538,-0.4119
449031.0,-3.3088,4.0199,11.6406,-1.4218,-2.1269,-0.3608
449041.0,-3.0311,3.5578,10.6087,-1.4122,-2.378,-0.2826
449051.0,-2.7054,3.1388,9.4044,-1.2744,-2.461,-0.2065
449061.0,-2.3367,2.7438,8.5784,-1.1073,-2.4174,-0.1447
449071.0,-2.0231,2.5043,7.9655,-0.944,-2.3232,-0.1027
449081.0,-1.7382,2.4708,7.9272,-0.7114,-2.1492,-0.0575
449091.0,-1.5802,2.4756,7.8506,-0.4044,-1.964,0.0192
449101.0,-1.1708,2.3607,7.3765,-0.1564,-1.8645,0.1048
449111.0,-0.723,2.1332,6.7636,-0.0447,-1.7938,0.158
449121.0,-0.1365,2.0231,6.0478,-0.0458,-1.699,0.1777
449131.0,0.0503,1.8387,5.794,-0.1506,-1.5516,0.1713
449141.0,0.1293,1.5395,5.9304,-0.2677,-1.4026,0.1564
449151.0,0.1652,1.3264,6.2776,-0.2426,-1.1653,0.1447
449161.0,0.3089,1.3144,7.3574,-0.0628,-0.8253,0.1447
449171.0,0.7326,1.2809,8.4084,0.1112,-0.6247,0.1527
449181.0,1.0511,1.2091,9.0908,0.1623,-0.6561,0.1298
449191.0,1.1301,1.2617,9.2009,0.1064,-0.8179,0.0734
449201.0,1.4389,1.1588,8.8609,-0.009,-1.0467,0.0112
449211.0,1.7406,1.0319,8.2169,-0.0521,-1.1712,-0.0388
449221.0,1.9369,1.0319,7.4843,-0.0841,-1.2207,-0.0873
449231.0,2.1213,1.0463,6.9528,-0.1543,-1.2483,-0.1341
449241.0,2.2865,0.9768,6.5625,-0.215,-1.259,-0.166
449251.0,2.3822,0.9146,6.2441,-0.2144,-1.2372,-0.1884
449261.0,2.2362,0.9002,5.8012,-0.1197,-1.184,-0.1985
449271.0,1.8579,1.0678,5.023,0.016,-1.1217,-0.2086
449281.0,2.4134,1.1396,3.3686,0.0926,-1.1142,-0.2198
449291.0,2.6073,1.2186,1.6855,0.0745,-0.9344,-0.2368
449301.0,2.3176,1.1468,0.1724,-0.0654,-0.6412,-0.2559
449311.0,2.1308,1.2163,-1.1588,-0.2778,-0.2719,-0.2937
449321.0,1.9201,1.2043,-1.4724,-0.4001,0.3081,-0.2996
449331.0,1.7789,1.0511,-1.0295,-0.2943,1.0664,-0.2533
449341.0,1.2163,0.984,-0.0144,-0.0564,1.782,-0.2144
449351.0,0.826,1.1588,0.5842,0.2171,2.3158,-0.207
449361.0,0.6847,1.6592,-0.0503,0.3384,2.6941,-0.2293
449371.0,0.2825,1.8651,-0.9625,0.0144,2.9234,-0.2895
449381.0,-0.0287,1.8651,-1.7071,-0.6886,3.1161,-0.3991
449391.0,-1.6065,2.0638,-0.4381,-1.3569,3.554,-0.5114
449401.0,-3.711,2.6647,2.3703,-1.4857,4.1718,-0.5114
449411.0,-5.4779,3.5219,6.0166,-0.9573,4.8417,-0.3517
449421.0,-6.9863,4.1707,10.2089,-0.0447,5.4015,-0.0819
449431.0,-7.7452,4.3574,14.0252,0.8902,5.5861,0.2075
449441.0,-7.3526,4.4101,16.9845,1.6155,5.3908,0.4039
449451.0,-7.1611,4.9967,19.1704,2.0683,4.9912,0.4683
449461.0,-7.4819,6.1818,20.3387,2.1731,4.4266,0.448
449471.0,-8.1547,7.6495,21.3252,1.8273,3.7306,0.3884
449481.0,-8.7197,8.7771,22.4121,1.21,2.9798,0.3725
449491.0,-9.2799,9.1435,23.8989,0.5683,2.2386,0.4475
449501.0,-9.7875,8.6479,25.5892,0.0702,1.4335,0.5976
449511.0,-9.7348,7.5513,26.1231,-0.1431,0.4597,0.7779
449521.0,-9.4978,6.6295,24.859,-0.0208,-0.4784,0.9482
449531.0,-9.1004,6.019,22.3571,0.2916,-1.2233,1.0887
449541.0,-8.5281,5.5258,19.223,0.5731,-1.7464,1.1914
449551.0,-7.7357,5.0015,15.9454,0.7013,-2.072,1.2382
449561.0,-6.7756,4.6711,13.0484,0.6609,-2.1662,1.1951
449571.0,-5.9855,5.2816,10.8194,0.4592,-1.989,1.0674
449581.0,-5.8466,5.7389,10.319,-0.1362,-1.7858,0.9291
449591.0,-5.5809,5.4468,10.7787,-0.969,-1.8496,0.821
449601.0,-5.0973,4.7166,11.4227,-1.5671,-1.9885,0.763
449611.0,-4.6064,3.9409,11.4778,-1.7767,-2.0779,0.754
449621.0,-4.1731,3.1532,11.3677,-1.7267,-2.1487,0.7599
449631.0,-3.7972,2.7438,10.6662,-1.4676,-2.1726,0.7705
449641.0,-3.383,2.4708,10.1921,-1.1637,-2.1364,0.7833
449651.0,-2.7438,2.4038,9.6893,-0.8471,-2.0412,0.7998
449661.0,-2.3248,2.3487,9.347,-0.6651,-1.9986,0.8088
449671.0,-1.8723,2.1859,8.7532,-0.6428,-2.063,0.8035
449681.0,-1.4748,1.9513,7.8937,-0.7082,-2.1285,0.7849
449691.0,-0.9864,1.7214,6.9623,-0.8115,-2.1338,0.7535
449701.0,-0.5938,1.3934,6.2537,-0.9269,-2.0593,0.713
449711.0,-0.3352,1.0511,5.94,-0.9998,-1.8869,0.6683
449721.0,-0.0766,0.826,6.2824,-0.9727,-1.6336,0.6252
449731.0,0.1532,0.7111,6.8642,-0.8695,-1.3973,0.596
449741.0,0.6153,0.5076,7.5968,-0.7886,-1.2787,0.5736
449751.0,1.0032,0.2945,7.9487,-0.7742,-1.3117,0.5374
449761.0,1.2498,-0.0503,7.9847,-0.8365,-1.4851,0.473
449771.0,1.3623,-0.261,7.3765,-0.8237,-1.6474,0.3943
449791.0,1.6209,-0.3591,5.5067,-0.3693,-1.5027,0.2708
449801.0,1.5634,0.0024,5.0996,-0.0298,-1.1643,0.2283
449811.0,1.5347,0.4645,5.612,0.2309,-0.7822,0.2054
449821.0,1.8555,1.1684,6.4117,0.34,-0.5273,0.1932
449831.0,1.9249,1.5874,7.1084,0.1676,-0.5497,0.1729
449841.0,2.1452,1.6568,7.1515,-0.1692,-0.8062,0.1559
449851.0,2.2649,1.4629,6.359,-0.3837,-0.9935,0.1602
449861.0,2.3774,1.221,5.1164,-0.3741,-0.97,0.1926
449871.0,2.7749,0.7183,4.039,-0.2799,-0.7918,0.232
449881.0,3.2561,0.2203,2.8323,-0.1527,-0.5252,0.2421
449891.0,3.3184,-0.2586,2.3104,0.0144,-0.1362,0.2112
449901.0,3.2154,-0.4334,1.7142,0.2437,0.2905,0.1517
449911.0,3.1101,-0.5602,1.3288,0.4294,0.6981,0.0665
449921.0,2.9042,-0.5171,1.0942,0.5518,1.0951,-0.0325
449931.0,2.6264,-0.4357,0.7973,0.5773,1.4622,-0.1394
449941.0,2.4349,-0.3926,0.8332,0.4523,1.7475,-0.265
449951.0,2.3152,-0.3472,0.7207,0.2261,1.9566,-0.4108
449961.0,1.8411,-0.0192,0.6632,-0.0479,2.1593,-0.5672
449971.0,0.9864,0.2897,0.6273,-0.3209,2.3392,-0.7008
449981.0,-0.8715,0.747,0.6345,-0.4087,2.602,-0.7732
449991.0,-2.5594,1.1205,0.996,-0.1586,3.0921,-0.7364
450001.0,-3.62,1.0774,2.1835,0.3134,3.703,-0.6274
450011.0,-4.5825,0.8739,3.6248,0.9216,4.2851,-0.5268
450021.0,-5.2337,0.9744,4.9871,1.5777,4.797,-0.5023
450031.0,-6.2944,1.7119,6.3925,2.0822,5.2275,-0.5816
450041.0,-7.7476,2.9353,7.6471,2.2748,5.4925,-0.7029
450051.0,-9.5193,4.2449,9.3134,2.1018,5.6723,-0.8168
450061.0,-11.0445,4.9967,12.4738,1.6836,5.792,-0.8769
450071.0,-11.7005,5.138,16.3859,1.2515,5.7128,-0.8838
450081.0,-12.3086,5.114,21.0474,1.0248,5.5111,-0.8578
450091.0,-12.1027,5.0422,25.2995,0.9493,4.93,-0.8258
450101.0,-11.8537,5.1619,28.4288,0.9653,3.985,-0.8019
450111.0,-11.9495,5.5881,30.0065,1.0722,2.7904,-0.7678
450121.0,-11.6406,6.031,29.7456,1.1802,1.392,-0.7008
450131.0,-11.145,6.2944,27.7632,1.3399,0.0697,-0.5837
450141.0,-10.5872,6.3087,24.5621,1.4979,-1.0493,-0.4369
450151.0,-9.6343,5.9209,20.6476,1.5729,-1.9539,-0.2943
450161.0,-8.7771,5.8059,16.089,1.5202,-2.5515,-0.2038
450171.0,-8.0661,5.4253,12.6486,1.1403,-2.8878,-0.1799
450181.0,-7.6303,4.8866,10.1203,0.7152,-3.0134,-0.1884
450191.0,-6.9552,4.2353,7.865,0.4507,-2.9421,-0.207
450201.0,-6.3351,3.9528,6.1507,0.3219,-2.5887,-0.2554
450211.0,-5.6862,3.6631,5.5833,0.0814,-2.1928,-0.3395
450221.0,-5.0829,3.5099,5.6862,-0.2001,-1.8656,-0.455
450231.0,-4.8985,3.5817,6.3039,-0.3767,-1.5357,-0.5662
450241.0,-4.6855,3.6631,7.1443,-0.4762,-1.2803,-0.6465
450251.0,-4.5921,3.7326,7.9392,-0.5284,-1.1249,-0.7072
450261.0,-4.6017,3.8068,8.6335,-0.5513,-1.0685,-0.7455
450271.0,-4.6424,3.9624,9.2368,-0.5161,-1.0562,-0.7609
450281.0,-4.6184,4.2258,9.7683,-0.4092,-1.0653,-0.7412
450291.0,-4.4269,4.312,10.0748,-0.2756,-1.1472,-0.6939
450301.0,-4.1324,4.5298,9.8521,-0.0798,-1.1999,-0.6252
450311.0,-3.9696,4.7836,9.4834,0.0591,-1.2159,-0.5491
450321.0,-3.7469,4.9799,8.9639,0.0378,-1.2792,-0.4789
450331.0,-3.4046,4.9895,8.4515,-0.1091,-1.3218,-0.4204
450341.0,-3.1915,4.889,8.193,-0.3613,-1.3234,-0.3783
450351.0,-3.1388,4.5657,8.4132,-0.6768,-1.3271,-0.3475
450361.0,-3.0718,4.0797,8.8155,-0.9285,-1.3553,-0.3209
450371.0,-2.9425,3.6871,9.2368,-1.0233,-1.3558,-0.2943
450381.0,-2.8299,3.2633,9.6391,-1.0025,-1.3835,-0.2714
450391.0,-2.5331,2.9904,9.809,-0.845,-1.4032,-0.2586
450401.0,-2.3703,3.1196,9.7683,-0.564,-1.3484,-0.2506
450411.0,-2.2218,3.5075,9.5122,-0.3592,-1.3452,-0.2395
450421.0,-2.0925,3.7397,9.0405,-0.3368,-1.4261,-0.2203
450431.0,-1.8627,3.7828,8.4755,-0.3996,-1.4942,-0.1852
450441.0,-1.6472,3.6775,7.9655,-0.4949,-1.5043,-0.1437
450451.0,-1.4916,3.3567,7.829,-0.5816,-1.4638,-0.1011
450461.0,-1.2426,3.043,7.841,-0.5885,-1.3702,-0.0601
450471.0,-0.9936,2.7246,7.9727,-0.5305,-1.2813,-0.0325
450481.0,-0.6704,2.4612,7.9224,-0.4337,-1.2175,-0.0144
450491.0,-0.3639,2.3152,7.8171,-0.3507,-1.1526,-0.0096
450501.0,-0.0239,2.2266,8.0709,-0.2996,-1.1025,-0.0197
450511.0,0.3807,2.1332,8.0828,-0.2639,-1.1116,-0.0367
450521.0,0.5698,2.0303,7.8386,-0.2661,-1.1845,-0.0654
450531.0,0.8691,1.9776,7.1874,-0.2671,-1.2558,-0.1006
450541.0,1.1779,1.9752,6.2944,-0.2634,-1.2707,-0.1293
450551.0,1.3791,2.0279,5.533,-0.2666,-1.2052,-0.1469
450561.0,1.4653,1.9513,4.7453,-0.2703,-1.1158,-0.1383
450571.0,1.5562,1.664,3.6679,-0.2762,-1.0169,-0.1086
450581.0,1.8675,1.2689,2.059,-0.2714,-0.8636,-0.0772
450591.0,2.3942,0.8882,-0.012,-0.3884,-0.6396,-0.091
450601.0,2.8802,0.656,-2.0782,-0.7466,-0.3219,-0.1873
450611.0,2.7797,0.3112,-2.9185,-1.3047,0.1357,-0.3342
450621.0,2.4038,-0.1269,-2.4541,-1.789,0.6715,-0.4826
450631.0,1.3671,-0.3496,-1.0558,-1.8794,1.3031,-0.5832
450641.0,0.0168,-0.2011,0.7039,-1.3989,2.0007,-0.5938
450651.0,-0.9074,0.3543,1.798,-0.5119,2.6675,-0.5321
450661.0,-1.5012,1.142,2.6743,0.3299,3.1778,-0.4528
450671.0,-2.1021,1.9824,3.1771,0.9695,3.563,-0.3709
450681.0,-3.5506,2.715,4.4412,1.3862,3.944,-0.2937
450691.0,-5.0661,3.4357,6.7804,1.8017,4.3963,-0.191
450701.0,-6.1627,4.1228,9.8976,2.2386,4.8348,-0.0692
450711.0,-6.7109,4.6902,13.0604,2.4349,4.9779,0.0101
450721.0,-7.1347,5.296,16.1058,2.2407,4.7906,-0.0112
450731.0,-7.9392,6.4117,19.0602,1.6778,4.3186,-0.1128
450741.0,-8.2337,7.1084,22.053,0.9589,3.5981,-0.2075
450751.0,-8.9423,7.6854,24.2269,0.4071,2.7686,-0.2331
450761.0,-9.4092,8.0182,25.685,0.0937,1.8698,-0.1676
450771.0,-9.4547,8.0685,25.3953,-0.0458,0.8599,-0.0341
450781.0,-9.7731,7.9057,23.9133,-0.1139,-0.1011,0.1235
450791.0,-9.5672,7.2329,22.3211,-0.0846,-0.8588,0.306
450801.0,-8.9471,6.359,20.3244,0.1208,-1.3893,0.4911
450811.0,-8.3582,5.4229,18.0643,0.2964,-1.8209,0.6098
450821.0,-7.4915,4.7573,15.7012,0.3581,-2.162,0.6385
450831.0,-6.7732,4.312,13.7978,0.34,-2.3248,0.5992
450841.0,-6.0214,4.2042,11.746,0.2373,-2.4147,0.5114
450851.0,-5.3534,4.3622,9.7252,-0.0628,-2.452,0.3778
450861.0,-4.7716,4.5466,8.6838,-0.5816,-2.4083,0.2214
450871.0,-4.3574,4.5729,8.5042,-1.1643,-2.3466,0.0926
450881.0,-3.7924,4.1396,8.5904,-1.6644,-2.337,0.0133
450891.0,-3.3423,3.5291,8.7221,-1.9688,-2.3221,-0.0314
450901.0,-2.8946,2.9544,9.0453,-2.072,-2.2891,-0.0644
450911.0,-2.4062,2.5594,9.3518,-1.9555,-2.2482,-0.0878
450921.0,-1.9752,2.4038,9.4308,-1.6543,-2.1998,-0.0921
450931.0,-1.8244,2.5163,9.2033,-1.2515,-2.1678,-0.0654
450941.0,-1.6137,2.6073,8.442,-0.87,-2.1737,-0.0085
450951.0,-1.2067,2.7797,7.4053,-0.5337,-2.137,0.0633
450961.0,-0.759,3.0095,6.4979,-0.2554,-1.9763,0.1495
450971.0,-0.6033,3.0622,5.7652,-0.1133,-1.79,0.2506
450981.0,-0.3807,2.7821,5.3965,-0.0713,-1.5868,0.3618
450991.0,-0.1293,2.3296,5.43,-0.0293,-1.3271,0.4667
451001.0,0.2993,1.8028,5.8514,0.0293,-1.0648,0.5401
451011.0,0.565,1.3815,6.3015,0.0697,-0.8801,0.5667
451021.0,1.1157,1.0774,6.4907,0.0803,-0.7822,0.5316
451031.0,1.3408,1.2426,6.5984,0.0798,-0.6518,0.4523
451041.0,1.1444,1.5514,6.6798,-0.0208,-0.5773,0.3688
451051.0,0.9792,1.7406,6.8307,-0.1681,-0.5358,0.3161
451061.0,1.0343,1.9178,7.1611,-0.2474,-0.4342,0.306
451071.0,0.9457,1.8747,7.6279,-0.298,-0.3443,0.331
451081.0,0.8092,1.5897,8.0637,-0.3219,-0.3081,0.3762
451091.0,0.9194,1.2809,8.5688,-0.3038,-0.2921,0.4129
451101.0,1.3455,1.1372,9.0644,-0.2756,-0.3086,0.4225
451111.0,1.6209,0.996,9.2871,-0.3544,-0.4794,0.3943
451121.0,1.822,0.8452,8.7029,-0.4879,-0.7503,0.339
451131.0,1.8028,0.7159,7.8697,-0.5582,-0.9104,0.2794
451141.0,1.8986,0.6201,6.8259,-0.4986,-0.9104,0.2474
451151.0,1.8699,0.5555,5.8323,-0.3714,-0.7918,0.2368
451161.0,1.9225,0.407,4.7597,-0.2538,-0.6039,0.2315
451171.0,2.0016,0.237,4.1539,-0.1357,-0.3065,0.2267
451181.0,2.0758,-0.0646,4.027,-0.0293,0.0154,0.2182
451191.0,2.2098,-0.3759,4.1875,0.107,0.3358,0.2075
451201.0,2.2745,-0.7398,4.2473,0.2522,0.5917,0.1777
451211.0,2.466,-1.1301,3.9073,0.3272,0.7194,0.1016
451221.0,2.5331,-1.312,2.897,0.3778,0.8631,-0.0208
451231.0,2.1428,-1.3431,1.6233,0.3586,1.0818,-0.1809
451241.0,1.8316,-1.3862,0.5195,0.3044,1.4271,-0.3544
451251.0,1.2306,-0.9625,-0.1365,0.2804,1.9816,-0.539
451261.0,-0.0192,-0.4046,0.4262,0.107,2.5345,-0.7215
451271.0,-0.9505,0.0455,1.7262,-0.1176,2.9766,-0.8572
451281.0,-2.1739,0.4669,3.4812,-0.2341,3.389,-0.9307
451291.0,-3.4884,0.5962,5.7413,-0.1979,3.7024,-0.9339
451301.0,-4.6807,0.8715,7.9535,0.1841,4.0606,-0.8759
451311.0,-6.2345,1.154,10.7763,0.7881,4.4208,-0.7939
451321.0,-6.6343,1.5993,13.2519,1.5378,4.7166,-0.7263
451331.0,-7.173,2.9568,15.706,2.0763,4.8906,-0.7753
451341.0,-7.8769,4.7908,18.6556,1.9821,4.6496,-0.9131
451351.0,-8.6766,6.4739,21.7346,1.434,4.0031,-1.0142
451361.0,-9.481,7.4364,24.3011,0.8498,3.1458,-0.9913
451371.0,-10.1945,7.7333,26.0489,0.5268,2.2732,-0.8285
451381.0,-10.1299,7.1491,27.2077,0.4906,1.4181,-0.5757
451391.0,-9.9096,6.45,26.8773,0.6401,0.5529,-0.3379
451401.0,-9.4236,5.5402,25.7472,0.6651,-0.3815,-0.2043
451411.0,-8.825,5.0422,23.6236,0.5821,-1.2664,-0.1942
451421.0,-8.4946,4.9847,21.4113,0.3837,-2.013,-0.2714
451431.0,-8.2624,5.0087,18.737,0.0931,-2.6648,-0.3656
451441.0,-7.9152,4.9201,16.1944,-0.2022,-3.1336,-0.4374
451451.0,-7.2329,4.7788,13.805,-0.4289,-3.4066,-0.4864
451461.0,-6.5697,4.6711,11.5113,-0.6002,-3.4891,-0.5177
451471.0,-5.7269,4.4652,9.6199,-0.7849,-3.4449,-0.5358
451481.0,-5.0996,4.2856,8.6095,-0.9285,-3.2416,-0.5353
451491.0,-4.5059,3.8714,8.3845,-1.0084,-3.0123,-0.5023
451501.0,-3.9361,3.3543,8.4467,-0.9695,-2.8149,-0.4523
451511.0,-3.2489,2.9736,8.5641,-0.7891,-2.6398,-0.406
451521.0,-2.5163,2.9018,8.4276,-0.5534,-2.5196,-0.3714
451531.0,-1.9178,3.1436,8.0445,-0.3278,-2.4046,-0.3411
451541.0,-1.4605,3.5434,7.4196,-0.2128,-2.3189,-0.299
451551.0,-1.0726,3.881,6.8618,-0.2634,-2.2641,-0.2496
451561.0,-0.9529,4.0869,6.3782,-0.4204,-2.1998,-0.1878
451571.0,-0.8619,3.9576,6.1938,-0.589,-2.1088,-0.0947
451581.0,-0.7135,3.4931,6.4476,-0.6359,-1.9209,0.0319
451591.0,-0.1891,2.7821,7.1826,-0.5215,-1.7033,0.1639
451601.0,0.316,2.2146,7.422,-0.3272,-1.5644,0.2528
451611.0,0.9313,1.9082,7.4891,-0.1511,-1.4867,0.2762
451621.0,1.2953,2.0782,7.2329,-0.0096,-1.3952,0.257
451631.0,1.257,2.4924,7.0701,-0.016,-1.3399,0.2128
451641.0,1.2139,3.1316,6.8546,-0.1219,-1.3,0.1815
451651.0,1.1923,3.5817,6.7373,-0.3358,-1.2888,0.1948
451661.0,0.9697,3.5745,6.608,-0.6055,-1.325,0.2549
451671.0,1.0223,3.1268,6.5601,-0.737,-1.2739,0.3672
451681.0,1.3695,2.4828,6.5314,-0.6774,-1.1355,0.4975
451691.0,1.6616,1.7406,6.4715,-0.5454,-0.9802,0.6002
451701.0,1.9896,1.142,6.596,-0.3884,-0.8141,0.6598
451711.0,2.32,0.8188,7.0533,-0.2097,-0.6407,0.6753
451721.0,2.5355,0.7446,7.4819,-0.0303,-0.5284,0.6662
451731.0,2.7845,0.6919,7.2161,0.0378,-0.5779,0.6364
451741.0,3.0454,0.565,6.541,-0.0223,-0.687,0.5805
451751.0,3.4644,0.4645,5.6336,-0.1149,-0.7173,0.5087
451761.0,3.8188,0.4262,4.7262,-0.1884,-0.6359,0.4358
451771.0,3.7804,0.4741,3.8235,-0.2336,-0.4597,0.3757
451781.0,3.723,0.5076,3.0095,-0.3161,-0.2166,0.3352
451791.0,3.5362,0.2251,3.4357,-0.4007,0.1256,0.3102
451801.0,3.5338,-0.1676,4.1922,-0.3246,0.4496,0.3065
451811.0,3.4955,-0.5746,4.5945,-0.0388,0.7253,0.306
451821.0,3.4931,-0.7039,3.9002,0.3464,0.9599,0.2857
451831.0,3.4213,-0.9098,2.9521,0.5486,1.1664,0.2246
451841.0,3.2825,-1.1349,1.8914,0.5869,1.4404,0.1086
451851.0,3.0502,-1.0582,0.996,0.4986,1.8145,-0.0676
451861.0,2.5786,-0.6895,0.5986,0.2575,2.2418,-0.2852
451871.0,1.4341,-0.0575,0.9816,-0.1091,2.6675,-0.5002
451881.0,-0.1006,0.5746,2.1045,-0.4789,3.0623,-0.6391
451891.0,-1.3838,0.6249,4.1707,-0.6529,3.472,-0.6481
451901.0,-2.0159,0.0455,6.3135,-0.5529,3.7897,-0.5678
451911.0,-2.3583,-0.7422,8.0038,-0.3124,3.9302,-0.5161
451921.0,-2.5067,-1.0989,8.9184,0.0708,4.0148,-0.5497
451931.0,-3.1556,-0.5243,9.3781,0.4736,4.1547,-0.6651
451941.0,-4.8961,0.6536,10.2783,0.6774,4.2526,-0.8067
451951.0,-6.4069,1.8483,12.208,0.8913,4.4059,-0.8572
451961.0,-7.3646,2.8204,15.2223,1.2409,4.6799,-0.7955
451971.0,-7.9942,3.2154,19.0339,1.417,4.5959,-0.7109
451981.0,-8.0445,3.4764,22.4863,1.5069,4.1313,-0.6412
451991.0,-8.2648,3.8954,25.0841,1.6421,3.4694,-0.5864
452001.0,-8.4372,4.5155,26.4416,1.7288,2.5738,-0.5534
452011.0,-8.4803,5.3199,26.0824,1.674,1.4979,-0.538
452021.0,-8.2337,6.1435,24.2724,1.4356,0.4794,-0.5305
452031.0,-8.2408,6.7397,22.2733,0.9275,-0.39,-0.5396
452041.0,-8.3606,6.8283,20.8128,0.2171,-1.144,-0.5491
452051.0,-8.2768,6.426,19.7665,-0.3629,-1.7634,-0.5263
452061.0,-8.0397,5.873,18.4449,-0.6071,-2.2455,-0.4581
452071.0,-7.6782,5.3079,16.7067,-0.6119,-2.6228,-0.3693
452081.0,-7.1108,4.8937,15.0859,-0.4252,-2.8165,-0.2698
452091.0,-6.4739,4.604,13.5081,-0.1288,-2.8665,-0.157
452101.0,-5.9113,4.3814,11.9662,0.1298,-2.8777,-0.058
452111.0,-5.217,4.2952,10.2544,0.2847,-2.8707,0.0133
452121.0,-4.1324,4.3311,8.6431,0.2953,-2.7904,0.05
452131.0,-3.4237,4.5466,7.4795,0.1038,-2.6228,0.0463
452141.0,-3.2274,4.6304,7.3813,-0.3012,-2.4653,0.0277
452151.0,-2.6025,4.2928,8.0972,-0.6843,-2.3477,0.0335
452161.0,-2.0734,3.8092,8.7317,-0.9195,-2.2982,0.049
452171.0,-1.7142,3.3375,8.9423,-1.061,-2.3759,0.0463
452181.0,-1.4629,3.0406,8.7245,-1.0456,-2.4195,0.0388
452191.0,-1.0918,2.9975,8.7963,-0.8594,-2.3509,0.0484
452201.0,-0.7853,3.2202,8.6455,-0.5715,-2.2647,0.083
452211.0,-0.4142,3.4189,8.0062,-0.3246,-2.253,0.1389
452221.0,-0.0407,3.6105,7.039,-0.1554,-2.212,0.2038
452231.0,0.3615,3.7373,6.28,-0.1208,-2.1258,0.2591
452241.0,0.723,3.802,5.6048,-0.1618,-2.0061,0.3241
452251.0,0.6704,3.6847,5.284,-0.2352,-1.8475,0.4028
452261.0,0.893,3.3662,5.5043,-0.2251,-1.6017,0.5135
452271.0,1.2689,2.9161,5.9855,-0.0894,-1.3351,0.6295
452281.0,1.889,2.4205,6.1483,0.0601,-1.1808,0.7029
452291.0,2.3774,2.4972,5.9783,0.1548,-1.044,0.6971
452301.0,2.4277,3.2441,6.1723,0.1559,-0.8642,0.6556
452311.0,2.0734,3.9552,6.675,-0.0117,-0.7907,0.647
452321.0,1.8004,4.4532,6.9599,-0.2304,-0.837,0.7056
452331.0,1.743,4.4748,6.8929,-0.3868,-0.8955,0.8306
452341.0,1.9297,3.9337,6.2058,-0.5305,-0.9722,0.9823
452351.0,2.3224,2.9664,5.4348,-0.6699,-0.9738,1.1116
452361.0,2.7198,1.9632,5.035,-0.7386,-0.8413,1.1903
452371.0,3.0335,1.1157,4.8626,-0.7811,-0.7061,1.2058
452381.0,3.3567,0.4812,4.8507,-0.7662,-0.5747,1.1792
452391.0,3.5362,0.1628,4.7669,-0.6018,-0.3943,1.1435
452401.0,3.7302,0.0646,4.5729,-0.3443,-0.2027,1.119
452411.0,3.984,0.0862,3.8403,-0.0591,-0.033,1.1068
452421.0,4.1827,-0.0503,2.7246,0.1288,0.1293,1.1063
452431.0,4.1084,-0.3519,1.4437,0.2677,0.3815,1.1073
452441.0,3.9049,-0.7278,0.498,0.4475,0.8115,1.094
452451.0,3.4596,-1.0127,0.1867,0.6705,1.3877,1.0546
452461.0,3.1101,-1.245,0.5195,0.8721,1.9816,0.9945
452471.0,2.7509,-1.4653,0.9385,0.9583,2.4754,0.8934
452481.0,2.5546,-1.652,1.4006,0.8572,2.8197,0.7364
452491.0,2.4421,-1.7597,1.3336,0.5454,3.0043,0.5305
452501.0,2.0399,-2.0327,0.9601,0.0325,3.0767,0.2852
452511.0,1.1444,-2.0111,0.2538,-0.4097,3.2496,0.017
452521.0,-0.9146,-1.1779,0.1317,-0.6034,3.7062,-0.2261
452531.0,-3.3974,0.0622,1.6089,-0.5146,4.391,-0.3491
452541.0,-5.7581,1.1229,4.8076,-0.0846,5.1482,-0.3028
452551.0,-6.8977,1.8818,8.6,0.6268,5.7601,-0.1219
452561.0,-7.4244,2.4708,12.4427,1.3186,6.0602,0.0803
452571.0,-7.6614,2.8299,15.2989,1.74,5.9182,0.223
452581.0,-7.8602,3.2298,16.8241,1.8486,5.4834,0.2746
452591.0,-8.2408,3.4836,18.397,1.6394,4.9641,0.24
452601.0,-8.6,3.893,19.1512,1.3824,4.441,0.1671
452611.0,-9.6295,4.8794,19.2757,1.0456,3.9967,0.0639
452621.0,-11.1091,5.5282,20.7482,0.4518,3.5625,0.0005
452631.0,-11.3581,4.9632,24.0545,0.0793,3.2177,0.0905
452641.0,-11.2384,3.9959,26.2692,-0.0223,2.6148,0.2208
452651.0,-10.4555,2.7414,27.5932,-0.191,1.6112,0.2538
452661.0,-9.7133,1.9896,27.3107,-0.2347,0.5374,0.1948
452671.0,-9.4786,1.6783,25.6778,-0.1596,-0.4725,0.0835
452681.0,-9.0812,1.8148,22.8024,-0.0569,-1.3542,-0.0484
452691.0,-8.5281,2.0375,19.7881,-0.0303,-2.013,-0.1809
452701.0,-8.078,2.2889,16.666,-0.0819,-2.452,-0.3017
452711.0,-7.5417,2.478,14.2024,-0.2288,-2.7042,-0.4198
452721.0,-6.9528,2.6025,12.287,-0.3624,-2.7776,-0.5114
452731.0,-6.3255,2.7102,10.7978,-0.4619,-2.7303,-0.5683
452741.0,-5.8035,2.6169,10.3166,-0.5252,-2.577,-0.5944
452751.0,-5.284,2.4924,10.1945,-0.5326,-2.453,-0.5986
452761.0,-4.7357,2.3104,10.1131,-0.4981,-2.4041,-0.6034
452771.0,-4.2018,2.2913,9.6438,-0.4299,-2.4126,-0.6109
452781.0,-3.632,2.3607,8.928,-0.3842,-2.4339,-0.6204
452791.0,-3.1125,2.411,8.1714,-0.3645,-2.4067,-0.6247
452801.0,-2.7246,2.5019,7.355,-0.3991,-2.3338,-0.6327
452811.0,-2.4325,2.5666,7.0078,-0.5087,-2.2216,-0.6524
452821.0,-2.138,2.5929,7.003,-0.6364,-2.1125,-0.6641
452831.0,-1.798,2.5187,7.1826,-0.721,-2.0093,-0.6646
452841.0,-1.3815,2.4612,7.1922,-0.7178,-1.9161,-0.6524
452851.0,-1.0104,2.4469,6.8738,-0.6816,-1.8427,-0.6385
452861.0,-0.6345,2.6288,6.4763,-0.6359,-1.7379,-0.6231
452871.0,-0.4956,2.885,6.1531,-0.6231,-1.6033,-0.5944
452881.0,-0.2897,3.0191,6.0071,-0.6173,-1.4532,-0.538
452891.0,-0.3639,3.1915,6.0071,-0.5364,-1.2372,-0.4555
452901.0,-0.4405,3.225,6.6463,-0.3916,-0.9828,-0.3358
452911.0,-0.2346,3.146,7.5561,-0.1293,-0.7231,-0.1793
452921.0,-0.1053,3.0215,8.3797,0.1405,-0.5827,-0.0261
452931.0,0.2562,2.8922,8.5329,0.3161,-0.5997,0.099
452941.0,0.486,2.794,8.3175,0.3581,-0.6556,0.1862
452951.0,0.747,2.6169,8.1044,0.2985,-0.7173,0.2474
452961.0,0.8164,2.4588,7.8099,0.2469,-0.7439,0.2975
452971.0,0.8691,2.3631,7.5322,0.2496,-0.7035,0.3421
452981.0,1.142,2.4541,7.2233,0.2762,-0.6157,0.3847
452991.0,1.1803,2.478,7.1922,0.2011,-0.53,0.4257
453001.0,1.2809,2.2075,7.1299,-0.0239,-0.5481,0.4539
453011.0,1.4653,1.7382,7.1347,-0.2517,-0.5624,0.4683
453021.0,1.5802,1.2546,7.1419,-0.4028,-0.5417,0.4672
453031.0,1.7286,0.759,7.0605,-0.4768,-0.5247,0.4512
453041.0,2.0279,0.3472,6.8761,-0.4284,-0.455,0.4268
453051.0,2.2146,0.0479,6.7205,-0.3294,-0.348,0.3874
453061.0,2.3367,-0.1125,6.3686,-0.2277,-0.265,0.3304
453071.0,2.478,-0.0263,5.861,-0.1325,-0.1596,0.2586
453081.0,2.2625,0.2442,5.6623,-0.0878,-0.0181,0.19
453091.0,2.1045,0.3017,5.4492,0.0048,0.0958,0.165
453101.0,1.992,0.2682,4.9368,0.307,0.3485,0.1889
453111.0,1.7645,0.1532,4.0749,0.638,0.6827,0.224
453121.0,1.8004,-0.3807,3.4931,0.7732,0.9929,0.2395
453131.0,1.889,-1.0534,2.8706,0.7338,1.2994,0.1985
453141.0,1.9225,-1.8723,2.4708,0.4629,1.5729,0.0681
453151.0,2.0016,-2.7294,2.1668,0.0277,1.781,-0.1591
453161.0,1.7262,-3.3495,1.7621,-0.4677,1.9949,-0.4784
453171.0,0.759,-3.7086,2.0518,-0.8971,2.3115,-0.8514
453181.0,-0.7566,-3.0598,2.6839,-0.9998,2.7888,-1.2116
453191.0,-3.723,-1.4964,5.1308,-0.7317,3.4603,-1.4564
453201.0,-5.8658,-0.2562,9.4954,0.0479,4.1691,-1.4489
453211.0,-6.4787,0.6393,13.6829,1.3218,4.7363,-1.2616
453221.0,-6.6535,1.6807,16.6014,2.4158,4.8082,-1.1201
453231.0,-6.6631,3.1987,18.682,2.9272,4.4256,-1.1047
453241.0,-7.0318,5.2529,20.5758,3.0064,3.8945,-1.1424
453251.0,-7.6255,7.5154,21.9357,2.7957,3.2209,-1.1462
453261.0,-8.1259,9.572,22.1128,2.2727,2.3711,-1.0781
453271.0,-8.5186,10.7045,22.314,1.4309,1.516,-0.9402
453281.0,-8.5832,11.3868,23.0179,0.5598,0.8062,-0.7625
453291.0,-9.4284,11.2647,24.0091,-0.2889,0.0436,-0.5566
453301.0,-9.6127,10.1466,24.1814,-1.028,-0.9998,-0.3219
453311.0,-9.4068,8.5353,23.4081,-1.2318,-1.8635,-0.0378
453321.0,-9.0142,7.003,21.294,-0.9621,-2.4951,0.2501
453331.0,-8.248,5.7868,18.2654,-0.6747,-3.0586,0.4464
453341.0,-7.3239,4.8722,15.0954,-0.5028,-3.4625,0.5438
453351.0,-6.3327,4.1348,12.1194,-0.4119,-3.6333,0.5805
453361.0,-5.0637,3.4572,9.5433,-0.3704,-3.6141,0.5662
453371.0,-4.1851,3.0957,7.7764,-0.3421,-3.364,0.5156
453381.0,-3.3351,2.8299,7.0749,-0.3986,-3.0618,0.4512
453391.0,-2.5666,2.6264,6.9408,-0.4954,-2.7957,0.3874
453401.0,-2.0518,2.3535,7.1036,-0.5906,-2.61,0.3283
453411.0,-1.3838,2.0806,6.9312,-0.63,-2.4892,0.2841
453421.0,-0.6416,1.7765,6.9264,-0.6034,-2.3589,0.2368
453431.0,0.1389,1.7142,6.5242,-0.5342,-2.2061,0.1772
453441.0,0.565,1.8555,6.4643,-0.5353,-2.0449,0.0974
453451.0,0.7278,2.15,6.4476,-0.6252,-1.9438,0.0202
453461.0,0.893,2.2793,6.5027,-0.7354,-1.8842,-0.0245
453471.0,0.8811,2.2721,6.5529,-0.7694,-1.8241,-0.0245
453481.0,1.1444,2.0973,6.4739,-0.6843,-1.723,0.0154
453491.0,1.3264,1.743,6.6391,-0.5023,-1.5639,0.0718
453501.0,1.6855,1.4581,6.6032,-0.2645,-1.4356,0.1197
453511.0,1.9752,1.2737,6.4332,-0.0027,-1.3053,0.1442
453521.0,2.296,1.3551,6.0573,0.2357,-1.1595,0.1453
453531.0,2.3774,1.7382,5.8371,0.365,-0.9897,0.1293
453541.0,2.2769,2.0494,6.1627,0.357,-0.8413,0.1181
453551.0,2.1524,2.2505,6.5027,0.2964,-0.7673,0.1229
453561.0,2.2793,2.3607,6.3853,0.2182,-0.7583,0.1453
453571.0,2.4134,2.2793,6.2537,0.1282,-0.7178,0.1846
453581.0,2.4301,1.9704,6.2249,0.0314,-0.6577,0.2214
453591.0,2.5043,1.6041,6.2776,0.0032,-0.5497,0.2474
453601.0,2.6384,1.4293,6.8498,0.0729,-0.3555,0.2559
453611.0,2.8826,1.3958,7.1467,0.1426,-0.2474,0.248
453621.0,2.9904,1.3048,7.1874,0.107,-0.2677,0.2128
453631.0,3.0742,1.3551,6.778,0.0575,-0.2826,0.1666
453641.0,3.2729,1.3312,6.3063,0.017,-0.2384,0.1261
453651.0,3.4524,1.312,5.4612,-0.0186,-0.1628,0.0915
453661.0,3.7062,1.1468,4.4484,-0.0995,-0.0378,0.0553
453671.0,3.7493,0.8571,3.7469,-0.1942,0.1836,0.0133
453681.0,3.5913,0.6033,3.2561,-0.2288,0.4965,-0.0293
453691.0,3.4477,0.2873,3.1699,-0.2091,0.8317,-0.0809
453701.0,3.4955,0.091,2.8683,-0.1564,1.1153,-0.1485
453711.0,3.1675,0.0215,1.9632,-0.1405,1.3255,-0.241
453721.0,2.296,0.012,0.8691,-0.0979,1.6256,-0.3416
453731.0,1.5275,0.0431,0.158,0.0851,2.1971,-0.4124
453741.0,0.8045,-0.0096,0.4142,0.265,2.8856,-0.4943
453751.0,0.0359,-0.012,1.2833,0.364,3.4939,-0.6162
453761.0,-0.6919,0.2993,2.1165,0.4001,3.9786,-0.7987
453771.0,-1.6999,1.1732,2.8802,0.3437,4.3883,-1.0222
453781.0,-3.2561,2.5714,3.5985,0.1123,4.6964,-1.2249
453791.0,-6.0166,4.5777,4.5442,-0.3485,4.9103,-1.3223
453801.0,-8.406,5.6,8.4922,-0.8221,5.195,-1.1877
453811.0,-9.1075,5.6312,14.0971,-0.7811,5.5058,-0.8152
453821.0,-8.7293,4.9584,19.812,-0.306,5.5015,-0.3996
453831.0,-8.248,4.64,23.7625,0.3017,5.0061,-0.116
453841.0,-7.9248,5.2146,25.8861,0.7295,4.1052,-0.0005
453851.0,-7.9679,6.3566,26.7504,0.8461,2.9687,0.0383
453861.0,-8.1499,7.58,25.9053,0.8721,1.8353,0.1325
453871.0,-8.3749,8.4132,23.6427,0.8062,0.8147,0.2921
453881.0,-8.1954,8.4731,20.717,0.531,-0.0176,0.4816
453891.0,-7.932,7.7069,18.4593,0.1235,-0.605,0.6534
453901.0,-7.5154,6.7732,16.6277,-0.1804,-0.9307,0.7875
453911.0,-7.2784,5.94,15.196,-0.3794,-1.1057,0.8753
453921.0,-7.1754,5.3989,14.0037,-0.4917,-1.2169,0.936
453931.0,-6.7014,4.9009,13.2375,-0.4949,-1.2361,0.9897
453941.0,-6.5314,4.5897,13.0604,-0.3491,-1.1217,1.0509
453951.0,-5.9664,4.7908,13.4363,-0.1133,-0.9716,1.1153
453961.0,-5.8275,5.1739,13.781,0.0367,-0.9243,1.1973
453971.0,-5.4277,5.023,13.8409,-0.0788,-1.176,1.2845
453981.0,-4.8722,4.5633,13.2711,-0.2767,-1.4995,1.3643
453991.0,-4.3934,3.8475,12.4139,-0.5007,-1.7794,1.4202
454001.0,-3.8116,3.0191,11.5233,-0.68,-1.9741,1.4452
454011.0,-3.1819,2.3128,10.7739,-0.7732,-2.0641,1.4335
454021.0,-2.5786,1.7861,9.8857,-0.8535,-2.1316,1.3814
454031.0,-2.0686,1.3599,9.0166,-0.9716,-2.1859,1.2984
454041.0,-1.7549,0.984,8.2791,-1.0749,-2.1902,1.2042
454051.0,-1.4629,0.6536,7.8147,-1.1015,-2.129,1.1153
454061.0,-1.1229,0.395,7.331,-1.0041,-1.9933,1.0387
454071.0,-0.7973,0.2993,7.1132,-0.8386,-1.7916,0.969
454081.0,-0.5483,0.2705,7.0581,-0.6726,-1.5884,0.9067
454091.0,-0.2969,0.2203,7.094,-0.5241,-1.4021,0.8503
454101.0,0.0263,0.1149,7.4148,-0.3837,-1.2233,0.7955
454111.0,0.3184,0.0024,7.6112,-0.2629,-1.085,0.7253
454122.0,0.4573,0.2251,7.9751,-0.1634,-0.9722,0.6316
454131.0,0.3304,0.8116,8.5736,-0.0559,-0.8349,0.5539
454141.0,0.2873,1.166,9.4762,-0.0325,-0.8077,0.5279
454151.0,0.4022,1.2234,10.1658,-0.0335,-0.8822,0.5396
454161.0,0.6895,1.087,10.1801,-0.0905,-1.1009,0.547
454171.0,1.0247,0.8332,9.6055,-0.191,-1.3872,0.5305
454181.0,1.3024,0.6464,8.7149,-0.265,-1.5931,0.4917
454191.0,1.549,0.6919,7.8913,-0.248,-1.6549,0.4486
454201.0,1.652,0.7877,7.0892,-0.1846,-1.6458,0.422
454211.0,1.9034,0.7901,6.2656,-0.1245,-1.6325,0.4103
454221.0,2.1811,0.7853,5.1834,-0.0383,-1.5447,0.4028
454231.0,2.2577,0.8428,4.0797,0.0128,-1.3718,0.389
454241.0,2.4995,0.7997,3.6512,0.0394,-1.0775,0.3762
454251.0,2.8395,0.7997,3.8068,0.0889,-0.7029,0.3661
454261.0,3.0119,0.759,4.2856,0.0915,-0.4097,0.348
454271.0,3.1603,0.7183,4.7214,0.074,-0.2134,0.3108
454281.0,3.2394,0.9433,5.0589,0.1101,-0.0165,0.2783
454291.0,3.1412,1.063,5.4396,0.0984,0.1027,0.2591
454301.0,3.1029,0.9864,5.5545,0.0239,0.108,0.2448
454311.0,3.2394,0.7757,5.0015,-0.05,0.0436,0.2309
454321.0,3.5745,0.3974,3.8858,-0.0772,0.0335,0.2123
454331.0,3.7373,0.0263,2.3966,-0.017,0.2049,0.1836
454341.0,3.2825,-0.1628,0.8787,0.0399,0.5337,0.124
454351.0,2.8252,-0.4549,-0.182,0.0059,0.9668,0.0426
454361.0,2.399,-0.7614,-0.7326,-0.091,1.4713,-0.066
454371.0,1.2617,-1.0894,-0.5411,-0.1862,2.0433,-0.1932
454381.0,0.4549,-1.3767,0.4238,-0.1139,2.7037,-0.3134
454391.0,-0.407,-1.5179,2.1739,0.0974,3.3959,-0.4427
454401.0,-1.2546,-1.5802,4.0893,0.3688,3.9398,-0.5928
454411.0,-2.3822,-1.3982,6.1483,0.6875,4.4064,-0.7769
454421.0,-3.5745,-0.917,8.0948,0.9594,4.7161,-0.9919
454431.0,-4.6591,-0.2562,9.6845,1.0813,4.8348,-1.2196
454441.0,-5.9352,0.3328,11.1642,1.0504,4.7895,-1.4351
454451.0,-7.3119,0.7973,12.6605,0.9919,4.6799,-1.6033
454461.0,-8.1427,0.9529,14.4179,1.0935,4.6054,-1.7171
454471.0,-8.6455,1.4485,16.0938,1.3377,4.532,-1.8353
454481.0,-9.2057,2.6193,18.2606,1.5442,4.3963,-1.9656
454491.0,-9.3925,4.0654,20.6021,1.5325,3.9749,-2.0747
454501.0,-8.6766,5.3439,22.6156,1.3159,3.231,-2.1295
454511.0,-8.5018,6.6295,23.0538,1.1137,2.3626,-2.113
454521.0,-10.2113,7.4364,23.2238,0.9472,1.5495,-1.9667
454531.0,-10.7069,8.3438,22.4839,1.0163,0.8716,-1.6698
454541.0,-9.9886,8.3103,21.8447,1.0456,0.1777,-1.3037
454551.0,-9.165,8.0134,20.1616,1.0658,-0.4454,-0.9317
454561.0,-8.7604,7.1611,18.7394,0.9722,-0.9168,-0.613
454571.0,-7.8314,6.201,17.3987,0.8163,-1.309,-0.3815
454581.0,-7.1898,5.5474,16.2207,0.597,-1.6049,-0.248
454591.0,-6.8019,4.8147,15.3684,0.2826,-1.947,-0.1916
454601.0,-6.0741,4.142,14.1306,0.0495,-2.2471,-0.1857
454611.0,-6.0549,4.0366,12.9119,-0.0873,-2.3663,-0.2299
454621.0,-5.9209,3.8116,12.2775,-0.2996,-2.4621,-0.281
454631.0,-5.3056,3.3854,11.8992,-0.5667,-2.5765,-0.3358
454641.0,-4.9321,2.873,11.7124,-0.9025,-2.751,-0.4331
454651.0,-4.4939,2.3607,11.2288,-1.2563,-3.0006,-0.5773
454661.0,-4.1683,2.0183,10.6901,-1.5112,-3.1943,-0.7466
454671.0,-3.8283,1.8794,10.1754,-1.5852,-3.2789,-0.9078
454681.0,-3.4931,2.0758,9.5098,-1.492,-3.2778,-1.0371
454691.0,-3.1412,2.3846,8.8107,-1.3117,-3.2395,-1.1164
454701.0,-2.7892,2.7677,7.9033,-1.1121,-3.1565,-1.1387
454711.0,-2.2697,2.976,7.0461,-0.9833,-3.0708,-1.1249
454721.0,-1.6328,3.1747,6.1938,-0.8918,-2.9405,-1.0871
454731.0,-1.1037,3.3064,5.6312,-0.8418,-2.7734,-1.036
454741.0,-0.5124,3.3662,5.2194,-0.8024,-2.5893,-0.9626
454751.0,-0.012,3.3232,4.8219,-0.7716,-2.4094,-0.8743
454761.0,0.4142,3.2082,4.4676,-0.7434,-2.246,-0.7827
454771.0,0.8499,3.1173,4.1994,-0.6657,-2.0401,-0.6816
454781.0,1.3886,2.885,3.9313,-0.572,-1.8374,-0.58
454791.0,1.6975,2.6169,3.5075,-0.4784,-1.6384,-0.506
454801.0,1.9728,2.5786,3.3208,-0.3709,-1.3766,-0.4672
454811.0,2.0997,2.9233,3.225,-0.2996,-1.0999,-0.4486
454821.0,2.2482,3.1699,3.3662,-0.3767,-0.9152,-0.4305
454831.0,2.3679,3.4165,3.4548,-0.4997,-0.7742,-0.3927
454841.0,2.5235,3.5003,3.4668,-0.5922,-0.6231,-0.3246
454851.0,2.7677,3.4405,3.2154,-0.6311,-0.4571,-0.2299
454861.0,3.0143,3.371,2.8659,-0.63,-0.2602,-0.1288
454871.0,2.9233,3.4405,2.4253,-0.5848,0.0388,-0.0255
454881.0,2.3535,3.4572,2.4828,-0.5699,0.3794,0.0899
454891.0,1.9537,3.2585,2.8826,-0.5252,0.7077,0.2283
454901.0,1.7933,2.9544,3.371,-0.3485,1.0605,0.3789
454911.0,1.8028,2.6288,3.6727,-0.1346,1.3739,0.5092
454921.0,1.7789,2.2769,3.7206,0.0133,1.6288,0.5938
454931.0,1.889,1.9848,3.7182,0.0346,1.8076,0.6204
454941.0,1.9273,1.7597,3.6512,-0.0319,1.9518,0.6029
454951.0,1.7238,1.7286,3.1723,-0.1368,2.0912,0.5491
454961.0,1.2905,1.8723,2.5666,-0.2506,2.2578,0.4784
454971.0,0.0982,2.2936,1.8675,-0.3469,2.4983,0.4188
454981.0,-1.7454,2.7342,1.6759,-0.3767,2.8452,0.4124
454991.0,-4.1108,3.3016,2.9137,-0.1479,3.4481,0.5177
455001.0,-5.7892,3.5626,5.6096,0.4997,4.1829,0.7668
455011.0,-6.28,3.553,8.7628,1.5123,4.8731,1.0685
455021.0,-6.778,3.8355,11.3509,2.5749,5.3977,1.2712
455031.0,-6.7325,4.5466,13.2016,3.2134,5.5483,1.2765
455041.0,-7.1754,6.0094,14.9087,3.2464,5.3993,1.0914
455051.0,-7.9679,7.8458,16.5248,2.7276,4.9721,0.8503
455061.0,-8.9807,9.584,18.0714,1.8933,4.4022,0.687
455071.0,-10.829,10.7069,19.7115,0.9269,3.7264,0.6614
455081.0,-10.7069,10.8697,20.5614,0.0484,2.9319,0.7923
455091.0,-11.2911,10.2807,22.2828,-0.6055,2.2758,1.0089
455101.0,-11.6047,9.074,23.9588,-0.7944,1.649,1.3005
455111.0,-11.3126,7.8386,24.3347,-0.5518,1.0052,1.6006
455121.0,-10.8218,6.8354,23.4105,-0.2602,0.2826,1.8278
455131.0,-10.1203,6.1172,21.5095,-0.1772,-0.5098,1.9481
455141.0,-9.3518,5.5426,19.3068,-0.2059,-1.1648,1.9981
455151.0,-8.7724,5.0661,16.9605,-0.2533,-1.5985,2.0109
455161.0,-8.0972,4.7262,14.7267,-0.3597,-1.8565,1.9981
455171.0,-7.4077,4.2353,12.7156,-0.5805,-1.9917,1.9704
455181.0,-6.7421,3.4237,11.3437,-0.9418,-2.063,1.9098
455191.0,-5.8682,2.5019,10.568,-1.3239,-2.0587,1.8097
455201.0,-5.0733,1.6065,10.4339,-1.6597,-2.0188,1.6655
455211.0,-4.3981,0.9505,10.2639,-1.9358,-2.0444,1.4755
455221.0,-3.7613,0.5986,10.2376,-2.1593,-2.0976,1.2579
455231.0,-3.2609,0.4525,10.4962,-2.2609,-2.129,1.0536
455241.0,-2.9353,0.5076,10.5441,-2.2226,-2.1843,0.8892
455251.0,-2.7605,0.6201,10.2951,-2.079,-2.2679,0.7769
455261.0,-2.715,0.7949,9.7516,-1.8528,-2.3397,0.7184
455271.0,-2.4924,0.8188,9.1913,-1.5676,-2.3578,0.7045
455281.0,-1.8148,0.7781,8.7604,-1.1648,-2.2492,0.7354
455291.0,-1.2905,0.814,8.2432,-0.795,-2.1199,0.7636
455301.0,-0.9266,0.9744,7.6447,-0.6082,-2.0689,0.7625
455311.0,-0.5219,1.0942,7.0509,-0.58,-2.0486,0.7444
455321.0,-0.091,1.2402,6.3686,-0.6284,-2.0055,0.7274
455331.0,0.1077,1.3096,6.0142,-0.7056,-1.8991,0.721
455341.0,0.1484,1.3767,6.3494,-0.7152,-1.7118,0.7407
455351.0,0.0479,1.5227,7.0294,-0.5805,-1.499,0.8056
455361.0,0.2059,1.5179,7.9631,-0.3602,-1.3399,0.9179
455371.0,0.3232,1.4413,8.4779,-0.1368,-1.3154,1.0493
455381.0,0.6871,1.0942,8.3007,-0.0176,-1.4734,1.1659
455391.0,1.1277,0.6776,7.4412,0.0575,-1.6389,1.2467
455401.0,1.5155,0.1844,6.3135,0.0921,-1.7193,1.2877
455411.0,1.7933,-0.2131,5.363,0.1309,-1.6825,1.2872
455421.0,2.0806,-0.4764,4.3981,0.2011,-1.5399,1.2563
455431.0,2.3918,-0.577,3.6631,0.2373,-1.3292,1.1903
455441.0,2.4445,-0.4142,3.4046,0.2022,-1.0541,1.1068
455451.0,2.557,-0.3783,3.4141,0.0234,-0.8982,1.0179
455461.0,2.7916,-0.5076,3.2417,-0.2006,-0.8487,0.9275
455471.0,3.1053,-0.723,2.7438,-0.3033,-0.7285,0.8429
455481.0,3.0981,-0.8068,2.2362,-0.2522,-0.4784,0.7668
455491.0,3.0047,-0.7709,1.6544,-0.067,-0.1282,0.7056
455501.0,2.7557,-0.6704,1.1636,0.2075,0.339,0.6694
455511.0,2.3248,-0.7566,1.1325,0.5135,0.912,0.6593
455521.0,2.296,-1.1157,1.4964,0.7881,1.4862,0.6492
455531.0,2.4157,-1.5921,2.2841,0.9535,1.989,0.5816
455541.0,2.0949,-1.8196,3.2346,0.9935,2.3711,0.4358
455551.0,1.5419,-1.7549,3.9552,0.8806,2.5823,0.2256
455561.0,1.0726,-1.5826,4.4436,0.6071,2.6462,-0.0117
455571.0,0.4932,-1.4868,4.7309,0.3267,2.7069,-0.2304
455581.0,-0.1963,-1.3479,5.2218,0.183,2.8947,-0.415
455591.0,-1.0702,-1.0942,5.7174,0.1155,3.0937,-0.5789
455601.0,-1.4892,-0.8859,6.4596,0.0628,3.2331,-0.7295
455611.0,-1.992,-0.3448,6.9192,0.074,3.3693,-0.8551
455621.0,-2.9784,-0.237,7.7261,0.0325,3.4699,-0.9291
455631.0,-4.0582,-0.4764,8.8131,0.0921,3.588,-0.9567
455641.0,-4.2521,-0.4453,10.4459,0.3831,3.7833,-1.0025
455651.0,-4.4796,0.4262,12.4498,0.8115,3.9898,-1.0855
455661.0,-5.4468,2.1428,14.7698,1.235,4.085,-1.1621
455671.0,-6.5529,4.3766,16.8528,1.5735,3.9813,-1.1669
455681.0,-7.3837,6.4189,18.7993,1.7852,3.6838,-1.0515
455691.0,-8.1977,7.9104,20.8415,1.8917,3.3177,-0.8083
455701.0,-8.5305,8.3175,22.7306,1.9119,2.7808,-0.4752
455711.0,-8.4779,7.8123,23.7433,1.9103,2.0566,-0.1431
455721.0,-8.3294,7.1323,23.3459,1.8736,1.2345,0.1027
455731.0,-8.0828,6.3925,22.2373,1.8071,0.4768,0.2522
455741.0,-8.0732,5.7844,20.547,1.7852,-0.1171,0.3347
455751.0,-7.829,5.2936,18.3563,1.7491,-0.5869,0.3634
455761.0,-7.2808,4.8602,16.2518,1.5639,-0.9317,0.3203
455771.0,-6.5936,4.5538,14.6549,1.1808,-1.1824,0.1942
455781.0,-6.2704,4.4939,13.6422,0.679,-1.3766,0.0064
455791.0,-6.122,4.5993,13.228,0.1463,-1.55,-0.1942
455801.0,-5.9592,4.7309,13.1226,-0.3108,-1.74,-0.365
455811.0,-5.7796,4.7166,12.8449,-0.6896,-1.9848,-0.4959
455821.0,-5.6144,4.6448,12.5001,-0.9514,-2.2178,-0.5896
455831.0,-5.4516,4.5657,12.2703,-1.0797,-2.3823,-0.6524
455841.0,-4.9871,4.8195,12.2918,-1.0153,-2.4552,-0.68
455851.0,-4.8387,5.272,11.5377,-0.8897,-2.5472,-0.6609
455861.0,-4.5107,5.3893,10.6255,-0.9679,-2.7505,-0.6247
455871.0,-4.0534,5.2361,9.4786,-1.1595,-2.9383,-0.5763
455881.0,-3.6176,4.8171,8.442,-1.3526,-3.033,-0.5263
455891.0,-3.1843,4.3359,7.6327,-1.4378,-2.9862,-0.4704
455901.0,-2.6145,3.8738,7.1706,-1.3995,-2.8298,-0.4113
455911.0,-2.1548,3.4596,7.0988,-1.2702,-2.6004,-0.3565
455921.0,-1.6257,3.3639,7.2209,-1.0823,-2.3498,-0.3161
455931.0,-1.1827,3.3543,7.3646,-1.0318,-2.228,-0.2964
455941.0,-0.7111,3.3208,7.3694,-1.135,-2.2232,-0.2932
455951.0,-0.3089,3.1747,7.2496,-1.276,-2.2423,-0.2895
455961.0,0.0599,2.9305,7.0078,-1.3877,-2.2583,-0.2772
455971.0,0.2155,2.6647,6.7229,-1.3893,-2.2061,-0.2496
455981.0,0.34,2.332,6.6487,-1.2489,-2.0731,-0.1963
455991.0,0.6369,1.9896,6.6463,-0.9748,-1.8837,-0.1192
456001.0,1.2043,1.5251,6.4165,-0.6976,-1.7299,-0.0548
456011.0,1.8292,1.3096,6.0501,-0.5513,-1.6128,-0.0506
456021.0,2.2027,1.4078,5.9879,-0.5906,-1.5197,-0.1006
456031.0,2.5379,1.3886,5.8873,-0.795,-1.5484,-0.1713
456041.0,2.8108,1.3767,5.5067,-0.994,-1.5963,-0.2379
456051.0,3.0191,1.3815,4.9488,-1.0637,-1.5447,-0.2799
456061.0,3.2322,1.3695,4.3814,-1.002,-1.4026,-0.282
456071.0,3.4788,1.2689,3.8738,-0.8365,-1.1691,-0.2496
456081.0,3.6081,1.0942,3.62,-0.6013,-0.8817,-0.1969
456091.0,3.6536,0.8954,3.3926,-0.3177,-0.5837,-0.1293
456101.0,3.8379,0.5914,3.2298,0.0255,-0.2698,-0.0474
456111.0,3.972,0.1963,2.9544,0.3906,0.05,0.0309
456121.0,4.1108,-0.3112,1.9273,0.654,0.274,0.0814
456131.0,4.5945,-1.0774,0.2107,0.6252,0.4076,0.058
456141.0,4.6974,-1.9058,-1.6065,0.2639,0.5752,-0.0686
456151.0,4.4676,-2.9473,-2.8898,-0.3118,0.7992,-0.2985
456161.0,4.0654,-3.5985,-3.4237,-0.7428,1.1813,-0.605
456171.0,2.7414,-3.3567,-3.316,-0.6593,1.8949,-0.9014
456181.0,0.7374,-2.3391,-2.4565,-0.0862,2.8394,-1.1116
456191.0,-0.7039,-0.6033,-1.5395,0.7418,3.8599,-1.2244
456201.0,-2.2362,1.5443,-0.158,1.2755,4.7193,-1.2882
456211.0,-3.6272,3.5003,2.6552,1.3255,5.3658,-1.2904
456221.0,-4.7357,5.1092,7.3502,1.2058,5.8346,-1.1999
456231.0,-6.1986,6.5098,12.888,1.2404,6.081,-1.0217
456241.0,-7.7189,7.8362,16.6684,1.2435,5.7867,-0.7758
456251.0,-8.3318,7.9918,20.4632,1.0775,5.1705,-0.4938
456261.0,-9.0166,8.3941,23.2908,1.3149,4.6555,-0.1596
456271.0,-9.1387,8.2839,25.2636,1.682,4.0488,0.1894
456281.0,-8.7029,7.695,25.91,1.7719,3.1863,0.4635
456291.0,-8.1331,6.4835,25.9627,1.4755,2.1215,0.5976
456301.0,-7.446,5.2529,24.926,1.1228,1.0382,0.6034
456311.0,-6.9959,4.6519,22.5103,0.9232,0.1804,0.5231
456321.0,-6.8953,4.4867,19.6157,0.7152,-0.4491,0.3954
456331.0,-6.6032,4.3455,16.9653,0.4017,-0.8934,0.2474
456341.0,-6.0813,4.3,14.6214,0.0718,-1.0972,0.0995
456351.0,-5.7557,4.2904,13.544,-0.2677,-1.0844,-0.042
456361.0,-5.4253,4.1444,13.4554,-0.5545,-1.0073,-0.1485
456371.0,-5.0422,3.8786,13.805,-0.7652,-0.9956,-0.2283
456381.0,-4.9464,3.6966,14.2575,-0.9296,-1.0882,-0.3006
456391.0,-4.5945,3.6224,14.868,-0.9833,-1.2393,-0.3528
456401.0,-4.391,3.9121,14.8441,-0.8876,-1.425,-0.3762
456411.0,-4.276,4.3,14.2766,-0.828,-1.6969,-0.3693
456421.0,-3.8762,4.6471,13.4722,-0.7955,-1.9555,-0.3288
456431.0,-3.5291,4.8076,12.4714,-0.7944,-2.1593,-0.2517
456441.0,-3.1963,4.7285,11.2815,-0.828,-2.3397,-0.1527
456451.0,-2.8323,4.2976,10.1514,-0.8508,-2.4312,-0.0431
456461.0,-2.569,3.7661,9.0237,-0.8705,-2.4456,0.0601
456471.0,-2.0279,3.0047,8.3629,-0.8689,-2.3956,0.1426
456481.0,-1.4365,2.4205,7.6327,-0.7902,-2.2742,0.1894
456491.0,-1.0151,2.0207,7.0892,-0.7652,-2.1503,0.1846
456501.0,-0.565,1.913,6.7516,-0.7199,-1.9795,0.157
456511.0,-0.249,1.9728,6.5481,-0.7072,-1.8065,0.125
456521.0,0.0407,1.9632,6.5314,-0.7466,-1.6714,0.1022
456531.0,0.237,1.9393,6.6128,-0.7662,-1.5288,0.0905
456541.0,0.5459,1.81,6.7349,-0.7428,-1.3968,0.0905
456551.0,0.4214,1.7813,6.8067,-0.7258,-1.2989,0.0937
456561.0,0.5722,1.482,7.2449,-0.679,-1.1957,0.1117
456571.0,0.9146,1.2163,7.4986,-0.5289,-1.086,0.1373
456581.0,1.1923,1.0127,7.592,-0.4092,-1.0642,0.1336
456591.0,1.561,1.1181,7.4388,-0.2687,-1.0259,0.1133
456601.0,1.7549,1.403,7.0342,-0.1634,-0.9722,0.0942
456611.0,1.9896,1.7334,6.5601,-0.1453,-0.9184,0.0803
456621.0,2.1141,1.9249,6.0454,-0.2416,-0.8626,0.0772
456631.0,2.3679,1.9872,5.5162,-0.439,-0.8195,0.0729
456641.0,2.3559,1.901,5.193,-0.7066,-0.7636,0.0607
456651.0,2.3272,1.5586,5.0398,-0.9312,-0.6912,0.0639
456661.0,2.5355,1.2857,5.0159,-0.9599,-0.4986,0.0931
456671.0,2.4852,0.9912,5.6144,-0.8732,-0.2496,0.1314
456681.0,2.6312,0.656,6.0071,-0.6928,-0.1,0.1761
456691.0,2.8036,0.5171,6.0478,-0.3656,0.0596,0.2203
456701.0,2.8371,0.6033,5.7724,0.0287,0.2293,0.2783
456711.0,2.8012,0.4046,5.3941,0.4166,0.3837,0.3539
456721.0,3.0047,0.2538,3.723,0.8008,0.5422,0.4315
456731.0,3.2657,-0.1748,1.6328,0.8258,0.7098,0.4448
456741.0,3.5051,-0.9673,0.4525,0.4427,0.9142,0.3485
456751.0,3.0358,-1.5323,0.1532,-0.0883,1.2058,0.1639
456761.0,2.3655,-2.138,1.0487,-0.5444,1.5304,-0.0388
456771.0,1.9968,-2.5666,2.545,-0.6412,1.8422,-0.2246
456781.0,1.2953,-2.1739,3.2561,-0.2277,2.196,-0.3682
456791.0,0.3711,-1.2546,3.1795,0.4331,2.5962,-0.4683
456801.0,-0.8236,0.1652,2.9568,1.0797,3.0958,-0.5342
456811.0,-2.0925,2.0087,2.9999,1.5288,3.7179,-0.5619
456821.0,-3.4333,3.644,5.2768,1.5719,4.3798,-0.5619
456831.0,-4.8459,4.9033,9.0501,1.351,4.8742,-0.5103
456841.0,-6.6655,5.3965,13.9582,0.9674,5.0545,-0.414
456851.0,-7.5824,5.375,18.9405,0.6247,4.8534,-0.2815
456861.0,-8.2768,5.1834,23.6715,0.5273,4.4176,-0.1389
456871.0,-8.3797,5.2361,26.7696,0.6295,3.6535,-0.0229
456881.0,-8.2887,5.8706,28.1534,0.7487,2.7287,0.0463
456891.0,-8.7891,6.8953,28.6275,0.6337,1.7182,0.0931
456901.0,-9.0285,7.3023,28.4264,0.2442,0.539,0.165
456911.0,-8.8873,6.8785,27.2269,-0.0905,-0.5997,0.2996
456921.0,-8.5377,5.8395,24.8925,-0.257,-1.583,0.4512
456931.0,-7.9224,4.6735,21.8567,-0.2985,-2.3551,0.5598
456941.0,-7.2089,3.7661,18.3659,-0.2496,-2.8447,0.6141
456951.0,-6.1387,3.0047,15.117,-0.2043,-3.0437,0.6204
456961.0,-5.0326,2.2769,12.6917,-0.2261,-2.9937,0.5656
456971.0,-4.2258,1.9393,10.8409,-0.3432,-2.8218,0.4518
456981.0,-3.5291,1.7909,10.1514,-0.5507,-2.5893,0.3076
456991.0,-3.0718,1.7885,10.1634,-0.7657,-2.3732,0.1692
457001.0,-2.7485,1.7645,10.568,-0.9413,-2.2514,0.058
457011.0,-2.3703,1.7573,10.7404,-1.0488,-2.2306,-0.0218
457021.0,-2.0375,1.7023,10.5273,-1.1467,-2.3179,-0.0814
457031.0,-1.6831,1.5634,10.1251,-1.2132,-2.42,-0.1213
457041.0,-1.391,1.4581,9.6127,-1.1722,-2.4568,-0.1362
457051.0,-0.9266,1.3264,9.0716,-1.0382,-2.4403,-0.1288
457061.0,-0.4573,1.2641,8.497,-0.8503,-2.3727,-0.1091
457071.0,-0.0575,1.3001,7.7309,-0.7029,-2.3189,-0.0931
457081.0,0.3926,1.3575,6.8211,-0.663,-2.2918,-0.0963
457091.0,0.7302,1.4724,5.8873,-0.6854,-2.2205,-0.1038
457101.0,1.0463,1.3886,5.3822,-0.7173,-2.0651,-0.0952
457111.0,1.3958,1.2665,5.0087,-0.6604,-1.8347,-0.0681
457121.0,1.8435,1.0942,4.6783,-0.5587,-1.5756,-0.0351
457131.0,2.0782,0.972,4.4125,-0.4736,-1.317,-0.0165
457141.0,2.1644,0.9026,4.2018,-0.4401,-1.0685,-0.0181
457151.0,2.3607,0.9242,4.3622,-0.4358,-0.8051,-0.0303
457161.0,2.3679,0.9529,4.8123,-0.4597,-0.5481,-0.0372
457171.0,2.3679,0.8116,5.4229,-0.5044,-0.3725,-0.0452
