time_ms,ax,ay,az,gx,gy,gz
287311.0,2.1955,1.0175,10.3262,-0.1048,0.0293,-0.0309
287321.0,2.2003,0.9385,10.1825,-0.0793,0.0431,-0.0245
287331.0,2.2697,0.8428,10.1131,-0.0569,0.0607,-0.0218
287341.0,2.296,0.7733,10.0389,-0.0479,0.0782,-0.0309
287351.0,2.2051,0.7374,10.1107,-0.0436,0.1011,-0.0468
287361.0,2.2098,0.8571,10.1299,-0.0271,0.1208,-0.0617
287371.0,2.1644,0.9098,10.2663,-0.0218,0.1266,-0.0697
287381.0,2.1189,1.0056,10.1586,-0.0223,0.1091,-0.0756
287391.0,2.0973,1.1851,10.0461,-0.0261,0.0963,-0.0788
287401.0,2.1045,1.2929,9.9311,-0.041,0.1016,-0.0766
287411.0,2.1332,1.4006,9.8881,-0.0681,0.1229,-0.0697
287421.0,2.1165,1.47,9.9623,-0.1054,0.1389,-0.058
287431.0,2.0973,1.4653,10.0317,-0.1272,0.1474,-0.0367
287441.0,2.15,1.3192,10.161,-0.1165,0.1538,-0.0074
287451.0,2.3224,1.1588,10.1323,-0.0915,0.1421,0.016
287461.0,2.4756,1.0391,9.8593,-0.0883,0.116,0.0223
287471.0,2.7294,0.9888,9.4595,-0.108,0.1048,0.0154
287481.0,2.8683,1.0606,9.1913,-0.1756,0.1235,-0.0043
287491.0,2.9305,1.0798,9.0309,-0.2618,0.1729,-0.017
287501.0,2.9808,1.0008,9.2225,-0.3081,0.2804,-0.0144
287511.0,2.8036,0.8763,9.572,-0.2762,0.4284,0.0053
287521.0,2.6743,0.7614,9.9742,-0.2261,0.5773,0.0261
287531.0,2.3152,0.5818,10.8553,-0.2368,0.7077,0.0309
287541.0,1.8771,0.3663,12.1506,-0.2496,0.7827,0.0255
287551.0,1.3551,0.2203,13.8145,-0.1027,0.8657,0.0346
287561.0,0.759,0.2634,15.4115,0.232,0.9424,0.067
287571.0,-0.0575,0.3903,16.9701,0.6082,0.9174,0.1032
287581.0,-0.5578,0.6871,17.7339,0.986,0.7817,0.1336
287591.0,-0.5722,1.1564,18.0403,1.2127,0.5853,0.1266
287601.0,-0.8595,2.0446,18.105,1.1063,0.3161,0.0484
287611.0,-1.1301,2.8898,18.761,0.5848,-0.0894,-0.0761
287621.0,-1.3838,3.2561,19.5127,-0.0878,-0.6013,-0.1836
287631.0,-1.6735,3.3303,19.9676,-0.6619,-1.1557,-0.249
287641.0,-1.5467,3.2226,19.4673,-1.0876,-1.773,-0.274
287651.0,-1.5083,2.9568,18.4928,-1.4149,-2.353,-0.2767
287661.0,-1.3503,2.7988,17.0898,-1.5905,-2.8516,-0.2554
287671.0,-1.2115,2.5187,15.3325,-1.6357,-3.2704,-0.1985
287681.0,-0.9481,1.9273,13.5392,-1.5607,-3.5689,-0.1133
287691.0,-0.5626,1.2953,11.7005,-1.3361,-3.7631,-0.0149
287701.0,0.1006,0.5866,9.5074,-1.0408,-3.8967,0.0798
287711.0,0.8811,0.1484,6.62,-0.7833,-3.9653,0.1517
287721.0,1.9872,-0.4597,3.1627,-0.7444,-4.0127,0.1857
287731.0,3.1747,-1.0989,-0.4621,-0.912,-3.9148,0.1671
287741.0,4.786,-1.6376,-3.1436,-1.1829,-3.5763,0.0937
287751.0,6.1339,-1.9632,-4.6902,-1.3473,-3.0144,0.0144
287761.0,7.2042,-2.2721,-5.6,-1.3106,-2.3881,-0.0357
287771.0,7.6136,-2.7222,-6.7109,-1.1951,-1.8704,-0.0601
287781.0,8.1163,-3.3782,-7.9679,-0.9275,-1.3691,-0.0654
287791.0,8.6574,-3.4477,-9.7636,-0.423,-0.7205,-0.1011
287801.0,8.3701,-2.8539,-11.8824,-0.0383,-0.05,-0.1873
287811.0,8.1259,-1.2929,-14.5687,0.0921,0.6912,-0.29
287821.0,7.0892,0.0503,-15.6198,-0.2613,1.5405,-0.373
287831.0,5.2984,0.3328,-14.1138,-0.688,2.5313,-0.3613
287841.0,3.8259,0.7757,-12.0093,-0.8375,3.4944,-0.3161
287851.0,1.5395,1.2761,-10.0437,-1.0781,4.0999,-0.2756
287861.0,-0.5578,1.1779,-7.9942,-1.3345,4.4724,-0.1825
287871.0,-2.3846,-0.3448,-4.4556,-1.06,5.0998,0.0192
287881.0,-4.4341,-2.3798,-0.1748,-0.1101,5.9496,0.24
287891.0,-6.1746,-3.9696,4.446,1.1691,6.7727,0.348
287901.0,-7.9416,-4.6998,10.0006,2.5653,7.7066,0.315
287911.0,-10.137,-3.7517,16.7666,3.7445,8.5644,0.0984
287921.0,-13.204,-0.6752,26.5038,4.251,8.9645,-0.2927
287931.0,-15.1433,3.3543,37.2322,4.2787,8.4915,-0.6029
287941.0,-14.8488,7.0629,45.7795,4.0552,7.1218,-0.7285
287951.0,-14.0947,10.1347,51.2048,3.2496,4.8922,-0.7849
287961.0,-13.4219,11.6382,52.3995,2.0625,2.0135,-0.7497
287971.0,-12.1625,11.8034,47.5752,0.9908,-0.9668,-0.6024
287981.0,-10.647,10.9607,37.5722,-0.0112,-3.6029,-0.4299
287991.0,-8.8992,9.4834,25.697,-0.9684,-5.3898,-0.3001
288001.0,-7.003,7.6591,15.7945,-1.7288,-6.1597,-0.2293
288011.0,-4.5849,6.1411,8.0397,-1.9257,-6.0145,-0.1586
288021.0,-2.5738,4.9129,3.3878,-1.6123,-5.0976,-0.0617
288031.0,-1.1899,3.8044,1.7549,-1.0509,-3.8573,0.0426
288041.0,-0.1628,3.4668,2.4373,-0.423,-2.594,0.1091
288051.0,0.261,3.4381,4.8123,0.0122,-1.6251,0.1357
288061.0,0.5459,3.6895,6.9959,0.2293,-1.0871,0.1442
288071.0,0.7733,4.0223,8.8514,0.1719,-0.8796,0.1336
288081.0,0.6776,4.1587,10.3573,-0.1447,-0.9573,0.1123
288091.0,0.5866,4.1851,10.9798,-0.5582,-1.2558,0.107
288101.0,0.5267,4.1779,11.6526,-0.9386,-1.6144,0.1426
288111.0,0.9697,3.9409,10.7619,-1.0882,-2.0806,0.2746
288121.0,1.6137,3.7038,7.4292,-1.1552,-2.5318,0.4624
288131.0,1.992,2.8826,4.0151,-1.4787,-2.8335,0.6428
288141.0,2.4157,1.4245,0.395,-1.996,-3.0517,0.7849
288151.0,3.2872,0.3663,-3.4644,-2.5031,-3.0793,0.8274
288161.0,5.0949,0.316,-7.9152,-3.0687,-2.9703,0.7886
288171.0,6.0813,1.2498,-10.6973,-3.6375,-2.6382,0.7492
288181.0,2.7677,2.8563,-13.2711,-3.6226,-2.0428,0.9067
288191.0,2.8299,3.8499,-19.575,-2.7148,-1.4665,1.3452
288201.0,3.5099,3.3998,-25.9867,-1.2505,-0.3539,1.9098
288211.0,2.2889,2.8802,-32.3983,0.6199,1.5272,2.4525
288221.0,-0.3879,1.7502,-35.7981,2.1524,3.8397,2.8106
288231.0,-4.1635,-1.0223,-33.5643,3.2432,6.5014,2.9729
288241.0,-10.7691,-3.2202,-24.1743,4.1664,9.3854,2.8276
288251.0,-17.765,-4.367,-10.2065,5.2493,11.8129,2.4844
288261.0,-23.0873,-5.3175,5.4229,6.3949,13.4555,1.9236
288271.0,-27.7129,-3.1316,18.7777,6.9765,13.8828,1.0036
288281.0,-27.1933,-0.1484,35.6257,6.4093,13.3204,-0.0729
288291.0,-26.8677,4.786,51.5112,5.4265,11.6107,-1.0174
288301.0,-27.3154,9.73,58.5143,4.0579,8.2334,-1.6586
288311.0,-25.436,13.5919,60.6116,2.7132,4.7017,-1.8874
288321.0,-24.3514,17.0012,58.5646,1.9805,1.6767,-1.6724
288331.0,-21.0043,17.5184,51.3053,1.2398,-1.3877,-1.1834
288341.0,-18.6963,15.8113,41.9273,0.6252,-3.6444,-0.6311
288351.0,-16.2566,12.6007,31.8477,0.2959,-5.1125,-0.1336
288361.0,-13.7475,9.153,22.8598,0.3304,-5.7287,0.2315
288371.0,-11.801,7.1563,16.0675,0.6657,-5.5361,0.4576
288381.0,-10.3094,5.849,10.9056,0.8689,-5.1258,0.5672
288391.0,-8.4276,5.7628,7.5896,0.7301,-4.6033,0.539
288401.0,-7.4891,5.4468,8.5305,0.3235,-3.8562,0.4539
288411.0,-7.3406,5.6814,10.3813,-0.125,-3.3874,0.3315
288421.0,-7.0054,6.0956,12.8401,-0.837,-3.4587,0.1554
288431.0,-7.1132,6.8426,14.6214,-1.4729,-3.8057,0.0138
288441.0,-7.6088,7.4651,14.8369,-1.9752,-4.3772,-0.042
288451.0,-7.8602,6.8738,14.7698,-2.3482,-5.0077,0.0043
288461.0,-7.6686,5.9735,13.6374,-2.2684,-5.4494,0.1256
288471.0,-7.0413,4.9536,11.6909,-2.0438,-5.8681,0.2442
288481.0,-6.5194,4.0223,9.2081,-1.798,-6.1619,0.3448
288491.0,-5.8538,3.4453,6.3398,-1.5527,-6.3109,0.4198
288501.0,-4.2569,3.0143,3.1795,-1.3963,-6.3545,0.4784
288511.0,-2.873,2.5235,0.4118,-1.3313,-6.1518,0.5454
288521.0,-1.154,1.7095,-1.4676,-1.3319,-5.7468,0.6146
288531.0,-0.814,1.0942,-2.6743,-1.384,-5.2988,0.6566
288541.0,-0.0168,0.1556,-4.0199,-1.45,-4.8869,0.696
288551.0,1.6544,-0.8332,-4.1803,-1.4404,-4.3548,0.6864
288561.0,2.8108,-1.6017,-3.5841,-1.1818,-3.7322,0.6529
288571.0,4.4556,-2.5642,-2.5618,-0.6572,-3.1198,0.6146
288581.0,5.8323,-2.8874,-2.1261,0.0585,-2.5376,0.5332
288591.0,6.2991,-2.4157,-2.138,0.6141,-2.0944,0.4012
288601.0,6.7828,-1.6065,-2.332,0.8679,-1.7703,0.2687
288611.0,6.9432,-0.7494,-3.0718,0.8806,-1.4936,0.1809
288621.0,7.0749,-0.5674,-3.5745,0.6619,-1.2377,0.1463
288631.0,7.1036,-0.9601,-3.5602,0.4001,-0.9078,0.1245
288641.0,6.8019,-1.3647,-3.0574,0.2591,-0.5236,0.0718
288651.0,6.4332,-1.585,-2.2075,0.2937,-0.1272,-0.0053
288661.0,6.0597,-1.3647,-0.9385,0.5076,0.2799,-0.0883
288671.0,5.8754,-0.9553,0.0527,0.7822,0.5832,-0.1612
288681.0,6.5577,-0.8068,0.3448,0.862,0.6518,-0.2469
288691.0,6.5888,-0.2801,0.6033,0.7753,0.6492,-0.3672
288701.0,6.177,0.5842,-0.2442,0.6013,0.5603,-0.4736
288711.0,6.2201,1.5802,-3.5482,0.1149,0.249,-0.5603
288721.0,5.5234,2.8802,-8.5688,-0.8886,-0.0548,-0.6385
288731.0,4.5586,4.5155,-14.5951,-2.2961,-0.1953,-0.6715
288741.0,3.4141,7.276,-21.1911,-3.7269,-0.0319,-0.5965
288751.0,-0.4549,13.4267,-30.7535,-4.5581,0.8312,-0.1724
288761.0,-3.2346,16.2303,-38.3264,-4.93,2.3259,0.8759
288771.0,-7.4891,14.7914,-42.3391,-3.9084,5.3557,2.4078
288781.0,-14.9518,7.8147,-36.8587,-2.3722,9.1156,3.9009
288791.0,-25.3354,-0.0862,-21.0522,-0.5018,12.8276,4.9268
288801.0,-35.3815,-5.2696,-1.324,1.9757,15.5079,5.2222
288811.0,-37.4501,-11.248,17.9828,4.4932,16.5093,4.7369
288821.0,-38.5323,-10.6949,31.941,6.6264,16.3577,3.4635
288831.0,-34.601,-5.7365,41.2425,6.9435,14.4937,1.8028
288841.0,-31.6466,0.6512,48.8944,5.7787,12.0923,0.3358
288851.0,-28.9172,4.0486,57.3387,3.8025,9.553,-0.6635
288861.0,-26.9348,4.8339,64.562,1.5947,6.4407,-1.3085
288871.0,-25.2732,5.7365,68.7663,0.2426,2.9447,-1.6107
288881.0,-23.6092,7.5705,64.2628,0.4353,-0.5284,-1.4431
288891.0,-21.8016,8.5138,53.2614,1.467,-3.447,-0.9488
288901.0,-19.1871,8.7364,37.4908,2.5063,-5.5095,-0.3597
288911.0,-14.8321,7.1778,22.5797,2.8463,-6.5163,0.099
288921.0,-11.0995,6.1124,11.1115,2.6579,-6.2592,0.2953
288931.0,-8.6072,5.0206,6.0262,1.9704,-5.2743,0.2607
288941.0,-6.9025,4.4556,5.3199,1.2521,-4.1223,0.1048
288951.0,-6.1603,4.9201,7.762,0.6955,-3.1022,-0.1011
288961.0,-6.2249,6.0071,11.7196,0.2708,-2.5462,-0.2655
288971.0,-6.1292,7.0916,14.6836,-0.1011,-2.5744,-0.3294
288981.0,-6.2848,7.6998,16.4841,-0.5215,-3.0283,-0.3118
288991.0,-6.5697,7.7309,16.6804,-0.944,-3.7434,-0.2384
289001.0,-6.8402,7.2089,15.8305,-1.209,-4.4564,-0.1187
289011.0,-6.6295,6.6295,13.3764,-1.2026,-5.0476,0.0277
289021.0,-6.1842,5.952,9.5768,-1.2004,-5.543,0.1442
289031.0,-4.6926,5.3702,5.1236,-1.276,-5.7654,0.2299
289041.0,-3.3327,4.6591,2.6695,-1.4452,-5.5414,0.2708
289051.0,-2.3367,3.9744,1.0295,-1.6043,-5.1892,0.3054
289061.0,-0.8547,2.8419,-0.0407,-1.7123,-4.8183,0.3485
289071.0,0.2059,1.7765,-0.3998,-1.6384,-4.2862,0.3789
289081.0,0.8523,0.577,0.3783,-1.3862,-3.7067,0.3943
289091.0,1.7166,-0.1053,0.7709,-0.8881,-3.1464,0.3932
289101.0,2.1859,-0.3136,1.0391,-0.4438,-2.7207,0.3507
289111.0,3.0047,-0.2035,1.5155,-0.0692,-2.32,0.2996
289121.0,3.1508,0.2801,2.3655,0.2246,-1.9592,0.2581
289131.0,2.9449,0.6752,3.1005,0.4246,-1.781,0.2661
289141.0,3.1484,0.6871,3.2346,0.6561,-1.6655,0.3347
289151.0,4.7214,0.1365,3.0311,0.8854,-1.5,0.4108
289161.0,4.8123,-0.249,2.964,0.9168,-1.3441,0.4172
289171.0,4.7764,-0.5507,2.9592,0.779,-1.2696,0.364
289181.0,5.0613,-0.7446,2.9137,0.5789,-1.2159,0.2692
289191.0,4.9344,-0.5698,3.1077,0.3448,-1.1685,0.1447
289201.0,5.0566,-0.1484,3.4022,0.1644,-1.1648,0.0319
289211.0,5.1044,0.2801,3.304,0.0979,-1.1935,-0.0298
289221.0,5.0589,0.7853,2.4181,0.0798,-1.2457,-0.0436
289231.0,5.1834,1.0271,1.5826,0.041,-1.2696,-0.0181
289241.0,5.2768,1.2929,-0.1341,0.0894,-1.2558,0.0665
289251.0,5.6623,1.573,-4.4628,-0.017,-1.2925,0.1772
289261.0,6.3159,1.3312,-10.1059,-0.712,-1.2957,0.249
289271.0,6.4332,0.8332,-15.6078,-1.8762,-0.9748,0.2458
289281.0,5.7413,0.5459,-18.7059,-2.9921,-0.1772,0.1846
289291.0,3.9504,2.4612,-22.0195,-3.3252,1.0302,0.1862
289301.0,2.8371,5.0709,-26.4966,-3.3363,2.1646,0.3677
289311.0,-0.0192,8.0565,-32.2882,-3.2783,3.5189,0.8253
289321.0,-5.5282,9.6702,-36.3512,-3.3656,5.0503,1.5495
289331.0,-11.1953,9.0261,-39.1931,-3.1182,6.8174,2.485
289341.0,-20.9397,4.7477,-35.7766,-1.7107,9.951,3.5891
289351.0,-32.0655,-2.2338,-21.0809,0.6114,13.9515,4.4325
289361.0,-42.3175,-9.6223,-1.8866,3.1725,17.0484,4.557
289371.0,-44.2879,-17.2981,24.1144,4.8603,17.4357,3.5226
289381.0,-40.9815,-14.1449,43.9216,6.1672,17.2064,1.6416
289391.0,-35.9082,-4.4556,54.4394,6.1757,14.3559,-0.2559
289401.0,-32.281,3.4955,61.3921,3.6838,10.3283,-1.8416
289411.0,-30.8541,7.9607,66.791,0.0937,5.9139,-2.8952
289421.0,-30.0807,10.2568,69.0177,-1.8959,2.2578,-3.0671
289431.0,-29.4176,11.9183,66.5349,-1.4367,-0.6886,-2.4717
289441.0,-26.9396,12.6869,55.7059,0.4326,-3.3741,-1.4191
289451.0,-22.9819,10.9032,41.1946,2.3445,-5.1689,-0.2868
289461.0,-19.0291,8.7388,25.041,3.422,-5.9538,0.5507
289471.0,-14.516,5.2241,15.9526,3.007,-6.0629,0.8636
289481.0,-11.2719,3.8954,10.0844,2.6217,-5.1806,0.8535
289491.0,-10.3142,3.3519,10.0413,1.9725,-4.0903,0.6598
289501.0,-8.9807,3.3136,12.3852,1.1462,-3.5449,0.4177
289511.0,-8.5353,3.2968,15.2918,0.4299,-3.5119,0.2033
289521.0,-8.0206,3.3902,16.4601,-0.0293,-3.9227,0.0351
289531.0,-7.4795,3.4812,16.1585,-0.2581,-4.4016,-0.0729
289541.0,-7.4555,3.3064,15.0356,-0.5757,-5.0168,-0.1745
289551.0,-6.9192,3.0981,12.5025,-0.9078,-5.6936,-0.2873
289561.0,-7.1682,3.1125,9.3063,-1.151,-6.1512,-0.3948
289571.0,-6.1483,3.5937,5.8634,-1.3297,-6.3699,-0.489
289581.0,-4.8291,4.4556,2.5618,-1.4596,-6.2571,-0.5337
289591.0,-3.462,5.0781,0.103,-1.7219,-5.974,-0.5098
289601.0,-1.992,4.6902,-1.0295,-1.9896,-5.518,-0.3826
289611.0,-0.893,3.5386,-0.5004,-1.9241,-4.8188,-0.1815
289621.0,0.0934,1.9393,1.2665,-1.442,-4.059,0.0394
289631.0,0.814,0.6656,2.9042,-0.7311,-3.4859,0.2017
289641.0,1.4174,0.0527,3.5386,-0.0899,-3.2368,0.2778
289651.0,2.1284,-0.1939,2.4924,0.3437,-3.2172,0.2911
289661.0,2.636,-0.2634,0.5698,0.5555,-3.1623,0.265
289671.0,3.3327,-0.1556,-0.8595,0.6481,-2.9,0.2054
289681.0,3.7517,0.2274,-1.8627,0.7072,-2.4578,0.1532
289691.0,4.1156,0.3065,-1.8411,0.7013,-1.9465,0.1362
289701.0,4.6328,0.1556,-1.2929,0.6619,-1.4527,0.1352
289711.0,4.8961,-0.012,-0.2203,0.5161,-1.0515,0.1149
289721.0,5.2529,-0.3687,1.221,0.3092,-0.8253,0.0665
289731.0,5.4061,-0.5243,2.3535,0.1995,-0.7152,0.0005
289741.0,5.3989,-0.5531,3.0742,0.2794,-0.6705,-0.0447
289751.0,5.8299,-0.5171,2.6887,0.5773,-0.6417,-0.0521
289761.0,6.2273,-0.1604,1.3144,0.9498,-0.5289,-0.0484
289771.0,6.2465,0.3208,0.0431,1.2047,-0.2751,-0.0404
289781.0,5.9568,0.7853,-0.6153,1.259,0.0399,-0.0298
289791.0,5.6719,1.0439,-0.8763,1.1483,0.3432,-0.0138
289801.0,5.3941,1.0558,-0.3017,0.9142,0.6178,-0.0011
289811.0,5.2002,1.0846,-0.1221,0.6098,0.7439,-0.0032
289821.0,4.9608,1.221,-1.1708,0.0963,0.6508,-0.0325
289831.0,5.2146,1.0918,-3.5889,-0.7061,0.4012,-0.0915
289841.0,4.5538,1.5036,-6.9432,-1.7214,0.2182,-0.1852
289851.0,4.0007,2.7773,-11.4179,-2.8207,0.1266,-0.2581
289861.0,3.3447,4.695,-16.2518,-3.8371,0.1873,-0.2299
289871.0,1.6616,8.1403,-23.0897,-4.0111,0.8828,0.0569
289881.0,-2.0399,12.2344,-32.6689,-3.6891,2.2296,0.7311
289891.0,-4.3527,11.7005,-37.7326,-3.3241,4.5267,1.8363
289901.0,-12.2679,7.0605,-32.5731,-2.5472,7.9508,3.0208
289911.0,-19.1704,0.2993,-21.7322,-1.168,10.9041,3.9903
289921.0,-27.732,-6.462,-7.1754,1.243,13.9131,4.4995
289931.0,-35.269,-13.5009,13.0939,3.3571,16.0538,4.1361
289941.0,-34.7016,-17.5758,32.8628,4.7156,16.0501,2.8484
289951.0,-32.3983,-13.9055,47.2184,5.6095,14.5426,1.0515
289961.0,-29.4343,-3.553,53.4721,4.9566,11.7847,-0.7923
289971.0,-28.0289,3.3136,65.151,1.8762,8.2744,-2.2891
289981.0,-27.8829,7.9009,73.3344,-0.5896,4.3952,-2.9197
289991.0,-26.9587,10.2304,73.2674,-1.4133,0.1979,-2.7595
290001.0,-25.8598,11.6957,62.0026,-0.7865,-3.7125,-2.0859
290011.0,-23.7337,11.1043,44.2281,0.3379,-6.6514,-1.2084
290021.0,-18.6125,8.8107,23.5996,1.3063,-8.1105,-0.4236
290031.0,-12.6103,6.2824,6.5888,1.5814,-7.7747,0.0394
290041.0,-8.2959,3.8786,-1.3934,1.1472,-6.1523,0.1341
290051.0,-4.865,3.2848,-3.043,0.7093,-3.9829,0.0197
290061.0,-4.6112,3.1747,3.2825,0.1607,-2.0311,-0.1708
290071.0,-4.9249,3.8666,11.0133,-0.0298,-0.9434,-0.2762
290081.0,-5.8682,4.4293,18.1097,-0.0223,-0.7881,-0.2778
290091.0,-6.517,5.1834,22.9819,0.1101,-1.4617,-0.2102
290101.0,-6.766,6.2106,22.7066,0.3842,-2.6308,-0.0452
290111.0,-6.9576,6.4069,19.2566,0.4337,-3.8887,0.1564
290121.0,-6.0142,6.5649,12.7755,0.323,-4.8784,0.3358
290131.0,-4.8411,5.6623,6.177,-0.0766,-5.277,0.4816
290141.0,-3.1292,4.2497,1.3312,-0.6614,-5.0237,0.5518
290151.0,-1.7095,3.0454,-0.972,-1.5591,-4.4873,0.472
290161.0,-0.8811,1.4269,1.5419,-2.4876,-3.8908,0.2857
290171.0,-0.9361,0.6823,4.3072,-2.5435,-3.3502,0.1719
290181.0,-0.6129,-0.2203,6.5386,-1.8752,-2.9687,0.1958
290191.0,0.2849,-1.0582,6.9935,-0.828,-2.7069,0.2889
290201.0,1.0582,-0.8523,5.9975,0.0144,-2.5557,0.3108
290211.0,1.6472,0.2227,4.5801,0.2826,-2.5408,0.2426
290221.0,2.1811,1.6831,2.8395,0.1117,-2.4812,0.1846
290231.0,2.5331,2.7078,1.7717,-0.4597,-2.3546,0.165
290241.0,2.4014,1.9393,3.1173,-1.2207,-2.2077,0.1963
290251.0,2.873,0.4956,4.8626,-1.5224,-2.0508,0.2613
290261.0,2.7773,-0.68,7.0725,-1.3244,-1.7874,0.3155
290271.0,2.7677,-1.4461,8.0014,-1.0472,-1.9183,0.3113
290281.0,3.6272,-1.5299,6.3183,-0.8349,-2.3307,0.2458
290291.0,4.3215,-1.3336,4.2617,-0.5502,-2.3642,0.2001
290301.0,5.0398,-0.7446,2.4373,-0.2543,-2.1125,0.1729
290311.0,5.4564,-0.3591,1.8435,-0.183,-1.7922,0.1527
290321.0,5.7652,-0.158,2.1261,-0.1868,-1.4543,0.1538
290331.0,5.4803,-0.905,3.7278,-0.2288,-1.1153,0.1804
290341.0,5.1116,-2.387,4.8914,-0.2863,-1.069,0.182
290351.0,5.3893,-3.5769,4.5897,-0.3022,-1.2946,0.0878
290361.0,5.7916,-3.3016,2.3559,-0.1139,-1.3963,-0.0756
290371.0,6.1483,-2.3056,-0.2777,0.091,-1.2824,-0.2283
290381.0,6.9097,-1.2953,-2.3367,0.2235,-0.9631,-0.3299
290391.0,7.2712,-0.091,-3.2777,0.3368,-0.4071,-0.3725
290401.0,7.1275,1.0415,-3.5171,0.3549,0.1149,-0.3533
290411.0,6.8618,2.0662,-4.7214,0.216,0.447,-0.2735
290421.0,6.8091,2.4134,-7.0868,-0.1101,0.6917,-0.1394
290431.0,6.2489,2.5115,-10.4004,-0.5114,1.0243,0.017
290441.0,6.0047,3.2082,-14.631,-0.9679,1.4591,0.1596
290451.0,3.8211,4.8626,-20.4034,-1.4857,2.0226,0.3501
290461.0,1.6759,6.5434,-25.8717,-2.0093,2.7324,0.6604
290471.0,-2.7246,9.1818,-30.7463,-1.906,4.1755,1.1887
290481.0,-9.1147,10.4124,-32.305,-1.2361,6.3135,1.996
290491.0,-15.0356,6.8067,-26.4871,-0.0708,9.1071,2.9846
290501.0,-21.2198,0.6728,-15.0212,1.5048,11.9475,3.7493
290511.0,-27.0305,-5.9137,-0.2945,2.5137,13.7019,3.795
290521.0,-28.2324,-10.4052,16.1393,2.8404,14.026,3.0687
290531.0,-27.9978,-8.8131,27.9427,3.0235,12.9926,1.897
290541.0,-27.3633,-2.9449,32.858,2.9069,11.0275,0.8131
290551.0,-25.7065,1.3288,35.3169,2.3844,9.3343,0.1671
290561.0,-26.1926,-0.6584,43.4212,1.6767,8.4473,-0.0724
290571.0,-26.2644,-5.2529,52.8903,1.2414,6.9153,-0.332
290581.0,-24.7249,-5.6072,58.7776,1.5777,4.7023,-0.8056
290591.0,-25.3498,-1.1277,60.0633,2.7249,2.5616,-1.1568
290601.0,-23.7122,5.272,54.2382,3.4587,-0.1314,-1.3037
290611.0,-22.3762,9.4858,46.6654,3.1325,-2.6366,-1.2755
290621.0,-21.2916,11.5377,38.4676,2.4935,-4.4623,-1.0461
290631.0,-19.7929,11.248,29.9108,1.9832,-5.7713,-0.6928
290641.0,-17.1138,10.1107,20.1065,1.6974,-6.4982,-0.3155
290651.0,-14.1473,8.7149,13.0867,1.383,-6.3598,-0.0016
290661.0,-12.062,6.4332,10.1945,0.9589,-5.8139,0.2123
290671.0,-10.4435,3.79,9.8162,0.5481,-5.3722,0.2778
290681.0,-9.2895,2.1045,10.5225,0.448,-4.9854,0.216
290691.0,-9.9862,1.719,11.2575,0.5193,-4.897,0.0745
290701.0,-8.8011,3.3423,9.086,0.6204,-5.2477,-0.0915
290711.0,-7.2927,5.4899,6.5577,0.5603,-5.4664,-0.1963
290721.0,-6.7876,7.5393,4.2641,0.389,-5.3621,-0.1426
290731.0,-5.4253,8.4994,2.6624,-0.0681,-5.3451,0.0101
290741.0,-4.5873,8.6095,0.7111,-0.5986,-5.2615,0.2347
290751.0,-3.3088,7.0174,-0.4788,-1.1542,-5.0295,0.4917
290761.0,-1.8292,4.7716,-0.6752,-1.6011,-4.6273,0.6742
290771.0,-0.8859,2.5235,0.9936,-1.8661,-4.2058,0.737
290781.0,-1.0558,1.0343,2.5905,-1.6825,-3.9185,0.7391
290791.0,-0.0718,0.486,2.5187,-1.0493,-3.7317,0.7375
290801.0,1.1468,0.4549,1.4748,-0.3326,-3.4848,0.7487
290811.0,1.9513,0.6895,0.2705,0.1298,-3.2193,0.7593
290821.0,2.9736,0.8739,-1.0511,0.3012,-2.9532,0.7492
290831.0,3.9648,0.7997,-2.3942,0.2347,-2.5935,0.7364
290841.0,4.8171,0.2418,-2.5929,-0.0841,-2.1018,0.6965
290851.0,5.0733,-0.6608,-0.5602,-0.4571,-1.5649,0.6082
290861.0,4.9967,-1.0343,1.8459,-0.5358,-1.1238,0.5071
290871.0,4.9895,-1.1636,4.2976,-0.3421,-0.8354,0.4432
290881.0,5.114,-1.0774,5.4803,0.0192,-0.7529,0.4198
290891.0,5.5737,-1.1444,5.3893,0.2932,-0.8551,0.3996
290901.0,5.7341,-1.1133,4.7501,0.4284,-0.9232,0.3507
290911.0,6.0525,-0.8882,3.4764,0.4411,-0.9482,0.2735
290921.0,6.3063,-0.6895,1.9824,0.2778,-0.8966,0.1735
290931.0,6.4596,-0.7039,1.8771,0.0442,-0.6311,0.0777
290941.0,6.2441,-0.5148,2.7988,-0.1,-0.2756,-0.0005
290951.0,5.8658,-0.4405,4.2928,-0.1772,-0.0612,-0.0511
290961.0,5.454,-0.3759,5.375,-0.1596,0.0064,-0.074
290971.0,5.2313,-0.2993,5.7772,-0.1165,-0.0734,-0.0889
290981.0,5.126,-0.0503,5.0063,-0.1336,-0.2975,-0.1181
290991.0,4.9105,0.17,3.4405,-0.2107,-0.547,-0.1479
291001.0,4.8363,0.5746,-0.0742,-0.2964,-0.7764,-0.1692
291011.0,5.1643,1.1301,-5.2361,-0.5928,-0.8966,-0.2086
291021.0,4.9823,2.0997,-11.2049,-1.3266,-0.8152,-0.2889
291031.0,4.4843,4.0486,-17.3651,-2.4461,-0.5156,-0.3863
291041.0,3.7302,6.687,-22.1871,-3.5545,0.2107,-0.3656
291051.0,1.7597,10.9415,-27.6889,-4.3564,1.3383,-0.049
291061.0,-2.15,13.5416,-28.8956,-4.9114,2.7303,0.7141
291071.0,-6.3638,14.3317,-29.0656,-3.6258,5.0609,2.0385
291081.0,-12.876,10.2113,-24.9356,-1.3393,8.0466,3.5513
291091.0,-19.0219,3.1939,-17.6979,1.0515,10.9562,4.7321
291101.0,-26.8007,-4.4197,-5.8155,3.0495,13.8988,5.1354
291111.0,-30.653,-11.6861,11.4012,3.6812,15.3584,4.4362
291121.0,-31.309,-11.5712,24.9835,3.4225,14.606,2.8984
291131.0,-31.6561,-6.6152,34.0743,3.0011,13.0235,1.4771
291141.0,-28.309,-8.3151,47.8266,2.9431,12.0508,0.7811
291151.0,-26.8246,-9.2512,60.9971,3.1682,10.5193,0.1208
291161.0,-24.7489,-7.1658,70.3632,2.286,6.637,-0.887
291171.0,-23.4823,-0.9577,67.5332,1.9183,2.3642,-1.5974
291181.0,-23.2621,4.5873,60.1615,1.8007,-0.9514,-1.8438
291191.0,-22.5558,7.4627,50.216,1.5453,-3.703,-1.7315
291201.0,-20.7529,7.865,38.2641,1.4548,-5.7101,-1.3899
291211.0,-17.6788,6.7588,25.7496,1.5293,-6.7078,-0.9897
291221.0,-14.5759,5.1619,15.5479,1.5862,-6.6998,-0.6939
291231.0,-11.7723,4.4772,9.4882,1.5,-5.9762,-0.5949
291241.0,-10.1778,4.7812,7.9655,1.3361,-4.8763,-0.6274
291251.0,-9.3877,5.9807,9.0214,1.0711,-3.9962,-0.6949
291261.0,-8.8729,7.252,11.4658,0.5247,-3.7157,-0.7726
291271.0,-8.8346,8.6718,13.6517,0.0846,-3.7902,-0.7774
291281.0,-8.7676,9.8952,14.0683,-0.1532,-4.1952,-0.6598
291291.0,-7.9895,10.6063,12.1817,-0.315,-4.7746,-0.4262
291301.0,-7.3239,10.1347,9.2488,-0.5193,-5.2402,-0.1139
291311.0,-5.9711,8.5832,6.4691,-0.6279,-5.4366,0.2176
291321.0,-4.7477,6.8642,3.8164,-0.5566,-5.286,0.5199
291331.0,-3.5434,4.9057,2.1261,-0.5252,-4.9667,0.745
291341.0,-2.3942,3.0622,1.4389,-0.5667,-4.6219,0.8652
291351.0,-0.838,2.4014,0.1987,-0.572,-4.2846,0.8721
291361.0,0.498,2.1907,-0.4741,-0.7604,-3.968,0.8062
291371.0,1.1109,2.1452,-0.3304,-0.978,-3.563,0.7529
291381.0,1.6161,1.7597,0.5219,-1.1169,-3.2321,0.7317
291391.0,2.2218,1.5969,0.7542,-1.036,-2.9543,0.7412
291401.0,2.6432,1.0223,1.2905,-0.8152,-2.6595,0.7971
291411.0,3.3136,0.0958,1.7071,-0.3922,-2.2971,0.8844
291421.0,3.8307,-0.7254,2.3248,0.1059,-1.8821,0.944
291431.0,4.1731,-1.3695,3.0382,0.4677,-1.5846,0.9424
291441.0,4.4269,-1.5778,3.292,0.6061,-1.4628,0.8657
291451.0,5.0135,-1.3192,2.8252,0.5257,-1.4495,0.7364
291461.0,5.296,-0.8571,2.2122,0.2879,-1.4197,0.5986
291471.0,5.0829,-0.3543,2.3343,-0.0372,-1.3329,0.4853
291481.0,5.2385,-0.0168,3.1125,-0.1852,-1.1818,0.4427
291491.0,5.114,0.158,3.8762,-0.1133,-1.0057,0.4651
291501.0,5.3606,0.2011,3.9624,-0.0782,-1.0004,0.5028
291511.0,5.4684,-0.0359,3.7469,-0.1655,-1.11,0.522
291521.0,5.5234,-0.2538,2.7557,-0.223,-1.1983,0.5316
291531.0,5.7724,-0.5004,1.3958,-0.2506,-1.2116,0.5257
291541.0,6.1387,-0.6416,-0.6871,-0.2959,-1.1664,0.5066
291551.0,6.4715,-0.984,-2.8491,-0.4225,-0.994,0.4704
291561.0,6.9336,-1.1708,-5.9807,-0.7258,-0.7535,0.4017
291571.0,6.8019,-1.6688,-8.7269,-1.4782,-0.5529,0.2591
291581.0,6.2393,-1.913,-10.3573,-2.2152,-0.2011,0.0809
291591.0,4.9943,-1.0439,-12.2272,-2.5233,0.2964,-0.0569
291601.0,4.2353,0.8906,-14.8824,-2.3487,0.8844,-0.0846
291611.0,3.1364,4.0941,-19.9485,-1.8134,1.6671,0.067
291621.0,1.9872,7.2784,-26.7145,-1.4851,2.6441,0.4188
291631.0,-1.5299,9.7588,-32.9394,-1.4479,4.2149,0.9754
291641.0,-7.7405,10.3645,-36.6911,-1.5277,6.6072,1.7544
291651.0,-17.6429,7.4436,-31.3545,-1.7421,9.5046,2.6302
291661.0,-26.341,2.3487,-18.0403,-1.0738,12.5376,3.4853
291671.0,-34.2491,-3.7302,0.103,0.7545,15.3307,4.0526
291681.0,-36.4374,-11.9112,20.3747,2.5366,16.5673,3.8738
291691.0,-32.5396,-16.8672,39.1548,3.6551,15.6643,2.7547
291701.0,-29.3266,-13.5344,51.1928,4.3027,13.3848,1.2201
291711.0,-26.9635,-5.861,57.2741,3.8786,10.208,-0.2112
291721.0,-25.7688,0.261,59.8359,2.4498,6.6679,-1.2185
291731.0,-25.0505,5.0015,59.8263,1.0217,3.5364,-1.7336
291741.0,-24.9069,8.0972,59.6204,0.3294,0.9892,-1.7038
291751.0,-24.2102,8.6742,55.397,0.8578,-1.1951,-1.0983
291761.0,-22.4097,6.1316,48.2312,1.9805,-3.1155,-0.2581
291771.0,-19.2135,3.3471,36.5666,3.2576,-4.5975,0.4294
291781.0,-15.5527,1.3767,25.2516,3.745,-5.3977,0.713
291791.0,-12.6103,0.2322,17.492,3.3156,-5.6175,0.6087
291801.0,-10.2592,-0.2394,12.7922,2.4882,-5.4845,0.2778
291811.0,-9.0309,-0.1077,10.9966,1.6309,-5.1881,-0.1453
291821.0,-8.0445,0.8284,10.2328,1.011,-4.954,-0.5305
291831.0,-7.6207,2.0997,10.6662,0.6066,-4.8162,-0.7976
291841.0,-7.4555,3.1651,11.382,0.5646,-4.8215,-0.8939
291851.0,-7.0988,4.3383,10.1778,0.9025,-4.9715,-0.8083
291861.0,-5.7748,4.9129,8.3438,1.2952,-4.9912,-0.5981
291871.0,-5.3702,5.4468,6.256,1.4069,-4.9731,-0.3762
291881.0,-4.3886,5.6383,4.0654,1.1233,-5.0487,-0.1963
291891.0,-2.9616,5.7102,1.7382,0.6502,-4.9705,-0.0697
291901.0,-2.308,5.624,0.4812,-0.0282,-4.7582,-0.0053
291911.0,-1.4269,4.9249,0.2849,-0.629,-4.4586,0.0527
291921.0,-0.565,4.1061,0.6321,-0.9344,-4.0472,0.108
291931.0,0.3735,3.6631,0.8859,-1.0573,-3.7322,0.1282
291941.0,1.2378,3.7781,0.5555,-1.0211,-3.4704,0.1437
291951.0,1.5323,3.7493,0.4788,-0.8705,-3.1288,0.2187
291961.0,2.2051,3.3543,0.7709,-0.4752,-2.6308,0.3773
291971.0,2.6576,2.8036,1.5874,0.0325,-2.1072,0.5513
291981.0,3.3447,2.6384,1.6448,0.4842,-1.6746,0.6912
291991.0,3.5626,2.4636,2.229,0.5428,-1.4346,0.7503
292001.0,4.0821,2.2984,2.0925,0.4331,-1.3111,0.7785
292011.0,4.3646,1.9345,1.5155,0.1799,-1.1898,0.7716
292021.0,4.6567,1.3719,1.3264,-0.2309,-1.0291,0.7178
292031.0,4.7118,0.9122,2.2098,-0.6066,-0.7779,0.6332
292041.0,4.7022,0.6249,4.0079,-0.7487,-0.4933,0.5593
292051.0,4.5993,0.486,5.6599,-0.6747,-0.3288,0.5289
292061.0,4.6974,0.079,7.0797,-0.5321,-0.3262,0.5231
292071.0,5.0637,-0.4214,7.4268,-0.364,-0.4991,0.5087
292081.0,5.2385,-0.6823,6.6272,-0.1804,-0.7136,0.4581
292091.0,5.3798,-0.5531,5.2912,0.0005,-0.804,0.3821
292101.0,5.7126,-0.1173,3.7709,0.0857,-0.7976,0.2943
292111.0,5.8131,0.3879,2.9832,0.0649,-0.6981,0.2102
292121.0,5.7365,1.2234,2.1093,0.0548,-0.5444,0.1634
292131.0,5.5809,2.0782,0.5195,-0.0623,-0.4369,0.1703
292141.0,5.43,2.4588,-2.4565,-0.58,-0.4597,0.2075
292151.0,5.4636,1.9465,-5.3558,-1.6203,-0.5161,0.2299
292161.0,4.956,1.0271,-7.6016,-2.8787,-0.4715,0.2283
292171.0,4.2497,0.0814,-8.916,-3.91,-0.3602,0.2341
292181.0,3.6607,0.1101,-12.1937,-4.2883,-0.1368,0.3001
292191.0,3.2753,0.6536,-17.0419,-4.2633,0.1602,0.4166
292201.0,3.4907,2.2529,-24.3299,-3.4582,1.0653,0.6449
292211.0,2.6193,4.0845,-32.1302,-1.9358,3.1038,1.0339
292221.0,-3.4069,5.6072,-35.1924,-0.5513,6.2768,1.4899
292231.0,-13.465,5.2553,-29.8294,0.3081,9.5546,1.9827
292241.0,-21.4281,2.4588,-18.8136,1.533,12.7148,2.4796
292251.0,-31.3114,-0.7111,-4.4963,2.4589,15.1604,2.6079
292261.0,-36.4541,-5.8059,14.8057,2.552,15.9134,2.2013
292271.0,-35.1541,-7.5872,32.767,3.4071,15.7692,1.4069
292281.0,-34.5268,-3.6607,49.3565,4.1861,14.6576,0.3794
292291.0,-30.5787,0.9218,62.6108,3.7674,11.5357,-0.5491
292301.0,-26.7696,6.1316,66.3242,2.5376,7.1378,-1.2185
292311.0,-25.2062,9.3613,65.7903,1.3154,3.0916,-1.4489
292321.0,-24.045,11.3868,57.9445,1.0962,-0.1719,-1.1653
292331.0,-22.721,10.7811,48.8657,1.1685,-2.6047,-0.6534
292341.0,-20.0299,9.1339,37.498,1.7767,-4.0499,-0.0426
292351.0,-16.7738,7.6279,27.4902,2.1316,-4.6576,0.3831
292361.0,-13.7547,6.6224,21.1983,1.9715,-4.6932,0.5582
292371.0,-11.8633,5.636,17.7698,1.5596,-4.5144,0.5976
292381.0,-10.1921,4.3072,16.3716,1.0131,-4.4666,0.5284
292391.0,-9.1339,3.8834,15.1888,0.5827,-4.5485,0.3837
292401.0,-8.2935,3.6823,14.2455,0.1793,-4.7385,0.2256
292411.0,-7.8386,3.6727,13.1346,-0.1612,-5.0066,0.0857
292421.0,-7.7333,3.699,12.3421,-0.3352,-5.2796,-0.0021
292431.0,-7.1156,3.972,10.6087,-0.1532,-5.4366,0.009
292441.0,-6.5481,4.3048,8.2887,0.0495,-5.5228,0.0814
292451.0,-5.5761,4.5203,5.5306,0.017,-5.6329,0.1586
292461.0,-4.142,4.4652,2.9904,-0.1905,-5.5984,0.2304
292471.0,-2.8994,4.1324,0.8906,-0.4746,-5.3477,0.299
292481.0,-1.7837,3.3303,-0.6823,-0.9088,-5.045,0.339
292491.0,-0.5674,1.8986,-1.4557,-1.416,-4.7002,0.3241
292501.0,0.6321,0.4669,-1.0127,-1.7411,-4.2143,0.2352
292511.0,1.4365,-0.5076,0.9529,-1.6708,-3.5976,0.108
292521.0,1.8244,-0.5387,2.5953,-1.177,-3.099,-0.0117
292531.0,2.4205,0.0335,2.9544,-0.6226,-2.9096,-0.1059
292541.0,3.1364,1.1468,1.8268,-0.1117,-2.7537,-0.1405
292551.0,3.3902,2.0997,0.7925,0.2022,-2.51,-0.1091
292561.0,3.6057,2.8635,-0.4501,0.3395,-2.2189,-0.0192
292571.0,3.7685,2.9521,-0.3112,0.3831,-1.7655,0.1165
292581.0,3.7302,2.5474,0.9625,0.5151,-1.1946,0.2916
292591.0,4.0582,1.6807,2.8898,0.63,-0.7609,0.4401
292601.0,4.458,0.8547,4.7812,0.5949,-0.6242,0.4906
292611.0,4.9057,0.4525,5.7174,0.4566,-0.7306,0.448
292621.0,4.9009,0.5794,5.8371,0.2873,-0.944,0.3507
292631.0,4.9344,1.0439,4.8554,0.1564,-1.1414,0.2623
292641.0,4.9273,1.5323,3.5865,0.0293,-1.1983,0.2139
292651.0,5.0566,1.5969,2.5786,-0.116,-1.0951,0.207
292661.0,5.296,1.4341,2.1691,-0.3012,-0.9035,0.1916
292671.0,5.2984,1.3886,2.2793,-0.538,-0.7301,0.1431
292681.0,5.2337,1.4485,2.8371,-0.7396,-0.6141,0.0963
292691.0,5.2433,1.5299,2.66,-0.7918,-0.5757,0.0894
292701.0,5.6551,1.5275,0.5962,-0.887,-0.6577,0.0963
292711.0,6.3327,1.64,-3.7709,-1.3739,-0.8301,0.0633
292721.0,5.9711,1.7382,-7.9559,-2.3418,-0.9206,-0.033
292731.0,5.205,2.6695,-12.6222,-3.3598,-0.803,-0.1091
292741.0,4.7573,4.1013,-16.1776,-4.0781,-0.3491,-0.0734
292751.0,3.3591,6.8354,-21.0163,-4.0584,0.5135,0.1889
292761.0,2.7677,8.8346,-27.2101,-3.8738,1.5532,0.7157
292771.0,-2.6097,9.5385,-32.7263,-3.7173,2.9937,1.5022
292781.0,-5.9616,7.7405,-37.8882,-2.9676,5.2232,2.4924
292791.0,-14.8033,5.6527,-35.913,-1.5841,8.8086,3.3789
292801.0,-25.4791,1.561,-24.5717,-0.0037,12.4679,4.1186
292811.0,-35.3528,-2.8683,-8.7125,2.2056,15.7516,4.557
292821.0,-44.3622,-8.6455,12.4642,4.1164,17.4357,4.2872
292831.0,-40.814,-14.1665,35.3288,5.3743,17.4357,3.2305
292841.0,-36.7438,-10.987,52.931,5.9905,16.4327,1.6229
292851.0,-33.1381,-6.7516,71.6609,4.9098,12.7537,0.0357
292861.0,-29.0417,0.7542,74.6057,3.7189,7.4879,-1.1446
292871.0,-26.9683,6.9001,71.6896,1.9523,2.4999,-1.9103
292881.0,-26.1974,10.8362,63.0944,0.8822,-1.433,-2.0061
292891.0,-24.1766,11.6861,50.8528,0.4385,-4.4916,-1.64
292901.0,-21.2773,10.8912,37.1293,0.6274,-6.3705,-1.0695
292911.0,-17.741,9.3302,22.7832,1.2606,-7.034,-0.4347
292921.0,-13.2304,7.4268,11.5305,1.6251,-6.7589,0.0479
292931.0,-9.5361,5.7748,5.612,1.8321,-5.5611,0.3379
292941.0,-8.1068,4.6088,5.6,2.0747,-3.9057,0.5071
292951.0,-7.4124,4.3335,8.6215,2.2812,-2.6632,0.5763
292961.0,-6.6511,5.5354,10.92,2.286,-2.1673,0.5752
292971.0,-6.5338,6.7612,13.7044,1.8555,-2.196,0.5465
292981.0,-6.5577,7.6734,14.88,1.2845,-2.6297,0.5747
292991.0,-6.2249,7.7309,14.5759,0.5204,-3.381,0.622
293001.0,-5.861,7.173,13.1992,-0.2123,-4.1127,0.679
293011.0,-5.5306,6.1196,11.7124,-0.7247,-4.6491,0.7423
293021.0,-4.9009,5.0733,9.4044,-0.8599,-4.9577,0.8253
293031.0,-4.3886,4.0606,7.4101,-0.8179,-5.045,0.895
293041.0,-3.6248,3.4979,5.2648,-0.6588,-4.9577,0.9562
293051.0,-2.5163,3.0454,3.2178,-0.5896,-4.7991,0.9961
293061.0,-1.0032,2.6719,0.8284,-0.7114,-4.6033,0.9966
293071.0,0.2658,2.1524,-0.7829,-1.0679,-4.2872,0.9493
293081.0,0.9984,1.4293,-1.245,-1.4761,-3.8349,0.8737
293091.0,1.5945,0.5219,-0.3017,-1.748,-3.3347,0.7891
293101.0,2.1332,-0.34,1.2163,-1.6964,-2.8612,0.7157
293111.0,2.5929,-0.9457,2.3679,-1.3606,-2.5137,0.6588
293121.0,3.2777,-1.5419,2.5283,-0.9067,-2.3003,0.6082
293131.0,4.1659,-2.0997,1.7214,-0.5055,-2.1311,0.5279
293141.0,4.6567,-2.3846,0.2442,-0.3171,-1.9497,0.3852
293151.0,4.9249,-2.5881,-0.7614,-0.3523,-1.6687,0.1948
293161.0,5.2385,-2.4612,-0.3543,-0.4491,-1.2414,-0.0181
293171.0,5.3223,-2.1308,1.3001,-0.3954,-0.7508,-0.199
293181.0,5.0039,-1.5203,3.1125,-0.2144,-0.4438,-0.3257
293191.0,5.1284,-0.972,4.0654,0.008,-0.3938,-0.3826
293201.0,5.4827,-0.5459,3.814,0.2065,-0.4603,-0.4039
293211.0,5.7844,-0.1676,2.7916,0.307,-0.5007,-0.4156
293221.0,6.1148,0.1365,1.6735,0.3565,-0.3938,-0.4209
293231.0,6.2393,0.4405,1.154,0.3012,-0.1857,-0.4369
293241.0,5.9783,0.8188,0.8045,0.1697,0.0218,-0.4534
293251.0,5.7628,1.154,0.4286,-0.0101,0.1868,-0.4587
293261.0,5.3965,1.5347,-0.1867,-0.2623,0.306,-0.4512
293271.0,4.9536,1.6664,-1.2617,-0.5667,0.3879,-0.4182
293281.0,5.0135,1.7957,-3.3902,-1.0025,0.4252,-0.3932
293291.0,4.4005,2.0207,-5.9256,-1.7187,0.4544,-0.3964
293301.0,3.2417,2.6671,-9.4451,-2.6749,0.3996,-0.415
293311.0,3.0957,3.8666,-13.5153,-3.6769,0.5108,-0.4028
293321.0,2.7797,5.2026,-16.3883,-4.3527,1.0594,-0.2565
293331.0,0.9002,6.9959,-19.8575,-4.3362,1.9385,0.0426
293341.0,-3.2801,10.8074,-24.3945,-3.6099,3.2645,0.5853
293351.0,-7.829,12.39,-26.4823,-2.2998,5.3254,1.5351
293361.0,-16.7235,12.1147,-25.6658,-0.2421,8.3925,2.7319
293371.0,-25.5413,8.3821,-19.5008,1.7459,11.7081,3.8381
293381.0,-34.4765,1.4054,-6.7014,3.2895,14.9901,4.483
293391.0,-40.4476,-7.6255,15.5168,4.0036,17.3394,4.1707
293401.0,-39.2051,-10.4962,38.7909,4.1691,17.1542,2.8308
293411.0,-35.6425,-5.3965,57.9493,4.0281,15.0657,1.2388
293421.0,-31.2156,2.4588,70.4805,3.2007,11.4037,0.0255
293431.0,-27.0257,6.6032,75.1564,1.3228,6.3598,-0.7221
293441.0,-25.6443,8.0254,72.7215,-0.3672,1.6277,-1.0057
293451.0,-25.3929,7.4939,64.258,-1.1116,-2.419,-0.9014
293461.0,-24.0569,6.3494,49.7563,-0.8344,-5.609,-0.5396
293471.0,-21.6364,4.9728,33.6936,0.0133,-7.3788,-0.1022
293481.0,-17.0683,3.893,17.832,0.8546,-7.8519,0.2597
293491.0,-12.1554,2.7725,6.6128,1.1148,-7.2096,0.4268
293501.0,-8.7987,1.731,2.4684,1.0791,-5.6957,0.4305
293511.0,-6.8738,1.4174,3.0215,1.1015,-3.9956,0.3767
293521.0,-5.8778,0.9768,7.082,1.0195,-2.8117,0.2937
293531.0,-5.4708,1.1037,10.9391,0.9849,-2.3099,0.1948
293541.0,-5.3391,1.2282,14.0899,0.8381,-2.4259,0.0697
293551.0,-5.1954,1.6616,15.3253,0.762,-2.8958,-0.0447
293561.0,-5.4708,2.4038,14.8488,0.6646,-3.5141,-0.1421
293571.0,-5.5115,3.2226,13.0556,0.5023,-4.1962,-0.2102
293581.0,-4.7118,4.3096,9.4236,0.3475,-4.7619,-0.24
293591.0,-3.9337,5.193,5.6144,0.058,-4.9774,-0.216
293601.0,-3.3591,5.4612,3.0646,-0.4076,-4.9071,-0.1442
293611.0,-2.2458,5.1595,1.4126,-0.8136,-4.6358,-0.0261
293621.0,-1.549,4.4221,0.8068,-1.1031,-4.2111,0.1059
293631.0,-0.4597,3.1843,0.7709,-1.2654,-3.7487,0.2432
293641.0,0.6009,1.8268,1.7789,-1.3319,-3.2837,0.3198
293651.0,1.4341,0.8571,3.2777,-1.1643,-2.8851,0.3437
293661.0,1.7214,0.5507,3.9097,-0.7327,-2.6132,0.3581
293671.0,2.1356,0.6369,3.735,-0.2038,-2.4142,0.389
293681.0,2.7126,0.9194,2.9209,0.3118,-2.1742,0.4475
293691.0,3.122,1.1756,1.9656,0.6455,-1.8991,0.5114
293701.0,3.2633,1.1516,1.5874,0.7487,-1.5756,0.5662
293711.0,3.4141,0.7063,1.7885,0.7056,-1.2297,0.6087
293721.0,4.0773,-0.249,2.5642,0.5438,-0.9567,0.6008
293731.0,4.6232,-0.9888,3.2633,0.2724,-0.8008,0.497
293741.0,4.6974,-1.2713,4.2856,-0.0591,-0.7242,0.3028
293751.0,4.6376,-0.7829,5.1116,-0.2591,-0.6896,0.0942
293761.0,4.5921,0.0886,5.3558,-0.339,-0.6806,-0.0585
293771.0,4.5131,0.8954,5.4277,-0.3645,-0.6444,-0.1256
293781.0,4.2641,1.3336,5.8107,-0.3491,-0.588,-0.1086
293791.0,4.1204,1.4461,5.7988,-0.2001,-0.5444,-0.0229
293801.0,4.0821,1.2761,5.3822,0.0202,-0.5013,0.0899
293811.0,4.3167,0.984,4.6639,0.2496,-0.4236,0.1926
293821.0,4.3862,0.8547,3.6081,0.3975,-0.332,0.257
293831.0,5.3893,0.7566,1.8866,0.3283,-0.2799,0.2873
293841.0,7.4316,-0.4573,1.4102,-0.049,-0.1862,0.2283
293851.0,6.6679,-0.5507,-0.1556,-0.6045,-0.1607,0.0234
293861.0,5.5761,0.0407,-2.9784,-1.5224,-0.3411,-0.2682
293871.0,5.5474,1.2354,-6.4332,-2.8303,-0.5726,-0.5763
293881.0,3.9337,4.0486,-10.2592,-4.3154,-0.6864,-0.7966
293891.0,3.0598,7.9248,-14.5113,-5.6266,-0.7444,-0.7535
293901.0,3.62,11.7053,-19.1081,-6.0613,-0.4347,-0.2464
293911.0,-0.4453,15.9717,-27.2939,-4.6922,0.9791,0.87
293921.0,-5.6048,15.208,-34.2299,-2.5653,3.5226,2.4951
293931.0,-11.248,8.7891,-34.2179,-0.7327,7.0808,4.1005
293941.0,-18.6867,0.5914,-25.1511,0.6694,10.7652,5.1668
293951.0,-26.8534,-8.3917,-9.7995,2.179,14.102,5.5223
293961.0,-33.356,-17.6285,11.7867,3.0479,15.9315,4.7592
293971.0,-31.2395,-21.9093,30.2483,3.8275,15.3775,3.0554
293981.0,-28.479,-17.2335,41.9273,4.9694,13.9552,1.1382
293991.0,-29.5684,-8.4874,51.1138,5.2754,11.8416,-0.4895
294001.0,-26.4128,-0.3448,56.2709,4.3351,8.5436,-1.7091
294011.0,-26.5828,6.7804,60.76,2.966,5.5627,-2.4206
294021.0,-26.4775,11.303,62.0697,1.8991,2.3248,-2.4961
294031.0,-25.8047,13.4434,58.0833,1.5213,-0.9892,-2.0641
294041.0,-24.5142,13.8768,48.4395,2.17,-3.5939,-1.2414
294051.0,-22.2062,12.5193,35.6856,3.1533,-5.3089,-0.3022
294061.0,-19.0291,10.0916,22.3044,3.6476,-6.264,0.4544
294071.0,-14.5208,7.8362,11.1857,3.5226,-6.2151,0.8806
294081.0,-11.0445,5.8826,5.4636,2.751,-5.4031,0.9461
294091.0,-8.8083,5.0805,4.604,1.7102,-4.3676,0.7428
294101.0,-8.0685,5.0709,7.2113,0.7753,-3.5268,0.4672
294111.0,-7.8793,5.3941,10.7739,0.232,-3.1102,0.2746
294121.0,-7.7931,5.9687,13.0747,-0.0474,-3.24,0.1937
294131.0,-7.2712,6.3853,13.4195,-0.2751,-3.7956,0.1985
294141.0,-6.8402,6.6702,12.1506,-0.4379,-4.4101,0.2714
294151.0,-6.541,6.5386,9.7707,-0.5518,-4.9572,0.4012
294161.0,-5.4923,5.964,6.3039,-0.5944,-5.3371,0.5555
294171.0,-4.3527,5.1619,2.8659,-0.6236,-5.3733,0.6944
294181.0,-3.2896,4.3239,0.1724,-0.6965,-5.0955,0.796
294191.0,-2.3463,3.3088,-0.3855,-0.8173,-4.5937,0.8594
294201.0,-0.9697,2.3774,0.2514,-0.7269,-3.9658,0.9216
294211.0,0.1772,1.5682,1.2019,-0.5741,-3.4454,0.9562
294221.0,1.1037,0.8954,1.6544,-0.5523,-3.2007,0.9301
294231.0,1.7765,0.5626,1.9848,-0.6087,-3.0671,0.8551
294241.0,2.1284,0.2801,2.138,-0.5694,-2.9298,0.7859
294251.0,2.3774,0.0575,2.0063,-0.3177,-2.6866,0.7556
294261.0,2.7916,-0.1963,1.6664,-0.008,-2.3833,0.7407
294271.0,3.3184,-0.4357,1.4174,0.1676,-2.1173,0.6933
294281.0,4.0749,-0.5866,1.2115,0.2538,-1.8315,0.613
294291.0,4.3862,-0.5531,1.1779,0.2251,-1.5357,0.5039
294301.0,4.786,-0.6752,1.6209,0.1043,-1.2483,0.3884
294311.0,5.2313,-0.7566,2.308,-0.0314,-1.0004,0.2645
294321.0,5.4899,-0.8356,3.0622,-0.1671,-0.8578,0.1277
294331.0,5.4971,-0.4788,3.4357,-0.1772,-0.7189,0.0048
294341.0,5.2984,0.0383,3.8331,-0.1336,-0.5741,-0.0814
294351.0,5.1236,0.498,4.3886,-0.0654,-0.4651,-0.1171
294361.0,5.2265,0.6967,4.774,0.0846,-0.3549,-0.0942
294371.0,5.3774,0.8164,4.5298,0.1756,-0.3342,-0.066
294381.0,5.5067,0.7781,3.8786,0.0995,-0.3916,-0.0623
294391.0,5.6455,0.5986,2.8754,-0.0681,-0.4177,-0.0819
294401.0,6.0023,0.3352,1.2713,-0.3129,-0.4017,-0.1304
294411.0,6.3039,-0.1006,-0.6369,-0.7428,-0.3496,-0.2182
294421.0,6.1124,-0.7853,-1.4557,-1.2925,-0.1894,-0.3475
294431.0,5.679,-1.0463,-1.6161,-1.6112,0.0814,-0.4938
294441.0,5.7126,-0.7638,-2.1835,-1.6352,0.3315,-0.6369
294451.0,6.2201,0.4693,-4.3958,-1.6708,0.4613,-0.7913
294461.0,5.1787,2.5498,-7.4292,-2.0864,0.4736,-0.9349
294471.0,4.5274,5.5426,-11.8992,-2.6904,0.5428,-0.9684
294481.0,2.8156,9.2392,-17.0324,-3.2278,1.035,-0.7678
294491.0,0.644,12.4283,-20.3172,-3.4284,2.1492,-0.2081
294501.0,-2.6624,16.0076,-23.0226,-2.8984,3.8376,0.6832
294511.0,-9.7372,18.3348,-26.4679,-2.3626,5.6106,1.8688
294521.0,-19.824,16.9916,-26.8151,-1.9965,7.747,3.3369
294531.0,-27.6913,10.5632,-22.7162,-1.1307,10.5832,4.9524
294541.0,-35.6904,-2.2529,-11.5496,0.2368,14.0733,6.3667
294551.0,-43.675,-21.464,11.8657,1.5915,17.4357,6.4673
294561.0,-38.4916,-32.6066,40.6775,3.0022,17.4357,4.4181
294571.0,-37.0024,-22.4073,57.2549,5.2434,15.9267,1.6767
294581.0,-33.028,-8.4443,66.5277,5.924,12.4312,-0.506
294591.0,-27.6937,4.2952,68.5125,3.9781,7.4863,-2.1646
294601.0,-29.0417,12.457,71.4573,0.4667,2.7601,-3.1826
294611.0,-30.1478,14.8512,70.1501,-1.9273,-1.8656,-3.2161
294621.0,-30.459,16.2255,56.5367,-1.7932,-5.7564,-2.411
294631.0,-28.5078,14.5328,39.6073,-0.5736,-8.2419,-1.1951
294641.0,-23.8965,10.8194,21.4808,1.1951,-9.1742,0.0867
294651.0,-17.1377,7.4603,4.1755,2.5525,-8.7107,1.0935
294661.0,-10.8912,4.6376,-4.3742,2.6132,-7.0377,1.6001
294671.0,-7.5274,2.1476,-4.4915,2.0093,-4.9667,1.7166
294681.0,-5.861,0.5794,-0.7446,1.4825,-3.289,1.624
294691.0,-4.4365,-0.8021,4.9153,1.1919,-2.262,1.442
294701.0,-4.2856,-1.0702,9.3111,1.1573,-1.9497,1.2159
294711.0,-3.5793,-0.7254,11.3701,1.2223,-2.2466,0.9791
294721.0,-2.6839,0.3424,10.8362,1.3063,-2.6856,0.7742
294731.0,-2.6887,1.2905,10.252,1.1563,-3.0793,0.6045
294741.0,-2.3703,1.9824,8.7891,0.9706,-3.4912,0.5039
294751.0,-1.719,2.3415,6.3662,0.8237,-3.7588,0.4603
294761.0,-1.561,2.466,4.4293,0.6327,-3.7338,0.4422
294771.0,-1.2809,2.4397,3.0023,0.3421,-3.5189,0.4411
294781.0,-0.7135,1.6759,2.4612,-0.182,-3.331,0.4076
294791.0,0.431,0.7326,2.3607,-0.6806,-3.0735,0.3081
294801.0,1.1516,0.431,2.8012,-1.0855,-2.7441,0.1229
294811.0,1.1133,0.6608,4.276,-1.3659,-2.4541,-0.0867
294821.0,1.2498,1.3815,6.0621,-1.152,-2.0774,-0.1884
294831.0,1.4222,2.3128,6.9216,-0.6093,-1.7347,-0.1559
294841.0,1.3671,2.9329,7.1515,-0.2272,-1.5931,-0.0548
294851.0,1.5969,3.0191,7.2042,-0.0601,-1.5335,0.0867
294861.0,1.6041,2.466,7.5106,-0.0458,-1.4702,0.2251
294871.0,1.731,1.5227,8.0038,-0.1548,-1.4952,0.307
294881.0,2.2482,0.498,8.2815,-0.2788,-1.5788,0.3124
294891.0,2.466,-0.1963,8.2863,-0.3927,-1.7038,0.2283
294901.0,2.8515,-0.3831,8.2528,-0.4337,-1.8188,0.0915
294911.0,2.9736,0.1389,7.7596,-0.3682,-1.8704,-0.05
294921.0,3.0861,0.9792,7.1658,-0.3512,-1.9289,-0.1575
294931.0,3.3016,1.7406,6.3662,-0.4448,-2.0082,-0.2097
294941.0,3.6105,2.0614,5.6455,-0.6593,-2.1237,-0.2128
294951.0,4.0654,1.8172,4.47,-0.8828,-2.2641,-0.1841
294961.0,4.7094,1.2426,3.0119,-0.9094,-2.2327,-0.1362
294971.0,4.786,0.9673,1.4916,-0.754,-1.9811,-0.1054
294981.0,5.4971,0.9697,-0.5555,-0.6534,-1.7214,-0.1032
294991.0,6.1483,0.893,-2.1811,-0.6231,-1.3627,-0.1139
295001.0,6.122,0.9313,-3.2178,-0.5247,-0.8386,-0.1133
295011.0,5.8227,1.4868,-5.1834,-0.4523,-0.3257,-0.1027
295021.0,5.3199,2.0782,-8.1475,-0.7987,0.0314,-0.0995
295031.0,4.0462,3.0861,-12.4594,-1.7065,0.3288,-0.1075
295041.0,3.0215,3.7421,-15.3061,-3.1203,0.6848,-0.0921
295051.0,2.4995,5.1619,-18.0283,-4.2931,1.2191,0.0128
295061.0,3.3184,6.9767,-20.2597,-4.7486,2.0263,0.2895
295071.0,0.3376,9.833,-22.3164,-4.2053,3.323,0.8482
295081.0,-4.9153,12.3325,-24.4041,-3.1453,4.7491,1.706
295091.0,-11.5161,12.2846,-24.847,-1.79,6.314,2.7829
295101.0,-17.0156,9.0237,-24.0809,0.2831,8.6527,3.9291
295111.0,-24.9667,1.7957,-18.0427,2.1104,11.491,4.7885
295121.0,-30.5596,-10.1179,-7.1156,2.9314,13.9307,4.9534
295131.0,-32.3792,-24.2174,12.888,2.8149,15.593,3.8802
295141.0,-32.9203,-27.179,32.4199,3.1256,15.5372,1.673
295151.0,-34.024,-17.4849,44.0988,3.7503,13.9467,-0.7082
295161.0,-34.261,-3.2968,51.5783,3.5689,11.4734,-2.4988
295171.0,-32.9107,8.0182,58.8447,2.0156,8.4515,-3.4885
295181.0,-32.2379,16.0435,66.2404,0.2256,5.3541,-3.5534
295191.0,-30.9858,18.7801,69.2355,-0.7998,1.7347,-2.7702
295201.0,-30.0137,17.6022,65.2803,-0.6524,-2.046,-1.475
295211.0,-28.8501,13.4578,52.5001,0.8365,-5.1349,0.0841
295221.0,-24.9907,7.3574,35.1565,2.511,-7.1495,1.4032
295231.0,-20.7936,2.3032,19.5989,3.4667,-7.6869,2.1354
295241.0,-16.0699,-0.8859,8.8801,3.2523,-7.2495,2.228
295251.0,-11.9686,-2.7174,4.8507,2.1034,-6.3736,1.7863
295261.0,-9.6678,-2.8299,5.2696,0.9195,-5.3515,1.1105
295271.0,-8.8873,-1.7549,7.8219,0.0458,-4.6491,0.448
295281.0,-8.2097,-0.1197,10.0748,-0.4432,-4.499,-0.067
295291.0,-7.8578,1.7502,11.3533,-0.505,-4.5932,-0.3741
295301.0,-7.9823,3.3016,11.892,-0.1735,-4.7922,-0.4422
295311.0,-7.944,4.3503,10.307,0.5465,-5.0184,-0.2767
295321.0,-6.7157,5.2672,6.8283,1.2792,-5.1046,0.0138
295331.0,-5.0925,5.5498,4.2449,1.5399,-4.9699,0.3038
295341.0,-4.1061,5.5833,2.6504,1.384,-4.6693,0.555
295352.0,-3.4046,5.1116,1.8723,0.8647,-4.4538,0.7247
295361.0,-2.2984,4.3551,1.166,0.1958,-4.3075,0.8168
295371.0,-1.391,3.2537,0.9529,-0.4502,-4.068,0.8455
295381.0,-0.6823,2.1739,0.7566,-1.0307,-3.8397,0.7998
295391.0,0.1341,1.1803,1.2163,-1.5027,-3.6093,0.6822
295401.0,0.9433,0.68,1.8986,-1.6538,-3.2581,0.5417
295411.0,1.3431,0.7374,2.9018,-1.6043,-2.9091,0.4103
295421.0,1.8794,0.8332,4.0845,-1.3893,-2.6707,0.3347
295431.0,2.5666,1.1157,4.4628,-0.919,-2.4722,0.3453
295441.0,2.7797,1.0918,3.8666,-0.4438,-2.3211,0.4182
295451.0,3.055,0.6153,2.9305,-0.1767,-2.2083,0.4911
295461.0,3.1268,0.2035,1.8962,-0.0889,-2.0407,0.5183
295471.0,3.4884,-0.3663,1.2641,-0.1703,-1.8055,0.4975
295481.0,4.3215,-1.0846,1.8411,-0.3464,-1.4915,0.4241
295491.0,5.1068,-1.3072,2.9473,-0.4826,-1.1973,0.2921
295501.0,5.3367,-1.2186,4.0582,-0.6369,-1.0738,0.1389
295511.0,5.533,-0.9266,4.5011,-0.7019,-1.0562,0.0223
295521.0,5.4444,-0.6728,4.6615,-0.6715,-1.0163,-0.0372
295531.0,5.4636,-0.6895,4.9249,-0.5497,-0.9312,-0.0426
295541.0,5.4636,-1.0463,5.0925,-0.3688,-0.8631,-0.0223
295551.0,5.5043,-1.4078,4.6711,-0.191,-0.8668,-0.0255
295561.0,5.8251,-1.5467,3.9624,-0.1197,-0.9025,-0.0798
295571.0,6.1531,-1.5514,3.0167,-0.1713,-0.9764,-0.1697
295581.0,6.7014,-1.4724,1.5299,-0.2288,-0.9881,-0.2666
295591.0,6.8043,-1.0534,-0.431,-0.332,-0.8689,-0.3719
295601.0,6.766,-0.4477,-2.9209,-0.6598,-0.7285,-0.4709
295611.0,7.3789,-0.3352,-5.6958,-1.342,-0.6359,-0.5555
295621.0,6.4428,-0.4717,-7.6734,-2.1758,-0.4236,-0.647
295631.0,5.0254,0.9601,-11.4706,-2.8218,-0.1623,-0.7237
295641.0,4.5418,3.0095,-16.1776,-3.6237,0.0649,-0.7508
295651.0,4.0773,5.5833,-22.0745,-4.4495,0.5529,-0.6013
295661.0,2.7797,7.8003,-25.2516,-4.9832,1.583,-0.1745
295671.0,-0.8308,8.8681,-25.5246,-4.4362,3.0634,0.6135
295681.0,-4.5226,8.8969,-26.8917,-2.2397,5.0274,1.666
295691.0,-9.1267,6.6152,-27.835,0.6763,7.4767,2.6765
295701.0,-17.1545,2.739,-24.3371,3.3672,10.5592,3.3177
295711.0,-25.7353,-1.6041,-17.1616,4.8896,13.207,3.3268
295721.0,-33.4254,-6.5098,-5.8347,5.0593,15.1727,2.6898
295731.0,-39.466,-10.6111,12.5432,4.6693,16.5381,1.5064
295741.0,-39.6336,-9.663,27.4998,4.3255,16.4194,0.0261
295751.0,-39.557,-5.7197,48.4778,3.1107,15.0801,-1.4665
295761.0,-36.8109,3.5721,62.7161,2.5552,12.0231,-2.4062
295771.0,-31.9698,11.8226,69.4893,2.0391,7.7779,-2.6946
295781.0,-29.6474,18.6197,68.8716,1.5777,3.5391,-2.3493
295791.0,-27.914,20.7434,62.2636,1.1265,-0.6737,-1.5415
295801.0,-25.9891,19.5774,49.3613,1.3095,-3.9472,-0.473
295811.0,-23.0873,16.4506,33.8181,1.9438,-5.6313,0.6114
295821.0,-18.895,11.4179,21.3204,2.2051,-6.0118,1.4106
295831.0,-15.2152,7.1754,12.8186,2.0305,-5.4249,1.7677
295841.0,-12.1625,3.8882,10.4603,1.4181,-4.3426,1.7129
295851.0,-10.6877,2.1308,11.813,0.754,-3.3518,1.4112
295861.0,-9.7396,1.6759,14.7219,0.149,-2.8761,1.0084
295871.0,-9.4475,2.0782,17.5112,-0.3528,-2.9687,0.6204
295881.0,-9.4355,3.3136,18.6006,-0.6226,-3.4678,0.3272
295891.0,-9.0357,4.5346,18.0188,-0.7019,-4.1287,0.1857
295901.0,-8.7628,5.3463,16.4482,-0.6295,-4.6613,0.1963
295911.0,-8.5114,5.0637,14.6238,-0.5358,-5.1093,0.3161
295921.0,-7.8075,4.1037,11.8824,-0.4464,-5.518,0.456
295931.0,-7.2329,3.2465,8.6431,-0.4315,-5.7793,0.539
295941.0,-5.7604,2.5618,5.6503,-0.505,-5.8011,0.5619
295951.0,-4.7549,2.375,4.0342,-0.5438,-5.4893,0.5358
295961.0,-4.0941,2.739,3.1436,-0.5018,-5.0652,0.5225
295971.0,-2.9353,3.1316,2.6025,-0.4869,-4.7092,0.5486
295981.0,-1.5921,3.2561,2.399,-0.4906,-4.3325,0.622
295991.0,-0.9673,3.1029,1.9585,-0.7035,-4.0877,0.6981
296001.0,-0.1484,2.0399,1.8196,-1.1701,-4.0201,0.7354
296011.0,0.5387,0.6321,1.9585,-1.5527,-3.9344,0.713
296021.0,0.8428,-0.3472,2.2745,-1.6176,-3.7737,0.6391
296031.0,1.3144,-0.7949,2.3463,-1.2904,-3.5609,0.5577
296041.0,1.889,-0.6129,1.2498,-0.7913,-3.3912,0.4949
296051.0,2.8922,-0.4381,0.3017,-0.3384,-3.1474,0.4624
296061.0,3.8235,-0.0694,-0.8619,0.0463,-2.8064,0.4539
296071.0,4.5394,0.1604,-1.8986,0.1506,-2.5148,0.4401
296081.0,5.1595,0.1676,-2.6408,0.0553,-2.2109,0.4156
296091.0,5.6,0.103,-2.9736,-0.0995,-1.8087,0.3815
296101.0,5.715,-0.0479,-2.3607,-0.3065,-1.4037,0.3336
296111.0,5.9137,-0.1939,-1.6688,-0.4752,-1.0892,0.2778
296121.0,6.0023,-0.1652,-1.0295,-0.5816,-0.8604,0.2134
296131.0,5.9879,0.0192,-0.5243,-0.6662,-0.7253,0.1538
296141.0,6.0645,0.328,-0.5411,-0.7237,-0.6784,0.1117
296151.0,6.3614,0.7398,-1.1564,-0.8242,-0.6965,0.0889
296161.0,6.347,1.0534,-1.7071,-0.8716,-0.6002,0.1075
296171.0,6.2369,1.5538,-2.648,-0.7982,-0.406,0.1666
296181.0,6.4787,2.3128,-6.1818,-0.8684,-0.3214,0.2602
296191.0,6.28,2.9832,-12.5432,-1.6687,-0.3374,0.3347
296201.0,5.6886,2.8371,-19.0291,-3.4311,-0.1878,0.3709
296211.0,4.3335,1.5921,-22.3475,-5.3701,0.4464,0.4401
296221.0,2.5355,1.7789,-22.6468,-6.0283,1.7703,0.6263
296231.0,-0.3112,4.2449,-21.2438,-5.1892,3.355,1.0397
296241.0,-2.9688,6.268,-21.045,-3.4619,4.6118,1.781
296251.0,-6.019,6.2824,-24.3778,-0.9658,6.082,2.71
296261.0,-10.4986,4.1228,-27.7488,1.4452,8.2547,3.5024
296271.0,-20.5806,-0.3304,-26.6092,2.8777,11.11,3.9366
296281.0,-31.9698,-8.0062,-15.3133,3.2698,14.2234,3.8137
296291.0,-40.1244,-15.105,5.6671,3.4523,16.6977,3.0176
296301.0,-43.8378,-16.3069,23.6356,4.2872,17.4357,1.7086
296311.0,-43.6894,-12.0093,42.9209,5.0013,17.3086,0.1846
296321.0,-42.2194,-2.8778,64.9236,4.8587,15.328,-1.1738
296331.0,-35.8651,6.3686,74.261,3.5476,10.4033,-2.0412
296341.0,-32.9514,12.6318,78.4508,1.6176,5.3371,-2.3503
296351.0,-32.9299,16.1465,78.2497,0.6747,0.6332,-1.9278
296361.0,-32.6354,15.5886,68.1605,0.7886,-3.9568,-0.9493
296371.0,-30.9355,12.9454,49.7108,1.9704,-7.431,0.265
296381.0,-26.6834,8.8992,29.6881,3.3395,-9.0938,1.342
296391.0,-20.2023,5.0589,12.2823,3.993,-9.1534,2.0082
296401.0,-14.2455,1.3982,2.5139,3.6173,-7.9514,2.1519
296411.0,-10.2615,-0.0694,-0.3017,2.7814,-6.1331,1.8555
296421.0,-8.0972,-0.34,1.6735,1.7081,-4.5597,1.3537
296431.0,-6.5984,0.1532,5.375,0.7508,-3.5513,0.8407
296441.0,-5.9759,1.3144,9.256,-0.0043,-3.1735,0.3884
296451.0,-5.8849,2.6384,11.995,-0.5018,-3.3289,0.0623
296461.0,-5.5952,3.9863,12.4594,-0.7529,-3.8328,-0.1149
296471.0,-5.1404,4.944,11.3916,-0.854,-4.3835,-0.1612
296481.0,-4.7022,5.3678,9.3757,-0.8099,-4.7842,-0.0851
296491.0,-3.8499,4.7884,6.8378,-0.638,-4.9971,0.0825
296501.0,-2.7102,4.1587,3.7613,-0.4241,-4.9508,0.257
296511.0,-1.4341,3.5769,1.913,-0.3427,-4.6225,0.3725
296521.0,-0.6177,3.4189,0.759,-0.3443,-4.1345,0.4624
296531.0,0.3376,3.3375,0.589,-0.5465,-3.7173,0.5279
296541.0,0.9457,3.0861,1.2091,-0.7636,-3.3326,0.5992
296551.0,1.2522,2.5307,2.1739,-0.854,-3.0197,0.6997
296561.0,1.7741,1.3168,2.6049,-0.8232,-2.8596,0.8131
296571.0,2.8515,-0.2107,2.5642,-0.6157,-2.6467,0.8902
296581.0,3.0526,-1.2186,2.4325,-0.4305,-2.3738,0.8642
296591.0,3.4141,-2.15,3.1053,-0.3805,-2.1657,0.7444
296601.0,3.9121,-2.4205,3.644,-0.2315,-1.9827,0.5662
296611.0,3.9121,-1.992,3.9193,-0.0676,-1.8698,0.3704
296621.0,4.13,-1.3575,3.292,-0.008,-1.8906,0.2059
296631.0,4.6495,-0.7422,2.1644,-0.0825,-1.9183,0.0798
296641.0,5.272,-0.4836,1.2282,-0.2575,-1.8555,-0.0101
296651.0,5.6503,-0.4381,0.6416,-0.3837,-1.6905,-0.0734
296661.0,5.7604,-0.3591,0.0263,-0.3331,-1.3877,-0.1054
296671.0,5.8107,-0.5938,0.0766,-0.2054,-0.9828,-0.1043
296681.0,5.9687,-0.9936,1.0175,0.008,-0.5321,-0.1
296691.0,5.9233,-1.063,2.3583,0.2959,-0.1836,-0.116
296701.0,5.7988,-0.8619,3.3495,0.5837,-0.0165,-0.1389
296711.0,5.7988,-0.1197,3.316,0.7364,-0.0569,-0.1724
296721.0,5.8682,0.5459,2.6025,0.5023,-0.3187,-0.215
296731.0,5.8371,0.893,0.8547,-0.0085,-0.6662,-0.2458
296741.0,5.7389,0.814,-1.5083,-0.7519,-1.0546,-0.2953
296751.0,5.9041,0.8571,-5.3103,-1.3851,-1.2744,-0.3368
296761.0,6.11,1.506,-10.999,-2.129,-1.2861,-0.3954
296771.0,5.6407,2.2194,-15.433,-3.1214,-0.9418,-0.4619
296781.0,3.9313,3.9887,-19.2853,-3.7796,-0.0686,-0.4379
296791.0,2.3894,7.0222,-23.1831,-4.1643,0.9668,-0.2464
296801.0,0.3974,9.8426,-24.294,-4.1994,2.1806,0.215
296811.0,-2.2721,12.8784,-26.1016,-3.0682,3.7157,1.0919
296821.0,-5.7461,12.5576,-28.0648,-1.118,5.4887,2.2705
296831.0,-10.2568,8.6,-30.7104,1.2499,7.9136,3.4103
296841.0,-18.3611,2.5738,-28.388,2.941,11.0498,4.0457
296851.0,-29.5373,-4.4245,-18.1409,3.4768,14.2202,3.9477
296861.0,-38.4868,-10.5393,0.4381,3.1129,16.5695,3.0543
296871.0,-42.6886,-12.0548,21.2868,3.0964,17.2681,1.6927
296881.0,-42.3247,-7.5513,36.3823,3.9642,16.8509,0.4039
296891.0,-40.9552,-0.8356,55.9453,4.1899,15.4009,-0.6417
296901.0,-35.6832,5.7628,65.9004,3.621,11.5687,-1.2914
296911.0,-32.111,10.0341,72.4414,2.2274,7.2527,-1.641
296921.0,-30.7703,13.7882,72.6784,1.3122,3.0394,-1.5559
296931.0,-29.5397,14.0995,66.1901,0.796,-1.1494,-1.0733
296941.0,-28.0337,13.0963,54.935,0.9296,-4.3835,-0.4001
296951.0,-25.5509,10.9774,40.4668,1.4803,-6.5434,0.2985
296961.0,-21.4425,7.9751,25.8741,1.8166,-7.6502,0.8157
296971.0,-17.2095,5.9448,14.5879,1.8725,-7.5533,1.0515
296981.0,-13.4051,5.0805,7.8314,1.5703,-6.7142,1.06
296991.0,-10.8266,4.5825,6.1316,1.028,-5.5526,0.9514
297001.0,-9.3781,4.3263,7.003,0.5199,-4.5735,0.8189
297011.0,-8.3701,3.9409,9.0788,0.0921,-4.0382,0.6987
297021.0,-7.8769,3.6152,10.2448,-0.1676,-3.9084,0.6039
297031.0,-6.8235,3.7733,9.7875,-0.4028,-4.0739,0.5018
297041.0,-5.9711,4.0582,9.8737,-0.7439,-4.2601,0.3714
297051.0,-5.6431,4.5059,10.0006,-0.9041,-4.4548,0.3038
297061.0,-5.3319,4.4676,8.9016,-0.7907,-4.7842,0.3448
297071.0,-4.0031,4.0821,6.1268,-0.456,-5.0524,0.4566
297081.0,-2.9377,3.8379,2.5666,-0.0777,-4.9598,0.5816
297091.0,-1.889,3.3136,0.0479,0.0772,-4.5331,0.6902
297101.0,-0.5938,2.387,-0.7685,-0.0197,-3.8866,0.7487
297111.0,-0.3232,1.9154,-0.4764,-0.4108,-3.3704,0.6949
297121.0,0.2705,1.9609,0.1987,-0.9663,-3.0841,0.572
297131.0,0.9361,1.8675,2.3607,-1.3739,-2.8,0.4794
297141.0,0.8332,1.6257,3.7733,-1.3585,-2.6696,0.4725
297151.0,1.2067,1.336,3.3399,-1.002,-2.6451,0.5204
297161.0,2.0279,0.4525,2.1907,-0.5587,-2.4477,0.5885
297171.0,2.9568,-0.7494,2.2434,-0.2847,-2.0476,0.5757
297181.0,3.7254,-1.1013,2.8108,-0.2575,-1.7507,0.4124
297191.0,3.9983,-0.7326,2.9018,-0.4821,-1.7102,0.1729
297201.0,4.3814,-0.0958,2.8419,-0.8109,-1.7155,-0.041
297211.0,4.5466,0.5124,3.134,-0.92,-1.5293,-0.1469
297221.0,4.628,0.7398,3.4931,-0.7817,-1.267,-0.132
297231.0,4.7477,0.6464,3.9959,-0.4252,-0.9206,-0.0394
297241.0,4.786,-0.0694,5.2672,0.0069,-0.4597,0.0926
297251.0,4.6902,-1.0367,7.4029,0.3033,-0.1288,0.1655
297261.0,4.561,-1.6113,9.596,0.4198,-0.1703,0.1314
297271.0,4.2928,-1.7071,10.6207,0.4965,-0.4757,0.0452
297281.0,3.7685,-1.1684,10.1801,0.5151,-0.953,-0.0591
297291.0,3.9265,-0.3112,7.8841,0.3581,-1.5602,-0.1634
297301.0,3.723,1.2522,2.6863,-0.132,-2.1646,-0.2724
297311.0,4.2186,2.308,-3.984,-1.4745,-2.7808,-0.4001
297321.0,5.0925,2.6791,-10.5417,-3.239,-3.0123,-0.513
297331.0,4.47,3.6536,-16.0914,-4.9465,-2.7335,-0.5715
297341.0,5.5522,3.7206,-18.2965,-5.9767,-2.2083,-0.505
297351.0,4.8243,8.9759,-25.9244,-4.7613,-0.8455,-0.1458
297361.0,4.6376,12.8952,-33.684,-3.2555,0.8083,0.6157
297371.0,1.7262,14.0731,-41.8099,-1.8369,2.8058,1.7278
297381.0,-4.0294,9.3039,-43.7636,-0.6274,5.7968,2.9069
297391.0,-14.3915,3.1963,-39.4181,0.712,9.5951,3.7546
297401.0,-27.5453,-3.2417,-29.7719,1.9869,13.0006,4.0547
297411.0,-37.3831,-10.1538,-15.2223,3.3486,16.0203,3.6753
297421.0,-43.5122,-13.125,5.9041,4.6565,17.4357,2.5031
297431.0,-43.2106,-8.8729,26.9012,5.2871,17.4357,0.8785
297441.0,-40.6296,-0.3184,44.7189,4.7677,17.075,-0.5726
297451.0,-34.7925,7.8219,59.4576,3.2214,13.5635,-1.4335
297461.0,-30.5213,11.0612,67.131,1.2771,9.0693,-1.699
297471.0,-28.9339,12.2751,69.7431,-0.0021,4.9529,-1.4857
297481.0,-27.586,11.5209,65.0026,-0.1336,0.9312,-0.8822
297491.0,-25.6419,9.8641,53.9964,0.7593,-2.2812,-0.075
297501.0,-23.0514,7.5082,40.5865,2.3104,-3.9892,0.746
297511.0,-19.4553,5.0206,27.021,3.4263,-4.6283,1.2978
297521.0,-15.3971,2.4325,18.6796,3.1874,-4.6288,1.3388
297531.0,-12.7635,1.1157,14.5974,2.386,-4.0792,1.0147
297541.0,-11.7771,0.8332,15.9621,1.3803,-3.4625,0.4805
297551.0,-11.3749,2.569,17.7913,0.7588,-3.2246,-0.0239
297561.0,-10.9774,4.9201,19.3044,0.2128,-3.4332,-0.3778
297571.0,-10.8673,6.6176,20.9756,-0.3235,-3.9589,-0.5401
297581.0,-11.0445,7.8051,20.4944,-0.6375,-4.7252,-0.5172
297591.0,-10.884,8.2432,18.5958,-0.9317,-5.6074,-0.3959
297601.0,-11.2719,7.8578,17.0898,-1.1004,-6.3337,-0.1979
297611.0,-11.4802,7.1539,13.8624,-0.7412,-6.9356,0.1176
297621.0,-10.1897,6.2776,8.9423,-0.1213,-7.2974,0.4853
297631.0,-8.2696,5.4516,3.2489,0.2921,-7.3001,0.8195
297641.0,-6.031,4.0725,-1.2857,0.1916,-7.0319,1.035
297651.0,-3.5913,2.6791,-4.5083,-0.2011,-6.4253,1.1057
297661.0,-1.9704,1.7645,-6.0334,-0.7891,-5.617,1.0233
297671.0,-0.5219,0.8715,-5.3822,-1.4606,-4.8209,0.8397
297681.0,0.3208,0.3639,-2.964,-1.8246,-4.0228,0.6497
297691.0,0.68,-0.012,0.0934,-1.7139,-3.4332,0.5279
297701.0,1.5993,-0.3831,1.5945,-1.1073,-3.0793,0.5034
297711.0,2.7677,-0.3543,1.1516,-0.3688,-2.8479,0.5082
297721.0,3.5961,-0.0958,-0.158,0.1139,-2.6441,0.4874
297731.0,4.3191,0.3639,-1.9585,0.2496,-2.3674,0.4432
297741.0,4.798,0.4932,-2.897,-0.0192,-2.0103,0.3794
297751.0,5.0853,0.2801,-2.4948,-0.4592,-1.5878,0.3049
297761.0,5.3893,-0.0718,-1.0463,-0.7859,-1.1648,0.24
297771.0,5.2816,-0.4238,0.7901,-0.8024,-0.7971,0.2134
297781.0,5.2289,-0.9218,2.6576,-0.4773,-0.4741,0.2352
297791.0,5.3415,-1.2139,3.7972,0.0208,-0.2613,0.2645
297801.0,5.3295,-1.415,4.1851,0.3336,-0.2708,0.249
297811.0,5.3439,-1.4629,3.9528,0.4507,-0.4065,0.1868
297821.0,5.2672,-1.063,2.8395,0.4555,-0.5539,0.0931
297831.0,5.1212,-0.1844,1.2498,0.2682,-0.6902,-0.0245
297841.0,4.8339,1.3982,-2.3727,-0.2623,-0.8849,-0.149
297851.0,4.6304,2.7629,-7.1994,-1.5846,-1.2659,-0.3054
297861.0,3.893,5.3846,-15.3325,-3.7264,-1.7624,-0.4933
297871.0,2.545,7.8841,-21.8662,-6.5727,-2.054,-0.6162
297881.0,2.9904,12.3661,-27.3178,-8.4989,-1.7395,-0.4172
297891.0,2.071,16.2997,-29.1638,-8.2052,-0.3012,0.5013
297901.0,-1.0271,15.9262,-31.6801,-5.7383,1.4186,2.1146
297911.0,-3.4069,9.9455,-38.7454,-1.8246,3.3858,3.8828
297921.0,-11.1067,2.6312,-45.9567,2.4791,7.1713,5.1535
297931.0,-23.1615,-4.956,-46.0142,4.9263,11.9268,5.4249
297941.0,-39.976,-13.7427,-32.7072,4.5815,16.3965,4.5341
297951.0,-52.3085,-19.508,-6.7469,3.4566,17.4357,2.7686
297961.0,-59.6467,-13.9199,16.6469,3.877,17.4357,0.7779
297971.0,-59.8431,-3.3016,36.7342,4.2037,17.4357,-0.7561
297981.0,-55.974,6.4548,61.3993,3.3305,17.4357,-1.5602
297991.0,-47.5369,10.3932,78.4508,1.7075,14.2042,-1.6299
298001.0,-42.3271,9.9575,78.4508,0.3549,9.0097,-1.2579
298011.0,-38.834,8.9926,78.4508,0.6662,2.8048,-0.3991
298021.0,-36.569,6.9025,78.4508,1.997,-2.8191,0.6933
298031.0,-34.704,2.9832,58.5502,3.3321,-7.0744,1.6176
298041.0,-30.8565,-1.4724,35.4988,4.1313,-9.6275,2.0971
298051.0,-25.0793,-3.8571,14.6549,4.1702,-10.4023,2.0188
298061.0,-16.7403,-2.411,-1.5371,2.9777,-9.743,1.4016
298071.0,-11.3389,-0.8882,-5.0206,0.8312,-7.7619,0.5263
298081.0,-8.6335,1.1564,-3.1987,-0.6784,-5.5531,-0.1921
298091.0,-7.513,2.3631,2.8276,-1.6591,-3.9531,-0.6715
298101.0,-7.6471,3.2178,9.5002,-1.7331,-3.0596,-0.8471
298111.0,-7.2712,4.1683,13.6086,-1.0227,-2.8819,-0.7588
298121.0,-7.1227,4.5274,15.2056,-0.1506,-3.2454,-0.5225
298131.0,-6.8618,4.7788,14.6094,0.7865,-3.7168,-0.2097
298141.0,-6.2249,5.2768,11.1833,1.5293,-4.1579,0.1133
298151.0,-5.2744,5.703,7.5848,1.5362,-4.5219,0.3347
298161.0,-4.3263,5.7293,5.126,1.0131,-4.6203,0.4715
298171.0,-3.4788,5.1691,4.1396,0.3709,-4.4644,0.5656
298181.0,-2.873,4.3359,3.9265,-0.2171,-4.2915,0.6183
298191.0,-2.3104,3.3088,3.5674,-0.6364,-4.1664,0.6513
298201.0,-1.5921,2.1428,3.4477,-0.8179,-3.9589,0.6694
298211.0,-0.9601,1.1325,3.8235,-0.7072,-3.6535,0.6715
298221.0,-0.4022,0.4956,3.8068,-0.3448,-3.3853,0.6667
298231.0,0.4453,0.7757,2.5857,0.0314,-3.2235,0.6321
298241.0,1.257,1.1109,1.4461,0.1979,-3.0208,0.5997
298251.0,1.9249,1.4437,0.8499,0.2719,-2.6861,0.5986
298261.0,2.6528,1.6328,0.6393,0.2581,-2.3482,0.6167
298271.0,3.3974,1.6257,0.6584,0.1277,-2.0806,0.6412
298281.0,3.6703,1.561,0.6656,-0.091,-1.8794,0.6593
298291.0,3.7757,1.2067,0.7829,-0.348,-1.7475,0.6886
298301.0,4.0558,0.6464,0.8428,-0.489,-1.6139,0.7354
298311.0,4.4987,-0.0886,1.0846,-0.4603,-1.4277,0.7833
298321.0,4.8387,-0.735,1.1181,-0.2927,-1.2467,0.8077
298331.0,4.944,-0.9625,0.6225,-0.0851,-1.0946,0.7976
298341.0,5.205,-1.1708,-0.3903,0.0208,-0.9759,0.7716
298351.0,5.612,-1.3719,-2.5594,-0.1288,-0.903,0.7194
298361.0,6.28,-2.0063,-4.7357,-0.7497,-0.8721,0.5965
298371.0,6.5434,-2.7054,-7.0437,-1.6096,-0.7646,0.4081
298381.0,6.1603,-3.1915,-8.418,-2.4456,-0.5124,0.166
298391.0,5.3008,-2.6671,-9.4212,-2.8809,-0.1266,-0.058
298401.0,5.0087,-1.0534,-11.8274,-2.8511,0.2639,-0.1703
298411.0,2.6288,1.7909,-18.5311,-2.7409,0.5603,-0.1235
298421.0,3.2058,4.4436,-28.7256,-3.1416,0.8466,0.0468
298431.0,2.6145,7.1611,-38.5275,-3.5412,2.1838,0.4353
298441.0,-5.3965,9.9288,-42.8897,-3.3321,5.0253,1.177
298451.0,-16.2854,8.2552,-35.7598,-2.477,8.6436,2.2599
298461.0,-25.8981,3.0526,-23.5709,-0.3017,12.2918,3.3917
298471.0,-36.9761,-2.9592,-9.8881,2.3743,15.4323,3.9536
298481.0,-41.6591,-10.908,7.5657,3.7067,16.9877,3.5231
298491.0,-38.6951,-15.3325,24.0929,4.0978,17.017,2.2189
298501.0,-38.8914,-10.5896,39.6049,3.8706,16.2848,0.4486
298511.0,-35.9849,-3.4213,55.148,2.5946,13.7237,-1.0664
298521.0,-32.8844,2.3655,63.2835,0.9413,9.901,-1.9688
298531.0,-31.8165,6.9336,69.3169,-0.3895,6.2757,-2.2413
298541.0,-30.7846,10.1538,70.3536,-0.596,2.3679,-1.8337
298551.0,-28.9076,11.7053,61.9835,0.3347,-1.4324,-0.8801
298561.0,-27.428,10.805,50.1944,1.5692,-4.1893,0.2591
298571.0,-24.6507,7.6112,36.6337,2.6952,-5.99,1.3111
298581.0,-20.2526,3.0765,23.6619,3.4071,-6.7658,2.0582
298591.0,-16.3189,-0.7063,13.8241,3.4667,-6.579,2.3338
298601.0,-12.1721,-3.4261,8.6766,2.7994,-5.9464,2.1396
298611.0,-9.1075,-5.047,7.7476,1.9529,-5.0088,1.6426
298621.0,-8.023,-5.3415,9.8713,1.2382,-4.1473,0.9924
298631.0,-7.4508,-3.869,11.6167,0.5992,-3.9174,0.298
298641.0,-7.1347,-1.7813,13.0221,-0.0218,-4.126,-0.3113
298651.0,-7.1754,0.4501,13.8912,-0.3145,-4.3899,-0.7136
298661.0,-7.7476,2.7102,13.4075,-0.1618,-4.5959,-0.8599
298671.0,-7.4699,3.8283,12.3972,0.1304,-4.781,-0.7716
298681.0,-6.3686,4.2353,10.6805,0.4672,-4.8699,-0.5715
298691.0,-5.5282,4.6088,8.4132,0.6284,-4.9481,-0.3852
298701.0,-4.8459,4.7405,5.9664,0.5518,-4.9854,-0.2182
298711.0,-3.6655,4.6471,3.8882,0.3629,-4.8071,-0.0676
298721.0,-3.0718,4.2593,2.8204,-0.0154,-4.5496,0.0372
298731.0,-2.3032,3.4477,2.6576,-0.4209,-4.3282,0.1
298741.0,-1.3312,2.6983,2.3008,-0.5811,-4.0313,0.1426
298751.0,-0.8475,2.1308,2.2338,-0.6689,-3.7466,0.1431
298761.0,-0.419,1.8842,2.047,-0.7476,-3.5487,0.1155
298771.0,0.1053,1.968,1.7286,-0.7508,-3.3779,0.0777
298781.0,0.7925,2.3535,0.984,-0.7077,-3.2102,0.0623
298791.0,1.2594,2.624,0.2418,-0.7226,-3.0192,0.0713
298801.0,1.8986,3.0023,-0.8835,-0.8471,-2.8856,0.0905
298811.0,2.7414,3.0406,-1.5514,-1.0264,-2.7265,0.1229
298821.0,3.5362,3.1747,-2.3152,-1.0158,-2.4094,0.2049
298831.0,3.711,3.2106,-2.5977,-0.8562,-1.9709,0.3368
298841.0,4.1037,2.5331,-2.7749,-0.4879,-1.4463,0.547
298851.0,4.5155,1.5826,-2.9473,0.0644,-0.7806,0.7652
298861.0,4.7118,0.68,-2.7438,0.5529,-0.0777,0.9035
298871.0,5.0805,-0.2035,-1.664,0.878,0.6002,0.9519
298881.0,5.3893,-0.8906,-0.2538,1.0174,1.1446,0.9062
298891.0,5.387,-1.4413,1.3958,0.9355,1.4697,0.7678
298901.0,5.2672,-1.7933,2.7485,0.7854,1.6384,0.5875
298911.0,4.6591,-2.1596,4.5131,0.7152,1.881,0.4124
298921.0,4.3742,-2.4612,6.9911,0.7705,2.1322,0.2331
298931.0,4.525,-2.2936,9.8043,0.8381,2.1593,0.0181
298941.0,3.9672,-1.7478,12.4546,0.9466,1.905,-0.1815
298951.0,3.5937,-0.8978,13.3788,1.177,1.3564,-0.315
298961.0,4.0582,0.8428,9.8928,1.2111,0.5193,-0.4097
298971.0,4.5729,1.5969,4.2904,0.2171,-0.5529,-0.5337
298981.0,5.3151,3.3567,-6.9049,-1.757,-1.6783,-0.7354
298991.0,3.8379,5.4947,-17.911,-5.0285,-2.4334,-1.0057
299001.0,4.8937,6.8043,-23.875,-7.8928,-2.2663,-1.0068
299011.0,2.4565,11.9542,-29.463,-7.7704,-0.5135,-0.3922
299021.0,-1.324,12.7084,-32.803,-5.9916,1.3659,0.9392
299031.0,-4.9368,10.4531,-39.6264,-2.2753,3.8738,2.6105
299041.0,-16.9174,6.1699,-44.8961,2.5813,8.4856,3.9701
299051.0,-31.6777,-0.5195,-43.9192,5.4701,13.6577,4.3878
299061.0,-46.6367,-11.0971,-24.5837,5.0657,17.4357,3.5391
299071.0,-55.6365,-17.8105,6.1148,3.3427,17.4357,1.5655
299081.0,-57.1209,-15.6198,32.9801,2.6164,17.4357,-0.597
299091.0,-55.0427,-5.5115,61.9428,2.6696,17.4357,-2.328
299101.0,-49.2942,6.3375,75.4988,1.815,14.5756,-3.2805
299111.0,-41.968,15.4713,78.4508,0.8189,9.2854,-3.264
299121.0,-40.2968,18.2342,78.4508,-0.1671,3.0384,-2.5573
299131.0,-38.7118,19.223,78.4508,0.3272,-2.1886,-1.1579
299141.0,-38.1037,16.3572,62.3785,1.6315,-6.404,0.5018
299151.0,-34.6489,9.5241,40.3375,2.2546,-9.8712,1.8145
299161.0,-28.8956,2.4732,19.1584,2.6191,-11.3856,2.5451
299171.0,-21.0283,-1.4485,0.7015,2.5408,-11.0259,2.6579
299181.0,-13.0939,-4.2329,-8.6598,1.3558,-9.3615,2.1992
299191.0,-8.4731,-6.1435,-8.6957,0.0947,-6.9153,1.408
299201.0,-6.2608,-6.0693,-5.6551,-0.4826,-4.6629,0.5869
299211.0,-6.2608,-6.0693,-5.6551,-0.4826,-4.6629,0.5869
299221.0,-4.8339,-5.6264,0.2658,-0.8242,-3.1895,-0.1878
299231.0,-4.9991,-3.1795,6.1938,-0.7529,-2.3573,-0.8258
299241.0,-5.1308,-0.0096,10.0413,-0.3198,-2.079,-1.2026
299251.0,-5.0254,3.2298,11.6885,0.0016,-2.3009,-1.3564
299261.0,-4.8363,5.4755,12.639,0.0495,-2.7255,-1.3021
299271.0,-4.956,6.7612,12.639,0.108,-3.1427,-1.0658
299281.0,-4.6256,6.766,12.5217,0.2426,-3.4598,-0.7184
299291.0,-4.5442,6.8714,10.975,0.4672,-3.6891,-0.3576
299301.0,-4.1276,6.3327,9.833,0.3672,-3.8929,-0.0293
299311.0,-3.8618,5.0326,9.3422,0.1857,-3.96,0.2661
299321.0,-3.4309,3.9983,7.4747,-0.1006,-4.184,0.439
299331.0,-2.1715,2.8611,5.5881,-0.5773,-4.4203,0.4688
299341.0,-1.3767,2.4541,3.735,-0.895,-4.3021,0.4342
299351.0,-1.0319,2.059,3.1747,-1.1653,-4.0478,0.3778
299361.0,-0.6704,1.6065,3.1987,-1.2052,-3.7796,0.357
299371.0,0.0,1.0343,3.6033,-0.8344,-3.3635,0.4033
299381.0,0.5411,0.4932,3.7996,-0.2203,-2.9138,0.4911
299391.0,1.1229,-0.4429,3.96,0.2384,-2.6132,0.5545
299401.0,2.1284,-1.2091,3.486,0.4422,-2.4557,0.5172
299411.0,2.8228,-1.3886,2.9425,0.2889,-2.4349,0.3379
299421.0,3.213,-0.8595,2.1284,0.0133,-2.3849,0.1086
299431.0,3.5075,-0.091,1.9321,-0.1969,-2.1806,-0.0745
299441.0,3.7445,0.7063,1.9872,-0.3267,-1.9534,-0.1772
299451.0,4.0582,1.221,2.4205,-0.3741,-1.7512,-0.1979
299461.0,4.3742,1.6017,2.6863,-0.2831,-1.5804,-0.1421
299471.0,4.9728,1.6592,2.2649,-0.0979,-1.4521,-0.0197
299481.0,5.375,1.3336,1.6568,0.0974,-1.2904,0.1181
299491.0,5.6264,1.0319,0.6464,0.2634,-1.0844,0.2363
299501.0,5.8323,0.5219,-0.0766,0.2682,-0.8657,0.3076
299511.0,5.7724,-0.0096,-0.3879,0.2182,-0.6247,0.3294
299521.0,5.7964,-0.1676,-0.9984,0.2219,-0.3842,0.3161
299531.0,6.2177,-0.2682,-1.9106,0.1006,-0.2405,0.2831
299541.0,6.2608,-0.7207,-2.6288,-0.0931,-0.0894,0.2623
299551.0,6.3159,-0.9649,-4.9249,-0.3006,0.0383,0.2363
299561.0,5.9256,-1.6185,-7.2592,-0.936,0.0484,0.1325
299571.0,4.7381,-1.6065,-9.5648,-1.5793,0.2155,-0.0426
299581.0,3.0981,0.0694,-12.5049,-1.9991,0.5678,-0.2363
299591.0,1.9178,2.7581,-16.4721,-2.2966,0.9743,-0.3336
299601.0,1.0391,7.3191,-22.2996,-2.1056,1.7991,-0.1852
299611.0,-0.1317,12.3134,-29.5612,-1.8847,2.9532,0.3448
299621.0,-7.3167,14.5089,-35.5395,-1.8092,4.6581,1.3516
299631.0,-14.7818,11.6837,-38.9177,-1.0562,7.3373,2.6952
299641.0,-27.926,6.0932,-37.8667,0.0782,11.3622,3.969
299651.0,-41.853,-8.904,-22.7569,0.5736,15.8479,4.7049
299661.0,-46.9264,-22.6683,5.0901,1.4011,17.4357,3.8791
299671.0,-49.8377,-23.1711,34.2802,3.1964,17.4357,1.7363
299681.0,-49.7515,-7.604,46.1818,6.0086,17.4357,-0.3155
299691.0,-44.829,6.4787,58.2868,5.3552,15.8367,-1.8773
299701.0,-42.7628,11.2863,73.5714,1.9646,11.8246,-2.8452
299711.0,-38.9273,15.0691,78.4508,-0.82,7.025,-3.1091
299721.0,-38.2881,12.9598,78.4508,-2.6483,0.3954,-2.7649
299731.0,-39.1021,14.8824,77.2369,-1.2079,-4.8848,-1.5665
299741.0,-38.6257,13.3165,57.571,1.0062,-8.8591,0.0043
299751.0,-35.518,8.2648,34.3903,2.4419,-11.8533,1.3053
299761.0,-28.5628,2.3008,12.5504,3.2826,-13.0666,2.096
299771.0,-20.1448,-0.8499,-5.2744,3.5481,-12.154,2.369
299781.0,-11.5089,-3.1843,-13.3261,2.6308,-9.7712,2.129
299791.0,-8.0613,-3.5865,-12.6103,1.4399,-6.9483,1.5644
299801.0,-5.3558,-4.1851,-9.2129,0.1341,-5.2328,0.8737
299811.0,-2.3343,-3.1125,-6.0717,-0.5156,-3.8238,0.2299
299821.0,-1.9321,-1.6783,-1.1612,-0.7354,-2.6457,-0.2533
299831.0,-1.3719,0.0335,2.3463,-0.6965,-2.1136,-0.5545
299841.0,-0.8906,1.482,5.1068,-0.4901,-1.9161,-0.679
299851.0,-0.5962,2.5546,6.4141,-0.149,-1.9715,-0.6423
299861.0,-0.1125,2.9784,6.2034,0.2485,-2.1423,-0.5055
299871.0,0.5722,3.1795,4.8507,0.6109,-2.2397,-0.3374
299881.0,1.0511,3.1675,3.1939,0.7529,-2.2141,-0.1841
299891.0,0.905,2.8347,2.0925,0.6715,-2.0422,-0.0766
299901.0,0.8739,2.8395,1.5155,0.5284,-1.7475,-0.0229
299911.0,1.4126,2.9329,1.1875,0.2847,-1.409,0.0016
299921.0,1.6975,2.8994,1.5874,-0.1187,-1.0791,0.0005
299931.0,1.798,2.8467,2.8778,-0.4619,-0.7146,0.0021
299941.0,1.6137,2.873,4.3239,-0.6556,-0.4092,0.0229
299951.0,1.5155,2.8132,5.9592,-0.6917,-0.2309,0.0686
299961.0,1.5778,2.7557,7.0916,-0.4651,-0.0867,0.1644
299971.0,1.4389,2.5426,7.8721,-0.1139,-0.0032,0.2852
299981.0,1.3791,2.4828,7.7548,0.2347,-0.0085,0.3916
299991.0,1.4533,2.4636,7.2808,0.4715,-0.0197,0.4656
300001.0,1.5323,2.4062,6.9384,0.5699,0.0261,0.5135
300011.0,1.6137,2.2936,6.8809,0.5688,0.0952,0.538
300021.0,1.6017,2.2314,6.4715,0.472,0.1282,0.5374
300031.0,1.8555,2.0375,6.2728,0.2703,0.1905,0.5177
300041.0,1.9297,1.6017,6.7469,0.0644,0.3304,0.4842
300051.0,2.0207,1.2474,7.2736,-0.0527,0.4715,0.4315
300061.0,2.1284,1.0965,7.6782,-0.1336,0.5672,0.3517
300071.0,2.138,1.0965,8.2049,-0.2006,0.6444,0.2687
300081.0,1.9896,1.221,8.6359,-0.2155,0.6939,0.2022
300091.0,1.7454,1.3647,8.904,-0.1575,0.7348,0.1655
300101.0,1.6161,1.3647,9.0118,-0.0511,0.7881,0.1543
300111.0,1.573,1.142,9.2967,0.0548,0.8508,0.1495
300121.0,1.3982,0.9218,9.6438,0.1575,0.8908,0.1304
300131.0,1.1229,0.6919,10.0173,0.2512,0.8828,0.091
300141.0,1.0918,0.431,10.1945,0.4092,0.8876,0.0351
300151.0,1.0726,0.6393,10.2472,0.6396,0.9413,-0.049
300161.0,0.8499,1.3671,10.1418,0.7705,0.9551,-0.1623
300171.0,0.7015,2.1931,10.0317,0.7434,0.9126,-0.2687
300181.0,0.6369,2.9688,9.7085,0.6146,0.8652,-0.3411
300191.0,0.4477,3.4812,9.6774,0.4001,0.8471,-0.3704
300201.0,0.3256,3.6057,9.8569,0.1442,0.8317,-0.3688
300211.0,0.328,3.4812,10.2735,-0.0825,0.8035,-0.3459
300221.0,0.0239,3.2106,10.8002,-0.2043,0.7886,-0.3182
300231.0,-0.1891,3.0694,11.4132,-0.1485,0.7918,-0.2889
300241.0,-0.2897,3.1603,11.8537,0.0548,0.7881,-0.2549
300251.0,-0.4453,3.3902,12.208,0.2692,0.7322,-0.2187
300261.0,-0.4645,3.6943,12.0045,0.448,0.6034,-0.1825
300271.0,-0.3376,3.9768,11.4946,0.5518,0.4709,-0.1394
300281.0,-0.2586,4.1396,10.7595,0.5326,0.364,-0.0963
300291.0,-0.2873,4.0893,10.2927,0.3996,0.2857,-0.0585
300301.0,-0.1604,3.8595,9.9862,0.2565,0.2634,-0.0319
300311.0,-0.1101,3.6607,9.8737,0.1256,0.2857,-0.0213
300321.0,-0.3208,3.3782,10.0078,-0.0197,0.2964,-0.0362
300331.0,-0.3591,3.2298,10.2568,-0.124,0.2948,-0.0559
300341.0,-0.34,3.1364,10.7284,-0.1703,0.2836,-0.0676
300351.0,-0.3017,3.0861,10.896,-0.166,0.2081,-0.0772
300361.0,-0.3472,3.0813,10.7548,-0.1591,0.075,-0.0889
300371.0,-0.0934,3.1651,10.0892,-0.1501,-0.0537,-0.1048
300381.0,0.0359,3.3112,9.4355,-0.1554,-0.0984,-0.1235
300391.0,-0.0862,3.5291,8.8322,-0.1681,-0.0612,-0.1298
300401.0,-0.1844,3.5434,8.5114,-0.2107,0.0176,-0.1203
300411.0,-0.0958,3.5434,8.3246,-0.2586,0.1229,-0.1
300421.0,-0.0694,3.4357,8.6598,-0.357,0.223,-0.0873
300431.0,-0.103,3.1915,9.0716,-0.4555,0.2581,-0.0772
300441.0,-0.1197,2.9281,9.347,-0.4629,0.2613,-0.0676
300451.0,-0.2658,2.8515,9.2847,-0.3448,0.298,-0.0612
300461.0,-0.2682,3.0358,9.0764,-0.191,0.3666,-0.058
300471.0,-0.2801,3.3327,8.9974,-0.1171,0.4555,-0.0553
300481.0,-0.4453,3.3255,9.4044,-0.1399,0.5199,-0.0442
300491.0,-0.5435,3.2657,9.7324,-0.149,0.5342,-0.0298
300501.0,-0.6416,3.237,9.7444,-0.1389,0.5263,-0.0197
300511.0,-0.6416,3.1627,9.9072,-0.1256,0.5279,-0.0133
300521.0,-0.5626,3.2729,9.8641,-0.0777,0.563,-0.0069
300531.0,-0.7494,3.3279,10.252,-0.0553,0.6146,0.0053
300541.0,-0.8404,3.3351,10.3765,-0.0341,0.5992,0.0271
300551.0,-0.9002,3.1603,10.4315,-0.0048,0.58,0.0532
300561.0,-1.0127,3.0215,10.3358,0.0383,0.5859,0.0697
300571.0,-0.9218,2.9042,10.5129,0.0654,0.6194,0.066
300581.0,-0.9361,3.0335,10.9104,0.0639,0.647,0.0426
300591.0,-1.1684,3.1603,11.3892,-0.0197,0.5736,0.0138
300601.0,-1.1277,3.2729,11.5472,-0.0873,0.4268,-0.0005
300611.0,-1.0702,3.3279,11.2982,-0.0883,0.3315,0.0043
300621.0,-1.221,3.4716,11.0612,-0.0894,0.2815,0.0101
300631.0,-1.0678,3.5554,10.8433,-0.1325,0.2395,0.0229
300641.0,-1.0439,3.7086,10.7021,-0.2027,0.2075,0.0367
300651.0,-1.1349,3.7086,10.7404,-0.306,0.1873,0.0639
300661.0,-1.166,3.4141,11.0421,-0.3932,0.1671,0.1027
300671.0,-1.2234,3.0694,11.2336,-0.3948,0.1383,0.1394
300681.0,-1.2091,2.8132,11.3868,-0.3272,0.1064,0.1666
300691.0,-1.1492,2.6217,11.3629,-0.2293,0.0569,0.1745
300701.0,-1.0846,2.6384,11.0468,-0.1298,-0.0011,0.1676
300711.0,-1.0151,2.7797,10.6757,-0.0761,-0.0346,0.149
300721.0,-0.9816,3.0143,10.2759,-0.099,-0.0559,0.132
300731.0,-1.0271,2.9951,10.2185,-0.1852,-0.0654,0.1245
300741.0,-0.9697,2.7988,10.1921,-0.2788,-0.0766,0.1245
300751.0,-0.9697,2.4445,10.2999,-0.3299,-0.074,0.1192
300761.0,-0.9074,2.2721,10.2161,-0.3081,-0.0692,0.0979
300771.0,-0.9529,2.2553,10.1658,-0.2682,-0.0596,0.0639
300781.0,-0.905,2.3894,10.1394,-0.2182,-0.0452,0.0303
300791.0,-0.9361,2.5809,10.1442,-0.1623,-0.0314,0.008
300801.0,-0.9744,2.7509,10.0437,-0.1192,-0.0415,0.0069
300811.0,-0.8667,2.7821,9.8904,-0.0952,-0.0681,0.0176
300821.0,-0.8092,2.7222,9.6774,-0.0686,-0.067,0.0341
300831.0,-0.8236,2.6528,9.4739,-0.049,-0.0404,0.0442
300841.0,-0.814,2.545,9.347,-0.0357,-0.0043,0.049
300851.0,-0.7566,2.4924,9.2775,-0.0314,0.0431,0.0442
300861.0,-0.7638,2.5331,9.3781,-0.0319,0.1032,0.0303
300871.0,-0.8188,2.5905,9.5481,-0.0601,0.1309,0.0165
300881.0,-0.8188,2.5762,9.7588,-0.1096,0.1091,0.0053
300891.0,-0.7709,2.5881,9.8138,-0.132,0.0777,-0.0016
300901.0,-0.8475,2.5211,9.8186,-0.1181,0.0702,0.0021
300911.0,-0.8068,2.2625,9.8162,-0.0734,0.0729,0.0085
300921.0,-0.723,2.0853,9.7157,-0.0128,0.0654,0.0
300931.0,-0.7135,2.047,9.6223,0.0261,0.0543,-0.0282
300941.0,-0.6488,2.1715,9.3541,0.0585,0.0665,-0.066
300951.0,-0.6728,2.3583,9.2632,0.0559,0.0968,-0.1038
300961.0,-0.7039,2.6193,9.2416,0.0149,0.124,-0.1346
300971.0,-0.8021,2.897,9.3111,-0.0383,0.1453,-0.1538
300981.0,-0.9002,3.0598,9.5193,-0.0729,0.1761,-0.1543
300991.0,-0.9936,3.1532,9.6678,-0.075,0.2038,-0.1352
301001.0,-1.0127,3.1244,9.9479,-0.0697,0.2128,-0.108
301011.0,-1.0199,3.0598,10.0389,-0.0458,0.2022,-0.0814
301021.0,-1.0534,2.9592,10.07,-0.0144,0.1777,-0.0548
