time_ms,ax,ay,az,gx,gy,gz
49571.0,-0.1939,1.063,10.7763,-0.1735,0.158,0.0601
49581.0,-0.3472,1.0199,10.999,-0.2575,0.1309,0.0346
49591.0,-0.589,1.008,11.4634,-0.2831,0.1357,0.0293
49601.0,-0.7805,1.0295,12.1506,-0.241,0.1421,0.0468
49611.0,-0.7087,0.9529,12.7467,-0.1293,0.1048,0.0867
49621.0,-0.4884,0.9673,12.9407,0.0266,0.0341,0.1352
49631.0,-0.3519,0.8308,13.0508,0.1272,-0.0623,0.1697
49641.0,-0.2203,0.6895,12.9407,0.1479,-0.2134,0.1777
49651.0,0.0072,0.5243,12.481,0.0633,-0.4097,0.1469
49661.0,0.1341,0.3136,12.1865,-0.0617,-0.5529,0.0963
49671.0,0.1987,-0.012,11.9926,-0.1639,-0.6832,0.0341
49681.0,0.3903,-0.1125,11.2911,-0.1974,-0.8226,-0.0415
49691.0,0.7015,0.091,10.3884,-0.2224,-0.9009,-0.124
49701.0,0.6656,0.3017,9.7779,-0.299,-0.9083,-0.2043
49711.0,0.6009,0.5148,9.3757,-0.323,-0.854,-0.2522
49721.0,0.7111,0.6464,9.1602,-0.2607,-0.7535,-0.2692
49731.0,0.7207,0.7183,8.9735,-0.158,-0.6348,-0.2639
49741.0,0.6393,0.7949,8.7939,-0.0585,-0.5316,-0.2517
49751.0,0.7111,1.0463,8.1834,-0.0069,-0.4534,-0.2416
49761.0,0.5866,1.2091,8.1666,-0.1123,-0.3533,-0.2474
49771.0,0.6991,1.0702,8.521,-0.2724,-0.3113,-0.2629
49781.0,0.7183,1.0774,8.5449,-0.3187,-0.2639,-0.2815
49791.0,0.4717,1.2929,8.6239,-0.2586,-0.1399,-0.2889
49801.0,0.2562,1.4964,8.849,-0.1878,-0.025,-0.2767
49811.0,0.3256,1.5754,9.0094,-0.1165,0.0548,-0.2485
49821.0,0.2466,1.6305,9.0261,-0.0271,0.1538,-0.2091
49831.0,0.1317,1.6161,9.3111,0.008,0.2389,-0.1799
49841.0,0.0215,1.5993,9.6103,0.008,0.2943,-0.1628
49851.0,-0.2729,1.6664,10.0006,0.0154,0.3304,-0.1463
49861.0,-0.4238,1.8627,10.1466,0.042,0.3448,-0.125
49871.0,-0.4908,1.9561,10.5776,0.0686,0.3661,-0.091
49881.0,-0.4812,1.9489,10.8194,0.1495,0.3815,-0.0372
49891.0,-0.5076,1.8962,10.9104,0.2331,0.3698,0.0138
49901.0,-0.4214,1.9154,10.7093,0.2373,0.339,0.042
49911.0,-0.2921,1.9537,10.8002,0.1235,0.3038,0.0399
49921.0,-0.3735,2.059,11.0109,-0.0372,0.2501,0.0261
49931.0,-0.4908,2.1739,11.2288,-0.2049,0.1825,0.0197
49941.0,-0.5962,2.1476,11.6622,-0.3384,0.1128,0.0415
49951.0,-0.5602,1.9585,11.813,-0.3911,-0.0128,0.0894
49961.0,-0.3304,1.6017,11.5281,-0.3491,-0.1373,0.1495
49971.0,-0.1963,1.1923,11.0133,-0.2655,-0.2081,0.1985
49981.0,0.0718,0.9218,10.41,-0.1724,-0.2166,0.2203
49991.0,0.2394,0.6991,9.9742,-0.1107,-0.1724,0.216
50001.0,0.3783,0.5363,9.6893,-0.1054,-0.1155,0.1862
50011.0,0.3615,0.5722,9.7013,-0.1426,-0.0644,0.1373
50021.0,0.2753,0.7566,9.8114,-0.1783,-0.0378,0.0899
50031.0,0.079,1.0175,9.8617,-0.1809,-0.009,0.0665
50041.0,0.0096,1.0965,10.0461,-0.1559,0.0202,0.0793
50051.0,0.1556,1.0558,10.0772,-0.1219,0.0255,0.1059
50061.0,0.2562,0.8859,10.1059,-0.1192,0.017,0.1245
50071.0,0.261,0.7039,10.2759,-0.091,0.0197,0.1341
50081.0,0.4286,0.6584,10.1394,-0.0021,0.0245,0.1431
50091.0,0.4429,0.6033,9.9814,0.0484,0.0303,0.1447
50101.0,0.4741,0.6297,9.8019,0.0548,0.0293,0.1368
50111.0,0.5986,0.6393,9.7372,0.0192,0.0223,0.1176
50121.0,0.5555,0.7254,9.6295,-0.0335,0.0325,0.0963
50131.0,0.4381,0.7159,9.8402,-0.0676,0.058,0.0857
50141.0,0.4549,0.6871,9.9575,-0.0181,0.0979,0.0931
50151.0,0.4214,0.7159,10.058,0.0681,0.1596,0.1027
50161.0,0.4573,0.8092,10.2735,0.1362,0.2134,0.107
50171.0,0.4621,0.9361,10.6518,0.2011,0.2703,0.1149
50181.0,0.3184,0.9936,11.0708,0.2639,0.3028,0.1293
50191.0,0.3615,1.1157,11.0564,0.2911,0.2804,0.141
50201.0,0.3472,1.0534,11.2336,0.2208,0.2368,0.1378
50211.0,0.3711,1.1564,10.975,0.1086,0.1948,0.1176
50221.0,0.0646,1.324,11.315,-0.0968,0.1905,0.0708
50231.0,-0.3974,1.4653,12.3589,-0.2751,0.2033,0.0388
50241.0,-0.7757,1.4437,13.5967,-0.2288,0.2331,0.0708
50251.0,-0.9529,1.3886,14.3197,-0.0415,0.1804,0.1479
50261.0,-0.7973,1.3288,14.528,0.0814,0.0314,0.2097
50271.0,-0.7254,1.1372,14.8728,0.091,-0.1602,0.2357
50281.0,-0.6823,1.0965,14.7986,0.0452,-0.4209,0.2203
50291.0,-0.7949,1.2953,14.3293,0.0154,-0.6588,0.1926
50301.0,-0.7829,1.403,13.8026,-0.0314,-0.8615,0.1815
50311.0,-0.6632,1.2665,13.1561,-0.0873,-1.0227,0.1799
50321.0,-0.5794,1.2641,12.8162,-0.1703,-1.118,0.1591
50331.0,-0.5028,1.336,12.7587,-0.2724,-1.1754,0.1325
50341.0,-0.4741,1.4916,12.9095,-0.4353,-1.2888,0.0984
50351.0,-0.3017,1.4605,12.876,-0.6742,-1.5186,0.0708
50361.0,-0.0048,1.1756,12.5313,-0.8743,-1.782,0.0585
50371.0,0.2131,0.7542,11.9351,-0.9424,-1.9805,0.0628
50381.0,0.4693,0.1867,11.1857,-0.8365,-2.0864,0.0814
50391.0,0.8691,-0.1197,9.9431,-0.6295,-2.1327,0.0905
50401.0,1.4078,-0.2179,8.7005,-0.4784,-2.1104,0.0729
50411.0,1.8962,-0.2993,7.9847,-0.4448,-2.0327,0.0314
50421.0,2.1165,-0.2753,7.7979,-0.4214,-1.9348,-0.0154
50431.0,2.2913,-0.0527,7.5561,-0.3092,-1.8895,-0.0346
50441.0,2.5977,0.1293,6.4284,-0.1979,-1.9912,-0.0032
50451.0,2.8491,-0.2107,3.4022,-0.1884,-2.2508,0.0692
50461.0,3.6033,-0.5818,-1.7789,-0.3634,-2.4935,0.1192
50471.0,4.8507,-0.7566,-6.6702,-0.7886,-2.4951,0.1032
50481.0,6.0047,0.0575,-12.8545,-0.8945,-2.1428,0.1128
50491.0,6.1651,1.4557,-20.875,-0.5241,-1.1393,0.2788
50501.0,5.9999,1.1061,-27.1766,-0.2682,0.2889,0.5475
50511.0,5.5354,0.0431,-31.6346,0.1032,2.3349,0.7859
50521.0,2.5331,-2.0518,-29.9179,0.0937,4.5602,0.8019
50531.0,-1.6257,-2.5977,-25.3714,-0.1862,6.2917,0.6061
50541.0,-5.7437,-3.8547,-17.5615,-0.0218,7.8391,0.4401
50551.0,-11.9902,-3.4046,-10.386,0.9429,9.4269,0.2996
50561.0,-17.8224,-3.8116,0.9361,1.7315,10.6891,0.1128
50571.0,-21.6843,-2.8706,11.1115,2.6707,11.5154,-0.1511
50581.0,-28.491,0.6584,24.1623,2.7845,11.6448,-0.6417
50591.0,-28.1367,5.2289,39.2841,2.6776,10.8008,-1.0153
50601.0,-28.0146,11.6837,48.4203,2.8851,9.2359,-0.9764
50611.0,-24.7944,11.3677,55.749,2.2232,6.3603,-0.6279
50621.0,-21.0019,9.9575,53.3189,2.0912,3.2975,-0.2086
50631.0,-17.492,7.6854,46.153,2.0103,0.8226,0.042
50641.0,-14.9901,5.6288,36.5044,1.4931,-1.1318,0.033
50651.0,-12.3014,4.6064,28.9866,0.5938,-2.3839,-0.2331
50661.0,-10.7188,5.3223,23.5709,-0.1495,-2.9862,-0.5475
50671.0,-9.9407,6.4979,20.0562,-0.5092,-3.1751,-0.6987
50681.0,-8.9304,7.6734,15.3971,-0.654,-3.3816,-0.6412
50691.0,-7.7357,7.0773,12.9766,-0.7375,-3.3848,-0.4411
50701.0,-6.2369,6.4117,10.5129,-0.1149,-2.8963,-0.1086
50711.0,-5.6862,5.2505,9.8521,0.6284,-2.1449,0.2416
50721.0,-4.1444,3.4309,10.3621,1.1323,-1.6166,0.4949
50731.0,-5.3989,3.3279,10.3837,1.301,-1.384,0.5619
50741.0,-3.6966,3.5769,10.6757,0.9323,-1.3835,0.4879
50751.0,-4.051,4.4101,13.386,0.2027,-1.4447,0.2985
50761.0,-4.6902,5.7126,15.2199,-0.4645,-1.798,0.1554
50771.0,-5.1667,5.952,16.8863,-1.1632,-2.4839,0.0968
50781.0,-5.2098,5.9903,15.9789,-1.6714,-3.3459,0.1139
50791.0,-5.1404,5.0087,14.7986,-2.0859,-4.1297,0.1495
50801.0,-5.2313,4.4772,12.651,-2.0907,-4.6815,0.2049
50811.0,-5.296,4.0845,9.5217,-1.7868,-4.9939,0.3124
50821.0,-4.6136,3.8882,6.3734,-1.4026,-5.0258,0.4448
50831.0,-3.9145,3.6464,4.2521,-1.1084,-4.8172,0.5837
50841.0,-3.2681,3.2154,3.486,-0.8493,-4.4538,0.7359
50851.0,-2.8946,2.7366,2.9209,-0.6199,-4.1122,0.8982
50861.0,-2.2362,1.5538,2.4636,-0.5167,-3.8759,1.0664
50871.0,-0.9313,0.0934,2.0279,-0.4331,-3.6045,1.1866
50881.0,0.395,-1.1588,1.8962,-0.3645,-3.3108,1.2031
50891.0,1.2641,-1.9992,2.0638,-0.2639,-3.0176,1.1185
50901.0,1.913,-2.1476,2.1045,-0.0942,-2.7074,0.9871
50911.0,2.4397,-2.1213,2.4325,0.0479,-2.4222,0.8477
50921.0,2.9353,-1.8747,2.5139,0.1905,-2.1731,0.7258
50931.0,3.541,-1.7406,2.897,0.2884,-1.9544,0.6268
50941.0,3.9552,-1.3815,2.9233,0.4342,-1.7783,0.5486
50951.0,4.1515,-1.2043,2.3343,0.572,-1.6256,0.5076
50961.0,4.5107,-1.4245,1.5012,0.6391,-1.4367,0.4959
50971.0,4.6926,-1.9489,1.3838,0.6343,-1.1414,0.4661
50981.0,4.8818,-2.2936,1.7142,0.6423,-0.8365,0.3863
50991.0,4.8746,-2.2218,2.5379,0.6699,-0.5747,0.2703
51001.0,4.9273,-1.9345,3.2561,0.7317,-0.4422,0.1575
51011.0,5.1451,-1.5299,3.3136,0.7716,-0.4986,0.0607
51021.0,5.2816,-1.2163,2.4756,0.796,-0.6295,-0.0032
51031.0,5.6455,-0.9984,0.4357,0.8067,-0.7615,-0.0394
51041.0,6.1555,-0.893,-3.0191,0.6848,-0.8237,-0.074
51051.0,5.7533,-0.8452,-7.1204,0.2416,-0.7615,-0.1532
51061.0,5.8179,-0.4022,-12.2368,-0.5295,-0.5704,-0.2873
51071.0,5.5545,0.4238,-16.034,-1.5256,-0.0686,-0.4369
51081.0,3.7781,3.1675,-21.0762,-2.2881,0.7423,-0.4581
51091.0,0.0814,5.5641,-24.4807,-3.0038,1.7948,-0.2182
51101.0,-4.2689,6.1746,-28.9698,-3.3262,3.073,0.3544
51111.0,-5.1978,3.9193,-32.7431,-3.2246,4.7017,1.0946
51121.0,-11.4586,1.1899,-31.9722,-2.3716,7.6177,1.7379
51131.0,-20.5518,-1.6209,-25.2349,-1.2835,10.7061,2.1045
51141.0,-29.7264,-5.1068,-12.3397,0.2208,13.5327,2.2003
51151.0,-36.9593,-7.9918,5.1116,2.3562,16.0985,1.9278
51161.0,-41.5681,-8.5401,23.8367,3.9281,16.844,1.0956
51171.0,-38.6855,-6.0813,38.889,4.5575,15.6484,-0.0591
51181.0,-38.4413,-1.4844,54.1688,3.9637,13.3922,-1.1483
51191.0,-34.4262,3.3136,64.4136,3.1826,9.8329,-1.8592
51201.0,-32.3481,10.0916,68.6178,3.008,6.5141,-2.1231
51211.0,-30.6051,14.7291,68.6082,2.7383,2.9937,-1.889
51221.0,-27.7368,15.7802,61.5621,2.4456,-0.7604,-1.3042
51231.0,-25.1248,15.3756,48.8321,2.4642,-3.5944,-0.5683
51241.0,-21.2892,14.4442,32.5396,2.188,-5.5606,0.0968
51251.0,-17.8823,10.9343,21.3132,1.1488,-6.4045,0.5353
51261.0,-15.4282,7.1491,14.0827,0.2703,-6.4167,0.7354
51271.0,-12.1578,4.4412,8.8609,-0.1064,-5.9735,0.7407
51281.0,-10.1969,3.3447,6.6798,-0.1437,-4.938,0.6364
51291.0,-9.1482,3.0095,7.8171,-0.2746,-4.0308,0.4587
51301.0,-8.3079,3.1891,9.7755,-0.4848,-3.5774,0.2661
51311.0,-8.2887,3.8882,11.4203,-0.7886,-3.4774,0.0984
51321.0,-8.1283,4.391,13.9438,-1.2435,-3.8003,-0.0495
51331.0,-8.2504,5.0973,15.0763,-1.3117,-4.3623,-0.0734
51341.0,-8.4922,5.7676,13.7284,-0.9477,-5.013,0.0654
51351.0,-7.7644,6.1172,9.6917,-0.4651,-5.5765,0.3251
51361.0,-6.7636,5.8203,5.9209,-0.299,-5.8357,0.5917
51371.0,-5.6024,5.0949,2.7318,-0.3698,-5.8298,0.8163
51381.0,-4.4915,3.9097,0.2298,-0.6188,-5.6611,0.9658
51391.0,-3.4069,2.6815,-0.8452,-0.9567,-5.3749,1.0222
51401.0,-2.6552,1.64,-1.0319,-1.094,-4.9955,1.0504
51411.0,-1.7095,1.0846,-1.1947,-0.8514,-4.5554,1.0967
51421.0,-0.577,0.8499,-1.0199,-0.2038,-3.8961,1.2116
51431.0,0.6225,0.8164,-1.4892,0.5337,-3.2182,1.3893
51441.0,1.6783,0.4573,-1.731,0.8077,-2.7553,1.5022
51451.0,2.909,0.1006,-1.913,0.6912,-2.4504,1.5202
51461.0,3.5817,-0.4693,-1.9058,0.365,-2.1902,1.4628
51471.0,3.9887,-1.0965,-1.9609,-0.0128,-1.9805,1.3489
51481.0,4.4963,-1.7454,-1.8699,-0.2384,-1.6778,1.2244
51491.0,4.798,-2.5307,-1.3886,-0.2325,-1.2446,1.1164
51501.0,5.2289,-3.1771,-0.5387,-0.033,-0.7811,1.0009
51511.0,5.3965,-3.4548,0.316,0.3326,-0.3374,0.8732
51521.0,5.114,-3.3567,0.8906,0.7466,0.0452,0.7396
51531.0,4.9488,-2.9664,1.6161,1.0648,0.3464,0.5912
51541.0,5.1427,-2.387,1.889,1.2068,0.514,0.4454
51551.0,5.3319,-2.1356,2.0494,1.0509,0.5087,0.2889
51561.0,5.3654,-1.9106,1.3024,0.7322,0.4273,0.1304
51571.0,5.6886,-2.3056,0.0096,0.2123,0.2719,-0.0388
51581.0,6.1268,-2.9449,-2.0207,-0.3086,0.2182,-0.2373
51591.0,5.5905,-3.2848,-4.2856,-0.8147,0.4135,-0.4693
51601.0,4.525,-3.2561,-5.4564,-1.4042,0.6933,-0.7641
51611.0,3.3112,-1.719,-6.9168,-1.8778,0.9727,-1.0781
51621.0,2.083,1.8268,-9.8689,-2.4919,1.1515,-1.3234
51631.0,-0.0982,6.1268,-12.2368,-3.4688,1.2265,-1.3638
51641.0,-1.9154,10.8864,-17.9805,-4.3655,1.184,-1.0025
51651.0,-5.3199,14.121,-25.922,-4.8954,1.7464,-0.1027
51661.0,-6.8378,13.2854,-31.8549,-4.5591,3.5662,1.2553
51671.0,-16.4553,9.2608,-33.4638,-3.1331,6.9467,2.7643
51681.0,-28.0289,1.4796,-26.9252,-1.1297,11.1036,4.0935
51691.0,-35.8891,-11.9686,-9.2225,1.2771,15.3493,4.8449
51701.0,-43.0597,-24.5501,18.8184,3.9435,17.4357,4.2739
51711.0,-42.4612,-26.6139,44.7357,6.5024,17.4357,2.2955
51721.0,-39.8539,-15.6126,63.4344,8.5,16.6993,-0.2309
51731.0,-36.9425,1.2258,71.7016,7.3549,11.9842,-2.5462
51741.0,-33.1597,11.8561,78.4508,3.2118,5.7548,-4.1558
51751.0,-34.7207,19.824,77.7565,0.8141,0.8918,-4.3085
51761.0,-33.5763,20.4178,68.8812,-0.0452,-3.729,-3.364
51771.0,-31.2802,18.8184,50.3908,0.6705,-7.3432,-1.9497
51781.0,-27.6937,16.0172,26.6283,1.9507,-9.2534,-0.4741
51791.0,-18.0068,13.0795,4.3048,2.0289,-9.6131,0.588
51801.0,-11.8513,7.6447,-2.3248,1.4713,-7.5475,1.1584
51811.0,-8.928,4.889,-3.3495,1.6192,-4.7582,1.4511
51821.0,-7.0222,2.0638,1.0175,1.2978,-2.8894,1.4612
51831.0,-5.8419,0.4836,6.3303,0.9982,-1.9827,1.2893
51841.0,-5.6767,-0.1963,10.7667,0.9833,-1.6788,1.0866
51851.0,-5.6264,0.261,12.2463,1.1861,-1.8943,0.8977
51861.0,-4.9392,1.4868,11.8585,1.1744,-2.3328,0.7146
51871.0,-5.2505,2.8706,11.8465,0.7998,-2.776,0.5396
51881.0,-4.6687,4.2018,10.6638,0.3225,-3.3459,0.4523
51891.0,-3.8954,4.7214,9.3996,-0.2655,-3.944,0.4385
51901.0,-3.5841,4.8291,6.7086,-0.6476,-4.3835,0.5002
51911.0,-3.1101,4.2449,3.735,-0.9498,-4.5629,0.6103
51921.0,-2.2601,2.8132,1.5083,-1.2244,-4.465,0.7152
51931.0,-0.9601,1.2546,-0.1844,-1.3175,-4.0409,0.762
51941.0,0.0718,0.1796,-0.1508,-1.3771,-3.4039,0.6976
51951.0,0.3711,-0.1915,1.8268,-1.2478,-2.7164,0.5832
51961.0,0.8715,0.2466,3.1915,-0.8333,-2.2588,0.5199
51971.0,1.3599,0.7494,4.1635,-0.307,-1.9592,0.5305
51981.0,1.7717,1.6831,3.9169,0.248,-1.7166,0.613
51991.0,1.8866,1.9225,3.8475,0.4704,-1.5894,0.7226
52001.0,2.2625,1.6041,2.5905,0.4933,-1.5719,0.8359
52011.0,2.6719,0.5578,1.4605,0.2847,-1.4782,0.8881
52021.0,3.1292,-0.8667,1.1564,0.0037,-1.2308,0.8631
52031.0,3.4477,-2.2122,1.6735,-0.1783,-0.9296,0.745
52041.0,4.0414,-2.9042,2.1141,-0.1517,-0.6481,0.5475
52051.0,4.276,-2.7701,2.4565,-0.0096,-0.4017,0.3017
52061.0,4.1994,-1.9345,2.6767,0.2086,-0.1767,0.0819
52071.0,4.0175,-0.6321,2.5331,0.423,0.0426,-0.0516
52081.0,3.7302,0.2035,2.7102,0.4502,0.1809,-0.0921
52091.0,3.8355,0.3256,2.4421,0.3602,0.1884,-0.0729
52101.0,3.6943,-0.0192,1.2953,0.2128,0.191,-0.0474
52111.0,3.6296,-0.8045,0.1532,-0.0591,0.2155,-0.0713
52121.0,3.8786,-1.2115,-1.2953,-0.274,0.3368,-0.1612
52131.0,3.8595,-0.8547,-4.0438,-0.5071,0.58,-0.2831
52141.0,3.814,-0.7254,-6.2153,-1.1887,0.8157,-0.4448
52151.0,3.2968,0.1484,-8.7005,-1.9981,1.1031,-0.6173
52161.0,2.4062,1.7765,-10.8936,-2.9362,1.4612,-0.7333
52171.0,0.3136,4.5897,-13.1753,-3.8477,1.8379,-0.6779
52181.0,-3.8355,8.2887,-17.3053,-4.4751,2.2487,-0.3097
52191.0,-6.5625,9.5193,-20.7458,-4.7406,2.9649,0.4768
52201.0,-9.0214,6.5649,-23.0969,-3.8956,4.5432,1.6112
52211.0,-12.3445,1.9489,-23.1591,-2.0705,7.108,2.6015
52221.0,-18.2031,-4.3958,-14.291,-0.2421,10.0149,3.0815
52231.0,-23.2884,-8.351,-3.2034,1.5878,12.2008,2.9538
52241.0,-29.2524,-9.7588,11.746,3.0128,13.5391,2.3158
52251.0,-32.7503,-7.446,24.1623,4.3676,13.8631,1.4564
52261.0,-33.5739,-2.6336,34.6034,4.7129,13.405,0.4736
52271.0,-35.5515,-0.0766,52.0763,3.7003,12.2162,-0.4033
52281.0,-34.012,2.4181,64.3777,2.5525,9.3412,-1.0243
52291.0,-33.1381,4.2377,73.9617,1.5128,5.6329,-1.3989
52301.0,-32.5731,7.3095,72.6999,1.7528,1.3909,-1.2989
52311.0,-31.1773,9.6031,61.5597,2.3376,-2.8255,-0.8716
52321.0,-29.4295,9.7995,46.0644,2.6638,-6.0528,-0.332
52331.0,-26.2452,9.7851,27.6004,2.5643,-8.0301,0.1288
52341.0,-21.1839,8.6431,13.4937,1.5192,-8.8043,0.3464
52351.0,-16.8288,6.8522,6.0238,0.5252,-8.1126,0.4225
52361.0,-14.1234,5.1715,4.2306,0.2171,-6.5014,0.4778
52371.0,-12.2416,3.9576,5.6264,-0.0596,-5.2498,0.4369
52381.0,-11.1474,3.2777,8.5186,-0.5497,-4.6916,0.2863
52391.0,-10.3406,3.474,10.2041,-1.0594,-4.7677,0.0968
52401.0,-10.4076,3.3974,12.4427,-1.4484,-5.1349,-0.0596
52411.0,-10.0844,3.565,12.2535,-1.1611,-5.6196,-0.0564
52421.0,-10.058,3.3974,10.2615,-0.5454,-6.1071,0.0617
52431.0,-8.7532,3.0191,5.9256,0.0968,-6.5035,0.2474
52441.0,-7.8171,2.4517,2.2649,0.4486,-6.4955,0.4087
52451.0,-5.5929,1.7238,-1.0989,0.5529,-6.2348,0.5082
52461.0,-3.6799,1.652,-3.6224,0.2086,-5.8011,0.4613
52471.0,-2.1308,1.9824,-4.7597,-0.6055,-5.3781,0.281
52481.0,-1.1109,2.1644,-4.0965,-1.4351,-4.9337,0.0878
52491.0,-0.0934,2.2434,-3.158,-1.6953,-4.3756,0.0218
52501.0,0.6656,2.0159,-2.4086,-1.4234,-3.7647,0.0809
52511.0,1.8627,1.8292,-2.1572,-0.8434,-3.1698,0.2065
52521.0,2.8395,1.9154,-2.6121,-0.2522,-2.5893,0.3459
52531.0,3.5314,1.5012,-2.4636,0.033,-2.1013,0.4528
52541.0,4.3886,1.1684,-2.332,0.2714,-1.5777,0.5332
52551.0,4.5633,0.9744,-1.8962,0.4177,-1.0084,0.5779
52561.0,4.7501,0.6632,-0.9601,0.3773,-0.5257,0.5843
52571.0,4.7932,0.2969,0.2442,0.2522,-0.1378,0.5566
52581.0,4.8794,0.103,1.3791,0.1277,0.1527,0.506
52591.0,4.3574,-0.0527,2.7461,0.0149,0.3549,0.4438
52601.0,3.9217,-0.3591,4.3239,0.107,0.5566,0.4135
52611.0,3.8666,-0.6225,5.6336,0.4502,0.7992,0.4156
52621.0,4.0486,-0.5626,6.6607,0.7572,0.9631,0.3852
52631.0,3.9935,-0.3041,7.6375,0.8088,0.9557,0.2927
52641.0,3.8116,0.2251,8.4731,0.7412,0.8578,0.1873
52651.0,3.6224,0.8068,8.9447,0.7428,0.7508,0.1288
52661.0,3.4333,1.4844,8.6455,0.8003,0.6444,0.1256
52671.0,3.1771,1.9178,7.8769,0.7045,0.4885,0.1458
52681.0,3.3471,1.9704,6.2513,0.3821,0.2538,0.1634
52691.0,3.4046,1.5945,4.968,-0.1426,0.0952,0.1485
52701.0,3.2872,0.8356,3.7373,-0.7066,-0.0452,0.1123
52711.0,3.4022,0.3136,1.221,-1.1472,-0.1857,0.0633
52721.0,3.2274,-0.0694,-2.1069,-1.5309,-0.2373,0.0239
52731.0,2.8419,0.6847,-7.0916,-1.765,-0.0681,0.0234
52741.0,3.0119,2.4876,-12.4786,-2.0146,0.4715,0.0878
52751.0,2.7533,5.5186,-18.0092,-2.4914,1.2962,0.2533
52761.0,0.7518,7.2496,-22.2397,-3.5045,2.1306,0.5981
52771.0,-1.9537,6.7876,-24.3873,-4.764,2.7872,1.1116
52781.0,-5.5665,2.4708,-23.705,-4.9534,3.5891,1.8326
52791.0,-9.7181,-0.9337,-28.0816,-2.7579,5.5792,2.6201
52801.0,-17.6405,-5.7868,-25.2421,-0.0357,8.8395,3.0676
52811.0,-26.1327,-11.3964,-16.8073,2.3993,12.2785,2.9873
52821.0,-31.4239,-14.0468,-1.7334,4.0781,15.3541,2.1114
52831.0,-41.1659,-9.2751,20.7482,4.8263,17.233,0.5699
52841.0,-43.2417,0.5004,38.798,4.5533,16.6168,-0.8961
52851.0,-41.2138,10.0987,56.7929,3.1607,14.3043,-1.7214
52861.0,-34.7327,12.2152,69.4318,0.9344,10.6125,-1.7538
52871.0,-37.4621,11.315,78.4508,0.2677,6.9265,-1.1238
52881.0,-31.625,7.9775,76.7581,0.1421,1.0733,-0.4459
52891.0,-31.1198,3.8475,68.7016,0.5268,-3.4694,0.1852
52901.0,-29.3218,3.0718,47.4603,2.3328,-6.7248,0.8583
52911.0,-26.511,0.8045,30.8565,2.4993,-8.7368,1.0589
52921.0,-21.3108,-0.091,15.931,2.37,-9.3535,0.9589
52931.0,-16.0962,-0.328,6.6008,2.0497,-8.5452,0.6715
52941.0,-12.4139,0.5674,1.6161,1.5777,-7.0643,0.2953
52951.0,-9.9,2.0662,0.9744,0.6891,-5.5781,-0.1
52961.0,-8.9232,1.9561,5.4899,-0.5614,-4.5724,-0.4528
52971.0,-8.3677,1.4174,10.3166,-1.2579,-4.2202,-0.6939
52981.0,-9.0764,0.6273,14.6525,-1.2308,-4.3591,-0.8093
52991.0,-10.2999,0.7661,15.4809,-0.4816,-5.0082,-0.7923
53001.0,-9.4188,2.2386,10.7787,0.5305,-5.9166,-0.6699
53011.0,-7.4603,3.893,4.9057,1.0685,-6.4694,-0.5188
53021.0,-5.4947,5.2385,-0.4956,1.2191,-6.346,-0.3219
53031.0,-3.8906,5.7581,-3.9002,0.9136,-5.7793,-0.132
53041.0,-2.5331,5.5857,-5.3917,0.274,-5.095,0.0112
53052.0,-0.8643,4.7669,-5.6934,-0.4773,-4.4011,0.0963
53061.0,-0.0814,3.7014,-3.3758,-1.1291,-3.6173,0.1235
53071.0,0.146,2.5283,0.4525,-1.2265,-2.9245,0.1735
53081.0,0.3974,1.743,2.4373,-0.6907,-2.5313,0.29
53091.0,1.4557,1.4988,2.4756,0.0521,-2.3009,0.4119
53101.0,2.2075,1.7262,1.7909,0.6045,-2.1072,0.5039
53111.0,3.0718,2.0614,0.6321,0.9073,-1.8784,0.58
53121.0,3.5147,2.1213,0.0694,0.9535,-1.5234,0.6353
53131.0,3.4309,1.9585,-0.3448,0.7333,-1.1744,0.6556
53141.0,3.5913,1.0726,0.3663,0.2176,-0.8961,0.6263
53151.0,3.8954,0.0622,2.0662,-0.3022,-0.6465,0.5385
53161.0,3.8403,-0.6512,4.3215,-0.5608,-0.4741,0.415
53171.0,4.1731,-0.8715,5.4564,-0.4172,-0.4161,0.3177
53181.0,4.1731,-0.6369,5.7581,-0.05,-0.3555,0.257
53191.0,4.4053,-0.1676,5.6886,0.3517,-0.2677,0.2256
53201.0,4.5442,0.4932,5.0949,0.6955,-0.1623,0.2203
53211.0,4.5346,1.0175,4.5849,0.8439,-0.0202,0.2267
53221.0,4.4676,1.1803,4.3215,0.787,0.1314,0.2347
53231.0,4.2713,0.9792,4.1994,0.5326,0.216,0.2187
53241.0,4.2521,0.5076,4.2042,0.1256,0.241,0.1628
53251.0,4.2665,-0.2083,4.5203,-0.3054,0.241,0.0729
53261.0,4.4652,-0.9481,4.4676,-0.5608,0.2144,-0.0357
53271.0,4.7381,-0.8643,2.7653,-0.6657,0.2246,-0.1628
53281.0,4.4532,-1.1995,2.1883,-0.9243,0.2921,-0.3038
53291.0,4.3694,-1.0367,0.9194,-0.9253,0.4129,-0.4188
53301.0,4.0055,0.5459,-2.296,-0.7843,0.6375,-0.5023
53311.0,3.4069,2.5331,-5.9783,-1.1531,0.8046,-0.5486
53321.0,3.0933,5.0087,-11.6119,-2.1125,0.887,-0.522
53331.0,1.4198,6.8522,-15.8137,-3.6205,1.1648,-0.3837
53341.0,0.68,9.1099,-21.5694,-4.9391,1.6543,-0.0016
53351.0,-3.7948,8.6694,-22.8407,-5.7857,2.743,0.712
53361.0,-7.0246,6.7493,-22.9484,-4.6672,4.4846,1.7687
53371.0,-14.2359,3.371,-20.0562,-2.1497,7.2405,2.8356
53381.0,-19.6085,-1.4916,-16.5511,0.3549,9.545,3.5678
53391.0,-23.286,-6.8785,-9.2727,2.6739,11.9869,3.6748
53401.0,-29.5564,-9.6822,2.818,4.2319,14.1494,3.0112
53411.0,-32.1086,-10.2639,18.8352,4.6081,14.8917,1.8225
53421.0,-32.4414,-7.5465,33.8827,4.4501,14.4415,0.4789
53431.0,-33.3033,-1.3527,46.2105,3.9674,12.9218,-0.6997
53441.0,-21.7417,3.6152,49.141,2.0907,9.7919,-1.6261
53451.0,-33.4542,6.1268,67.4997,0.539,8.3563,-2.0529
53461.0,-32.6665,9.4092,67.7607,0.0298,3.2507,-1.881
53471.0,-30.2675,7.9009,67.7751,0.0846,-0.9865,-1.2856
53481.0,-26.985,10.8816,50.7164,2.3977,-3.8887,-0.3102
53491.0,-24.8446,9.4164,37.1293,2.577,-6.173,0.3299
53501.0,-21.4999,7.343,23.2836,2.0407,-7.6278,0.6646
53511.0,-17.2957,5.1236,13.2758,1.5335,-7.6981,0.7588
53521.0,-14.5903,3.4357,8.181,1.2095,-6.7717,0.6902
53531.0,-12.1602,3.8618,4.7764,0.9679,-5.6303,0.539
53541.0,-10.8098,3.146,7.5681,0.2208,-4.7044,0.3475
53551.0,-9.8593,2.6001,10.5249,-0.0649,-4.275,0.2304
53561.0,-9.481,2.624,12.7611,0.099,-4.2457,0.1825
53571.0,-9.2871,3.2346,13.1083,0.3879,-4.6395,0.2017
53581.0,-8.8705,4.5897,10.7715,0.5789,-5.3493,0.2692
53591.0,-7.513,5.5019,6.4691,0.4677,-6.0725,0.398
53601.0,-6.256,5.4708,2.4445,0.2049,-6.3497,0.5587
53611.0,-5.0877,5.1691,-1.5826,-0.0133,-6.1895,0.7274
53621.0,-3.371,4.2329,-5.0015,-0.4188,-5.7787,0.8466
53631.0,-1.7765,2.5714,-5.9352,-0.829,-4.987,0.903
53641.0,-0.1269,0.972,-5.2792,-1.1047,-4.0872,0.8716
53651.0,0.9505,-0.2586,-3.2058,-1.268,-3.3225,0.738
53661.0,1.9034,-0.261,-1.3886,-1.0823,-2.7122,0.5885
53671.0,2.2051,0.2011,-0.2801,-0.7093,-2.2466,0.4927
53681.0,2.5355,0.9888,-0.0599,-0.3129,-1.9273,0.4566
53691.0,2.3176,1.6544,-0.0742,0.0021,-1.6049,0.4821
53701.0,2.7533,1.2043,1.2163,0.423,-1.102,0.5933
53711.0,3.3399,0.7207,1.7382,0.9695,-0.5444,0.7146
53721.0,3.4141,0.1293,2.9137,1.0461,-0.1894,0.7104
53731.0,3.5985,-0.2993,4.3646,0.762,-0.0905,0.5976
53741.0,3.5865,-0.4621,5.9328,0.5656,-0.0069,0.4603
53751.0,3.6368,-0.067,6.8642,0.5667,0.0734,0.3475
53761.0,3.5698,0.6057,7.5298,0.5417,0.0878,0.2591
53771.0,2.8946,1.2929,8.4539,0.4289,0.042,0.2128
53781.0,2.8706,1.1708,10.1658,0.4757,0.0548,0.257
53791.0,3.122,1.0846,10.6183,0.6822,0.0144,0.332
53801.0,3.0191,1.0965,10.9295,0.5044,-0.3033,0.3155
53811.0,2.9161,0.929,10.6901,0.1362,-0.8237,0.2597
53821.0,3.0263,0.5531,9.2584,-0.0261,-1.2302,0.2336
53831.0,3.2896,0.2227,6.5098,-0.0745,-1.4649,0.2102
53841.0,4.0175,-0.0886,3.1771,-0.4193,-1.6708,0.1187
53851.0,5.0589,-0.9457,0.7063,-1.019,-1.7714,-0.0447
53861.0,5.7628,-1.2474,-2.4397,-1.3287,-1.5607,-0.2219
53871.0,5.3582,-0.9026,-5.2194,-1.4867,-1.036,-0.3948
53881.0,5.454,0.1963,-7.9966,-1.5713,-0.3884,-0.5183
53891.0,4.9895,2.0087,-11.3868,-1.7065,0.3879,-0.5374
53901.0,4.0582,4.0175,-14.5256,-2.1215,1.201,-0.4417
53911.0,2.6073,5.8227,-19.0076,-2.8952,1.939,-0.2081
53921.0,0.5195,6.6679,-22.855,-4.1946,2.6622,0.1288
53931.0,-3.45,6.3135,-24.7967,-5.3467,3.6434,0.6167
53941.0,-7.5322,3.7469,-20.6332,-5.3653,5.2413,1.3037
53951.0,-13.9366,1.415,-16.2351,-3.2762,7.3511,2.1237
53961.0,-18.567,-3.0885,-9.5193,0.0117,9.7728,2.8058
53971.0,-21.4425,-7.6567,-2.2386,3.3337,12.1678,2.9208
53981.0,-25.7951,-7.2281,8.7077,5.1413,13.8727,2.0928
53991.0,-30.5476,-1.2594,20.2741,5.0157,14.2377,0.7577
54001.0,-32.4773,4.3263,36.5044,3.3422,13.4193,-0.3262
54011.0,-32.8868,9.074,38.585,1.4085,11.0094,-0.7732
54021.0,-35.1541,1.0271,64.258,-0.2895,10.1729,-0.7779
54031.0,-29.748,4.1515,68.1701,0.6055,6.8148,-0.5662
54041.0,-28.5485,0.3328,74.905,0.0032,1.8693,-0.514
54051.0,-29.4128,4.0869,65.2492,2.0981,-1.8619,-0.0399
54061.0,-27.5692,6.4117,48.9135,3.339,-4.9518,0.4417
54071.0,-24.6842,5.7916,35.3863,2.1402,-7.7167,0.4736
54081.0,-21.701,5.4324,23.2118,1.0147,-9.1609,0.3491
54091.0,-18.7179,5.3127,13.4554,0.5257,-9.2183,0.2772
54101.0,-15.6581,5.3032,6.2393,0.1357,-8.6527,0.2293
54111.0,-12.4403,4.707,3.6129,-0.4001,-7.8114,0.1623
54121.0,-10.6231,4.1324,2.9544,-0.4486,-6.8089,0.1724
54131.0,-9.0285,3.0095,3.5099,-0.149,-5.9416,0.2655
54141.0,-7.288,2.4325,3.4213,0.2677,-5.4196,0.3549
54151.0,-6.2153,2.4684,2.6671,0.4172,-5.2392,0.3778
54161.0,-4.525,2.5211,1.6185,0.3379,-5.236,0.3746
54171.0,-2.9616,2.6815,0.0215,0.3501,-5.0636,0.3938
54181.0,-2.0997,3.1795,-1.6544,0.2746,-4.7289,0.414
54191.0,-1.1468,3.1939,-2.0446,-0.0202,-4.358,0.4214
54201.0,-0.2658,2.9784,-2.7701,-0.3108,-3.9978,0.4443
54211.0,0.7518,1.6065,-2.4948,-0.6353,-3.5923,0.4587
54221.0,1.7286,0.1006,-2.2529,-0.7423,-3.157,0.4337
54231.0,2.9113,-0.9744,-1.7142,-0.6039,-2.643,0.339
54241.0,3.7852,-0.6033,-1.4437,-0.3198,-2.1354,0.1868
54251.0,3.8475,0.4262,-0.0814,0.0186,-1.5873,0.075
54261.0,3.9289,1.9896,0.3496,0.4848,-1.1228,0.0809
54271.0,3.7996,2.9233,0.68,0.6758,-0.8136,0.1724
54281.0,4.0797,2.8204,1.6424,0.679,-0.563,0.3065
54291.0,4.0294,2.4493,2.2434,0.7662,-0.2618,0.4422
54301.0,4.2425,1.5514,3.0646,0.771,0.0426,0.5295
54311.0,4.3886,0.6297,4.0965,0.5747,0.2315,0.5156
54321.0,4.3503,-0.0455,5.7317,0.2421,0.2772,0.4023
54331.0,4.1587,0.0383,7.0078,0.0788,0.2469,0.2703
54341.0,3.8834,0.4908,7.9631,0.1155,0.2246,0.1862
54351.0,3.7828,1.1325,8.351,0.1825,0.133,0.1538
54361.0,3.8786,1.6089,8.1762,0.1155,-0.0617,0.1437
54371.0,3.8403,1.7837,7.6064,-0.1149,-0.3182,0.1346
54381.0,4.1132,1.4916,7.0892,-0.2959,-0.4991,0.1373
54391.0,4.2377,1.1875,6.1459,-0.2192,-0.5018,0.1623
54401.0,4.4987,0.9505,4.5514,-0.0378,-0.4071,0.1889
54411.0,4.6112,0.5339,3.1891,0.0176,-0.241,0.1809
54421.0,4.7453,0.2035,1.9704,0.0372,0.0415,0.1346
54431.0,4.7645,0.6225,-0.0958,-0.0835,0.3602,0.0495
54441.0,4.0175,0.4286,-0.51,-0.7237,0.5986,-0.0878
54451.0,3.3998,0.6369,-2.3008,-1.5165,0.6188,-0.2182
54461.0,2.5379,0.4118,-4.9392,-2.6526,0.4432,-0.3427
54471.0,2.4181,0.5411,-8.8035,-3.8589,0.1974,-0.4539
54481.0,3.0239,2.1093,-13.5009,-4.6129,0.422,-0.4869
54491.0,1.0271,5.3822,-20.3196,-4.9604,1.1217,-0.3246
54501.0,-1.6305,6.5912,-24.2868,-5.2924,2.1258,0.1314
54511.0,-4.6878,7.1443,-28.2157,-3.9765,4.2154,0.9722
54521.0,-13.9486,4.5155,-23.4967,-1.9082,7.6805,1.9209
54531.0,-18.7131,-2.083,-14.8081,0.2134,10.6827,2.717
54541.0,-23.2764,-8.1786,-1.1612,2.5004,13.4188,2.817
54551.0,-29.8701,-9.0812,16.5775,4.5043,15.0923,2.1024
54561.0,-29.724,-2.3535,26.8797,5.6532,14.7188,0.9653
54571.0,-33.2531,6.5864,36.4804,5.1508,13.4587,-0.0399
54581.0,-29.5923,7.4867,41.8937,2.8042,11.467,-0.5869
54591.0,-37.0622,8.5138,59.5246,1.6368,10.8652,-0.7678
54601.0,-31.4167,7.0509,69.3528,-0.4278,5.642,-1.0392
54611.0,-27.4328,4.5466,76.9257,-1.0898,0.7593,-0.8535
54621.0,-24.9715,8.995,58.2821,1.756,-3.0378,0.0005
54631.0,-23.2549,6.7038,43.0214,1.8635,-6.2768,0.5209
54641.0,-20.0897,4.8507,26.1136,1.1776,-8.5346,0.6598
54651.0,-15.9143,2.6193,12.7395,0.7487,-8.8751,0.6306
54661.0,-11.6861,1.324,2.5211,0.5731,-7.9045,0.4741
54671.0,-8.1379,1.1995,-2.0039,0.0601,-6.3369,0.1437
54681.0,-6.0669,1.5155,-1.2809,-0.4576,-4.5921,-0.1884
54691.0,-5.0757,2.0901,2.3415,-0.5662,-2.9319,-0.3831
54701.0,-5.8993,2.7438,8.1427,-0.5555,-1.9247,-0.4709
54711.0,-6.0406,3.7781,12.5696,-0.4097,-1.9247,-0.4432
54721.0,-5.6527,4.3024,14.5113,-0.0623,-2.4967,-0.281
54731.0,-5.1356,5.0805,13.0221,0.4587,-3.165,-0.0245
54741.0,-4.4891,4.9009,10.6781,0.7348,-3.7019,0.2421
54751.0,-3.7948,4.8578,7.118,0.7641,-4.0717,0.4464
54761.0,-2.8994,4.6974,4.3479,0.464,-4.1622,0.5672
54771.0,-2.0806,4.063,3.3686,0.099,-3.9142,0.6518
54781.0,-1.6712,3.0598,3.2154,-0.0367,-3.4369,0.737
54791.0,-1.1301,2.1476,2.5019,-0.2884,-3.1203,0.7625
54801.0,-0.261,0.395,3.2465,-0.9855,-3.0767,0.6518
54811.0,0.6201,-0.7494,3.9145,-1.3824,-3.0602,0.4624
54821.0,0.8978,-0.3855,3.9025,-1.1589,-2.8351,0.299
54831.0,1.2905,0.4932,3.6631,-0.5848,-2.4552,0.2501
54841.0,1.4461,1.2809,3.2465,0.0059,-2.0678,0.3044
54851.0,1.9345,1.4461,3.395,0.3485,-1.7565,0.3975
54861.0,2.4493,0.7925,3.814,0.5848,-1.4564,0.4864
54871.0,2.9377,0.6823,3.4955,0.6721,-1.2217,0.4986
54881.0,2.9066,0.3424,3.9624,0.365,-1.1169,0.4236
54891.0,3.3471,0.4166,4.5442,-0.0165,-1.1212,0.299
54901.0,3.3567,1.0104,4.458,-0.2379,-1.0855,0.2017
54911.0,3.4309,1.6065,4.7549,-0.3528,-0.9786,0.1724
54921.0,3.4093,2.1213,4.7812,-0.3374,-0.8743,0.2219
54931.0,2.9161,1.9393,4.5969,-0.3565,-0.8599,0.3203
54941.0,3.5721,0.1341,4.9728,-0.3001,-0.8503,0.4406
54951.0,4.3527,-1.1468,3.9887,0.0926,-0.6886,0.4864
54961.0,4.4891,-1.2234,2.4612,0.3267,-0.455,0.3879
54971.0,4.4604,-1.0702,1.7142,0.0952,-0.2767,0.2059
54981.0,4.7932,-1.0822,1.5107,-0.2405,-0.0857,0.0165
54991.0,4.8411,-0.328,-0.1628,-0.5459,0.1043,-0.1532
55001.0,4.6807,0.0622,-0.838,-1.1877,0.2155,-0.3203
55011.0,5.0015,1.0104,-2.5929,-1.6453,0.3352,-0.4262
55021.0,3.9983,2.6097,-5.5952,-1.996,0.6008,-0.4353
55031.0,3.5434,3.8571,-7.8554,-2.5823,0.7482,-0.3523
55041.0,3.2226,5.387,-12.9071,-2.9245,0.878,-0.107
55051.0,1.1396,6.2058,-18.1217,-3.0437,1.4931,0.3081
55061.0,-1.8435,5.9616,-21.8806,-2.7622,2.6489,0.8812
55071.0,-4.9201,3.1963,-23.1807,-1.9342,4.4708,1.5602
55081.0,-10.7045,-1.0391,-21.3204,-0.9908,6.5737,2.0853
55091.0,-12.8784,-8.5808,-14.2551,-0.1006,8.6399,2.3264
55101.0,-15.6174,-15.2654,-2.5259,1.3744,10.8961,2.014
55111.0,-21.0139,-14.8608,10.2328,2.9085,12.2083,1.003
55121.0,-23.8127,-7.8554,19.9748,4.06,12.27,-0.1825
55131.0,-26.511,1.2713,29.2093,4.664,11.9055,-1.0828
55141.0,-24.61,14.2982,21.6627,4.0212,10.1596,-1.5708
55151.0,-28.4216,12.9742,46.5553,1.3622,10.3512,-1.6022
55161.0,-23.5422,14.0779,52.445,1.1377,8.2297,-0.911
55171.0,-24.701,6.0262,65.3569,-0.4592,4.7129,-0.5076
55181.0,-26.0274,3.7182,64.7991,0.6476,1.0568,0.0192
55191.0,-24.0929,5.0015,51.1234,2.138,-2.3349,0.4007
55201.0,-22.2996,4.0151,41.5131,1.4202,-5.1854,0.2969
55211.0,-19.4481,5.4348,27.2915,0.9025,-7.0963,0.0937
55221.0,-16.7211,5.7748,17.5806,0.1176,-7.6395,-0.1325
55231.0,-13.6661,7.039,9.1674,-0.3677,-7.3336,-0.2687
55241.0,-11.2887,7.343,5.6192,-0.8945,-6.4386,-0.3203
55251.0,-9.4092,7.264,4.0414,-1.2451,-5.4515,-0.2778
55261.0,-8.0852,5.8131,4.9321,-1.5006,-4.5937,-0.1857
55271.0,-7.1419,4.3551,7.2353,-1.4016,-3.9584,-0.0947
55281.0,-7.0366,4.1084,8.7173,-0.8306,-3.6109,0.0234
55291.0,-5.8299,4.8459,8.1235,-0.1862,-3.6583,0.1772
55301.0,-4.6807,5.6527,6.1651,0.1527,-3.8094,0.356
55311.0,-3.7421,5.6958,4.5442,0.1277,-3.8206,0.5337
55321.0,-2.8323,5.0829,2.7366,-0.1256,-3.7567,0.6694
55331.0,-1.7741,4.0749,1.4389,-0.6306,-3.629,0.7109
55341.0,-0.9792,2.8922,0.7207,-1.2026,-3.3864,0.6715
55351.0,-0.3974,1.8244,1.2929,-1.6384,-3.0197,0.5901
55361.0,0.0862,0.9744,3.0646,-1.6506,-2.5722,0.5364
55371.0,0.1484,0.9122,3.802,-1.1233,-2.1982,0.564
55381.0,0.8212,0.7398,3.6512,-0.5337,-1.9566,0.6486
55391.0,1.3384,0.3136,2.9305,-0.1389,-1.7735,0.721
55401.0,1.8723,0.0144,2.2003,0.0814,-1.5532,0.7476
55411.0,2.5546,-0.3328,1.8938,0.2591,-1.1275,0.746
55421.0,2.6647,-0.091,1.9848,0.2943,-0.5779,0.705
55431.0,2.3846,-0.103,4.0606,-0.0468,-0.1607,0.6167
55441.0,2.3176,-0.0599,6.0597,-0.4379,-0.0176,0.5252
55451.0,1.8914,0.0311,8.3414,-0.8333,-0.0873,0.4475
55461.0,1.5107,-0.3041,10.0892,-1.0036,-0.3725,0.4353
55471.0,1.81,-0.577,9.7636,-0.8253,-0.7327,0.4837
55481.0,1.9992,-1.2977,8.8849,-0.5273,-0.9269,0.5454
55491.0,2.4038,-2.0279,7.695,-0.1527,-0.9285,0.5837
55501.0,2.6911,-2.727,7.3981,0.099,-0.7902,0.538
55511.0,2.7126,-2.3415,7.1204,0.2299,-0.7295,0.4113
55521.0,2.7677,-1.3479,6.1507,0.1203,-0.8248,0.2671
55531.0,2.8539,-1.1085,5.3223,-0.2666,-0.9908,0.1543
55541.0,3.2154,-1.312,3.1173,-0.7263,-1.1808,0.0649
55551.0,3.8283,-1.9249,1.1708,-1.3585,-1.2787,-0.0633
55561.0,4.0893,-2.1883,-0.3208,-1.7416,-1.1898,-0.1985
55571.0,5.1858,-0.5291,-6.1124,-1.756,-1.0573,-0.2772
55581.0,4.0582,0.3687,-8.5904,-1.8172,-0.3528,-0.2788
55591.0,4.7357,4.4628,-16.7642,-1.5453,0.3868,-0.1591
55601.0,2.4636,7.4675,-21.7777,-2.4935,1.2584,0.0192
55611.0,-0.3017,9.0309,-23.8367,-3.562,2.3365,0.4539
55621.0,-3.2825,6.0142,-18.9429,-3.4225,4.167,1.2382
55631.0,-6.4955,1.2977,-14.8919,-1.6261,5.9043,2.0683
55641.0,-8.7604,-5.2505,-10.4291,0.6465,7.423,2.5616
55651.0,-10.7476,-11.1282,-4.9488,3.1049,9.3487,2.518
55661.0,-14.9781,-11.9662,3.6943,4.507,10.9695,1.706
55671.0,-19.3787,-8.248,15.1218,4.2484,11.466,0.489
55681.0,-22.6587,-3.2394,28.1965,3.1639,11.1153,-0.5683
55691.0,-26.0824,5.7269,24.0617,2.0949,9.4269,-1.151
55701.0,-28.5197,2.0806,48.145,0.1346,9.2651,-1.3143
55711.0,-21.8399,7.8027,48.3294,0.7689,7.0148,-0.9551
55721.0,-19.8671,2.1907,59.0578,-0.8652,3.6333,-0.7593
55731.0,-21.1097,1.2306,60.4464,0.7311,1.1595,-0.1298
55741.0,-21.2246,3.893,48.7531,2.9825,-1.2989,0.5247
55751.0,-20.14,1.0056,42.5665,2.477,-4.1154,0.7019
55761.0,-17.0659,1.8794,26.3697,2.4051,-6.2199,0.6891
55771.0,-13.7834,0.5962,16.4266,1.3899,-6.7685,0.4315
55781.0,-10.1873,1.0175,7.7596,0.4486,-6.3747,0.0452
55791.0,-7.999,1.2833,3.7996,-0.8088,-5.4111,-0.39
55801.0,-6.3398,1.3455,5.2648,-2.0114,-4.342,-0.8152
55811.0,-6.6128,2.9233,8.4515,-2.2482,-3.3917,-1.0344
55821.0,-6.7205,3.9768,11.7029,-1.6831,-2.8782,-0.9365
55831.0,-6.1387,4.9991,11.7962,-0.7263,-2.9085,-0.6226
55841.0,-5.4516,4.9249,11.5041,0.0825,-3.1246,-0.2341
55851.0,-4.4748,5.2529,8.2672,0.9371,-3.2416,0.1719
55861.0,-3.0502,6.0023,4.0821,1.0536,-3.2576,0.4592
55871.0,-2.332,5.4396,3.1364,0.3155,-3.1549,0.6077
55881.0,-1.3623,4.9057,2.0351,-0.2863,-2.916,0.7242
55891.0,-1.1947,3.1939,1.8723,-0.8216,-2.5398,0.8296
55901.0,-0.5555,0.2442,3.1005,-1.2696,-2.2237,0.8642
55911.0,0.0144,-2.1548,4.2856,-1.3601,-1.9704,0.7822
55921.0,0.3879,-3.4955,5.4277,-1.127,-1.732,0.6119
55931.0,0.4956,-3.4333,6.2082,-0.6391,-1.5298,0.4087
55941.0,0.9864,-1.7837,5.4348,-0.1048,-1.4197,0.241
55951.0,1.3072,0.2251,4.3359,0.0878,-1.2872,0.1458
55961.0,1.6424,1.4605,4.0869,-0.1171,-1.1212,0.1304
55971.0,1.7023,1.798,4.5849,-0.4949,-0.9998,0.1692
55981.0,1.6975,1.7358,4.5777,-0.8407,-0.9668,0.2347
55991.0,1.4437,0.8212,5.3008,-1.1706,-0.9594,0.3081
56001.0,1.4653,-1.0056,6.043,-1.1291,-0.9009,0.4172
56011.0,2.2098,-2.8994,5.8682,-0.6306,-0.6976,0.4997
56021.0,2.4157,-3.6464,5.7724,-0.1133,-0.3645,0.448
56031.0,2.1668,-3.3136,6.4236,0.1288,-0.0921,0.2932
56041.0,2.1979,-2.49,7.5178,0.1708,0.0553,0.1282
56051.0,1.9058,-1.336,8.5186,0.0745,0.066,-0.008
56061.0,1.6831,-0.34,9.2919,-0.1873,-0.0974,-0.0942
56071.0,1.5514,0.1987,10.1418,-0.5146,-0.3884,-0.1171
56081.0,1.4126,0.2729,10.2615,-0.7524,-0.7918,-0.075
56091.0,1.4174,-0.0958,9.3972,-0.895,-1.2973,0.0074
56101.0,1.5251,-1.1708,7.6088,-0.8705,-1.7985,0.1155
56111.0,1.8435,-1.9273,2.4995,-0.7168,-2.287,0.1995
56121.0,1.4653,-2.0566,-5.2289,-0.9881,-2.6866,0.1676
56131.0,6.1675,-3.1388,-13.1322,-1.7363,-2.7239,0.0452
56141.0,4.6998,-1.3168,-17.9781,-1.8837,-1.3872,-0.0947
56151.0,3.4429,0.5818,-22.0099,-1.8087,-0.4103,-0.1293
56161.0,3.3615,1.3264,-27.1622,-1.2148,0.638,0.0756
56171.0,0.4573,2.229,-31.3377,0.3688,3.2501,0.4965
56181.0,-4.4436,-0.8021,-27.3346,1.3979,6.3082,0.8673
56191.0,-9.3661,-5.2864,-17.607,2.0071,8.9209,0.9376
56201.0,-15.0116,-7.5441,-2.624,2.7739,11.3324,0.6252
56211.0,-21.2174,-5.3678,14.2431,3.5258,12.7244,0.0277
56221.0,-25.2852,-0.7518,29.2428,3.4401,12.4983,-0.5912
56231.0,-8.509,5.454,29.7384,3.207,10.4049,-0.837
56241.0,-20.2502,7.2233,48.8417,3.0112,10.7742,-0.7854
56251.0,-20.6237,11.4826,52.2104,2.3918,7.2612,-0.5992
56261.0,-22.3187,7.276,63.3602,0.4794,3.5284,-0.4225
56271.0,-23.2932,7.9248,58.9692,2.0018,0.6396,0.2677
56281.0,-21.7872,5.8993,48.892,2.5637,-2.5169,0.7508
56291.0,-19.5032,1.9992,39.2218,1.7256,-5.4685,0.7721
56301.0,-15.9933,1.0415,24.4831,1.6655,-6.992,0.6476
56311.0,-12.0859,0.8763,13.113,1.2164,-7.0936,0.3161
56321.0,-8.5617,2.8898,4.3527,0.2517,-6.4641,-0.1463
56331.0,-6.0118,4.0031,1.98,-1.1084,-5.3664,-0.5827
56341.0,-4.3742,4.8171,2.7222,-1.8241,-4.0026,-0.8104
56351.0,-4.1348,5.3989,5.2984,-1.7469,-2.7063,-0.7939
56371.0,-3.7781,5.0254,10.5082,-0.7551,-1.7224,-0.331
56381.0,-3.0909,4.9799,10.1754,-0.0261,-1.7624,-0.0357
56391.0,-2.5307,5.3822,8.5473,0.3161,-1.8821,0.1873
56401.0,-1.9632,5.272,7.3382,0.0835,-1.9938,0.3459
56411.0,-1.573,4.5059,6.6487,-0.406,-2.0327,0.4507
56421.0,-1.1564,3.043,5.9903,-0.9461,-2.0231,0.5023
56431.0,-0.8021,0.8452,6.699,-1.3909,-1.8581,0.4906
56441.0,-0.5387,-1.0151,7.8434,-1.4665,-1.591,0.4273
56451.0,-0.4669,-2.2505,9.4164,-1.2616,-1.3452,0.3044
56461.0,-0.5195,-2.32,10.3525,-0.986,-1.292,0.1272
56471.0,-0.7518,-1.5251,11.2575,-0.861,-1.4676,-0.0681
56481.0,-0.6728,-0.0311,11.1019,-0.6933,-1.7198,-0.1905
56491.0,-0.7135,1.4317,10.4363,-0.5433,-1.9044,-0.1974
56501.0,-0.498,2.1141,9.6798,-0.5326,-2.0987,-0.1155
56511.0,0.0622,2.1907,8.0828,-0.6694,-2.3429,-0.0106
56521.0,0.4142,1.6783,7.0294,-0.9881,-2.5467,0.0639
56531.0,0.7997,0.9002,6.1818,-1.1169,-2.6244,0.1399
56541.0,1.3024,0.2705,4.616,-0.9754,-2.5621,0.2246
56551.0,1.719,-0.577,3.6272,-0.8125,-2.3823,0.281
56561.0,2.2793,-1.1995,2.6839,-0.5582,-2.1215,0.3049
56571.0,2.7581,-1.3575,1.6089,-0.3581,-1.8198,0.2794
56581.0,3.146,-1.4078,1.6855,-0.3326,-1.508,0.2086
56591.0,3.1412,-1.3815,1.968,-0.2283,-1.2271,0.157
56601.0,3.3471,-1.3288,1.3934,-0.125,-1.0903,0.1224
56611.0,3.6464,-1.3719,0.3567,-0.2857,-1.1265,0.0511
56621.0,3.8211,-1.7861,-0.6512,-0.5922,-1.2318,-0.041
56631.0,4.0103,-1.6783,-4.3359,-0.7056,-1.2835,-0.1229
56641.0,5.5234,-1.8771,-7.2927,-0.9264,-1.0078,-0.2309
56651.0,4.3048,-1.2905,-9.4427,-0.9695,-0.2884,-0.3108
56661.0,3.5578,-0.3184,-11.6286,-1.2169,0.1165,-0.3852
56671.0,3.6488,1.0678,-15.4091,-1.6176,0.3108,-0.4209
56681.0,1.8675,2.8563,-20.4369,-1.8523,0.7966,-0.3555
56691.0,0.4142,4.6376,-26.1207,-1.7528,1.8023,-0.1096
56701.0,-3.0047,4.6519,-28.9004,-1.094,3.9371,0.3964
56711.0,-8.9399,1.4413,-23.5613,-0.2336,7.0744,0.9919
56721.0,-12.8449,-3.62,-13.477,0.7673,9.9468,1.3846
56731.0,-18.8208,-6.7014,2.4181,1.764,12.3509,1.2749
56741.0,-26.3386,-4.2832,18.4928,2.834,13.5492,0.812
56751.0,-30.0712,0.9505,32.9562,3.4779,13.2709,0.3688
56761.0,-22.788,4.2042,33.7558,3.3433,11.6767,0.2799
56771.0,-29.8509,4.13,49.1889,3.3603,11.7709,0.3698
56781.0,-28.3497,4.1037,57.1951,1.8225,7.7077,0.1038
56791.0,-26.3051,0.4214,67.72,0.1878,3.6992,-0.1197
56801.0,-24.4041,3.3351,60.8486,1.5543,0.4555,0.1272
56811.0,-21.95,1.7717,51.8009,1.1531,-3.2368,0.1341
56821.0,-20.3076,1.1756,39.715,0.0112,-6.6115,-0.1341
56831.0,-18.0475,1.7142,24.9069,-0.2639,-8.343,-0.3049
56841.0,-13.7643,2.5474,11.0373,-0.2426,-8.5686,-0.3741
56851.0,-8.8155,3.5889,0.972,-0.2953,-7.5917,-0.3959
56861.0,-4.7788,4.4005,-5.3247,-0.4417,-5.7261,-0.339
56871.0,-1.8794,3.802,-5.0182,-0.7072,-3.3683,-0.2512
56881.0,-2.399,3.3303,-0.7925,-0.8317,-1.2169,-0.1591
56891.0,-2.0159,2.5642,4.6926,-1.1733,-0.1022,-0.1336
56901.0,-3.3615,2.2194,10.8098,-1.3595,0.4629,-0.1346
56911.0,-3.3615,2.2194,10.8098,-1.3595,0.4629,-0.1346
56921.0,-4.0055,2.5905,14.3101,-1.176,0.3852,-0.0798
56931.0,-4.1587,1.7334,17.1784,-1.1153,-0.1846,0.0043
56941.0,-3.8906,1.0175,18.081,-0.7732,-0.9184,0.1096
56951.0,-3.0885,0.3639,16.5655,-0.2528,-1.5729,0.2075
56961.0,-3.3208,-0.2203,15.1409,-0.0383,-2.0635,0.2187
56971.0,-2.8635,-0.2729,13.3381,0.041,-2.4498,0.1745
56981.0,-2.4062,0.4166,11.2982,-0.0335,-2.6558,0.0915
56991.0,-2.2913,1.6831,9.6534,-0.6359,-2.7819,0.0053
57001.0,-2.2913,1.6831,9.6534,-0.6359,-2.7819,0.0053
57011.0,-1.7047,1.4461,8.7364,-1.0781,-2.9037,0.0117
57021.0,-1.336,0.4717,8.4779,-1.5373,-2.999,0.0011
57031.0,-0.917,-0.395,7.6471,-1.7831,-3.0857,-0.0282
57041.0,-0.4764,-1.2665,7.9176,-1.839,-3.0671,-0.0793
57051.0,-0.5267,-1.6712,7.7835,-1.3457,-2.9447,-0.0686
57061.0,-0.182,-1.4222,6.0214,-0.5401,-2.7936,-0.0016
57071.0,0.9194,-0.917,3.7373,-0.0053,-2.6223,0.0612
57081.0,1.5754,-0.4956,2.5163,0.1187,-2.3307,0.0984
57091.0,2.0399,-0.4429,1.7478,0.0458,-1.9795,0.133
57101.0,2.3176,-0.5483,1.6352,-0.2171,-1.6756,0.132
57111.0,2.6671,-0.905,1.664,-0.621,-1.5027,0.0995
57121.0,2.9999,-1.6807,1.9704,-1.0589,-1.3931,0.0399
57131.0,3.3255,-2.3822,2.1284,-1.3867,-1.3026,-0.0532
57141.0,3.4716,-2.9377,3.5961,-1.5027,-1.1526,-0.1511
57151.0,3.3686,-3.0909,4.3096,-1.0727,-0.9871,-0.1724
57161.0,3.5698,-2.8563,3.9935,-0.3879,-0.8455,-0.1495
57171.0,3.7613,-2.7031,3.1532,0.1634,-0.7471,-0.1123
57181.0,4.221,-2.5833,1.8675,0.4464,-0.6886,-0.1133
57191.0,4.2329,-2.3583,0.9098,0.4257,-0.6236,-0.1809
57201.0,4.3742,-1.5562,-0.8643,0.1958,-0.5922,-0.29
57211.0,4.4843,-0.0862,-4.6591,-0.5768,-0.7524,-0.4512
57221.0,4.0941,1.2306,-9.2895,-2.2764,-1.1712,-0.6582
57231.0,3.8164,1.3886,-11.1666,-3.9914,-1.2606,-0.7721
57241.0,3.0885,3.0526,-14.6094,-4.1856,-0.804,-0.622
57251.0,2.32,5.205,-20.7386,-3.173,-0.0798,-0.2235
57261.0,2.727,8.9926,-31.7758,-0.6987,1.8768,0.5444
57271.0,-6.6511,8.3246,-31.0336,1.0105,5.6287,1.4889
57281.0,-11.1857,4.1061,-25.697,1.6841,8.5553,2.3115
57291.0,-16.4362,-1.9058,-13.9965,2.1982,11.4053,2.6967
57301.0,-23.3076,-5.5857,3.2585,2.7665,13.5338,2.5057
57311.0,-29.9251,-3.8786,17.4777,3.4869,14.0728,1.9523
57321.0,-30.0664,-1.3671,30.4207,3.761,13.5141,1.4213
57331.0,-24.2796,0.8763,30.3728,3.0277,12.1093,1.0238
57341.0,-31.285,-1.9465,51.4897,2.7877,12.5291,0.8328
57351.0,-29.4008,-0.5435,58.0642,2.2945,8.7123,0.4337
57361.0,-29.5851,-2.1284,72.4773,0.7694,4.4634,-0.0101
57371.0,-27.5166,4.4604,62.8478,2.9112,0.7226,0.3496
57381.0,-25.0841,5.035,53.0962,3.0628,-2.6952,0.6391
57391.0,-23.2716,4.1707,43.0813,2.0401,-5.7122,0.6822
57401.0,-20.3052,3.8762,28.8573,1.7001,-7.4996,0.7556
57411.0,-16.4506,2.9736,16.6493,1.2015,-8.0067,0.7434
57421.0,-12.1362,3.2705,7.6758,0.5151,-7.498,0.6348
57431.0,-8.497,2.2098,4.6471,-0.1064,-6.2422,0.5161
57441.0,-6.4715,1.6472,3.2705,-0.281,-4.7119,0.4081
57451.0,-5.624,0.7757,5.2457,-0.7269,-3.5417,0.2293
57461.0,-5.6168,-0.2298,8.9232,-1.1946,-3.0325,0.0069
57471.0,-4.9201,0.2466,10.4339,-1.2345,-3.0825,-0.1793
57481.0,-4.9512,1.1875,11.3246,-0.9328,-3.256,-0.2517
57491.0,-4.1276,2.8922,9.0381,-0.2666,-3.4374,-0.1532
57501.0,-3.2896,3.814,6.2177,-0.0479,-3.5694,-0.0043
57511.0,-2.3559,3.8786,4.4077,-0.2464,-3.5981,0.1298
57521.0,-1.5634,3.2801,2.2146,-0.4406,-3.3981,0.274
57531.0,-0.1197,1.1995,1.7047,-0.7599,-2.9585,0.3597
57541.0,0.5291,-0.3232,2.3487,-1.0163,-2.3988,0.3081
57551.0,0.6177,-0.826,4.9273,-1.2425,-1.9289,0.157
57561.0,0.1341,-0.759,7.8937,-1.0887,-1.7022,0.0665
57571.0,0.0024,0.079,8.1547,-0.5428,-1.7842,0.1016
57581.0,0.2227,0.0766,7.853,-0.1644,-2.0337,0.1995
57591.0,0.7805,-0.0479,6.1028,0.2187,-2.246,0.3065
57601.0,1.6879,-0.5219,3.8188,0.5326,-2.2162,0.389
57611.0,2.0255,-1.1612,2.6193,0.6375,-1.9151,0.3964
57621.0,2.5498,-1.6592,2.5881,0.6657,-1.4447,0.348
57631.0,2.6288,-1.7047,3.3567,0.5279,-0.9966,0.2528
57641.0,2.229,-1.664,6.0837,0.1149,-0.8455,0.107
57651.0,2.466,-1.0965,7.2377,-0.0548,-1.0435,0.0085
57661.0,2.7629,-0.7614,7.1491,-0.0654,-1.2616,-0.0112
57671.0,2.9449,-0.8954,6.7062,-0.0681,-1.4537,0.0074
57681.0,3.2968,-1.2115,5.2146,-0.1559,-1.698,0.0101
57691.0,3.6272,-1.8675,3.6033,-0.431,-1.9332,-0.0388
57701.0,4.1468,-2.4588,2.0351,-0.6093,-2.0045,-0.1165
57711.0,4.5131,-2.5091,0.1341,-0.5146,-1.848,-0.182
57721.0,4.9153,-2.2745,-1.9632,-0.3347,-1.5564,-0.2325
57731.0,6.2489,-0.9337,-7.2089,-0.34,-1.2851,-0.2847
57741.0,5.9304,-0.2634,-9.754,-0.9988,-0.6917,-0.3608
57751.0,5.2696,1.0008,-12.0596,-1.914,-0.1857,-0.4406
57761.0,3.7326,2.4469,-14.1425,-2.8851,0.2677,-0.4502
57771.0,2.7342,4.5131,-16.4577,-3.6114,0.7242,-0.3166
57781.0,0.5507,7.3717,-19.7163,-3.7189,1.3713,0.0521
57791.0,-1.7837,10.6087,-26.3027,-3.0623,2.3769,0.746
57801.0,-4.7645,10.9583,-30.064,-1.9151,4.3591,1.7091
57811.0,-12.7946,8.0469,-30.2436,-0.2916,7.5688,2.7627
57821.0,-19.587,-2.1859,-19.0124,0.8594,10.8567,3.5306
57831.0,-24.8087,-12.8162,-3.1388,2.3482,13.6423,3.5662
57841.0,-30.5524,-16.5176,16.3045,3.5907,15.2227,2.5935
57851.0,-32.5252,-12.3613,30.0281,4.0701,14.7789,1.2058
57861.0,-16.5415,-3.62,26.1136,3.5157,12.8197,0.0208
57871.0,-29.6187,1.4772,48.2001,2.6787,13.6615,-0.7487
57881.0,-29.3721,7.2496,57.0179,1.1983,9.7483,-1.0914
57891.0,-31.0289,2.5115,76.4014,-0.7944,5.4611,-0.9291
57901.0,-30.1909,8.4252,68.7926,2.3083,1.8172,0.1719
57911.0,-27.6506,6.7373,58.555,3.4071,-1.7767,1.1196
57921.0,-25.3714,2.3128,49.5552,2.544,-5.2663,1.4468
57931.0,-22.5582,0.5052,34.8907,2.3679,-7.5959,1.5027
57941.0,-18.7681,-1.3767,22.0099,2.0901,-8.5372,1.3462
57951.0,-15.2295,-0.3903,11.2647,1.4958,-8.6016,0.9711
57961.0,-11.8992,0.5555,6.8929,0.7114,-7.9253,0.5555
57971.0,-9.3877,2.5929,3.1364,0.6763,-6.7727,0.3214
57981.0,-7.9703,3.8403,0.9313,0.5507,-5.6164,0.2426
57991.0,-6.0214,2.8563,0.9792,-0.1261,-4.8555,0.182
58001.0,-4.7477,1.245,3.0287,-0.6162,-4.2191,0.0623
58011.0,-3.7397,1.6951,3.6009,-0.4081,-3.5758,-0.0484
58021.0,-3.6105,3.0335,5.2577,-0.2246,-3.073,-0.108
58031.0,-3.158,4.0677,6.8067,-0.0394,-2.892,-0.042
58041.0,-2.5857,4.6519,7.3885,0.1431,-2.9415,0.1197
58051.0,-1.992,4.5538,7.2999,0.2533,-3.1155,0.3102
58061.0,-1.6161,4.6256,6.0382,0.3134,-3.3433,0.4927
58071.0,-1.1109,3.7685,3.8618,0.2277,-3.5072,0.6721
58081.0,-0.2682,2.1213,1.5203,0.0016,-3.471,0.7982
58091.0,0.7709,-0.0192,0.3256,-0.2799,-3.1464,0.8131
58101.0,1.5299,-1.3862,0.6057,-0.3108,-2.5387,0.7072
58111.0,1.8651,-0.9912,1.233,-0.0303,-1.822,0.5545
58121.0,2.0016,0.4717,2.2434,0.1277,-1.2824,0.4209
58131.0,1.9656,1.6376,3.9672,0.0112,-1.027,0.3624
58141.0,1.9297,2.2769,4.774,-0.1628,-1.0413,0.3986
58151.0,1.8148,1.5275,5.2241,-0.3624,-1.1403,0.4959
58161.0,2.5522,-0.2801,5.4923,-0.4161,-1.1659,0.5736
58171.0,3.0047,-1.6161,5.5952,-0.3033,-1.0557,0.5433
58181.0,2.9401,-2.1452,6.1244,-0.1442,-0.9434,0.4289
58191.0,3.0215,-2.0351,6.0286,0.0756,-0.9307,0.3044
58201.0,3.2777,-1.4198,5.0877,0.249,-0.9519,0.2011
58211.0,3.62,-1.0822,4.604,0.3086,-0.8854,0.1357
58221.0,4.0558,-0.6776,3.814,0.3714,-0.7678,0.0952
58231.0,4.2186,-0.1484,2.7366,0.1825,-0.7215,0.0362
58241.0,4.5418,-0.1628,2.15,-0.3762,-0.8285,-0.0511
58251.0,4.5346,-0.3759,0.7039,-1.0185,-1.0387,-0.1394
58261.0,4.5179,-0.747,-1.4269,-1.6198,-1.2547,-0.2091
58271.0,6.6319,-0.8691,-7.4029,-2.0891,-1.4931,-0.2496
58281.0,5.6144,-1.482,-11.3844,-2.2929,-0.821,-0.2815
58291.0,5.3127,1.0367,-17.5926,-2.1386,0.1745,-0.29
58301.0,3.948,3.6631,-22.1799,-2.8904,0.9402,-0.3006
58311.0,2.4972,6.8259,-28.2947,-3.8147,1.8113,-0.0793
58321.0,-2.4469,6.8019,-28.0313,-4.4447,3.5364,0.4895
58331.0,-7.3861,5.3678,-26.8007,-3.4704,5.8692,1.375
58341.0,-15.0452,0.747,-20.8942,-1.7155,8.8134,2.2604
58351.0,-22.1488,-6.9216,-9.7827,0.3283,11.6937,2.8202
58361.0,-28.072,-14.0037,7.3263,2.9149,14.3936,2.6563
58371.0,-34.0096,-12.3301,19.6396,5.717,15.8474,1.6714
58381.0,-46.9264,-2.2601,24.1766,6.8525,15.7537,0.2666
58391.0,-47.8625,5.2313,41.4317,5.6792,15.2216,-0.8482
58401.0,-44.0006,14.6669,54.2239,4.2872,13.5641,-1.3957
58411.0,-36.4757,11.0516,72.9633,-0.3171,8.0365,-1.9337
58421.0,-35.4318,7.9655,78.4508,-2.1141,2.5222,-1.7283
58431.0,-35.4653,11.4874,75.3096,0.3437,-2.0875,-0.6327
58441.0,-34.9769,9.0956,58.9955,1.5804,-6.8153,0.4326
58451.0,-33.3991,6.3255,39.6169,1.8768,-10.5151,1.1068
58461.0,-28.5437,3.7661,19.5199,2.5978,-11.9975,1.59
58471.0,-20.4106,3.474,0.6369,2.9692,-11.4319,1.7969
58481.0,-13.4363,3.486,-7.4244,1.8789,-9.5546,1.6272
58491.0,-7.3694,2.9449,-9.6319,0.6098,-7.2154,1.3494
58501.0,-6.869,1.6185,-6.1555,-0.323,-4.7832,1.0887
58511.0,-4.6112,-0.3017,-2.0039,-1.5628,-3.7849,0.7263
58521.0,-3.6871,-2.9018,5.2505,-2.4004,-3.3449,0.2937
58531.0,-3.2633,-2.2075,7.5968,-1.4787,-3.0836,0.0357
58541.0,-3.0071,-1.5131,7.7309,-0.1857,-3.0346,-0.0639
58551.0,-1.9417,-0.3591,5.952,0.7854,-3.2054,-0.099
58561.0,-0.7781,1.2091,3.1699,1.2398,-3.2911,-0.1224
58571.0,0.2562,2.7102,1.5299,1.1637,-3.1607,-0.1442
58581.0,0.8715,4.0438,0.6776,0.9003,-2.8335,-0.1149
58591.0,0.7829,4.7549,0.4166,0.4486,-2.4903,-0.0271
58601.0,1.2043,4.1899,0.7374,-0.1261,-2.2636,0.1096
58611.0,2.0063,2.66,1.7502,-0.5188,-1.9704,0.2517
58621.0,2.071,0.9673,3.4644,-0.4704,-1.5453,0.3634
58631.0,2.5283,-0.1221,4.6376,0.0096,-1.1526,0.4395
58641.0,2.5977,-0.5291,5.114,0.5151,-0.8908,0.4512
58651.0,3.0382,-0.6345,5.6312,0.7881,-0.7577,0.3986
58661.0,3.1699,-0.5626,5.9616,0.9003,-0.6923,0.3038
58671.0,3.1436,-0.0575,6.0741,0.8583,-0.6955,0.1745
58681.0,2.9042,0.7183,5.8131,0.6103,-0.8109,0.0351
58691.0,2.8994,1.1109,5.351,0.2118,-0.9966,-0.0713
58701.0,3.1316,0.8691,5.0613,-0.0867,-1.0685,-0.1357
58711.0,3.1125,1.0223,4.3479,-0.0596,-0.9408,-0.1607
58721.0,3.1723,1.245,4.0917,0.1266,-0.6609,-0.1442
58731.0,3.2729,1.4796,4.0654,0.3001,-0.3868,-0.1038
58741.0,3.5769,1.7334,4.0917,0.2964,-0.2469,-0.0788
58751.0,3.632,1.7502,4.1731,0.049,-0.2762,-0.0803
58761.0,3.8523,1.7023,4.1252,-0.2453,-0.4156,-0.0947
58771.0,4.3598,1.8244,3.1244,-0.4172,-0.564,-0.1032
58781.0,4.0438,2.0997,1.5945,-0.5587,-0.6651,-0.0937
58791.0,4.2042,2.1165,-1.4198,-0.729,-0.7338,-0.0415
58801.0,4.525,1.6328,-5.7628,-1.2265,-0.7529,-0.008
58811.0,5.0637,0.2993,-7.9368,-1.9044,-0.397,-0.0431
58821.0,4.5586,1.2474,-12.062,-2.113,0.282,-0.108
58831.0,2.4445,2.6911,-16.1585,-2.7829,0.8237,-0.2011
58841.0,1.8268,5.873,-22.7713,-3.5508,1.441,-0.1548
58851.0,-3.5721,7.4508,-24.7321,-3.9988,3.2352,0.2767
58861.0,-7.9224,7.1227,-23.0011,-3.4428,5.7979,1.0366
58871.0,-12.2344,6.0885,-17.1185,-2.6393,8.5106,1.7421
58881.0,-18.4713,-0.0359,0.1772,-1.8102,11.0238,2.336
58891.0,-21.7298,-6.6272,14.8417,0.3326,12.6015,2.6419
58901.0,-23.9827,-9.9168,27.586,1.8672,12.9569,2.1801
58911.0,-14.3173,-7.2065,23.5158,2.5063,11.2185,1.301
58921.0,-25.2995,-8.0302,41.8435,2.3152,11.8214,0.2916
58931.0,-24.7704,3.3662,41.7525,2.3195,9.6658,-0.6279
58941.0,-24.4831,1.7909,56.7474,-1.0387,6.3109,-1.4128
58951.0,-25.254,4.0917,64.5094,-0.7684,3.5588,-1.2276
58961.0,-24.6196,8.3989,59.1224,1.2047,0.7444,-0.5156
58971.0,-24.0426,7.5633,53.9198,1.0089,-2.9085,0.0293
58981.0,-23.2956,6.778,43.7995,1.0062,-6.0735,0.5412
58991.0,-21.0498,4.9009,29.8701,1.8448,-7.6874,1.1329
59001.0,-16.6445,3.1915,15.3516,2.1402,-8.2137,1.5096
59011.0,-12.2535,0.4693,7.7548,1.0781,-8.0503,1.4457
59021.0,-8.3917,-1.6927,3.201,0.3033,-7.2564,1.1589
59031.0,-5.7389,-2.2362,0.1796,-0.0101,-5.9655,0.7769
59041.0,-4.5179,-2.545,1.0654,-0.5034,-4.7597,0.3225
59051.0,-4.118,-2.0231,3.122,-0.9323,-4.0302,-0.1261
59061.0,-3.8451,-0.5626,4.7692,-1.0871,-3.7727,-0.4773
59071.0,-2.7557,1.3336,4.221,-0.9493,-3.8504,-0.6534
59081.0,-1.3503,2.4038,3.134,-0.5678,-3.787,-0.6502
59091.0,-0.2251,4.2306,0.431,0.0,-3.4864,-0.5295
59101.0,0.2586,5.2026,-1.1301,0.2011,-3.0357,-0.3459
59111.0,1.0678,5.7557,-2.4732,0.1006,-2.5914,-0.1224
59121.0,1.6472,5.0182,-1.8196,-0.1618,-2.0263,0.1128
59131.0,2.4181,3.6536,-0.9122,-0.1942,-1.367,0.3421
59141.0,2.1428,2.5283,0.9242,-0.2597,-0.7966,0.4645
59151.0,2.0662,1.8794,2.7797,-0.3634,-0.5013,0.5055
59161.0,2.4565,1.7741,4.0797,-0.4294,-0.3986,0.5252
59171.0,2.4541,1.4126,5.6958,-0.3773,-0.3512,0.5736
59181.0,2.3774,1.4006,5.3319,-0.0303,-0.3496,0.6641
59191.0,2.4277,0.6416,4.6064,0.1373,-0.3288,0.7551
59201.0,2.9497,-1.1372,4.7788,0.1038,-0.2442,0.7801
59211.0,3.0813,-2.4325,5.375,0.1415,-0.0915,0.6843
59221.0,3.1963,-2.988,5.952,0.2538,0.0612,0.4954
59231.0,3.3016,-2.6073,6.2417,0.3262,0.1596,0.2528
59241.0,3.5051,-1.2163,6.2728,0.2006,0.1479,0.0011
59251.0,3.5961,-0.0072,6.4548,-0.1176,0.091,-0.1783
59261.0,3.6344,0.8188,6.6343,-0.4129,0.0532,-0.2469
59271.0,3.0765,1.1492,7.027,-0.6242,0.0325,-0.2331
59281.0,2.4828,0.7542,7.8099,-0.63,0.0176,-0.1431
59291.0,2.1955,-0.2394,8.0349,-0.199,0.116,0.016
59301.0,2.818,-1.8268,8.4156,0.4943,0.4071,0.149
59311.0,3.3351,-2.8922,9.1578,1.1637,0.7817,0.1224
59321.0,3.0382,-2.5618,10.2783,1.5043,0.9722,-0.0899
59331.0,2.6528,-1.3336,11.1211,1.4181,0.8131,-0.39
59341.0,2.5211,-0.0862,11.7436,1.0685,0.4597,-0.6662
59351.0,2.4756,1.3168,11.9878,0.7295,0.0862,-0.8466
59361.0,2.2553,2.15,12.0117,0.4432,-0.3086,-0.8982
59371.0,1.8268,2.6169,10.8386,0.2224,-0.8248,-0.8652
59381.0,1.391,2.7557,8.5401,-0.0239,-1.3968,-0.796
59391.0,1.2713,1.913,6.7038,-0.0628,-1.6474,-0.6886
59401.0,2.6336,1.3838,3.9624,0.5582,-1.292,-0.5688
59411.0,3.1196,3.237,0.3543,0.8865,-0.6252,-0.6188
59421.0,1.1372,6.6894,0.0168,-0.0245,-0.1368,-0.8423
59431.0,0.9409,12.73,-4.0582,-1.8198,-0.3209,-0.9871
59441.0,-1.1564,16.4721,-5.6886,-4.9896,-0.8785,-0.8546
59451.0,-3.4836,18.658,-13.8696,-8.3105,-2.2258,-0.241
59461.0,2.2745,8.7149,-11.9973,-9.9303,-2.7861,0.9312
59471.0,1.257,11.8944,-30.5285,-4.333,0.8615,2.5983
59481.0,-9.0237,4.4796,-28.6562,0.4246,5.9384,3.9845
59491.0,-15.7299,-6.4045,-20.6596,3.1905,10.4305,4.6789
59501.0,-23.4991,-15.0739,-1.1037,4.6964,14.2936,4.0903
59511.0,-30.2531,-10.8625,15.5671,6.1491,16.0198,2.3759
59521.0,-43.1459,4.7405,15.8975,5.8782,15.0987,0.4268
59531.0,-46.6271,10.8888,28.0289,2.2578,13.5561,-0.8626
59541.0,-39.138,11.3796,42.6695,-0.2102,12.4057,-0.9796
59551.0,-32.9394,2.3343,59.8407,-2.2732,9.6642,-0.9573
59561.0,-30.7056,-1.4413,75.6544,-2.8644,5.8117,-1.0211
59571.0,-27.8182,1.9489,72.7766,-1.1201,0.9541,-0.7178
59581.0,-27.2676,3.1939,61.8135,0.0788,-3.7642,-0.2996
59591.0,-26.3578,4.4556,44.6016,0.7753,-7.5033,0.1139
59601.0,-23.4704,4.5442,27.2676,0.9328,-9.6222,0.4528
59611.0,-19.1201,3.711,12.73,0.7583,-10.0995,0.7215
59621.0,-14.6525,2.2482,2.9928,0.273,-9.3865,0.87
59631.0,-10.1179,-0.0072,-2.4277,-0.3411,-8.0631,0.8785
59641.0,-6.8905,-2.2122,-4.0055,-0.82,-6.4487,0.7625
59651.0,-4.7764,-3.9528,-2.4325,-1.1691,-4.9167,0.5231
59661.0,-3.5362,-4.9177,0.4669,-1.3345,-3.803,0.1862
59671.0,-3.3184,-4.8411,3.8379,-1.3553,-3.1927,-0.2001
59681.0,-2.9161,-3.5434,6.2249,-1.1691,-3.0543,-0.547
59691.0,-2.5379,-1.9058,6.8307,-0.7774,-3.149,-0.7482
59701.0,-2.1261,-0.4166,6.1962,-0.3794,-3.2666,-0.8093
59711.0,-1.6352,0.7709,5.114,-0.1107,-3.3369,-0.7849
59721.0,-1.1516,1.403,4.1204,0.0106,-3.2677,-0.6981
59731.0,-0.2562,1.3192,4.2449,0.0623,-3.0107,-0.5949
59741.0,0.091,1.47,4.288,0.083,-2.7649,-0.5273
59751.0,0.1939,1.5179,4.8267,-0.1761,-2.71,-0.5215
59761.0,0.6201,1.6592,4.9177,-0.5161,-2.809,-0.539
59771.0,0.8954,2.0853,4.8698,-0.6923,-2.8516,-0.5417
59781.0,1.2067,3.0694,3.9911,-0.5491,-2.7494,-0.4613
59791.0,1.1564,3.79,3.5458,-0.2597,-2.4355,-0.2762
59801.0,0.8212,4.1611,4.3359,0.1394,-1.9608,-0.0016
59811.0,1.2234,3.7589,6.2656,0.7503,-1.4335,0.356
59821.0,1.257,3.1244,6.8354,1.2313,-1.2201,0.6816
59831.0,1.4102,1.8387,7.4268,1.044,-1.5027,0.8402
59841.0,2.2577,0.5052,6.6846,0.6332,-2.0087,0.8562
59851.0,2.7749,-0.5171,4.9249,0.3688,-2.2652,0.7934
59861.0,3.3208,-1.075,2.818,0.2139,-2.2019,0.68
59871.0,3.7996,-1.0271,0.9266,-0.1602,-2.0689,0.4895
59881.0,4.0031,-0.6321,-1.4533,-1.0988,-2.2061,0.2379
59891.0,4.4053,-0.2394,-5.5761,-2.6308,-2.7271,-0.0452
59901.0,5.4061,-0.3496,-12.4977,-4.5261,-3.3938,-0.3272
59911.0,5.7221,0.3089,-18.318,-5.2136,-2.9027,-0.4337
59921.0,3.3255,4.0486,-26.8198,-4.7284,-1.7315,-0.2613
59931.0,4.5586,8.0541,-36.6792,-3.3619,-0.273,0.2794
59941.0,-0.9002,12.9287,-46.1171,-1.3952,2.966,1.1728
59951.0,-10.3717,15.3109,-49.5025,-0.7391,6.562,2.2679
59961.0,-24.5597,10.3477,-45.4108,-0.7827,9.8813,3.5125
59971.0,-30.3561,-3.5626,-34.2658,-0.2251,13.894,4.6592
59981.0,-42.0158,-25.2971,-3.2465,0.7811,17.4357,4.7241
59991.0,-46.56,-32.2283,24.4256,3.9509,17.4357,3.1804
60001.0,-52.524,-18.6939,26.0322,6.6839,17.4357,0.6588
60011.0,-63.523,-10.1658,57.243,6.4774,17.4357,-1.5325
60021.0,-53.2327,13.5105,58.9979,6.4742,15.5568,-2.8894
60031.0,-47.2998,10.489,78.4508,-0.58,8.3893,-4.2239
60041.0,-45.1882,16.3117,78.4508,-1.0632,2.5701,-3.4465
60051.0,-41.4412,24.7393,76.9927,2.6648,-2.021,-1.234
60061.0,-40.0765,16.5439,63.0154,2.1625,-7.1825,0.531
60071.0,-37.2083,8.9543,42.138,1.69,-11.4862,1.707
60081.0,-29.712,2.4253,18.6508,2.6015,-13.0554,2.535
60091.0,-21.0881,-1.6281,-1.0367,3.2092,-12.0263,2.875
60101.0,-15.9023,-4.5586,-11.8298,2.2115,-9.8728,2.5706
60111.0,-6.6343,-7.4986,-10.556,0.7662,-7.283,1.8257
60121.0,-6.3686,-5.3127,-8.7676,0.1277,-4.6182,0.9802
60131.0,-4.2042,-4.6256,-2.5809,-1.0642,-3.3981,0.149
60141.0,-2.7222,-3.0789,3.2202,-1.4702,-2.6675,-0.4635
60151.0,-3.3878,-0.5794,7.1491,-0.9131,-2.1455,-0.7567
60161.0,-2.6193,0.5674,9.165,-0.2666,-2.246,-0.8221
60171.0,-1.9441,1.7478,8.8825,0.3272,-2.6185,-0.7849
60181.0,-1.664,2.806,7.0509,0.7662,-2.9484,-0.6646
60191.0,-0.6823,3.6176,4.6926,1.0302,-3.0447,-0.4746
60201.0,-0.0575,4.1252,2.5833,1.0584,-2.8484,-0.2629
60211.0,0.1053,4.525,1.2258,0.7088,-2.5621,-0.0793
60221.0,0.4429,4.1515,1.561,0.1011,-2.2482,0.0846
60231.0,1.0678,3.1771,2.6647,-0.3336,-1.8927,0.2474
60241.0,1.1349,2.0016,4.6112,-0.5273,-1.5724,0.3874
60251.0,1.0534,0.814,6.3662,-0.3959,-1.4708,0.5028
60261.0,1.4413,-0.1724,6.4548,0.0665,-1.4931,0.5912
60271.0,1.7957,-0.7542,5.6862,0.6577,-1.4229,0.6353
60281.0,2.1644,-0.723,4.5514,1.0642,-1.2962,0.6109
60291.0,2.4397,-0.3855,3.9217,1.1547,-1.1669,0.5183
60301.0,2.9736,0.5195,2.5139,0.9951,-1.0797,0.4049
60311.0,2.9856,1.0056,2.1021,0.4411,-0.9786,0.2884
60321.0,3.0622,1.087,2.1691,-0.2235,-0.9025,0.2001
60331.0,3.0598,0.8547,2.7892,-0.8072,-0.8407,0.1399
60341.0,3.1029,0.1796,3.3016,-1.1893,-0.8439,0.1181
60351.0,3.4333,-0.6105,3.4884,-1.2446,-0.829,0.1101
60361.0,3.7397,-0.8882,3.4788,-0.9062,-0.6604,0.1133
60371.0,3.6009,-0.9553,3.3878,-0.306,-0.389,0.1554
60381.0,3.6607,-0.9266,2.5762,0.3358,-0.1767,0.2086
60391.0,4.2306,-0.6273,0.3448,0.7583,-0.0239,0.2283
60401.0,4.4388,-0.5243,-2.1213,0.6295,0.1639,0.1751
60411.0,4.4125,-0.5339,-5.2194,-0.183,0.2836,0.0341
60421.0,3.6368,-1.2067,-6.4356,-1.6969,0.3342,-0.2091
60431.0,2.5115,-1.4413,-6.4308,-2.9458,0.4842,-0.4395
60441.0,1.7597,0.1556,-7.1994,-3.3039,0.8673,-0.538
60451.0,-0.1987,2.49,-7.7931,-2.8926,1.45,-0.4284
60461.0,-0.4741,5.9592,-12.4068,-1.8065,2.0875,-0.0516
60471.0,-3.8666,8.7388,-16.9893,-0.7386,3.2885,0.5417
60481.0,-6.0166,9.6534,-21.5598,0.1495,4.9396,1.2877
60491.0,-9.2608,9.1291,-23.8702,0.3863,7.1218,1.931
60501.0,-18.5215,4.9153,-15.1625,-0.166,9.6993,2.3876
60511.0,-22.0027,-2.241,-0.6105,0.1506,11.9821,2.7138
60521.0,-28.4192,-8.1738,17.8703,1.5176,14.0105,2.576
60531.0,-31.048,-9.2991,34.4574,2.8968,14.3766,1.8273
60541.0,-8.9471,-2.1668,29.4008,3.2656,11.9763,0.8391
60551.0,-21.804,-2.1979,53.1034,2.2636,12.2178,-0.0005
60561.0,-22.8598,4.8459,56.7522,2.1221,8.8884,-0.5108
60571.0,-23.6188,2.2553,68.1462,-0.7301,3.9408,-1.0823
60581.0,-25.0841,6.6607,64.3609,0.0021,-0.1969,-0.8445
60591.0,-25.2109,10.3501,52.1361,1.8842,-2.9298,-0.0628
60601.0,-24.7848,8.2911,42.7772,2.005,-5.277,0.5938
60611.0,-22.6731,6.3375,31.6609,1.8363,-7.1745,1.0206
60621.0,-19.6085,3.0382,21.5143,1.7932,-8.0195,1.2563
60631.0,-15.8783,1.4676,11.0325,1.7751,-7.9854,1.251
60641.0,-12.536,0.3089,6.3063,1.0499,-7.398,0.9626
60651.0,-9.6869,0.1077,3.1891,0.3815,-6.6142,0.5699
60661.0,-7.8769,0.7853,2.138,-0.2426,-5.7622,0.1538
60671.0,-6.7732,1.3862,3.1508,-0.7923,-5.0263,-0.2011
60681.0,-5.9664,2.4995,4.707,-1.0493,-4.5336,-0.4502
60691.0,-5.7604,3.6512,5.9328,-1.028,-4.3154,-0.5486
60701.0,-5.205,4.3191,6.0334,-0.713,-4.2532,-0.4587
60711.0,-4.8435,4.47,5.0925,-0.2512,-4.1574,-0.241
60721.0,-3.3878,3.3854,5.1523,0.2698,-3.828,0.05
60731.0,-2.1811,2.1332,4.2593,0.8077,-3.4034,0.2884
60741.0,-1.664,1.4629,4.2138,0.7024,-3.1932,0.3092
60751.0,-1.3455,1.1205,5.0039,0.1703,-3.2581,0.1841
60761.0,-0.5171,1.3767,4.5586,-0.2272,-3.414,0.0458
60771.0,-0.0359,1.6257,4.1683,-0.5188,-3.4619,-0.0506
60781.0,0.5339,1.7669,3.1963,-0.6119,-3.4178,-0.0686
60791.0,0.984,1.7933,2.1644,-0.5928,-3.2443,-0.0388
60801.0,1.3408,1.7741,1.2019,-0.4693,-2.9468,0.033
60811.0,1.6759,1.6113,1.3527,-0.2341,-2.4605,0.1453
60821.0,2.8108,1.4796,1.2905,0.1559,-1.9183,0.2943
60831.0,2.7533,1.5467,1.4605,0.2379,-1.5591,0.3751
60841.0,2.9999,1.5371,1.8076,-0.0197,-1.508,0.3975
60851.0,3.4548,1.3384,1.889,-0.2762,-1.5437,0.4113
60861.0,3.6871,1.0798,1.2737,-0.3272,-1.5022,0.4438
60871.0,3.972,0.7997,0.1844,-0.3129,-1.4112,0.481
60881.0,4.4173,0.1867,-1.1396,-0.3443,-1.2984,0.4991
60891.0,5.363,-0.6967,-3.0047,-0.3682,-1.0828,0.4853
60901.0,5.6,-1.5203,-4.4221,-0.3177,-0.6082,0.4198
60911.0,5.4947,-1.7478,-5.8012,-0.248,-0.0271,0.2863
60921.0,5.7796,-1.5826,-7.6567,-0.3842,0.5231,0.1
60931.0,5.2601,-1.0271,-9.1411,-0.7721,1.1371,-0.0974
60941.0,3.8978,0.103,-11.1977,-1.475,1.7049,-0.2671
60951.0,2.3391,0.905,-12.56,-2.5456,2.1614,-0.3725
60961.0,0.6656,1.8172,-14.0875,-3.4289,2.6584,-0.3464
60971.0,-1.7238,3.1747,-15.9574,-3.6923,3.4023,-0.1117
60981.0,-4.8219,4.5825,-18.6101,-3.2097,4.5171,0.3491
60991.0,-10.0963,5.3151,-19.1632,-1.9135,6.4471,0.9876
61001.0,-17.3963,5.6312,-18.1552,-0.0761,9.0273,1.6772
61011.0,-22.2661,2.411,-11.5831,1.1329,11.6128,2.1418
61021.0,-26.7672,-2.7749,3.3471,1.7804,13.9743,2.1109
61031.0,-30.7248,-4.6735,20.5494,2.253,15.245,1.5059
61041.0,-41.6256,-2.4277,32.8868,2.3961,15.0513,0.6141
61051.0,-38.8603,-2.49,44.5417,0.9019,13.0006,-0.3054
61061.0,-37.8499,1.2641,61.5358,0.9445,12.063,-0.878
61071.0,-31.1964,1.2186,67.7631,-0.9445,6.5748,-1.5889
61081.0,-31.1893,-1.0032,78.4508,-2.7739,1.1728,-1.9779
61091.0,-29.3266,9.4044,64.076,0.911,-2.6978,-1.1307
61101.0,-28.3162,9.8689,51.4011,1.98,-5.7532,-0.224
61111.0,-26.2309,9.1339,35.8819,1.4521,-8.9028,0.3485
61121.0,-21.4401,6.6391,19.7617,0.9551,-10.704,0.812
61131.0,-15.8017,2.4325,5.7557,1.0733,-10.4443,1.2047
61141.0,-10.1275,0.8428,-5.454,1.1786,-8.8565,1.3627
61151.0,-4.7357,-2.4756,-9.1746,0.1857,-6.9191,1.2074
61161.0,-3.5961,-6.0382,-5.442,-0.5518,-4.6757,0.8375
61171.0,-2.0303,-6.462,-1.3958,-0.7513,-3.1874,0.3102
61181.0,-1.3719,-6.1316,4.3981,-1.1217,-2.5658,-0.3017
61191.0,-1.7502,-3.4979,7.8817,-0.8067,-2.3817,-0.7311
61201.0,-2.2458,-0.9242,8.9423,-0.1399,-2.4929,-0.887
61211.0,-1.5131,1.2713,7.5585,0.3805,-2.8862,-0.8673
61221.0,-0.7781,2.4924,5.363,0.6162,-3.1613,-0.7513
61231.0,-0.2059,3.2585,3.0335,0.7019,-3.1693,-0.5906
61241.0,0.4262,3.2298,1.6855,0.671,-2.8899,-0.4188
61251.0,1.0151,2.885,0.7925,0.5518,-2.5004,-0.2815
61261.0,1.0702,2.399,0.6464,0.2932,-2.1178,-0.2006
61271.0,1.063,1.3862,0.893,0.0814,-1.74,-0.1288
61281.0,1.8771,0.1748,1.6065,0.074,-1.2819,-0.0766
61291.0,2.0638,-0.3974,2.5067,0.3049,-0.7487,-0.0862
61301.0,2.1021,-0.0192,3.5219,0.5651,-0.273,-0.1506
61311.0,1.8076,0.486,5.2002,0.7311,0.1011,-0.2123
61321.0,1.7526,1.2426,6.7277,0.8865,0.3453,-0.249
61331.0,1.2641,1.9632,7.9057,0.887,0.4145,-0.2671
61341.0,0.8308,2.4229,9.4068,0.6779,0.3166,-0.2762
61351.0,0.8595,2.6767,10.228,0.4816,0.0788,-0.2522
61361.0,0.7063,2.6097,11.0397,0.3246,-0.1937,-0.207
61371.0,0.7949,2.4062,11.078,0.3443,-0.4981,-0.1288
61381.0,0.8499,2.047,10.3573,0.4624,-0.7923,-0.0436
61391.0,1.4198,2.0758,8.5521,0.5518,-1.0562,0.0149
61401.0,1.8531,2.0016,7.094,0.4917,-1.1669,0.0431
61411.0,2.2075,1.7885,5.7892,0.3682,-1.1605,0.058
61421.0,2.5786,1.5227,4.7956,0.1628,-1.1169,0.0436
61431.0,2.9521,1.1133,3.9983,-0.0543,-1.0531,0.0138
61441.0,3.0789,0.7063,3.4093,-0.1346,-0.9025,-0.0117
61451.0,3.2609,0.589,2.49,0.0282,-0.6614,-0.0106
61461.0,3.6799,0.8116,-0.6584,0.0654,-0.497,-0.0011
61471.0,3.565,0.0239,-3.6751,-0.7008,-0.4773,-0.0553
61481.0,4.8195,-1.2115,-8.4707,-2.0412,-0.6162,-0.2059
61491.0,4.1683,-2.0231,-12.2344,-3.5816,-0.3501,-0.4507
61501.0,3.2489,-1.8028,-15.8736,-4.7007,0.1809,-0.6832
61511.0,1.4605,1.0056,-21.7633,-5.1285,0.9365,-0.7482
61521.0,-0.8212,4.2617,-24.9859,-4.6453,2.4498,-0.4688
61531.0,-6.9935,10.2951,-30.1478,-2.3376,5.3493,0.315
61541.0,-18.3061,10.1203,-24.5334,-0.4417,9.031,1.3925
61551.0,-23.207,4.4939,-11.9016,1.135,12.2317,2.3482
61561.0,-31.5532,-1.2402,8.9807,2.9718,15.2988,2.6845
61571.0,-31.4646,-3.4524,28.6275,4.1196,16.1773,2.2439
61581.0,-14.8608,-0.7111,26.2261,3.6216,13.9323,1.2904
61591.0,-33.8013,-5.5761,58.2294,2.047,14.6805,0.2171
61601.0,-30.7894,2.2122,61.4687,2.0736,11.1153,-0.7524
61611.0,-30.9762,-4.1635,78.4508,-2.7473,4.7523,-2.2609
61621.0,-34.1365,4.6687,78.4508,-2.0598,-0.7811,-2.5376
61631.0,-33.8325,15.1601,60.9348,0.9892,-4.7475,-1.6543
61641.0,-34.6776,14.8297,49.5049,0.5236,-8.3063,-0.8806
61651.0,-32.4055,15.0978,30.6601,0.514,-11.234,-0.0447
61661.0,-25.7712,10.6638,13.8289,0.8998,-12.1178,0.8652
61671.0,-18.2462,5.77,-0.1508,1.6762,-10.9812,1.591
61681.0,-12.9119,2.4541,-10.0245,1.773,-8.8762,1.9113
61691.0,-6.5434,-2.2338,-8.2672,0.8673,-6.5168,1.7826
61701.0,-5.114,-2.9975,-6.2944,0.331,-4.532,1.3867
61711.0,-3.2226,-3.644,-1.3096,-0.8003,-3.6822,0.7971
61721.0,-2.162,-3.6368,3.9456,-1.5623,-3.3938,0.2299
61731.0,-2.3463,-2.0063,6.3183,-1.3367,-3.3039,-0.1517
61741.0,-2.0662,-0.814,7.3741,-0.7412,-3.4332,-0.3182
61751.0,-1.4317,0.6416,5.3271,0.0628,-3.6237,-0.3076
61761.0,-0.7039,2.0446,2.0853,0.423,-3.7455,-0.2352
61771.0,0.3591,2.4229,-0.4166,0.2879,-3.6881,-0.1368
61781.0,1.549,2.2745,-2.4517,0.075,-3.3097,-0.0197
61791.0,2.2529,1.336,-2.5953,-0.1485,-2.6276,0.0788
61801.0,2.5786,0.5746,-1.9465,-0.34,-1.9459,0.1091
61811.0,2.648,0.1221,-0.6297,-0.6258,-1.4298,0.058
61821.0,2.545,-0.6871,1.9154,-0.7625,-0.9546,0.0149
61831.0,2.7964,-1.6855,4.4317,-0.4438,-0.4869,0.0117
61841.0,2.8156,-2.3272,6.596,0.0591,-0.19,-0.0367
61851.0,2.5786,-2.3224,8.0876,0.4895,-0.1628,-0.1618
61861.0,2.4804,-1.8172,8.7221,0.8679,-0.2783,-0.2969
61871.0,2.4325,-0.9553,8.406,1.1238,-0.4417,-0.4124
61881.0,2.399,-0.0838,7.9775,1.1393,-0.6337,-0.5119
61891.0,2.5833,0.7638,7.2425,0.9472,-0.8759,-0.5864
61901.0,2.9137,1.3192,6.3111,0.6433,-1.1079,-0.6247
61911.0,3.4836,1.9824,4.7597,0.3315,-1.2702,-0.6327
61921.0,3.4884,2.332,3.2537,-0.099,-1.3537,-0.621
61931.0,3.6057,2.1763,2.1213,-0.5545,-1.3808,-0.5816
61941.0,4.3048,2.1069,0.3903,-0.7992,-1.293,-0.5284
61951.0,4.6615,2.4924,-2.0087,-0.9722,-1.0499,-0.4746
61961.0,4.786,2.8922,-4.6831,-1.2898,-0.6715,-0.4012
61971.0,4.47,3.1843,-7.4388,-1.8986,-0.2565,-0.3129
61981.0,3.3591,3.1819,-10.2448,-2.8537,0.0793,-0.224
61991.0,3.2609,2.8802,-12.5001,-3.6104,0.5167,-0.0889
62001.0,1.0774,4.4388,-16.5751,-3.3699,1.4436,0.1692
62011.0,-1.573,7.0605,-23.0897,-2.9186,2.5478,0.5529
62021.0,-3.371,10.1849,-28.6514,-2.6068,4.1037,1.0445
62031.0,-11.3222,14.0013,-29.9156,-1.9342,6.8227,1.7831
62041.0,-22.5223,12.7324,-21.1432,-1.0185,10.2331,2.8457
62051.0,-29.7001,4.7597,-4.5179,0.2182,13.0197,3.8903
62061.0,-31.8908,-7.1395,15.2535,2.0859,14.9513,4.3963
62071.0,-31.0911,-15.275,33.2028,3.8924,15.7074,3.7402
62081.0,-6.3686,-9.4451,25.4552,3.9733,13.1863,2.1029
62091.0,-23.8391,-11.236,56.5894,2.6228,14.1574,0.4869
62101.0,-22.6156,-1.7669,58.3251,1.9747,10.092,-0.8924
62111.0,-24.7465,-6.7804,77.7685,-3.1049,3.9765,-2.4961
62121.0,-27.2293,2.5929,72.7119,-2.2955,-1.1105,-2.7372
62131.0,-28.0553,10.0221,57.3866,0.0016,-4.4772,-2.0055
62141.0,-28.3521,9.6702,45.4252,0.0713,-7.6262,-1.2388
62151.0,-26.3314,9.8067,28.6059,0.2155,-10.1554,-0.4704
62161.0,-21.1576,6.0262,14.7962,0.7737,-10.8689,0.3384
62171.0,-15.184,2.8611,1.3144,2.1093,-9.7983,1.0722
62181.0,-11.0373,0.6129,-6.7014,2.5265,-7.8912,1.4426
62191.0,-5.3917,-1.7645,-8.5712,1.9848,-5.9719,1.4191
62201.0,-3.8068,-1.6735,-7.1874,1.3191,-4.0217,1.1494
62211.0,-2.2793,-1.5036,-3.0095,0.1841,-2.9516,0.7338
62221.0,-1.0942,-1.0894,1.3336,-0.6449,-2.4046,0.3384
62231.0,-0.7087,0.1341,3.4644,-0.8695,-2.1061,0.0766
62241.0,-0.5626,0.4597,4.9799,-1.0392,-2.121,-0.0681
62251.0,0.0335,0.4788,5.1164,-1.0568,-2.2695,-0.1357
62261.0,0.5722,0.1844,5.2265,-0.8439,-2.2402,-0.1532
62271.0,0.7207,0.1748,4.9057,-0.3932,-2.0641,-0.1426
62281.0,0.51,0.5794,4.2737,0.016,-1.8927,-0.1368
62291.0,1.1803,1.1947,3.0694,0.2214,-1.7884,-0.124
