time_ms,ax,ay,az,gx,gy,gz
501211.0,3.6727,0.6895,9.6534,-0.0537,0.3959,-0.0043
501221.0,3.7014,0.6656,9.651,-0.1495,0.3773,-0.0149
501231.0,3.79,0.6177,9.5505,-0.166,0.381,-0.016
501241.0,3.8283,0.6991,9.1937,-0.1421,0.4033,-0.0112
501251.0,3.7445,0.7398,8.8897,-0.1447,0.4369,-0.0043
501261.0,3.6488,0.6129,8.679,-0.1889,0.4794,0.0064
501271.0,3.7565,0.1628,8.5138,-0.2794,0.5039,0.0053
501281.0,4.0701,-0.34,8.2049,-0.4555,0.4693,-0.0399
501291.0,4.4676,-0.723,7.6447,-0.7599,0.373,-0.1453
501301.0,4.6974,-0.7566,6.9767,-1.0658,0.3145,-0.2735
501311.0,4.4796,-0.4334,6.4739,-1.2169,0.397,-0.3751
501321.0,4.13,0.1125,6.2321,-1.1031,0.6577,-0.4012
501331.0,3.62,0.6728,6.4332,-0.779,1.0211,-0.34
501341.0,3.0095,1.154,6.9671,-0.3129,1.4309,-0.2017
501351.0,2.6049,1.2546,7.8817,0.2155,1.8454,-0.0037
501361.0,2.2529,0.8811,8.9304,0.6795,2.1811,0.2001
501371.0,1.7669,0.2562,10.4459,0.9871,2.3934,0.3512
501381.0,1.3168,-0.3711,12.1266,1.2271,2.4929,0.4401
501391.0,0.8021,-0.9433,13.793,1.4436,2.4514,0.473
501401.0,0.5004,-1.2163,14.9231,1.7065,2.3014,0.4576
501411.0,0.1748,-1.2091,15.3373,1.9949,2.1242,0.4044
501421.0,-0.0024,-0.984,15.3923,2.228,1.9396,0.3187
501431.0,0.0215,-0.5219,14.9494,2.336,1.7629,0.1969
501441.0,0.0551,0.1628,14.2599,2.2072,1.5772,0.0314
501451.0,0.0599,0.8571,13.5129,1.7725,1.3755,-0.1681
501461.0,-0.1939,1.652,13.1059,1.11,1.201,-0.3773
501471.0,-0.4956,2.0542,13.4291,0.3656,1.0765,-0.5523
501481.0,-0.7422,2.1787,14.2048,-0.2772,0.9935,-0.6705
501491.0,-0.9266,2.0087,15.2319,-0.7939,0.8583,-0.7471
501501.0,-1.0391,1.8699,15.9406,-1.1722,0.647,-0.8019
501511.0,-1.3815,1.7669,16.4697,-1.3915,0.4204,-0.8285
501521.0,-1.8627,1.7454,16.7307,-1.408,0.1905,-0.8179
501531.0,-2.2984,1.8052,16.587,-1.2217,-0.0298,-0.7652
501541.0,-2.4301,1.8483,16.0388,-0.8663,-0.1857,-0.6816
501551.0,-2.3894,1.9082,15.208,-0.4949,-0.3017,-0.5954
501561.0,-2.1093,2.0853,14.3915,-0.2118,-0.397,-0.5358
501571.0,-1.9752,2.3942,13.8002,-0.025,-0.4331,-0.4965
501581.0,-2.0303,2.7821,13.6062,0.067,-0.4448,-0.4629
501591.0,-2.0614,3.0837,13.7619,0.099,-0.4853,-0.4246
501601.0,-2.1237,3.4955,13.9127,0.1224,-0.5433,-0.3725
501611.0,-2.3583,3.7948,14.3054,0.1325,-0.6162,-0.2996
501621.0,-2.6408,4.0031,14.9231,0.1368,-0.7295,-0.2011
501631.0,-2.6528,4.1827,15.6293,0.1634,-0.9126,-0.0819
501641.0,-2.6001,4.3598,15.9717,0.2027,-1.1797,0.0447
501651.0,-2.466,4.5849,16.0196,0.2575,-1.492,0.1799
501661.0,-2.3415,4.9177,15.4139,0.2959,-1.8337,0.3203
501671.0,-2.1524,5.1212,14.6956,0.2128,-2.1992,0.4597
501681.0,-1.9465,5.3391,13.7164,0.0564,-2.5211,0.6045
501691.0,-2.2649,5.3008,13.1873,-0.1958,-2.7994,0.7503
501701.0,-2.6121,5.1739,13.1609,-0.3485,-3.0245,0.92
501711.0,-2.6552,4.8554,12.7036,-0.3725,-3.2709,1.1286
501721.0,-2.2913,4.1396,11.3222,-0.4576,-3.621,1.3308
501731.0,-1.7382,3.3375,9.3541,-0.7173,-4.0026,1.4654
501741.0,-1.2091,2.6384,7.2736,-1.11,-4.3404,1.5197
501751.0,-0.7254,1.9393,5.4851,-1.4697,-4.5751,1.5213
501761.0,-0.3112,1.3838,3.4572,-1.5947,-4.6773,1.5181
501771.0,0.1939,0.8499,1.0247,-1.4931,-4.6437,1.5304
501781.0,1.2809,0.2274,-1.8052,-1.2568,-4.4495,1.557
501791.0,2.3248,-0.2993,-5.0135,-1.044,-4.11,1.574
501801.0,4.2425,-0.5674,-9.1004,-1.0669,-3.7333,1.5538
501811.0,5.1954,-0.8643,-11.7148,-1.3085,-3.1347,1.5011
501821.0,5.2194,-1.2689,-14.6262,-1.3606,-2.2982,1.4947
501831.0,7.7189,-2.0758,-17.3412,-1.5676,-1.5575,1.4447
501841.0,9.3805,-1.9369,-20.5159,-1.9278,-0.7859,1.3186
501851.0,7.6327,-0.486,-23.4344,-2.5818,-0.1149,1.1664
501861.0,7.6926,0.2394,-26.8821,-3.2267,0.3539,1.135
501871.0,7.9272,0.8499,-29.2691,-3.0469,1.1914,1.2271
501881.0,5.4037,3.3686,-35.087,-1.789,2.5776,1.4585
501891.0,2.2266,4.0606,-39.545,-0.6886,4.25,1.7799
501901.0,-3.6727,3.8092,-39.7246,0.1378,6.4779,2.0875
501911.0,-11.7627,3.225,-34.3041,0.9328,9.0821,2.3264
501921.0,-22.1296,2.1165,-23.4225,1.8177,11.6325,2.4972
501931.0,-32.3528,-0.3352,-8.6622,2.7968,13.6226,2.5919
501941.0,-39.7318,-4.9033,9.0501,3.9983,14.9848,2.5063
501951.0,-41.3814,-7.2281,23.0179,5.5462,15.3967,2.0689
501961.0,-39.162,-6.9408,39.6001,6.3162,14.9508,1.185
501971.0,-35.3863,-3.474,52.0643,6.1518,12.8798,0.1086
501981.0,-30.5883,1.1037,61.4065,5.0646,9.6648,-0.9147
501991.0,-27.27,7.118,62.1439,3.8679,6.1954,-1.5224
502001.0,-25.1631,9.6295,59.1128,2.2971,2.7297,-1.6751
502011.0,-23.0346,10.5105,51.1665,1.1957,-0.1373,-1.467
502021.0,-20.8583,9.7803,42.2529,0.8775,-1.7655,-1.0275
502031.0,-17.9517,8.5497,33.775,0.9695,-2.46,-0.5646
502041.0,-15.7706,6.6774,28.0816,0.745,-2.7196,-0.2496
502051.0,-14.2263,4.0462,25.0864,0.34,-2.8883,-0.1027
502061.0,-12.0716,2.0949,21.8806,0.107,-3.1102,-0.1245
502071.0,-10.4172,1.1468,19.417,0.0186,-3.1576,-0.265
502081.0,-9.4164,0.9266,17.8081,-0.0718,-3.1576,-0.4528
502091.0,-8.3677,0.8787,16.9462,-0.1783,-3.2597,-0.6428
502101.0,-7.6303,1.1085,15.6796,-0.0697,-3.3316,-0.7758
502111.0,-7.2281,1.8387,14.0516,0.1442,-3.3927,-0.8578
502121.0,-6.1555,2.8299,11.631,0.332,-3.4609,-0.8838
502131.0,-5.2457,3.5769,9.4643,0.4076,-3.347,-0.8551
502141.0,-4.5538,4.2186,7.932,0.3453,-3.0714,-0.8051
502151.0,-4.2018,4.5083,7.4484,0.1027,-2.7947,-0.7615
502161.0,-3.8618,4.5466,7.2856,-0.166,-2.5206,-0.7114
502171.0,-3.7326,4.3479,7.8937,-0.4182,-2.2423,-0.6683
502181.0,-3.2441,3.9361,9.0716,-0.5906,-2.0407,-0.6311
502191.0,-3.0694,3.7134,10.1921,-0.621,-1.9135,-0.5875
502201.0,-3.2561,3.565,11.0732,-0.5938,-1.9257,-0.5374
502211.0,-3.3471,3.3279,11.5472,-0.538,-2.0635,-0.4741
502221.0,-3.2753,3.0143,11.6238,-0.4315,-2.2588,-0.406
502231.0,-3.0263,2.9401,11.2049,-0.2618,-2.4408,-0.3443
502241.0,-2.8874,3.1077,10.3286,-0.174,-2.6372,-0.2996
502251.0,-2.4157,3.3591,8.7867,-0.3012,-2.8777,-0.2772
502261.0,-1.9513,3.4692,7.4867,-0.6242,-3.0416,-0.2655
502271.0,-1.573,3.5051,6.6655,-0.9924,-3.0878,-0.249
502281.0,-1.2474,3.3112,6.5673,-1.3122,-3.0591,-0.2251
502291.0,-1.1684,3.201,6.5864,-1.4665,-3.0118,-0.1799
502301.0,-1.142,3.0789,6.766,-1.4378,-2.9575,-0.099
502311.0,-1.1468,2.976,6.9049,-1.2356,-2.9107,0.0287
502321.0,-1.166,2.7605,7.2257,-0.9088,-2.8771,0.2006
502331.0,-0.8978,2.6121,6.8905,-0.4853,-2.8723,0.4012
502341.0,-0.4884,2.4636,6.1028,-0.1963,-2.9362,0.5912
502351.0,0.2873,2.3655,4.5945,-0.1474,-3.0288,0.7545
502361.0,1.0942,2.1165,3.1436,-0.4028,-3.0841,0.8689
502371.0,1.9585,1.7286,2.1404,-0.8961,-3.0905,0.9222
502381.0,2.7031,1.2737,1.8004,-1.4771,-3.0277,0.9269
502391.0,3.237,0.7063,2.3272,-1.9763,-2.949,0.9088
502401.0,3.6368,0.3735,2.6647,-2.2248,-2.8942,0.8971
502411.0,3.881,0.2011,2.7174,-2.2466,-2.8558,0.9147
502421.0,4.0103,0.2825,2.217,-2.1018,-2.8074,0.9668
502431.0,3.8044,0.3304,1.5634,-1.9385,-2.7356,1.0525
502441.0,3.5147,0.2969,0.7398,-1.8257,-2.6425,1.16
502451.0,3.5674,-0.0407,0.2418,-1.8315,-2.56,1.267
502461.0,3.9696,-0.5986,-0.17,-1.9576,-2.5414,1.3431
502471.0,4.5442,-1.2737,-0.8978,-2.1551,-2.5909,1.3744
502481.0,5.035,-1.9465,-1.8914,-2.3541,-2.6478,1.3542
502491.0,5.454,-2.5259,-3.1364,-2.5148,-2.6787,1.2787
502501.0,5.8586,-2.8563,-4.7309,-2.6191,-2.6717,1.1488
502511.0,5.6671,-2.9042,-6.6295,-2.626,-2.5861,0.9966
502521.0,5.3127,-2.7653,-8.6,-2.4408,-2.3583,0.8493
502531.0,5.3151,-2.2434,-10.8984,-1.9699,-1.9672,0.7247
502541.0,5.5474,-0.9026,-13.975,-1.2638,-1.4293,0.6359
502551.0,6.1268,0.5148,-17.8751,-0.5459,-0.77,0.6252
502561.0,5.7988,2.5043,-22.7713,-0.0383,0.0415,0.6784
502571.0,4.7405,3.8906,-26.4128,0.0223,0.9567,0.787
502581.0,3.6105,5.4803,-30.2364,0.0782,2.1976,0.9807
502591.0,0.1365,6.7828,-31.0815,0.1506,3.9025,1.2702
502601.0,-4.0007,7.6734,-28.8549,0.3943,5.7708,1.6804
502611.0,-9.019,8.7436,-24.6028,1.0137,7.6348,2.2061
502621.0,-15.2199,8.3989,-18.9094,1.9449,9.2295,2.8394
502631.0,-22.0698,6.8187,-13.5703,3.4678,10.7614,3.488
502641.0,-30.6697,3.1125,-7.5776,5.5084,12.543,4.0127
502651.0,-37.0287,-3.2226,0.7853,7.9998,14.7294,4.1792
502661.0,-40.7757,-7.0054,9.6319,10.0798,16.6594,3.6173
502671.0,-40.6344,-8.4467,24.7345,9.7355,17.1191,2.3014
502681.0,-40.1005,-8.4324,46.6654,8.2015,15.8048,0.7348
502691.0,-36.7773,-2.7773,57.1975,7.5113,12.5765,-0.5965
502701.0,-32.0201,5.1499,61.792,7.1468,9.1545,-1.4628
502711.0,-28.1127,10.4794,61.3203,6.4167,5.7479,-1.8044
502721.0,-24.6315,14.212,55.014,4.4011,2.0279,-1.9784
502731.0,-23.3794,14.5256,48.2958,2.0407,-0.7758,-1.9454
502741.0,-21.7394,13.0628,40.4931,0.3411,-2.7787,-1.706
502751.0,-19.642,10.6087,32.3816,-0.3608,-3.8434,-1.3649
502761.0,-17.1353,8.8226,23.9995,-0.5555,-4.2532,-1.0626
502771.0,-14.7363,7.0557,18.3875,-0.8115,-4.1776,-0.8652
502781.0,-12.3852,6.3111,14.0348,-1.0158,-3.8137,-0.7827
502791.0,-10.8314,5.6647,12.0931,-1.2957,-3.2704,-0.7583
502801.0,-10.0149,5.1906,12.141,-1.5186,-2.7196,-0.7333
502811.0,-9.2057,4.3742,12.9742,-1.6437,-2.4254,-0.6848
502821.0,-8.3007,3.7421,13.4578,-1.5277,-2.3072,-0.6188
502831.0,-7.5322,3.3854,13.1729,-1.293,-2.2503,-0.538
502841.0,-6.8378,3.1005,12.4953,-1.1504,-2.2913,-0.4566
502851.0,-6.2656,3.0239,11.1713,-1.1196,-2.4115,-0.3815
502861.0,-5.6455,2.8754,9.4236,-1.1627,-2.4812,-0.299
502871.0,-4.9009,2.4684,7.58,-1.2526,-2.4163,-0.2171
502881.0,-4.5226,1.8627,6.4452,-1.3909,-2.1811,-0.1559
502891.0,-4.1324,1.0175,6.2177,-1.5378,-1.8603,-0.1266
502901.0,-3.5841,0.1652,6.6319,-1.6256,-1.541,-0.1373
502911.0,-3.1627,-0.4621,7.4962,-1.5735,-1.2265,-0.1772
502921.0,-3.1532,-0.8068,8.6143,-1.3963,-0.9562,-0.2256
502931.0,-3.3399,-0.9242,9.5984,-1.126,-0.7854,-0.2671
502941.0,-3.5889,-0.9697,10.8984,-0.7785,-0.6816,-0.299
502951.0,-3.3279,-0.7087,11.4227,-0.4028,-0.7114,-0.3177
502961.0,-2.9137,-0.486,11.6598,-0.2043,-0.8897,-0.34
502971.0,-2.6097,-0.1149,11.212,-0.1639,-1.118,-0.3677
502981.0,-2.3391,0.2418,10.7931,-0.3081,-1.3351,-0.4113
502991.0,-1.8986,0.5842,10.3525,-0.5741,-1.5256,-0.4651
503001.0,-1.5347,0.905,9.9407,-0.9243,-1.6809,-0.5151
503011.0,-1.585,1.2833,9.8761,-1.3063,-1.806,-0.5502
503021.0,-1.9728,1.5443,10.0748,-1.6176,-1.9199,-0.5444
503031.0,-2.5762,1.5945,10.6757,-1.7065,-1.9986,-0.4762
503041.0,-3.225,1.4748,11.5401,-1.5059,-2.047,-0.3427
503051.0,-3.4429,1.1947,12.0979,-1.1233,-2.1551,-0.1655
503061.0,-3.2657,0.8428,11.9471,-0.7891,-2.4142,-0.0048
503071.0,-2.7749,0.5986,10.8888,-0.6306,-2.7861,0.0984
503081.0,-2.2625,0.5818,9.1267,-0.6699,-3.1283,0.1368
503091.0,-1.6999,0.7183,7.4316,-0.9009,-3.3374,0.1176
503101.0,-0.9601,0.9625,6.4907,-1.242,-3.3837,0.0686
503111.0,-0.7973,1.3024,6.9264,-1.5905,-3.3528,0.0325
503121.0,-0.9529,1.5874,7.4843,-1.7916,-3.4061,0.0734
503131.0,-0.7254,1.7549,7.5298,-1.8555,-3.5683,0.2011
503141.0,-0.826,1.7789,7.4867,-1.8831,-3.7668,0.3831
503151.0,-1.2546,1.743,6.7756,-1.9571,-4.0797,0.6077
503161.0,-1.0295,1.2282,5.3965,-2.1519,-4.5517,0.8445
503171.0,-0.407,0.6249,2.6887,-2.3535,-5.0396,1.0589
503181.0,0.3304,-0.1724,-0.2179,-2.4812,-5.3435,1.235
503191.0,1.7166,-0.7661,-3.4788,-2.4158,-5.3839,1.3862
503201.0,3.213,-1.2953,-6.62,-2.229,-5.1791,1.5181
503211.0,4.3431,-1.1349,-11.2288,-2.0343,-4.8273,1.6378
503221.0,5.0254,-0.6057,-16.3763,-2.2178,-4.325,1.7475
503231.0,4.6208,-0.7494,-19.7498,-2.7856,-3.5534,1.8901
503241.0,6.1842,-4.7262,-19.8096,-3.2023,-2.6531,1.9784
503251.0,7.9942,-5.3726,-21.7824,-2.6563,-1.6325,1.8443
503261.0,7.2401,-5.8035,-22.4696,-1.8156,-0.7338,1.6831
503271.0,6.3231,-4.4125,-24.4759,-0.3629,0.1479,1.5357
503281.0,6.0908,-1.7454,-28.7472,1.6389,1.2345,1.475
503291.0,4.0414,2.4924,-35.427,3.5529,2.7079,1.5155
503301.0,-0.9529,6.7852,-40.1005,4.5895,4.6906,1.6873
503311.0,-8.1331,9.4355,-39.9951,4.8726,7.2213,2.0162
503321.0,-17.4011,9.0046,-34.2706,4.7145,9.8893,2.4126
503331.0,-27.0497,5.1787,-24.2461,4.6177,12.3509,2.7361
503341.0,-34.7973,-0.2322,-11.6981,5.0428,14.399,2.7851
503351.0,-39.0734,-4.4412,4.6998,5.9751,15.9479,2.395
503361.0,-38.9752,-3.9792,16.2901,7.175,16.4322,1.6852
503371.0,-38.8938,-2.7174,36.1093,6.8621,15.643,0.6763
503381.0,-35.4366,2.2146,48.315,6.4439,13.0059,-0.183
503391.0,-30.5548,7.6303,52.706,5.9213,9.61,-0.7492
503401.0,-28.8573,11.4012,53.0938,4.9646,6.4476,-0.9376
503411.0,-26.4655,12.4211,50.9127,3.8333,3.5221,-0.8099
503421.0,-24.0785,12.1793,44.4531,3.0751,1.1174,-0.4927
503431.0,-21.3084,10.1299,38.1492,2.4312,-0.5076,-0.1187
503441.0,-19.2853,9.2177,30.9379,1.9098,-1.5862,0.2075
503451.0,-15.6461,6.3351,22.6444,1.1584,-2.3525,0.4651
503461.0,-13.1514,4.2306,17.3747,0.2118,-2.3461,0.5007
503471.0,-12.1793,2.6217,15.4402,-0.729,-1.9023,0.4826
503481.0,-11.6885,-0.2298,16.7331,-1.4346,-1.5479,0.4661
503491.0,-11.1953,-1.4413,17.2526,-1.4447,-1.3532,0.4257
503501.0,-11.1857,-1.7645,18.1313,-1.0169,-1.1334,0.4214
503511.0,-10.92,-2.0494,18.7897,-0.5694,-1.1754,0.4454
503521.0,-9.8593,-2.3176,17.8775,-0.3294,-1.6096,0.4581
503531.0,-9.0046,-2.7869,16.587,-0.2299,-2.0593,0.4353
503541.0,-8.102,-3.1364,14.2359,-0.1245,-2.4025,0.3964
503551.0,-7.3239,-3.5626,11.8154,-0.1133,-2.5946,0.3166
503561.0,-6.5481,-3.8475,9.3972,-0.1942,-2.6137,0.1799
503571.0,-6.122,-4.0677,7.7189,-0.3448,-2.3988,-0.0043
503581.0,-5.6767,-4.2808,7.1156,-0.522,-2.0321,-0.2256
503591.0,-5.4037,-4.379,7.9966,-0.6965,-1.6299,-0.4688
503601.0,-5.5952,-4.3263,9.9407,-0.6832,-1.2654,-0.6923
503611.0,-5.5665,-4.2282,11.8609,-0.4949,-1.1435,-0.8934
503621.0,-5.3271,-3.6847,13.0269,-0.1298,-1.2042,-1.0722
503631.0,-5.2936,-2.6815,13.2639,0.3166,-1.3425,-1.2095
503641.0,-5.3606,-1.5993,12.9119,0.6412,-1.533,-1.2962
503651.0,-5.6719,-0.5267,12.1003,0.7678,-1.6921,-1.3361
503661.0,-5.9711,0.1484,11.7819,0.5896,-1.8374,-1.3665
503671.0,-5.9975,0.5124,11.9973,0.2347,-1.9784,-1.4122
503681.0,-6.0597,0.8092,12.4666,-0.1655,-2.1173,-1.4729
503691.0,-6.2345,1.0056,13.4698,-0.547,-2.2663,-1.5458
503701.0,-6.1124,1.4844,14.9039,-0.8418,-2.4759,-1.6096
503711.0,-6.3015,2.0997,16.4075,-1.0435,-2.8527,-1.624
503721.0,-6.6248,2.7366,16.9126,-1.1073,-3.455,-1.5474
503731.0,-6.8091,3.3591,15.9597,-0.9711,-4.0967,-1.3734
503741.0,-7.0509,3.9552,13.6757,-0.7646,-4.6453,-1.1121
503751.0,-6.9695,4.0414,10.8769,-0.7322,-5.0923,-0.812
503761.0,-6.3303,3.6751,8.1331,-0.9328,-5.4015,-0.5481
503771.0,-5.4205,2.8706,6.1986,-1.318,-5.5297,-0.364
503781.0,-4.3646,1.9656,5.1571,-1.7773,-5.5622,-0.2804
503791.0,-3.2968,1.2258,4.9799,-2.1955,-5.5872,-0.2863
503801.0,-2.5666,0.9529,4.8028,-2.3668,-5.617,-0.3076
503811.0,-2.1021,0.7039,4.4796,-2.2934,-5.6478,-0.2975
503821.0,-1.4054,0.7709,3.3854,-2.0199,-5.6718,-0.2522
503831.0,-0.9242,1.0391,1.9058,-1.7315,-5.6324,-0.1708
503841.0,-0.6297,1.2426,0.5267,-1.5825,-5.5648,-0.0665
503851.0,-0.0766,1.1827,-0.6057,-1.5761,-5.4754,0.042
503861.0,0.3304,1.1301,-1.6376,-1.6192,-5.3648,0.1453
503871.0,0.668,1.0175,-2.897,-1.6426,-5.2174,0.2543
503881.0,1.4054,0.838,-4.3479,-1.6506,-5.021,0.3698
503891.0,2.6073,0.5986,-5.9616,-1.6272,-4.7124,0.4864
503901.0,3.8211,0.3208,-7.7835,-1.7001,-4.3873,0.5757
503911.0,5.1858,-0.1556,-9.7348,-1.9044,-4.0536,0.6311
503921.0,6.3638,-0.7853,-10.5608,-2.0039,-3.5173,0.6593
503931.0,7.3023,-1.2594,-10.4172,-1.7687,-2.8032,0.6859
503941.0,7.6567,-1.6448,-9.912,-1.2185,-2.1226,0.7327
503951.0,7.6782,-1.8004,-9.912,-0.3549,-1.4697,0.8093
503961.0,7.0509,-1.4485,-10.4387,0.6673,-0.7604,0.9051
503971.0,6.45,-0.9792,-11.8369,1.4692,-0.132,1.0179
503981.0,6.3686,-1.0415,-14.0875,1.7608,0.397,1.1142
503991.0,6.5625,-1.913,-15.943,1.5751,1.0147,1.1281
504001.0,6.5027,-2.9951,-16.192,1.2435,1.8571,1.0163
504011.0,6.213,-3.4692,-14.9231,1.0775,2.8058,0.8014
504021.0,4.6256,-2.6839,-13.3118,1.2345,3.7296,0.572
504031.0,2.4181,-0.9026,-11.959,1.6059,4.5501,0.4145
504041.0,0.7494,0.6656,-10.6422,2.0375,5.245,0.3932
504051.0,-1.0295,1.9106,-9.3087,2.5563,5.9017,0.4895
504061.0,-2.9018,2.9425,-8.2265,3.206,6.5492,0.646
504071.0,-5.1691,4.1252,-7.9727,3.8961,7.1878,0.8163
504081.0,-8.4731,5.4229,-8.4324,4.4852,7.8827,0.978
504091.0,-12.5145,6.213,-8.5066,4.8444,8.6926,1.1313
504101.0,-16.271,6.3494,-7.9607,5.0104,9.6121,1.2627
504111.0,-20.6476,5.5713,-6.1531,4.9939,10.5832,1.3292
504121.0,-25.1176,3.4716,-2.2218,5.0375,11.641,1.2957
504131.0,-29.8341,1.391,3.2705,5.385,12.7138,1.0876
504141.0,-33.186,0.5507,10.4459,5.8751,13.4949,0.6204
504151.0,-32.4223,1.5227,20.5494,6.1571,13.7306,-0.017
504161.0,-32.5324,5.0254,27.7153,6.0868,13.0639,-0.6949
504171.0,-30.7679,8.3462,36.2626,5.2663,11.7437,-1.2563
504181.0,-28.3043,9.7468,43.2225,3.9025,9.7989,-1.5266
504191.0,-28.5844,10.1155,47.6949,2.3945,7.4033,-1.615
504202.0,-26.8653,10.7883,49.2894,1.0695,4.7789,-1.607
504211.0,-24.3059,10.4579,49.6414,0.1729,2.4025,-1.4011
504221.0,-23.4344,9.4212,46.493,-0.4832,-0.0968,-1.0988
504231.0,-21.2509,8.8729,39.059,-0.7434,-2.2945,-0.7689
504241.0,-20.7386,8.2337,31.874,-0.7013,-3.5034,-0.4129
504251.0,-18.3827,6.687,24.8997,-0.8626,-4.5336,-0.1123
504261.0,-16.7235,5.1092,17.8584,-0.9253,-4.9848,0.1101
504271.0,-14.1378,3.5913,12.1266,-1.019,-4.8752,0.2432
504281.0,-12.3589,1.8076,9.1961,-1.1994,-4.3926,0.2426
504291.0,-10.8122,0.5722,7.185,-1.2994,-3.8557,0.1352
504301.0,-9.4092,-0.2682,6.0645,-1.3484,-3.2597,-0.0239
504311.0,-8.5258,-0.8045,6.3614,-1.2755,-2.5515,-0.1894
504321.0,-7.9487,-0.7853,7.1371,-1.1111,-1.8943,-0.3347
504331.0,-8.1259,-0.5986,8.8466,-1.0126,-1.3915,-0.4534
504341.0,-8.1977,-0.7302,10.6757,-0.953,-1.0765,-0.5167
504351.0,-8.0397,-1.3455,12.8688,-0.9365,-0.9663,-0.563
504361.0,-7.8578,-1.8938,14.8033,-0.9035,-1.0616,-0.6417
504371.0,-7.8578,-2.0279,16.3979,-0.8125,-1.2989,-0.7583
504381.0,-8.1475,-1.6161,17.1999,-0.629,-1.6309,-0.878
504391.0,-8.4515,-0.8045,17.1114,-0.4204,-1.997,-0.9727
504401.0,-8.6095,0.2227,16.4123,-0.356,-2.3865,-1.0397
504411.0,-8.5688,0.9768,15.536,-0.531,-2.7883,-1.0791
504421.0,-8.5138,1.4054,14.9638,-0.8924,-3.1783,-1.1116
504431.0,-8.5593,1.4916,15.129,-1.2388,-3.5215,-1.1265
504441.0,-8.6574,1.5012,15.2271,-1.3654,-3.8759,-1.1116
504451.0,-8.4539,1.7023,14.5113,-1.268,-4.275,-1.0594
504461.0,-8.3653,2.0542,12.9861,-1.0408,-4.6171,-0.9551
504471.0,-8.2624,2.3056,11.0612,-0.8088,-4.8598,-0.7971
504481.0,-7.7476,2.2529,9.2464,-0.6412,-4.9784,-0.6114
504491.0,-6.9887,2.0351,7.6543,-0.522,-4.9529,-0.4268
504501.0,-6.1651,1.6281,6.5362,-0.5204,-4.8821,-0.2783
504511.0,-5.0637,1.1181,5.6264,-0.6412,-4.7917,-0.1862
504521.0,-4.2473,0.6895,5.3678,-0.8572,-4.6858,-0.1543
504531.0,-3.8355,0.158,5.7581,-1.0855,-4.6507,-0.1575
504541.0,-3.1867,-0.2658,5.6695,-1.1297,-4.7092,-0.166
504551.0,-2.4229,-0.4118,4.8291,-0.9621,-4.7241,-0.1639
504561.0,-1.6185,-0.2562,3.462,-0.6971,-4.6102,-0.1373
504571.0,-0.6632,-0.0862,2.411,-0.5875,-4.4272,-0.0952
504581.0,0.2682,-0.0599,2.0949,-0.6502,-4.2292,-0.0479
504591.0,0.893,-0.2729,2.2075,-0.8056,-4.0919,-0.0074
504601.0,1.2067,-0.5387,2.3463,-0.9759,-4.0659,0.0064
504611.0,1.3072,-0.6632,1.968,-1.0754,-4.1015,-0.0011
504621.0,1.652,-0.7614,1.142,-1.1244,-4.1409,-0.016
504631.0,2.2458,-0.8164,0.0072,-1.1515,-4.1414,-0.0388
504641.0,3.3184,-0.8643,-1.3982,-1.2052,-4.0925,-0.0633
504651.0,4.3838,-0.9912,-2.5187,-1.2584,-3.9265,-0.0857
504661.0,5.126,-1.0846,-3.3615,-1.2372,-3.6168,-0.0995
504671.0,5.3822,-1.1971,-3.5841,-1.1478,-3.2363,-0.107
504681.0,5.4013,-1.221,-3.7373,-0.9727,-2.8638,-0.1022
504691.0,5.0039,-1.3216,-4.0294,-0.754,-2.5009,-0.0798
504701.0,5.1619,-1.7837,-4.0821,-0.5044,-2.0992,-0.0468
504711.0,5.849,-2.3727,-4.0462,-0.2847,-1.6884,-0.0543
504721.0,6.7852,-2.8754,-3.8499,-0.2144,-1.3478,-0.1256
504731.0,7.5537,-3.134,-3.5698,-0.3161,-1.1073,-0.2703
504741.0,7.8961,-2.8395,-3.4477,-0.4997,-0.9376,-0.4629
504751.0,7.6854,-2.2625,-3.474,-0.7391,-0.8397,-0.6588
504761.0,7.5848,-1.5634,-3.7972,-0.9493,-0.7652,-0.8232
504771.0,7.2185,-0.747,-4.0821,-1.011,-0.5976,-0.9328
504781.0,6.5745,0.2634,-4.4796,-0.8838,-0.3129,-0.97
504791.0,6.0932,1.142,-4.8363,-0.68,0.0176,-0.9269
504801.0,6.1172,1.731,-5.2816,-0.4518,0.3773,-0.8109
504811.0,6.031,2.0039,-5.387,-0.2171,0.7998,-0.6561
504821.0,5.8083,2.1428,-5.4468,0.0532,1.2648,-0.4895
504831.0,6.3518,2.3559,-5.7988,0.3304,1.7294,-0.3342
504841.0,5.928,2.7485,-6.1938,0.531,2.2099,-0.191
504851.0,5.6455,4.2329,-7.5705,0.6247,2.7297,-0.0479
504861.0,4.3239,5.217,-7.331,0.2836,3.2512,0.1495
504871.0,1.9465,6.1411,-6.687,-0.274,3.6519,0.4347
504881.0,0.8859,6.3446,-5.6647,-0.8881,3.8759,0.8067
504891.0,-0.0168,5.5138,-3.8307,-1.3111,4.0334,1.2728
504901.0,-1.221,4.5466,-2.7964,-1.2084,4.176,1.7789
504911.0,-3.1627,4.1204,-2.5498,-0.5146,4.466,2.2727
504921.0,-4.5418,4.1707,-3.4333,0.588,4.9476,2.7319
504931.0,-5.4708,4.5705,-5.3247,1.7395,5.6239,3.1464
504941.0,-7.5705,4.8602,-7.2305,2.5403,6.5099,3.5109
504951.0,-11.4227,4.1156,-7.9823,2.75,7.4421,3.8158
504961.0,-16.3093,1.7885,-6.0956,2.7845,8.5383,4.0483
504971.0,-21.6149,-1.5634,-1.731,3.3864,9.9542,4.1675
504981.0,-25.9364,-5.1691,4.7932,4.7949,11.5367,4.0451
504991.0,-27.2843,-8.406,12.2344,6.6014,12.925,3.5359
505001.0,-29.736,-6.9791,18.6413,7.6204,13.4342,2.5004
505011.0,-26.4344,-4.7142,26.511,7.2766,12.9708,1.2856
505021.0,-27.7057,-1.2594,37.4573,5.9911,11.9284,0.2112
505031.0,-28.4407,2.15,45.2097,4.4639,9.6685,-0.5614
505041.0,-26.3099,3.8235,51.1641,3.7636,7.4501,-0.9195
505051.0,-23.2764,5.8873,52.3779,3.3917,5.228,-1.0738
505061.0,-21.3371,6.5266,51.4394,1.9848,2.237,-1.2813
505071.0,-21.1815,9.2009,45.4731,0.944,-0.299,-1.3904
505081.0,-20.31,10.3453,39.1452,0.0921,-2.0327,-1.2531
505091.0,-18.9453,9.7516,33.0065,-0.6141,-3.2874,-0.9621
505101.0,-17.7027,8.4324,26.5613,-1.0509,-4.0643,-0.6327
505111.0,-16.089,6.2704,21.3754,-1.2914,-4.3271,-0.3363
505121.0,-14.0444,4.5274,16.6852,-1.3638,-4.201,-0.1362
505131.0,-12.7898,2.466,15.2223,-1.4298,-3.7461,-0.0633
505141.0,-11.5401,1.0127,14.3748,-1.3984,-3.4023,-0.1112
505151.0,-10.4076,-0.0431,14.0204,-1.3941,-3.2416,-0.2645
505161.0,-9.5337,-0.1915,13.4889,-1.3292,-3.1618,-0.4715
505171.0,-8.7149,0.3519,12.7683,-1.26,-3.1405,-0.671
505181.0,-8.0302,1.154,11.7603,-1.2286,-3.1427,-0.8237
505191.0,-7.7309,1.9609,10.4507,-1.2563,-3.0953,-0.9062
505201.0,-7.4891,2.1141,10.1394,-1.3202,-2.9293,-0.9222
505211.0,-7.094,2.1452,10.7236,-1.3,-2.6909,-0.8977
505221.0,-6.6224,1.7526,12.3301,-1.2255,-2.5674,-0.8546
505231.0,-6.189,1.5347,13.0556,-1.044,-2.6691,-0.8136
505241.0,-5.964,1.5682,12.8162,-0.837,-2.8936,-0.7833
505251.0,-5.6599,1.8459,11.8274,-0.6332,-3.0916,-0.7503
505261.0,-5.3726,2.2577,10.6949,-0.497,-3.1623,-0.7019
505271.0,-5.035,2.6791,9.8019,-0.4986,-3.1528,-0.6465
505281.0,-4.7118,2.964,9.3302,-0.6545,-3.1214,-0.5859
505291.0,-4.3431,3.0574,9.3996,-0.9275,-3.0836,-0.5225
505301.0,-4.0247,3.0598,9.9431,-1.2765,-3.1363,-0.4576
505311.0,-3.79,2.7749,10.4555,-1.648,-3.3651,-0.3847
505321.0,-3.6943,2.411,10.4244,-1.8576,-3.6923,-0.2964
505331.0,-3.644,2.1237,9.5792,-1.8001,-3.9621,-0.1756
505341.0,-3.4213,1.9321,8.1403,-1.5655,-4.1255,-0.0282
505351.0,-2.8587,1.8052,6.4404,-1.2941,-4.1755,0.1266
505361.0,-2.0399,1.6807,4.6902,-1.1052,-4.0903,0.2746
505371.0,-1.3958,1.5514,3.6775,-1.118,-3.9153,0.3991
505381.0,-0.8236,1.166,3.4836,-1.3037,-3.7541,0.506
505391.0,-0.2251,0.3974,3.9409,-1.5495,-3.6785,0.5901
505401.0,0.2801,-0.2274,3.7637,-1.7022,-3.6817,0.6465
505411.0,0.5842,-0.8787,3.462,-1.7895,-3.704,0.6854
505421.0,0.9074,-1.3503,3.0598,-1.7895,-3.6875,0.7088
505431.0,1.3815,-1.6472,2.4277,-1.7166,-3.6258,0.7285
505441.0,1.8483,-1.9656,2.3463,-1.5798,-3.5114,0.7529
505451.0,2.0183,-2.1308,1.9225,-1.3968,-3.388,0.779
505461.0,2.296,-2.4014,1.4772,-1.2978,-3.3459,0.8014
505471.0,2.8323,-2.794,0.7135,-1.2856,-3.3699,0.82
505481.0,3.4046,-3.1747,-0.7805,-1.3063,-3.3816,0.8248
505491.0,4.1348,-3.9576,-2.6169,-1.4564,-3.3752,0.8003
505501.0,5.3127,-4.8459,-4.5921,-1.6144,-3.2592,0.7253
505511.0,6.1842,-5.8107,-5.8083,-1.6038,-2.8585,0.6114
505521.0,6.7588,-6.3949,-6.3829,-1.3372,-2.2514,0.4709
505531.0,7.0749,-6.5745,-6.359,-0.8966,-1.5889,0.3214
505541.0,7.0605,-6.2177,-6.0597,-0.3677,-0.9376,0.1878
505551.0,6.8761,-5.6048,-5.7557,0.0995,-0.3799,0.0825
505561.0,6.9408,-5.0709,-5.2361,0.389,0.0341,0.0059
505571.0,6.9767,-4.6543,-4.9225,0.555,0.3608,-0.0399
505581.0,7.2568,-4.367,-4.6448,0.6194,0.6332,-0.0718
505591.0,7.2209,-3.8403,-4.4053,0.6481,0.9269,-0.0878
505601.0,6.7828,-3.3926,-3.96,0.5981,1.2063,-0.0729
505611.0,6.2944,-3.2633,-3.0143,0.5172,1.4234,-0.0277
505621.0,5.7126,-3.1484,-2.1308,0.5667,1.607,0.0394
505631.0,5.0781,-3.0239,-1.7645,0.7396,1.748,0.1112
505641.0,4.4221,-2.727,-2.0159,0.9057,1.8416,0.1639
505651.0,3.7565,-2.4972,-2.6432,0.9136,1.9028,0.1852
505661.0,3.1987,-2.3296,-3.7134,0.6981,1.9177,0.1666
505671.0,2.727,-2.3511,-4.8985,0.2847,1.9257,0.1
505681.0,2.3224,-2.2505,-6.0932,-0.1681,2.0077,-0.0138
505691.0,1.5419,-1.5275,-7.4172,-0.5444,2.2162,-0.1479
505701.0,1.1756,-0.1556,-8.734,-0.8647,2.4839,-0.248
505711.0,0.5052,1.7765,-10.2161,-1.0584,2.9027,-0.2256
505721.0,-1.3455,4.1061,-11.2144,-1.0765,3.5737,-0.0287
505731.0,-3.9552,6.1555,-11.1737,-0.9951,4.3112,0.364
505741.0,-6.9504,7.4364,-10.3789,-0.5944,5.1147,0.9578
505751.0,-10.1634,7.5848,-9.2584,0.4193,6.173,1.7006
505761.0,-13.3932,6.6008,-8.1594,1.8682,7.374,2.4419
505771.0,-17.8679,5.5138,-7.4148,3.5896,8.8325,3.0187
505781.0,-23.4895,4.0965,-5.5952,5.1391,10.5534,3.3449
505791.0,-28.309,1.6544,-1.0558,5.9852,12.1433,3.3624
505801.0,-32.0033,-0.9792,6.5745,5.9453,13.2847,3.0362
505811.0,-34.4071,-4.0989,17.6884,4.9779,13.5556,2.4041
505821.0,-32.5564,-6.2537,31.2276,3.9169,12.8761,1.591
505831.0,-30.6649,-6.3686,43.6295,4.1116,11.74,0.8099
505841.0,-27.9762,-2.0973,48.4898,4.5783,9.5429,0.0314
505851.0,-25.7832,3.7493,48.6765,4.3165,6.9196,-0.5566
505861.0,-24.3275,7.9009,48.1258,3.1927,4.2601,-0.8035
505871.0,-22.2062,10.5393,44.0796,2.0497,1.9741,-0.6417
505881.0,-22.3499,10.0796,39.8491,1.0419,0.1282,-0.2235
505891.0,-22.5869,7.604,33.8037,0.5555,-1.2462,0.3315
505901.0,-21.5311,2.6887,29.6618,0.8434,-1.7964,0.8493
505911.0,-18.8088,-1.6544,26.0609,1.7139,-1.9108,1.0914
505921.0,-16.18,-3.6176,22.6156,2.5669,-1.8597,0.9599
505931.0,-14.4729,-3.1819,19.8144,2.866,-1.8214,0.5422
505941.0,-12.8497,-1.063,17.2502,2.4605,-1.8688,0.0005
505951.0,-12.0859,0.9625,16.5894,1.4495,-1.9188,-0.5247
505961.0,-11.4634,2.7342,16.6229,0.1506,-2.112,-0.9466
505971.0,-11.4754,3.5674,18.3252,-1.0711,-2.4248,-1.226
505981.0,-11.5353,4.2617,19.1584,-1.7283,-2.9346,-1.3239
505991.0,-11.7675,4.7118,18.5072,-1.7592,-3.4646,-1.2292
506001.0,-12.1506,4.7788,17.1233,-1.367,-3.8945,-0.9839
506011.0,-11.5688,4.3574,14.698,-0.8147,-4.2798,-0.6689
506021.0,-10.5776,3.6488,11.9375,-0.2724,-4.5059,-0.3672
506031.0,-9.2512,3.1651,8.6383,0.1266,-4.5437,-0.132
506041.0,-8.0134,2.8467,5.8778,0.1916,-4.4107,0.0106
506051.0,-6.596,2.6456,3.7373,-0.0782,-4.1414,0.0777
506061.0,-5.8419,2.3056,3.0742,-0.5481,-3.72,0.0734
506071.0,-5.8323,1.98,3.7421,-1.0445,-3.3076,0.0176
506081.0,-5.9951,1.5227,5.3367,-1.318,-2.9256,-0.0255
506091.0,-6.0669,0.9242,7.4819,-1.2856,-2.6398,-0.0404
506101.0,-5.6455,0.5076,9.1195,-1.019,-2.5781,-0.0436
506111.0,-4.9081,0.5052,9.7683,-0.6646,-2.7127,-0.0442
506121.0,-4.3311,0.7805,9.3757,-0.3773,-2.9373,-0.0378
506131.0,-4.0223,1.3024,8.3318,-0.2426,-3.1405,-0.016
506141.0,-3.6751,1.6137,7.1754,-0.3464,-3.2996,0.0154
506151.0,-3.4189,1.6544,6.1148,-0.5922,-3.3651,0.049
506161.0,-3.2106,1.4054,5.7509,-0.8759,-3.3012,0.0686
506171.0,-2.794,1.0894,6.3135,-1.1121,-3.1544,0.0718
506181.0,-2.794,0.7925,7.9703,-1.218,-3.0479,0.0777
506191.0,-2.8419,0.6081,9.1195,-1.1222,-3.1629,0.1176
506201.0,-2.5067,0.4597,9.1554,-0.8493,-3.4305,0.1916
506211.0,-1.98,0.5291,7.8314,-0.4943,-3.6838,0.2879
506221.0,-1.4006,0.6776,5.7868,-0.2645,-3.8429,0.3831
506231.0,-0.2753,0.9146,3.3974,-0.3097,-3.8988,0.4571
506241.0,0.7542,0.917,1.4126,-0.6577,-3.7817,0.5034
506251.0,1.4461,0.6704,1.0056,-1.2377,-3.505,0.5082
506261.0,1.4317,0.3567,2.4565,-1.7996,-3.2076,0.505
506271.0,1.5826,-0.3089,4.4963,-2.1125,-3.132,0.5348
506281.0,1.7549,-0.9768,5.9185,-1.9406,-3.1964,0.6098
506291.0,1.7286,-1.3647,6.2297,-1.3308,-3.2858,0.7306
506301.0,1.9704,-1.6233,5.3247,-0.5704,-3.4252,0.8817
506311.0,2.6456,-1.7885,3.6727,0.1261,-3.5364,1.0318
506321.0,3.3543,-1.6472,1.5658,0.6646,-3.5024,1.1701
506331.0,3.7996,-1.2809,0.0958,0.9551,-3.3172,1.2882
506341.0,4.0366,-0.8906,-0.5459,1.0589,-3.0549,1.4064
506351.0,4.1635,-0.8092,-0.3376,1.0807,-2.7984,1.5484
506361.0,4.2353,-1.0918,0.0622,1.1201,-2.6382,1.7012
506371.0,4.6759,-1.5012,-0.1149,1.2116,-2.5893,1.8459
506381.0,5.1308,-1.9776,-0.8906,1.3101,-2.5494,1.9624
506391.0,5.6072,-2.4708,-2.6049,1.2244,-2.5605,2.0279
506401.0,6.3375,-3.3208,-5.0159,0.7327,-2.7116,2.0039
506411.0,7.2951,-4.4125,-8.6598,-0.1027,-2.8862,1.8688
506421.0,7.7572,-5.8658,-12.6174,-1.2515,-2.9516,1.5836
506431.0,8.2217,-7.422,-16.9294,-2.5206,-2.8963,1.1329
506441.0,10.422,-9.0237,-20.3459,-3.537,-2.5791,0.5529
506451.0,9.7588,-7.5274,-23.8439,-3.4758,-1.5123,-0.0362
506461.0,7.197,-4.0055,-25.7089,-2.8287,-0.3826,-0.4922
506471.0,3.0718,0.9697,-23.966,-1.3058,0.9557,-0.5821
506481.0,-5.2409,4.2186,-30.2076,1.3989,2.4945,-0.2006
506491.0,-0.5674,1.4293,-36.7749,3.6726,3.736,0.0734
506501.0,-6.7564,1.7502,-44.3454,6.5093,7.2905,0.0319
506511.0,-16.7331,3.1699,-43.8905,7.7343,11.143,-0.4534
506521.0,-32.5707,7.2712,-36.6935,8.0392,14.8002,-1.1696
506531.0,-47.2041,9.9695,-25.0721,8.1254,17.4357,-1.8581
506541.0,-58.1288,12.6749,-14.1545,8.3089,17.4357,-2.7202
506551.0,-65.4934,22.3427,-0.7326,7.3612,17.4357,-3.5795
506561.0,-68.0863,24.4783,31.874,2.8175,17.4357,-3.7514
506571.0,-60.5326,18.2462,69.1685,-1.0541,17.4357,-3.0655
506581.0,-46.5265,18.0164,78.4508,-0.9237,13.8035,-1.9821
506591.0,-35.8268,17.7458,78.4508,-0.9477,8.4643,-1.0248
506601.0,-34.115,14.5089,78.4508,-1.3324,2.3535,-0.067
506611.0,-32.9131,12.0979,67.7798,-0.7003,-2.9596,0.9434
506621.0,-31.2779,8.4611,47.0676,0.9328,-6.0538,1.9725
506631.0,-26.7672,3.3686,30.3896,2.0694,-7.4294,2.6579
506641.0,-20.2382,0.7877,14.7148,2.5706,-7.5528,2.8324
506651.0,-15.2104,-1.9441,6.5625,2.0082,-6.6988,2.5424
506661.0,-9.2081,-2.2505,-0.6728,0.9115,-5.5116,1.9502
506671.0,-6.0908,-3.814,0.3903,-0.6087,-3.927,1.1925
506681.0,-4.6878,-3.7781,2.0183,-1.4846,-2.5217,0.4454
506691.0,-4.5562,-3.1388,5.8897,-1.9938,-1.409,-0.2038
506701.0,-5.6479,-1.7933,11.133,-1.9896,-0.605,-0.6316
506711.0,-6.3422,-0.4166,15.3947,-1.4958,-0.3592,-0.7976
506721.0,-6.28,0.3232,17.7865,-0.8562,-0.6465,-0.7843
506731.0,-5.7293,0.8978,17.9757,-0.2325,-1.1893,-0.6864
506741.0,-5.2361,0.6009,17.0778,0.2315,-1.748,-0.5656
506751.0,-5.0877,0.0239,14.8441,0.539,-2.2131,-0.4885
506761.0,-4.2162,-0.3496,12.4738,0.6178,-2.502,-0.5374
506771.0,-3.055,-0.2131,10.2065,0.5422,-2.5036,-0.6987
506781.0,-2.6193,0.759,8.5425,0.199,-2.2572,-0.9376
506791.0,-2.7821,1.4245,9.2081,-0.5257,-1.9624,-1.2036
506801.0,-3.1699,1.7837,11.394,-1.2388,-1.7613,-1.4431
506811.0,-3.5147,2.071,13.5991,-1.6144,-1.7522,-1.6139
506821.0,-3.8403,2.4062,15.1122,-1.6384,-1.9199,-1.6953
506831.0,-3.9983,3.055,15.5743,-1.4468,-2.2072,-1.6985
506841.0,-4.2856,3.7804,15.4594,-1.1973,-2.5584,-1.6304
506851.0,-4.2784,4.6687,14.4107,-0.8881,-2.9096,-1.4952
506861.0,-4.1611,5.4061,12.6941,-0.6588,-3.2145,-1.3101
506871.0,-3.96,5.782,10.884,-0.5688,-3.3656,-1.0924
506881.0,-3.2681,5.8586,9.7324,-0.6768,-3.4108,-0.8987
506891.0,-2.6983,5.8323,9.0166,-0.8892,-3.421,-0.7311
506901.0,-2.4469,5.7964,8.406,-1.0946,-3.405,-0.5656
506911.0,-1.9944,5.6862,7.9751,-1.2398,-3.3449,-0.3725
506921.0,-2.0925,5.2744,8.1283,-1.2765,-3.2177,-0.1304
506931.0,-1.6568,4.5346,8.4707,-1.2111,-3.1725,0.1272
506941.0,-1.494,3.6152,8.4156,-1.0291,-3.1794,0.3799
506951.0,-1.2713,2.1763,7.7213,-0.8838,-3.2693,0.597
506961.0,-0.5411,0.4645,6.3805,-0.9014,-3.4252,0.6987
506971.0,0.5962,-0.929,5.624,-1.0264,-3.4257,0.6508
506981.0,1.1037,-1.5443,5.9831,-1.11,-3.2331,0.5151
506991.0,1.4653,-1.8196,6.6583,-1.2318,-3.2251,0.3581
507001.0,1.8531,-1.4222,6.0142,-1.3287,-3.4284,0.2235
507011.0,2.1979,-1.4126,4.9249,-1.4011,-3.5598,0.1559
507021.0,3.3064,-1.573,3.4429,-1.5421,-3.6077,0.1075
507031.0,3.5554,-2.1189,3.6751,-1.8565,-3.6104,0.0287
507041.0,3.6631,-2.8132,3.5219,-1.9842,-3.7227,-0.041
507051.0,4.7573,-3.7589,2.6217,-1.7757,-3.8227,-0.0942
507061.0,4.4556,-4.3886,1.3815,-1.2382,-3.7439,-0.1511
507071.0,5.1308,-3.4572,-1.4389,-0.5188,-3.4763,-0.2065
507081.0,5.5713,-3.0071,-2.5091,-0.1799,-3.0926,-0.2416
507091.0,6.1818,-2.5786,-3.2322,-0.0926,-2.7292,-0.2639
507101.0,6.8402,-2.4684,-3.7182,-0.2756,-2.5132,-0.3076
507111.0,7.3263,-2.4469,-4.2425,-0.4906,-2.3232,-0.3714
507121.0,7.4077,-2.5522,-4.8411,-0.5795,-2.0598,-0.4289
507131.0,7.853,-2.9137,-5.4947,-0.5438,-1.7496,-0.4874
507141.0,8.1187,-2.9951,-6.031,-0.4012,-1.3824,-0.5683
507151.0,8.0493,-2.4086,-6.541,-0.1469,-0.9684,-0.646
507161.0,7.8003,-1.4437,-7.2281,0.1681,-0.5305,-0.6854
507171.0,7.8578,-0.3735,-8.3007,0.4161,-0.0803,-0.6721
507181.0,8.1235,0.3735,-9.2967,0.4065,0.3523,-0.6321
507191.0,8.0349,0.8523,-9.5098,0.1846,0.8062,-0.597
507201.0,7.695,1.3288,-9.6079,-0.1325,1.1994,-0.5726
507211.0,7.0102,2.1189,-9.481,-0.4438,1.4979,-0.539
507221.0,5.9783,3.0646,-9.1985,-0.5156,1.831,-0.4369
507231.0,5.2385,4.4005,-10.1825,-0.2512,2.1689,-0.2336
507241.0,4.4053,5.6719,-12.1649,0.0388,2.5121,0.0537
507251.0,3.1077,6.8642,-15.4857,0.165,3.0485,0.4119
507261.0,0.8164,6.8307,-17.607,-0.2453,3.7051,0.7859
507271.0,-1.8459,5.7796,-18.4114,-0.9754,4.3734,1.1456
507281.0,-5.8682,4.3742,-17.0443,-1.3835,5.212,1.4942
507291.0,-10.6542,3.4022,-14.5448,-0.7939,6.3667,1.8688
507301.0,-14.789,2.296,-11.9495,0.8168,7.6975,2.2583
507311.0,-18.8831,1.0439,-9.4643,3.0288,9.2125,2.5334
507321.0,-23.9157,-0.4334,-6.4428,5.3259,10.9754,2.5579
507331.0,-28.2157,-1.5945,-1.3216,7.2357,12.8064,2.1849
507341.0,-30.902,-0.9146,6.3398,8.1754,14.3016,1.3484
507351.0,-33.4422,3.067,14.3939,7.4751,14.9061,0.1719
507361.0,-36.1884,6.0334,32.6354,5.2259,14.7613,-0.9951
507371.0,-33.4207,10.5249,45.485,3.0346,12.9266,-1.7618
507381.0,-30.0089,11.7531,57.3387,0.4209,10.0447,-2.1024
507391.0,-28.1558,11.3461,65.4623,-1.5266,6.6009,-1.9592
507401.0,-26.5972,10.4794,66.3936,-2.0252,2.6398,-1.4202
507411.0,-24.3778,9.4954,57.6715,-0.6604,-0.7269,-0.5656
507421.0,-20.8224,8.1762,42.782,1.0562,-3.1538,0.265
507431.0,-15.5886,6.4835,26.7001,1.6043,-4.6613,0.7359
507441.0,-11.5951,4.4388,14.8297,1.0594,-4.8007,0.8274
507451.0,-8.6742,2.964,7.7692,0.0617,-3.985,0.6646
507461.0,-7.2329,1.3647,6.3973,-0.8737,-2.6542,0.4012
507471.0,-7.094,0.5986,8.157,-1.1233,-1.1627,0.165
507481.0,-7.5058,-0.0096,12.7922,-0.9711,-0.0186,-0.0128
507491.0,-7.908,0.2921,16.9916,-0.4917,0.5364,-0.1224
507501.0,-8.2456,0.7207,20.8248,-0.0537,0.4784,-0.1894
507511.0,-7.9799,1.5012,22.5486,0.2336,-0.1123,-0.2293
507521.0,-7.8889,2.0949,22.9412,0.3145,-0.9126,-0.2474
507531.0,-7.9942,2.296,22.3307,0.3336,-1.7219,-0.2405
507541.0,-7.8937,2.229,20.6117,0.4209,-2.436,-0.2224
507551.0,-7.6399,2.0494,18.1313,0.5183,-2.9729,-0.2246
507561.0,-6.7229,2.7892,14.856,0.4268,-3.3741,-0.3028
507571.0,-6.3111,3.7062,13.3429,0.0537,-3.521,-0.4209
507581.0,-6.0669,4.719,12.3852,-0.2586,-3.4885,-0.4768
507591.0,-5.9568,5.3678,12.4068,-0.5273,-3.4518,-0.4715
507601.0,-5.5665,5.8419,12.1147,-0.6667,-3.4768,-0.3991
507611.0,-5.4061,5.9664,12.0572,-0.7311,-3.4901,-0.2629
507621.0,-5.0853,5.6551,11.9207,-0.6971,-3.5024,-0.075
507631.0,-5.0542,4.9105,11.8058,-0.6838,-3.5678,0.1277
507641.0,-5.023,3.9025,11.5209,-0.7737,-3.7557,0.2927
507651.0,-4.6017,2.8946,10.9271,-0.887,-3.9786,0.4001
507661.0,-3.9576,2.0255,10.4938,-0.9519,-4.1723,0.4539
507671.0,-3.7206,1.5347,10.0293,-0.8344,-4.3059,0.4821
507681.0,-3.4213,1.6185,8.5305,-0.5561,-4.3984,0.5209
507691.0,-2.6121,1.5826,6.6631,-0.4741,-4.5075,0.5555
507701.0,-1.7334,1.5538,4.6926,-0.6024,-4.5448,0.572
507711.0,-0.8068,1.4317,2.9473,-0.854,-4.4309,0.5667
507721.0,0.0239,1.2929,1.9297,-1.2106,-4.1744,0.5279
507731.0,0.3136,1.087,2.7078,-1.5921,-3.8142,0.4667
507741.0,0.1604,0.9744,4.1539,-1.7884,-3.5508,0.439
507751.0,0.0,0.6345,5.5138,-1.7592,-3.5013,0.4613
507761.0,0.3711,0.5219,5.5952,-1.4777,-3.5848,0.5273
507771.0,0.8404,0.3543,4.8076,-1.1111,-3.6716,0.629
507781.0,1.4341,0.1867,3.5698,-0.7843,-3.7094,0.737
507791.0,2.3918,-0.0072,2.1093,-0.5795,-3.6652,0.8296
507801.0,3.1196,-0.4286,1.1013,-0.5545,-3.5444,0.8998
507811.0,3.6105,-0.7422,0.4645,-0.6683,-3.405,0.9323
507821.0,3.6272,-1.1588,0.2825,-0.8796,-3.3119,0.9424
507831.0,3.79,-1.6305,0.0718,-1.0366,-3.3007,0.9461
507841.0,4.1707,-2.0997,-0.6847,-1.0286,-3.3225,0.9546
507851.0,4.142,-2.2051,-2.2098,-0.8093,-3.2725,0.9695
507861.0,4.6064,-2.0423,-4.9344,-0.4677,-3.0964,1.0073
507871.0,6.0693,-3.6296,-7.4316,-0.2432,-2.7521,1.0653
507881.0,6.857,-4.8243,-9.9264,0.1532,-2.0087,1.0546
507891.0,8.1187,-6.3087,-10.3094,0.2575,-1.2063,0.9222
507901.0,9.0237,-7.2209,-9.9144,0.2581,-0.4406,0.7024
507911.0,9.0453,-7.7931,-7.8266,0.2097,0.2171,0.4145
507921.0,9.1698,-8.169,-5.6096,0.2097,0.5662,0.1059
507931.0,8.8753,-7.5441,-4.0151,0.4566,0.7604,-0.2006
507941.0,8.0565,-6.1172,-3.8403,0.7641,0.7471,-0.4656
507951.0,7.9631,-4.5897,-5.6886,0.9083,0.5566,-0.6545
507961.0,7.932,-3.3782,-8.5784,0.8562,0.4837,-0.779
507971.0,7.9392,-2.5977,-11.8058,0.5587,0.6524,-0.886
507981.0,7.5872,-1.7621,-14.6429,-0.0426,1.0115,-1.0339
507991.0,6.5888,-0.6177,-16.4577,-0.8604,1.5101,-1.1962
508001.0,5.0877,0.8404,-17.0084,-1.5618,2.1545,-1.2898
508011.0,2.1883,2.6288,-16.2135,-1.8837,2.9474,-1.2526
508021.0,0.0407,4.4556,-15.5168,-1.7368,3.6939,-1.0408
508031.0,-1.5969,5.7293,-14.7483,-1.1488,4.5315,-0.6753
508041.0,-6.778,6.2177,-13.362,-0.3555,5.4414,-0.232
508051.0,-9.1482,6.0813,-13.0843,0.5491,6.2667,0.2123
508061.0,-13.0532,4.6017,-11.8537,1.9326,7.6427,0.622
508071.0,-17.7961,2.9473,-9.1028,3.6178,9.2657,0.795
508081.0,-20.2478,1.4245,-7.1467,5.3722,10.9764,0.6449
508091.0,-25.1319,2.1117,-2.9281,6.9196,12.9804,0.0654
508101.0,-29.997,5.2074,3.9385,7.266,14.3665,-0.7998
508111.0,-34.0001,9.0549,13.7331,5.8931,14.5128,-1.6751
508121.0,-37.3495,11.9135,28.2444,4.2133,14.0222,-2.2274
508131.0,-34.85,15.7826,37.0287,3.264,12.4764,-2.3791
508141.0,-31.5819,17.2119,44.9296,2.0864,10.4321,-2.1966
508151.0,-29.1087,16.4913,51.6286,0.9461,8.1706,-1.74
508161.0,-25.7449,15.5886,55.725,0.3794,5.6957,-1.2068
508171.0,-23.8295,14.5639,54.4657,0.1176,2.9931,-0.6827
508181.0,-21.9333,12.4115,49.5097,-0.2794,0.2677,-0.2331
508191.0,-19.9772,10.2041,41.3622,-0.4848,-1.8251,0.132
508201.0,-17.9757,7.9511,32.9825,-0.6667,-3.1432,0.3507
508211.0,-15.8257,5.9328,25.2971,-0.9711,-3.9014,0.4145
508221.0,-13.4219,4.4317,19.0219,-1.3143,-4.143,0.3586
508231.0,-11.8513,3.2753,14.9925,-1.4835,-3.8972,0.2554
508241.0,-10.1347,2.5379,12.1673,-1.3909,-3.4401,0.1607
508251.0,-8.6191,1.9513,10.6015,-1.0312,-2.8303,0.0984
508261.0,-7.3191,1.7406,9.3805,-0.5683,-2.1742,0.0612
508271.0,-6.9456,1.6328,9.7396,-0.3054,-1.6022,0.0117
508281.0,-6.6463,1.7406,10.0724,-0.1756,-1.2675,-0.033
508291.0,-6.3063,1.5107,10.4698,-0.2065,-1.1185,-0.0681
508301.0,-5.9616,1.0989,10.3549,-0.4049,-1.0791,-0.1192
508311.0,-6.0023,0.1317,11.2982,-0.7748,-1.0669,-0.224
508321.0,-5.6144,-0.5746,11.959,-1.0616,-1.144,-0.3959
508331.0,-5.6264,-0.6847,12.572,-1.2143,-1.2143,-0.6188
508341.0,-5.4827,-0.1676,13.137,-1.2425,-1.2803,-0.8391
508351.0,-5.4636,0.6488,13.5895,-1.2036,-1.3622,-1.0036
508361.0,-5.6862,1.6161,14.0516,-1.1334,-1.4596,-1.0988
508371.0,-5.9927,2.4038,14.3939,-1.094,-1.6336,-1.1153
508381.0,-6.0454,2.8323,14.7172,-1.044,-1.848,-1.0621
508391.0,-6.3255,3.1029,15.196,-0.9732,-2.0811,-0.9706
508401.0,-6.5529,3.0526,15.4833,-0.8961,-2.4062,-0.8546
508411.0,-6.4979,2.8395,15.2008,-0.754,-2.8175,-0.7359
508421.0,-6.2991,2.8347,14.054,-0.5752,-3.231,-0.638
508431.0,-5.9951,3.1029,12.2655,-0.4757,-3.5726,-0.5603
508441.0,-5.7054,3.4022,10.4938,-0.5587,-3.8158,-0.4959
508451.0,-5.2074,3.6344,8.7795,-0.7939,-3.9579,-0.4369
508461.0,-4.8435,3.6009,8.2504,-1.0791,-3.9302,-0.3709
508471.0,-4.7285,3.4644,8.6503,-1.2175,-3.8126,-0.2724
508481.0,-4.6902,2.988,9.3518,-1.1494,-3.7823,-0.1261
508491.0,-4.3981,2.5283,9.3182,-0.8684,-3.869,0.0436
508501.0,-3.8786,2.1189,8.4372,-0.5289,-3.9701,0.2128
508511.0,-3.2202,1.7119,7.0797,-0.3448,-4.0483,0.3475
508521.0,-2.3655,1.4006,6.2034,-0.4656,-4.1212,0.4039
508531.0,-2.1141,1.2234,6.3542,-0.6667,-4.1409,0.422
508541.0,-1.9417,1.1803,6.3279,-0.7295,-4.192,0.4667
508551.0,-1.8148,1.0654,6.0717,-0.7396,-4.3224,0.5326
508561.0,-1.5706,0.8643,5.2218,-0.7535,-4.5176,0.6135
508571.0,-1.0199,0.4669,4.0127,-0.8248,-4.7129,0.6816
508581.0,-0.5794,0.1532,2.4756,-0.9796,-4.8731,0.7098
508591.0,0.0311,-0.0934,0.6129,-1.2611,-5.0162,0.696
508601.0,0.8811,-0.5076,-1.3288,-1.7235,-5.1487,0.6444
508611.0,1.664,-1.1133,-2.6959,-2.2253,-5.2088,0.5444
508621.0,2.7821,-1.5538,-3.9049,-2.5057,-5.1705,0.4129
508631.0,3.9265,-1.5874,-5.1763,-2.4584,-4.9779,0.2756
508641.0,4.5083,-1.0582,-6.79,-2.204,-4.6986,0.165
508651.0,4.968,-0.0551,-9.3039,-1.9326,-4.4336,0.1112
508661.0,6.4667,0.4166,-11.8417,-1.7613,-4.1154,0.1288
508671.0,8.7747,-0.7207,-14.5903,-1.5644,-3.6673,0.1841
508681.0,8.8466,-0.0599,-18.9118,-1.0653,-2.8649,0.1554
508691.0,8.4467,0.6776,-21.6292,-1.0706,-2.121,0.0511
508701.0,7.6064,2.715,-24.6507,-1.4,-1.3388,-0.0325
508711.0,7.2688,4.0534,-25.4192,-1.8065,-0.4837,-0.0165
508721.0,7.3239,5.1619,-25.6922,-1.6788,0.381,0.1336
508731.0,6.1986,7.1108,-27.7057,-0.7982,1.4894,0.415
508741.0,3.814,8.9783,-30.0927,0.2528,2.7351,0.8088
508751.0,-0.5914,10.9439,-32.135,1.2547,4.2037,1.2914
508761.0,-4.9512,11.1833,-32.9035,2.1449,5.9107,1.8619
508771.0,-10.5752,10.2113,-31.965,3.0777,8.0413,2.403
508781.0,-18.8519,8.7149,-28.4288,3.8977,10.3411,2.7915
508791.0,-28.6969,8.1092,-23.9468,4.7278,12.6882,3.0059
508801.0,-37.6345,6.0238,-16.5056,5.2786,14.7762,3.0639
508811.0,-44.4675,4.3215,-10.4172,5.6377,16.57,2.9314
508821.0,-51.3484,1.0367,3.5147,5.2807,17.4357,2.4631
508831.0,-53.3644,1.5897,19.5271,5.3147,17.4357,1.7331
508841.0,-50.9821,2.8874,35.4246,5.4994,17.4357,1.0312
508851.0,-46.3374,7.0366,46.9335,6.0123,16.2252,0.3735
508861.0,-39.2912,10.3501,55.2558,5.1099,13.3587,-0.232
508871.0,-33.2722,10.568,61.9021,2.7952,9.6584,-0.6582
508881.0,-31.5963,10.1969,64.3825,0.7998,5.9059,-0.7886
508891.0,-28.3617,8.9304,61.8207,-0.3166,2.1742,-0.6407
508901.0,-27.0353,7.1994,54.6022,-0.3044,-0.8801,-0.2788
508911.0,-25.2085,6.3351,43.7852,0.273,-3.1964,0.0761
508921.0,-22.3235,5.4253,33.028,0.7285,-4.7076,0.3315
508931.0,-19.8288,4.3311,23.3076,1.0477,-5.2573,0.4874
508941.0,-16.1106,4.3215,13.9726,0.8977,-5.269,0.5044
508951.0,-13.2782,2.794,9.754,0.1969,-4.5671,0.4108
508961.0,-10.9247,2.1237,7.5944,-0.3549,-3.4986,0.223
508971.0,-9.9814,1.3527,8.9136,-0.9014,-2.4349,-0.0069
508981.0,-9.56,1.1277,11.5233,-1.2159,-1.6267,-0.2043
508991.0,-9.7683,1.1229,15.2918,-1.3122,-1.2526,-0.3485
509001.0,-9.3158,1.5562,17.5088,-1.1499,-1.3973,-0.4172
509011.0,-8.7819,2.2649,18.318,-0.8519,-1.7586,-0.415
509021.0,-8.4874,2.66,18.7993,-0.6337,-2.2567,-0.3661
509031.0,-8.0182,2.9832,17.8823,-0.4278,-2.8819,-0.2905
509041.0,-7.6207,3.1125,15.7084,-0.24,-3.4374,-0.1974
509051.0,-7.3502,3.1771,12.7826,-0.1729,-3.7807,-0.108
509061.0,-6.9623,2.9497,10.4555,-0.298,-3.8913,-0.0394
509071.0,-6.0621,2.4995,8.6742,-0.6013,-3.8461,-0.017
509081.0,-4.9871,1.494,8.0038,-1.1318,-3.7503,-0.0718
509091.0,-4.549,0.3424,8.9543,-1.5889,-3.637,-0.2134
509101.0,-4.3167,0.0239,9.3182,-1.6187,-3.5492,-0.3762
509111.0,-4.2401,0.3663,9.1267,-1.408,-3.4821,-0.5193
509121.0,-3.8571,1.1803,8.4922,-1.135,-3.3949,-0.5976
509131.0,-3.6176,1.8076,8.1092,-0.9993,-3.2863,-0.6029
509141.0,-3.4117,2.0279,8.1666,-1.0318,-3.2257,-0.571
509151.0,-2.9616,1.9704,8.272,-1.1105,-3.2454,-0.5177
509161.0,-2.5929,1.6664,8.3773,-1.1861,-3.3055,-0.4656
509171.0,-2.3535,1.336,8.509,-1.1701,-3.3544,-0.4135
509181.0,-2.0423,0.996,8.2576,-1.0424,-3.4321,-0.3634
509191.0,-1.4102,0.9625,7.4436,-0.861,-3.5338,-0.3209
509201.0,-0.8978,1.2043,6.4955,-0.6779,-3.5396,-0.2751
509211.0,-0.2658,1.4413,5.5905,-0.5843,-3.5018,-0.2017
509221.0,0.3615,1.3958,4.9728,-0.6135,-3.4561,-0.1096
509231.0,1.0894,1.3001,4.1108,-0.6619,-3.3715,-0.0059
509241.0,1.5323,1.0295,3.395,-0.8306,-3.273,0.0841
509251.0,2.0087,0.7183,2.4277,-1.1494,-3.215,0.1373
509261.0,2.5426,0.2322,1.415,-1.6027,-3.1714,0.1421
509271.0,3.0789,-0.1437,0.3208,-2.1253,-3.073,0.1006
509281.0,3.6057,-0.3807,-0.0455,-2.6505,-2.8692,0.0532
509291.0,3.4453,-0.9218,1.0678,-3.0027,-2.6015,0.0372
509301.0,3.6392,-1.4365,1.9824,-3.0314,-2.5063,0.05
509311.0,3.9313,-1.6831,2.1883,-2.7276,-2.4898,0.0788
509321.0,4.1372,-1.6544,1.6688,-2.2061,-2.4509,0.1373
509331.0,4.561,-1.6951,0.6512,-1.666,-2.4147,0.2208
509341.0,5.2553,-1.8962,-0.7111,-1.2074,-2.345,0.2996
509351.0,6.1435,-2.4062,-2.1787,-0.9168,-2.2221,0.3437
509361.0,6.9312,-2.8826,-3.4381,-0.738,-1.9976,0.3283
509371.0,7.4484,-3.055,-4.4652,-0.6242,-1.6533,0.2714
509381.0,7.6231,-3.1915,-5.0302,-0.6141,-1.2984,0.1655
509391.0,7.6902,-2.8132,-5.6168,-0.6183,-0.9275,0.0447
509401.0,7.6543,-2.399,-5.8826,-0.6337,-0.5374,-0.0346
509411.0,7.5034,-2.1548,-5.8778,-0.5667,-0.1123,-0.0495
509421.0,7.1539,-1.9585,-5.7892,-0.3549,0.3661,-0.0218
509431.0,6.9192,-1.7909,-5.9831,-0.0905,0.8322,0.0261
509441.0,6.7469,-1.6759,-6.031,0.1399,1.2909,0.074
509451.0,6.4404,-1.3575,-5.8586,0.3501,1.7538,0.1022
509461.0,5.6168,-0.9194,-5.679,0.4911,2.1391,0.1272
509471.0,4.7525,-0.4046,-5.7988,0.5475,2.4376,0.1463
509481.0,3.371,0.3831,-6.3686,0.531,2.7042,0.1532
509491.0,1.9369,1.6233,-7.7883,0.3544,2.8888,0.1517
509501.0,1.2665,3.3782,-9.9575,-0.0303,3.0495,0.1756
509511.0,0.4621,5.0398,-11.5664,-0.5933,3.3747,0.2959
509521.0,-0.3256,6.62,-12.4475,-1.1249,3.8046,0.5449
509531.0,-2.1907,7.2089,-12.1745,-1.3308,4.3048,0.9488
509541.0,-6.0478,7.6686,-12.3038,-0.7072,5.0434,1.4857
509551.0,-11.2312,8.5641,-12.3613,0.795,6.28,2.096
509561.0,-16.5822,8.3103,-11.7076,2.8718,7.9333,2.742
509571.0,-23.942,7.4555,-10.7715,5.2823,10.0543,3.2571
509581.0,-33.0567,6.9192,-11.0349,7.507,12.5701,3.4609
509591.0,-41.5586,7.7093,-9.0573,8.3531,15.3376,3.1565
509601.0,-50.058,7.2401,5.964,6.8595,17.4357,2.4791
509611.0,-51.9853,3.96,29.1877,3.6886,17.4357,1.7038
509621.0,-47.2687,1.2186,52.4761,1.5942,16.4072,1.1063
509631.0,-41.7597,1.8555,65.9818,0.6066,13.5114,0.6667
509641.0,-34.1629,-0.5842,75.4102,-1.3973,9.022,0.2453
509651.0,-29.5875,-2.4924,78.1467,-2.8612,4.0159,-0.0979
509661.0,-28.4599,-2.071,71.6824,-2.8644,-0.8163,-0.1889
509671.0,-28.2683,0.1197,57.5853,-1.5431,-4.7965,0.008
509681.0,-29.0105,1.7095,40.565,0.2756,-7.4336,0.4166
509691.0,-26.7384,1.2498,23.3698,1.7778,-8.8687,0.8849
509701.0,-21.8734,-1.0032,9.4667,2.6494,-8.9709,1.2425
509711.0,-15.9885,-3.0095,-1.0487,2.8718,-8.0455,1.3446
509721.0,-9.7276,-5.0039,-8.0661,2.337,-6.5322,1.1254
509731.0,-6.1794,-5.7102,-10.6566,1.2781,-4.5176,0.6183
509741.0,-3.9073,-5.9975,-7.7476,-0.0309,-2.5451,-0.0303
509751.0,-3.7182,-5.351,-1.9632,-0.9371,-0.928,-0.6678
509761.0,-4.4532,-3.9816,4.4149,-1.1866,0.2134,-1.1643
509771.0,-4.7788,-2.3176,9.3853,-1.0131,0.737,-1.4926
509781.0,-5.2433,-0.9194,14.0133,-0.7402,0.8019,-1.6639
509791.0,-5.9352,0.9194,17.0324,-0.389,0.4411,-1.6916
509801.0,-7.1036,2.2865,18.4449,-0.0777,-0.2692,-1.5846
509811.0,-7.1132,3.3734,17.2023,0.2985,-1.0467,-1.384
509821.0,-6.1962,3.9097,14.7579,0.4906,-1.6059,-1.143
509831.0,-5.2241,3.8211,12.9167,0.2634,-1.98,-0.9429
509841.0,-4.6376,3.4285,11.7148,-0.1128,-2.1503,-0.7897
509851.0,-4.4652,2.8371,11.1713,-0.4773,-2.188,-0.6753
509861.0,-3.6966,1.7669,10.9032,-0.7311,-2.1849,-0.5896
509871.0,-3.8858,0.9697,10.7787,-0.8508,-2.1316,-0.5619
509881.0,-3.6775,0.6847,10.4124,-0.8806,-2.0832,-0.5922
509891.0,-3.4668,0.7207,10.0628,-0.9456,-2.0231,-0.6455
509901.0,-3.6416,1.0008,9.7612,-1.0898,-1.9124,-0.6981
509911.0,-3.7397,1.1253,10.7859,-1.3404,-1.781,-0.7386
509921.0,-4.039,1.0582,12.1266,-1.4846,-1.724,-0.7237
509931.0,-4.1563,0.6823,13.4841,-1.4814,-1.7884,-0.6582
509941.0,-4.0223,0.17,14.6046,-1.3521,-1.9757,-0.5843
509951.0,-4.1084,-0.3184,15.2894,-1.0759,-2.2615,-0.5135
509961.0,-4.0869,-0.5842,15.2032,-0.6976,-2.6345,-0.473
509971.0,-3.9337,-0.3998,14.0252,-0.2927,-3.0107,-0.4518
509981.0,-3.3878,0.0982,12.0476,-0.0665,-3.3507,-0.4518
509991.0,-2.7773,0.5124,10.3262,-0.1016,-3.5513,-0.4656
510001.0,-2.2434,1.0702,8.6814,-0.2937,-3.6136,-0.4848
510011.0,-1.7597,1.391,7.8554,-0.6396,-3.5694,-0.4933
510021.0,-1.4748,1.5371,7.6136,-1.0057,-3.4635,-0.4768
510031.0,-1.5945,1.3838,8.8729,-1.2414,-3.3065,-0.4278
510041.0,-2.0303,1.3312,10.2448,-1.1339,-3.2299,-0.3171
510051.0,-2.2434,1.1133,10.9702,-0.7881,-3.3193,-0.1517
510061.0,-2.1141,0.929,10.7859,-0.357,-3.5247,0.0357
510071.0,-1.8148,0.68,9.9527,-0.0564,-3.795,0.2081
510081.0,-1.5443,0.2586,8.7197,0.0293,-4.1175,0.332
510091.0,-1.2043,-0.0048,6.9025,-0.0032,-4.3894,0.4033
510101.0,-0.8691,-0.2322,5.2337,-0.1713,-4.5458,0.4236
510111.0,-0.4214,-0.4788,3.4261,-0.4284,-4.5985,0.4028
510121.0,0.3591,-0.6847,1.7909,-0.7939,-4.5517,0.3304
510131.0,1.5227,-0.9673,1.0319,-1.2824,-4.4165,0.2134
510141.0,1.9106,-1.1947,2.1787,-1.6772,-4.1835,0.0835
510151.0,1.7502,-1.087,3.3806,-1.707,-4.0552,-0.0048
510161.0,1.6903,-0.8212,3.7445,-1.5038,-4.151,-0.0442
510171.0,1.64,-0.4741,3.2633,-1.1355,-4.3069,-0.0309
510181.0,1.7382,-0.0359,2.1763,-0.6859,-4.4293,0.0388
510191.0,1.9369,0.2897,0.5243,-0.249,-4.4948,0.1655
510201.0,2.3487,0.498,-2.4732,-0.0543,-4.5522,0.3283
510211.0,3.6751,-0.3352,-6.0286,-0.4055,-4.6629,0.4507
510221.0,5.466,-1.5945,-9.2991,-1.126,-4.5921,0.4571
510231.0,6.6966,-2.4804,-11.4946,-1.8996,-4.2463,0.315
510241.0,7.9775,-2.9856,-11.4586,-2.4328,-3.7503,0.0793
510251.0,8.1068,-2.2434,-11.1713,-2.2061,-3.1027,-0.1282
510261.0,7.2999,-0.4214,-13.1585,-1.4947,-2.6387,-0.2176
510271.0,7.5824,0.7111,-18.1145,-0.8189,-2.4057,-0.1469
510281.0,8.3486,1.8076,-26.1519,-0.257,-1.8523,0.017
510291.0,10.8386,1.8196,-33.3632,-0.1639,-0.7689,0.1868
510301.0,8.5545,0.0479,-34.0599,-0.3491,1.0068,0.3124
510311.0,3.79,3.292,-36.5212,0.0458,3.0602,0.3491
510321.0,0.6345,3.1963,-31.6633,0.1383,4.6555,0.5071
510331.0,-4.3814,5.3463,-29.8605,1.2004,6.528,0.8498
510341.0,-7.6926,5.4444,-26.8917,2.2301,8.037,1.2505
510351.0,-14.0037,5.2146,-23.7912,3.4577,9.5605,1.5772
510361.0,-20.7051,5.2984,-21.8016,4.4745,11.0052,1.7762
510371.0,-27.7751,5.1954,-19.4625,5.1556,12.6419,1.8459
510381.0,-35.02,3.6272,-14.7579,5.1407,14.1893,1.756
510391.0,-40.4476,1.6616,-5.7317,4.5208,15.5201,1.4245
510401.0,-42.6312,1.6879,6.6966,4.3756,16.7413,0.928
510411.0,-43.8283,1.6496,18.1217,3.5263,16.3694,0.3794
510421.0,-44.0533,0.6656,32.9203,2.5345,15.1179,-0.0862
510431.0,-42.4133,3.1795,41.8363,3.2837,13.7147,-0.3421
510441.0,-38.4198,5.782,49.1745,3.9328,11.723,-0.5273
510451.0,-33.957,9.4882,52.3564,4.0669,9.1087,-0.6396
510461.0,-29.8868,12.5672,52.7347,3.5816,6.405,-0.5976
510471.0,-26.6834,13.4195,51.2742,2.627,3.8089,-0.3512
510481.0,-24.2461,11.7555,48.0468,1.5511,1.276,0.0181
510491.0,-22.3786,8.8873,42.5569,1.0467,-0.8317,0.4124
510501.0,-20.1807,6.3638,35.2283,1.3569,-2.1104,0.763
510511.0,-18.0714,4.2306,27.5836,1.8672,-2.7159,0.9791
510521.0,-14.7483,2.4541,22.0674,1.8108,-2.9926,0.9349
510531.0,-12.4451,2.0997,17.5064,1.4835,-2.9192,0.7029
510541.0,-11.0612,1.4317,15.1194,0.7833,-2.7675,0.3746
510551.0,-9.1674,1.5826,12.8281,0.1107,-2.5744,0.0245
510561.0,-8.7077,1.8483,12.6127,-0.3491,-2.0774,-0.2677
510571.0,-8.1475,2.3942,12.8449,-0.6385,-1.7107,-0.4832
510581.0,-7.7644,3.3423,13.2998,-0.8854,-1.5559,-0.6258
510591.0,-8.5832,3.8068,15.184,-0.9594,-1.4074,-0.6316
510601.0,-8.8897,3.5291,16.599,-0.5805,-1.3564,-0.4773
510611.0,-8.3151,2.6264,17.2957,-0.0788,-1.5016,-0.29
510621.0,-7.4819,2.0662,16.6421,0.2597,-1.8124,-0.183
510631.0,-7.0581,1.6735,16.0914,0.2155,-2.1747,-0.2049
510641.0,-6.4643,1.8818,15.1385,-0.0112,-2.5164,-0.3278
510651.0,-6.4691,2.4134,14.2934,-0.3698,-2.7308,-0.4922
510661.0,-6.62,2.7988,13.951,-0.8876,-2.9197,-0.6721
510671.0,-6.7804,2.9904,13.9366,-1.4261,-3.1208,-0.8498
510681.0,-6.7062,3.1196,13.9965,-1.8773,-3.3252,-1.0126
510691.0,-6.8738,3.2968,14.9518,-2.1795,-3.5258,-1.1494
510701.0,-7.3813,3.6919,16.0052,-2.1582,-3.8051,-1.209
510711.0,-8.0565,4.4173,15.9789,-1.7996,-4.225,-1.1494
510721.0,-8.6838,5.1571,14.4107,-1.2622,-4.6916,-0.9525
510731.0,-8.9399,5.3917,12.323,-0.7811,-5.0588,-0.6534
510741.0,-8.5042,5.0542,10.2352,-0.4438,-5.3041,-0.3214
510751.0,-7.7812,4.221,8.5329,-0.2118,-5.3786,-0.0133
510761.0,-6.6032,3.2226,7.1754,-0.1054,-5.3302,0.215
510771.0,-5.3391,2.4972,6.0118,-0.2597,-5.2929,0.3182
510781.0,-4.3551,2.0255,5.4899,-0.6694,-5.3153,0.3108
510791.0,-3.7565,1.8076,5.2888,-1.0578,-5.3174,0.2687
510801.0,-3.3136,1.8699,5.0206,-1.301,-5.3078,0.2485
510811.0,-2.8683,1.7693,4.7429,-1.4878,-5.3483,0.2677
510821.0,-2.399,1.5203,4.4412,-1.6144,-5.4552,0.3145
510831.0,-2.0662,1.1899,4.0773,-1.5335,-5.5361,0.3964
510841.0,-1.6041,0.893,3.2082,-1.2435,-5.5909,0.5135
510851.0,-1.0008,0.5722,2.138,-0.861,-5.593,0.6508
510861.0,-0.2083,0.3687,0.6752,-0.4486,-5.5042,0.7987
510871.0,0.5148,0.0694,-0.4094,-0.1884,-5.3759,0.9333
510881.0,1.2019,0.0072,-1.8052,-0.0724,-5.2434,1.0472
510891.0,2.0901,-0.1101,-3.1029,-0.1383,-5.0801,1.1419
510901.0,2.7438,-0.3926,-4.6088,-0.3874,-4.8784,1.2122
510911.0,3.3926,-1.0582,-6.1148,-0.9754,-4.7965,1.2228
510921.0,4.3862,-2.3559,-7.343,-1.673,-4.6879,1.1765
510931.0,5.3774,-3.9696,-7.6519,-2.1471,-4.3729,1.0546
510941.0,6.3494,-5.1763,-7.6878,-2.2695,-3.9733,0.837
510951.0,7.6447,-5.8921,-7.4819,-2.0497,-3.5742,0.5481
510961.0,8.4491,-6.0669,-8.2049,-1.4346,-3.1043,0.2464
510971.0,8.8059,-5.3822,-9.4906,-0.6864,-2.5823,-0.0623
510981.0,9.007,-3.79,-11.5305,0.0032,-1.9747,-0.2975
510991.0,8.509,-2.1931,-13.465,0.2235,-1.4234,-0.4315
511001.0,8.4348,-1.3455,-15.6533,-0.0878,-1.0089,-0.4746
511011.0,8.7364,-1.3551,-16.7139,-0.5827,-0.4358,-0.4693
511021.0,8.2552,-1.743,-16.5942,-0.9371,0.3102,-0.456
511031.0,7.7907,-1.8866,-15.9334,-0.9679,1.0403,-0.4661
511041.0,7.2042,-1.4748,-15.2223,-0.5459,1.8166,-0.4768
511051.0,6.0885,-0.6273,-14.5496,0.2171,2.6457,-0.4518
511061.0,5.2074,0.4525,-14.6717,1.0429,3.3454,-0.3954
511071.0,4.4125,1.8028,-16.0651,1.6187,3.9392,-0.3294
511081.0,2.4588,3.3423,-17.4226,1.673,4.516,-0.2549
511091.0,-0.0503,4.6495,-18.2582,1.2994,5.1391,-0.1293
511101.0,-3.0574,5.5091,-17.6141,0.7849,5.8389,0.0798
511111.0,-6.4476,6.0932,-16.1872,0.4842,6.612,0.3783
511121.0,-9.8761,6.3422,-14.0492,0.4741,7.3612,0.7434
511131.0,-12.4882,5.9496,-11.4012,0.8296,8.0306,1.1462
511141.0,-15.1816,5.5474,-9.3948,1.5915,8.616,1.4995
511151.0,-19.1943,5.7317,-9.0166,2.6435,9.164,1.7443
511161.0,-24.4592,5.8371,-10.1849,3.9281,10.0388,1.9023
511171.0,-30.9187,5.5282,-12.0141,5.1184,11.4787,1.9342
511181.0,-37.4812,5.0278,-13.4674,5.7287,13.3156,1.7368
511191.0,-45.2217,2.7845,-6.2225,5.791,15.8335,1.2648
511201.0,-48.4586,2.9233,1.3503,5.5228,17.4357,0.3884
511211.0,-53.6445,3.8259,17.6501,4.1973,17.4357,-0.7934
511221.0,-56.4792,6.6439,35.8795,2.717,17.4357,-1.8092
511231.0,-55.8424,9.5337,51.5998,1.6331,16.0937,-2.3147
511241.0,-50.0747,13.5129,62.6108,1.1249,13.3624,-2.353
511251.0,-45.3031,14.4059,72.9082,0.29,9.9409,-1.9816
511261.0,-39.6552,13.939,77.7972,-0.3533,5.808,-1.3372
511271.0,-37.3615,11.2934,78.2952,-0.7561,1.1361,-0.63
511281.0,-35.2235,10.0676,67.38,-0.2379,-3.5157,0.132
511291.0,-35.2115,8.2552,53.5296,0.7024,-6.8919,0.8498
511301.0,-33.0927,6.4428,36.7151,1.3904,-9.4413,1.3718
511311.0,-28.9866,3.8786,21.1719,1.4718,-10.8716,1.5745
511321.0,-23.547,2.4349,7.6183,1.2616,-10.8998,1.5176
511331.0,-18.1169,1.9968,-1.6783,0.481,-9.8457,1.2435
511341.0,-12.1554,0.9529,-6.4715,-0.9136,-8.327,0.8338
511351.0,-9.0836,-0.2873,-5.6288,-2.0582,-6.363,0.3262
511361.0,-7.197,-0.8404,-3.1675,-2.6978,-4.7443,-0.1634
511371.0,-5.9664,-0.759,0.7638,-2.8473,-3.463,-0.5624
511381.0,-6.2441,-0.0335,5.5402,-2.3764,-2.4445,-0.7875
511391.0,-5.9137,0.8739,9.4355,-1.5639,-1.9848,-0.8317
511401.0,-5.5952,1.81,11.552,-0.6646,-1.9465,-0.7434
511411.0,-5.0182,2.4565,12.0883,-0.0474,-2.2157,-0.588
511421.0,-4.6064,2.6217,11.9375,0.2549,-2.5478,-0.4177
511431.0,-4.628,2.4373,11.2671,0.3347,-2.8117,-0.2538
511441.0,-4.5226,1.664,10.7931,0.1458,-3.0272,-0.1591
511451.0,-3.711,0.8332,10.3453,-0.2772,-3.2379,-0.1926
511461.0,-2.8132,0.2945,10.1993,-0.9812,-3.5056,-0.3852
511471.0,-2.6073,0.2155,10.5872,-1.7751,-3.7918,-0.6726
511481.0,-3.0981,0.5674,11.5927,-2.3168,-4.0749,-0.9589
511491.0,-3.6895,1.3767,11.6526,-2.3636,-4.4075,-1.1467
511501.0,-3.9361,2.5522,10.5919,-2.0454,-4.7172,-1.2116
511511.0,-3.8259,3.6799,8.734,-1.6288,-4.9577,-1.1371
511521.0,-3.4644,4.3072,6.675,-1.3122,-5.0976,-0.9493
511531.0,-2.8587,4.4628,4.8052,-1.1462,-5.1429,-0.6971
511541.0,-1.9537,3.9025,3.4979,-1.0632,-5.1104,-0.4188
511551.0,-1.0487,3.2657,2.0016,-0.8993,-4.9742,-0.1506
511561.0,-0.2514,2.5498,0.9409,-0.7285,-4.7049,0.0788
511571.0,0.5818,1.9465,0.1413,-0.6242,-4.4144,0.2629
511581.0,1.5155,1.3312,-0.067,-0.6401,-4.1728,0.389
511591.0,2.2601,0.9313,-0.2945,-0.6747,-3.9547,0.4837
511601.0,3.0742,0.5555,-0.6656,-0.7444,-3.787,0.5582
511611.0,4.1563,0.1269,-1.1636,-0.8285,-3.6354,0.6215
511621.0,4.7836,-0.2945,-1.5754,-0.879,-3.4061,0.679
511631.0,5.1715,-0.735,-1.6233,-0.8631,-3.123,0.7322
511641.0,5.3223,-1.3096,-1.3431,-0.7263,-2.826,0.804
511651.0,5.5833,-1.9609,-1.3024,-0.3954,-2.5105,0.886
511661.0,5.77,-2.4852,-1.6137,0.0032,-2.1838,0.9504
511671.0,6.1483,-2.8754,-2.2745,0.241,-1.9145,0.9599
511681.0,6.5625,-3.1651,-2.9975,0.1783,-1.7331,0.8955
511691.0,6.869,-3.3447,-3.5578,-0.1463,-1.6192,0.7716
511701.0,7.4124,-3.7326,-3.699,-0.5821,-1.5506,0.6157
511711.0,7.8266,-4.1156,-3.7541,-0.8242,-1.4298,0.4581
511721.0,8.3558,-4.2784,-3.9911,-0.7274,-1.1946,0.306
511731.0,8.7101,-4.1875,-4.5394,-0.3943,-0.8769,0.1793
511741.0,8.7532,-3.7445,-5.533,0.0351,-0.4938,0.0729
511751.0,8.2672,-2.8706,-6.9695,0.2879,-0.1235,-0.0282
511761.0,7.5465,-1.8699,-8.7532,0.1293,0.1607,-0.124
511771.0,6.7828,-1.2713,-9.9431,-0.4459,0.3693,-0.2128
511781.0,5.7533,-0.4501,-12.4977,-1.1643,0.5204,-0.2895
511791.0,4.6256,0.1724,-14.6789,-1.906,0.7886,-0.3459
511801.0,4.6639,1.0511,-15.9382,-2.2721,1.4096,-0.3368
511811.0,5.7964,1.6568,-17.3197,-2.1322,2.0412,-0.2097
511821.0,3.067,4.0606,-20.1688,-1.1802,3.0373,0.0282
511831.0,-0.0766,7.0964,-23.1807,-0.0293,4.1962,0.3943
511841.0,-3.9911,9.3326,-25.4935,1.0243,5.6218,0.9621
511851.0,-9.9551,9.7899,-24.8231,2.0976,7.5161,1.6432
511861.0,-17.2574,9.153,-22.5079,3.2182,9.6174,2.279
511871.0,-25.4432,8.667,-19.563,3.9078,11.8203,2.7558
511881.0,-33.5164,5.6527,-11.248,3.5609,13.8642,3.0825
511891.0,-41.9392,1.9752,1.9513,2.9154,15.6968,3.1682
511901.0,-42.4588,-2.0806,14.7794,2.2961,16.3806,2.8947
511911.0,-40.4141,-8.2121,32.5444,1.3186,15.9336,2.2274
511921.0,-38.3958,-7.5848,45.2025,1.6043,14.938,1.4175
511931.0,-35.6185,-6.213,57.0251,1.6011,12.6696,0.6215
511941.0,-30.3465,-4.5442,62.7927,1.3329,9.2449,0.0404
511951.0,-26.3985,-2.8323,64.9954,1.458,5.8836,-0.3006
511961.0,-25.0266,2.1021,60.1759,1.9289,2.7021,-0.415
511971.0,-22.8335,3.0813,53.9438,1.6703,-0.845,-0.3384
511981.0,-20.2071,3.3279,42.8706,2.1151,-3.3454,-0.0596
511991.0,-18.512,3.0622,32.3385,2.7361,-4.5198,0.2315
512001.0,-15.3277,2.66,22.6611,2.9569,-5.1503,0.4129
512011.0,-12.7084,1.8172,14.4227,2.8351,-5.1205,0.5114
512021.0,-9.3948,1.5323,8.4539,2.3796,-4.4586,0.4959
512031.0,-7.6231,0.6752,7.1204,1.6538,-3.3853,0.3826
512041.0,-5.9711,-0.0694,7.0174,0.9653,-2.4977,0.1868
512051.0,-4.968,-0.984,8.4611,0.3751,-1.8001,-0.0702
512061.0,-4.6376,-0.9361,10.0676,0.1155,-1.2116,-0.3315
512071.0,-4.9416,-0.9888,12.6629,-0.066,-0.8876,-0.5816
512081.0,-5.0063,-0.5722,14.4801,-0.1479,-0.9924,-0.8306
512091.0,-5.0733,0.4645,14.8488,-0.1586,-1.3239,-1.0403
512101.0,-5.3678,1.3767,15.3588,-0.0905,-1.5793,-1.1728
512111.0,-5.7748,2.4612,15.4689,0.1421,-1.7991,-1.2111
512121.0,-6.031,3.4907,14.6789,0.3911,-2.0774,-1.1627
512131.0,-5.8395,4.0917,13.6469,0.5433,-2.2631,-1.0424
512141.0,-5.1212,4.2066,12.9431,0.5156,-2.328,-0.8913
512151.0,-4.367,3.7517,13.1226,0.223,-2.4509,-0.7769
512161.0,-3.8379,3.3615,13.228,-0.1139,-2.6579,-0.7231
512171.0,-4.0294,3.3399,13.0412,-0.3826,-2.8532,-0.7061
512181.0,-4.1037,3.5817,12.7491,-0.6061,-3.0485,-0.6886
512191.0,-4.3551,3.6009,12.5887,-0.7572,-3.2257,-0.6284
512201.0,-4.1707,3.6009,11.9423,-0.7944,-3.4045,-0.5348
512211.0,-3.9935,3.4907,11.3485,-0.8333,-3.5641,-0.4342
512221.0,-3.893,3.3399,10.7117,-0.8812,-3.7184,-0.3326
512231.0,-3.2441,3.0095,10.1227,-0.8929,-3.8615,-0.2283
512241.0,-2.4588,2.6432,9.2296,-0.8881,-4.0073,-0.1368
512251.0,-1.6496,2.4924,7.9487,-0.9599,-4.1643,-0.0793
512261.0,-0.7135,2.2913,6.6032,-1.126,-4.2867,-0.041
512271.0,-0.2418,2.0542,5.3199,-1.3122,-4.3362,-0.008
512281.0,0.1317,1.8411,4.3335,-1.4149,-4.2675,0.0239
512291.0,0.6704,1.5658,3.6607,-1.3542,-4.0675,0.0745
512301.0,1.0247,1.3168,3.2178,-1.1765,-3.7881,0.1421
512311.0,1.3695,1.3024,2.5139,-0.9637,-3.5316,0.2176
512321.0,2.0494,1.0822,2.0853,-0.829,-3.298,0.2948
512331.0,2.6097,0.6201,1.8603,-0.6774,-3.0155,0.3783
512341.0,3.2465,0.0503,1.7669,-0.489,-2.701,0.447
512351.0,4.13,-0.5531,1.573,-0.3278,-2.436,0.4762
512361.0,5.0733,-1.0056,1.2785,-0.207,-2.1625,0.4587
512371.0,5.7892,-1.1349,1.2378,-0.1139,-1.8145,0.3991
512381.0,6.1339,-1.008,1.3695,-0.0793,-1.4575,0.3272
512391.0,5.9185,-0.7805,1.9513,-0.1261,-1.1361,0.2639
512401.0,5.2936,-0.4549,2.9664,-0.1671,-0.8599,0.232
