time_ms,ax,ay,az,gx,gy,gz
1347221.0,4.2808,8.0828,42.1475,-1.566,0.6896,-0.2522
1347231.0,4.1659,7.7859,43.1818,-0.9679,0.5044,0.0282
1347241.0,3.802,7.9104,43.1627,-0.3512,0.2533,0.3533
1347251.0,3.9073,8.0062,41.5633,0.2671,0.066,0.6811
1347261.0,3.8978,8.2169,39.9544,0.7237,-0.0021,1.0131
1347271.0,3.9073,8.1403,37.9529,1.0291,0.1101,1.3441
1347281.0,4.2713,7.4795,37.0622,1.2393,0.4204,1.6549
1347291.0,4.5777,6.0047,37.7997,1.5484,0.6263,1.8975
1347301.0,4.8171,5.1427,38.1348,1.8491,0.5348,2.0699
1347311.0,4.9895,5.4875,37.34,1.93,0.4028,2.2194
1347321.0,4.5969,5.5737,37.2825,2.0093,0.2458,2.4254
1347331.0,4.5586,5.9855,36.0375,2.0976,0.0681,2.7095
1347341.0,3.4189,5.6216,34.3329,2.1657,-0.0208,3.0421
1347351.0,1.9154,4.2808,32.5803,2.5781,0.0963,3.3199
1347361.0,0.5842,3.7158,30.2723,3.0682,0.5167,3.5694
1347371.0,-0.7757,3.1891,28.1367,3.8057,1.1781,3.778
1347381.0,-1.312,2.873,26.0106,4.7039,2.2684,4.0116
1347391.0,-1.3886,3.3327,23.5015,5.1785,3.472,4.1851
1347401.0,-1.561,4.051,22.0745,4.6219,4.5852,4.2931
1347411.0,-2.2218,4.6064,22.132,3.5758,5.5845,4.4224
1347421.0,-3.1987,4.9033,23.4153,2.1258,6.4604,4.557
1347431.0,-3.1603,4.1276,24.9284,0.456,7.217,4.7012
1347441.0,-4.4724,2.2505,27.8972,-1.3207,7.7662,4.8028
1347451.0,-4.9799,-0.8236,32.2451,-2.7462,8.1557,4.7645
1347461.0,-5.0661,-3.9744,36.8994,-3.4853,8.6394,4.6565
1347471.0,-6.1387,-7.6136,42.5689,-3.5673,8.9757,4.3495
1347481.0,-6.6176,-10.4004,48.4874,-3.0267,9.1295,3.8834
1347491.0,-6.7325,-12.1051,53.9749,-1.9576,9.0895,3.306
1347501.0,-6.7995,-12.3158,58.5047,-0.6987,8.8091,2.6419
1347511.0,-7.4029,-11.0421,61.2341,0.2815,8.0679,1.9635
1347521.0,-8.5234,-8.6191,63.2548,1.0695,7.0957,1.3175
1347531.0,-9.2512,-5.1332,61.1575,1.2228,6.0671,0.8024
1347541.0,-9.232,-2.2314,60.1136,0.9605,5.186,0.4762
1347551.0,-12.2583,-0.4501,56.8958,0.7737,4.5293,0.2549
1347561.0,-14.5184,-2.624,59.7497,1.3867,5.2482,0.1527
1347571.0,-15.4474,0.8428,58.5718,1.4926,5.013,-0.1139
1347581.0,-15.9837,0.1053,67.0376,0.8796,3.4412,-0.3129
1347591.0,-13.4171,2.4995,65.2851,1.1903,2.344,-0.4544
1347601.0,-13.963,3.62,65.2468,1.0775,1.5027,-0.5545
1347611.0,-14.5376,5.7557,63.4751,0.9381,0.3735,-0.5486
1347621.0,-15.7155,7.4029,62.5078,0.5534,-0.9434,-0.5013
1347631.0,-16.6158,8.5808,60.0083,0.1979,-1.8145,-0.2469
1347641.0,-18.1289,8.3606,59.8263,0.671,-2.6946,0.1921
1347651.0,-18.0619,7.3167,57.6332,0.9035,-3.6386,0.6082
1347661.0,-15.9837,4.9608,55.2103,1.5447,-4.3862,0.8455
1347671.0,-14.7387,2.6624,52.8257,2.3663,-4.6166,0.8849
1347681.0,-13.8672,1.3503,50.0292,3.2161,-4.8177,0.7455
1347691.0,-12.5552,1.1109,46.2751,3.488,-5.0439,0.4353
1347701.0,-10.9654,1.5706,41.7166,2.8207,-5.1796,-0.1139
1347711.0,-9.5289,3.1699,37.3208,1.0626,-5.2355,-0.8391
1347721.0,-9.8258,4.5777,35.6449,-1.4133,-5.0843,-1.6495
1347731.0,-10.3621,5.9664,35.8747,-3.6343,-4.9965,-2.369
1347741.0,-10.0556,6.5984,39.3894,-5.6564,-4.9077,-2.9107
1347751.0,-10.5441,6.0238,43.5649,-6.3172,-4.9784,-3.1943
1347761.0,-10.7548,5.9951,46.6199,-6.4955,-5.1349,-3.3896
1347771.0,-10.3046,5.861,48.5257,-5.9591,-5.4169,-3.4683
1347781.0,-10.2376,6.3877,49.3684,-5.2881,-5.6601,-3.4454
1347791.0,-9.8641,6.2632,51.0348,-3.9594,-5.8926,-3.281
1347801.0,-10.1706,6.4739,50.69,-2.6292,-6.2124,-3.0639
1347811.0,-10.6015,6.7516,48.4586,-2.2157,-6.9143,-2.9506
1347821.0,-8.2935,6.2728,46.821,-2.3466,-7.5656,-2.9846
1347831.0,-7.3741,6.11,45.2887,-2.2067,-7.9306,-3.0054
1347841.0,-7.5561,6.0525,42.9616,-2.1024,-8.0897,-2.9782
1347851.0,-7.4508,5.5737,43.0477,-1.9406,-8.1264,-2.9027
1347861.0,-6.4931,4.6926,43.3829,-1.6607,-8.3414,-2.8484
1347871.0,-5.3343,3.7254,44.0725,-1.5186,-8.8336,-2.8872
1347881.0,-4.7788,2.8443,44.2161,-1.3282,-9.5158,-2.9862
1347891.0,-4.6064,2.4804,43.699,-0.994,-10.1756,-3.1618
1347901.0,-3.6392,3.3327,41.9847,-0.629,-10.8237,-3.2634
1347911.0,-3.1891,4.2425,39.8587,-0.299,-11.3351,-3.2762
1347921.0,-2.2889,4.7692,36.4781,-0.0043,-11.6937,-3.2491
1347931.0,-0.0096,5.6886,31.3832,-0.5523,-12.0752,-3.2491
1347941.0,2.3846,5.2289,28.0792,-1.1563,-12.0135,-3.2821
1347951.0,4.0606,5.5258,23.8271,-2.0018,-11.7943,-3.3938
1347961.0,5.2289,5.4396,20.9828,-3.3747,-11.6575,-3.6141
1347971.0,7.3837,5.43,18.3779,-4.5214,-11.2946,-3.8397
1347981.0,9.1171,5.8131,17.1808,-5.4164,-10.7428,-4.0403
1347991.0,10.2951,6.7133,14.9015,-5.9847,-10.2309,-4.1186
1348001.0,11.2336,7.3933,13.7236,-6.3375,-9.661,-4.1052
1348011.0,12.1051,8.4084,12.6701,-5.8676,-8.8283,-3.9871
1348021.0,13.0915,10.2568,9.9216,-5.2078,-8.0269,-3.6806
1348031.0,13.8193,11.7795,7.9775,-4.0355,-6.9877,-3.1666
1348041.0,15.1601,13.6757,3.8786,-2.5744,-5.5659,-2.444
1348051.0,15.8305,15.2559,1.0439,-1.1137,-3.9339,-1.5958
1348061.0,16.9605,16.7115,-1.8483,0.3863,-1.9539,-0.6119
1348071.0,16.9126,17.6884,-2.4612,1.7006,0.0463,0.4869
1348081.0,16.7211,17.7267,-3.122,2.7739,1.8427,1.6905
1348091.0,16.6062,16.1178,-3.8307,3.3278,3.7572,2.8138
1348101.0,15.773,14.0396,-4.1946,3.2134,5.609,3.7924
1348111.0,14.3365,11.0708,-2.7869,2.3067,7.2415,4.5501
1348121.0,12.7755,7.1443,-0.0383,0.9919,8.6915,5.0636
1348131.0,11.1857,2.3655,4.8267,-0.3134,10.1064,5.3185
1348141.0,9.1746,-2.3942,12.0668,-0.7737,11.3462,5.3153
1348151.0,6.8761,-6.4165,18.7131,-0.4959,12.4158,5.0838
1348161.0,5.2385,-9.7396,26.7768,0.555,13.1687,4.6054
1348171.0,4.4436,-10.477,31.8237,1.4346,13.3534,3.894
1348181.0,3.5051,-9.5098,35.9896,2.3775,13.4263,3.1842
1348191.0,1.5514,-6.1387,38.403,2.8473,13.6008,2.6611
1348201.0,-0.996,-4.1659,42.7987,3.0096,13.3023,2.3205
1348211.0,-2.2122,-2.4804,45.9591,3.1948,12.7026,2.0407
1348221.0,-2.873,-0.9577,47.2615,3.413,12.2279,1.7602
1348231.0,-3.9073,1.063,48.1713,3.513,11.7081,1.4755
1348241.0,-5.0087,3.237,49.8281,3.6109,11.0046,1.2318
1348251.0,-4.9704,7.0677,47.635,3.4071,10.3166,1.1111
1348261.0,-5.9664,11.3102,45.1259,3.165,10.1485,1.3005
1348271.0,-7.4699,15.524,43.1339,2.5898,10.3831,1.881
1348281.0,-9.6917,16.7307,43.9288,1.9747,10.7056,2.7138
1348291.0,-11.4634,15.6293,46.6869,1.6453,10.9961,3.6322
1348301.0,-12.4882,12.8521,49.8664,1.4638,10.8966,4.349
1348311.0,-13.4554,9.098,53.7833,1.6772,10.5114,4.8156
1348321.0,-13.963,5.8323,57.5853,2.7484,9.9569,5.112
1348331.0,-13.034,5.2385,55.4114,3.4917,9.2497,5.2275
1348341.0,-13.6469,5.6886,51.5328,3.4529,8.9475,5.3089
1348351.0,-14.6238,6.359,47.4627,2.7388,9.0156,5.3626
1348361.0,-16.2614,6.11,46.1123,1.6724,9.2971,5.4313
1348371.0,-17.4298,4.8554,46.6103,0.4315,9.7025,5.4111
1348381.0,-19.6516,3.1603,49.7324,-0.3358,9.7669,5.3014
1348391.0,-21.2988,1.1301,53.5918,-0.6768,9.751,5.1482
1348401.0,-22.0267,-1.5897,59.8072,0.1176,9.7584,4.9428
1348411.0,-21.2605,-3.1316,63.772,1.0866,9.0417,4.5826
1348421.0,-20.1209,-2.8252,65.4192,1.6235,7.6736,4.026
1348431.0,-18.8567,0.4405,62.2301,1.3047,6.4354,3.48
1348441.0,-18.9812,3.4572,59.9795,0.4294,5.1631,3.0974
1348451.0,-18.4928,6.8283,55.6029,-0.7253,4.0951,2.8644
1348461.0,-19.0962,9.5289,52.1361,-1.9156,3.2821,2.8037
1348471.0,-20.3316,11.9997,48.6981,-2.6292,3.1251,3.04
1348481.0,-21.2892,12.1434,48.5927,-2.2375,3.7046,3.6572
1348491.0,-21.3275,11.0229,50.9773,-1.3611,4.267,4.3708
1348501.0,-20.6476,8.8585,53.247,-0.9067,4.0403,4.88
1348511.0,-19.4888,7.0294,54.4346,-0.8753,3.381,5.1689
1348521.0,-19.0483,5.6024,55.0954,-0.7295,2.7085,5.3594
1348531.0,-18.6939,3.9361,55.4401,-0.3501,2.088,5.5111
1348541.0,-17.8512,2.3942,54.0419,0.2277,1.5272,5.5334
1348551.0,-17.3149,2.308,51.3891,0.5273,1.1084,5.3956
1348561.0,-17.1616,2.557,48.3246,0.5374,0.9993,5.2658
1348571.0,-17.5639,2.7869,46.7923,0.481,1.0488,5.1386
1348581.0,-17.9469,1.9058,46.4188,0.4507,1.3452,5.0444
1348591.0,-17.8129,-0.2777,48.6023,0.7301,1.6331,4.8593
1348601.0,-17.2478,-1.6472,50.4602,0.5859,1.4011,4.4878
1348611.0,-17.0659,-2.5857,53.2949,0.6242,0.8019,4.0015
1348621.0,-16.6062,-1.9441,53.0364,0.589,0.2304,3.4688
1348631.0,-16.2518,-0.431,51.9925,0.2623,-0.3565,3.0112
1348641.0,-16.2997,1.6951,49.6749,-0.6449,-0.8977,2.5616
1348651.0,-16.8935,2.7964,48.4874,-1.8661,-1.4585,2.1998
1348661.0,-17.3819,3.6583,47.5584,-3.0054,-2.0124,1.9348
1348671.0,-17.5256,3.6009,47.386,-3.7088,-2.411,1.7714
1348681.0,-17.1042,3.3806,47.3382,-3.7753,-2.5988,1.6522
1348691.0,-16.6541,3.122,47.568,-3.3741,-2.668,1.5554
1348701.0,-16.4051,2.9592,48.0851,-2.7159,-2.6031,1.499
1348711.0,-15.9741,3.1125,48.3054,-1.8342,-2.5999,1.4516
1348721.0,-15.9167,4.3479,47.4435,-1.375,-2.7308,1.3941
1348731.0,-16.1082,5.679,46.9551,-1.0828,-3.008,1.4356
1348741.0,-15.6677,6.675,45.8633,-1.0046,-3.1607,1.5527
1348751.0,-15.7155,6.7612,44.8769,-0.9764,-3.3151,1.7118
1348761.0,-15.3612,6.2537,44.6088,-1.0461,-3.421,1.831
1348771.0,-14.6046,5.047,44.9344,-0.9514,-3.5774,1.8581
1348781.0,-13.8672,4.1659,44.2736,-0.936,-3.7392,1.8055
1348791.0,-13.5895,3.2753,45.1355,-0.7263,-3.8887,1.7049
1348801.0,-12.7755,3.1987,44.2832,-0.4512,-4.0228,1.5479
1348811.0,-12.2487,3.5338,43.8139,-0.2714,-4.1686,1.4378
1348821.0,-11.7029,4.1851,42.952,-0.107,-4.375,1.3223
1348831.0,-11.0229,5.4492,41.0941,-0.4188,-4.5011,1.2265
1348841.0,-10.8793,5.5929,40.2034,-0.8695,-4.6065,1.144
1348851.0,-10.6877,5.5929,39.715,-1.2755,-4.6608,1.0115
1348861.0,-10.161,5.4684,38.3934,-1.7443,-4.7108,0.8647
1348871.0,-9.7492,5.1811,37.6847,-2.1928,-4.6395,0.6891
1348881.0,-9.2608,4.7884,38.0965,-2.3961,-4.4357,0.5284
1348891.0,-9.0597,4.616,39.6959,-2.1716,-4.2553,0.4113
1348901.0,-8.5042,5.2098,39.8395,-2.0135,-4.1489,0.306
1348911.0,-8.2839,5.5067,40.3854,-1.9635,-4.176,0.2629
1348921.0,-7.8243,6.1387,40.3854,-2.1316,-4.3106,0.2533
1348931.0,-7.4029,5.9185,40.5003,-2.3828,-4.4618,0.2645
1348941.0,-7.2784,5.5641,40.146,-2.635,-4.7326,0.2506
1348951.0,-6.5888,4.9799,39.7821,-2.8399,-4.8566,0.2373
1348961.0,-6.1675,4.1084,39.6288,-2.8527,-4.8784,0.2448
1348971.0,-5.4492,2.9209,39.9066,-2.709,-4.8779,0.1868
1348981.0,-4.6064,1.8004,39.9257,-2.3727,-4.9151,0.1133
1348991.0,-4.1084,0.7661,40.3567,-2.0055,-4.8577,0.0357
1349001.0,-3.5338,-0.5267,41.9656,-1.2446,-4.9561,-0.0681
1349011.0,-2.988,-0.9098,40.96,-0.5146,-5.2376,-0.2102
1349021.0,-2.1165,-0.7278,39.6097,0.0218,-5.4584,-0.3469
1349031.0,-1.561,0.0383,37.4932,0.4821,-5.5074,-0.4608
1349041.0,-1.1588,0.4693,35.5683,0.7705,-5.4217,-0.4704
1349051.0,-0.6704,0.4501,34.0551,0.9392,-5.2371,-0.423
1349061.0,-0.2969,0.1724,33.2698,0.9786,-5.0497,-0.4087
1349071.0,0.4693,-0.8715,32.7718,0.8562,-4.8992,-0.431
1349081.0,1.6664,-2.0973,32.36,0.6997,-4.8683,-0.4975
1349091.0,2.4421,-3.304,33.2315,0.6114,-4.9087,-0.6396
1349101.0,3.4668,-4.3383,32.0248,0.6407,-5.0189,-0.821
1349111.0,4.3766,-5.3343,30.9714,0.704,-5.0173,-1.0844
1349121.0,5.2864,-6.2153,29.2093,0.8535,-4.8672,-1.3537
1349131.0,6.1675,-6.8761,28.2899,0.9253,-4.623,-1.6953
1349141.0,6.8953,-7.6231,25.8478,0.8083,-4.375,-2.0832
1349151.0,7.7093,-7.8338,24.2102,0.5593,-4.0435,-2.5227
1349161.0,8.5617,-7.9296,24.0665,0.2426,-3.5763,-2.9729
1349171.0,9.0692,-7.6998,22.7162,-0.1229,-3.1815,-3.4385
1349181.0,9.3661,-7.3263,22.5725,-0.5247,-2.8,-3.8897
1349191.0,9.3948,-7.0006,22.3618,-0.7918,-2.3487,-4.3245
1349201.0,9.2991,-6.924,23.061,-0.6811,-1.8267,-4.7166
1349211.0,9.1459,-6.3207,22.9365,-0.4427,-1.3995,-5.1141
1349221.0,8.8011,-5.794,22.6108,-0.1022,-0.9844,-5.485
1349231.0,8.6862,-4.616,21.4042,0.2517,-0.3315,-5.8256
1349241.0,8.3606,-3.1891,20.5135,0.5715,0.3081,-6.1613
1349251.0,8.0828,-1.1301,19.3451,0.6151,0.9849,-6.4109
1349261.0,7.5657,1.0534,18.8663,0.3996,1.5687,-6.5876
1349271.0,6.6655,3.1795,18.7035,-0.1932,2.1279,-6.6232
1349281.0,5.679,4.8554,19.6325,-0.7966,2.634,-6.5253
1349291.0,4.0318,5.2098,20.1496,-1.4229,3.1395,-6.3289
1349301.0,3.5626,4.1276,21.5574,-1.6426,3.6913,-6.1635
1349311.0,3.62,2.6336,23.1088,-1.6001,4.5011,-6.09
1349321.0,3.6105,1.5514,24.6028,-1.3947,5.1466,-6.156
1349331.0,2.5091,1.9632,26.9108,-1.2505,5.7617,-6.2757
1349341.0,0.8523,3.3519,28.8741,-1.0695,6.1784,-6.3098
1349351.0,-0.6704,5.5929,30.7415,-1.1126,6.5248,-6.1672
1349361.0,-1.9632,7.4603,31.2012,-1.525,6.6535,-5.9027
1349371.0,-3.2657,8.2552,32.5803,-2.6494,6.6519,-5.551
1349381.0,-5.1619,6.2153,37.3112,-3.3614,6.7658,-5.1381
1349391.0,-6.4165,2.6528,41.3048,-3.0362,6.6679,-4.8497
1349401.0,-5.8419,-1.0056,43.8905,-2.1854,6.6738,-4.8486
1349411.0,-5.2385,-3.371,45.0493,-1.0238,6.8637,-5.1131
1349421.0,-5.5545,-2.9209,46.2656,-0.1783,6.7312,-5.5702
1349431.0,-6.7421,0.2203,46.2943,0.2368,6.4226,-5.8985
1349441.0,-8.2265,2.8539,46.2272,0.3815,6.3508,-5.9581
1349451.0,-10.3525,4.616,46.1027,0.0011,6.1347,-5.8793
1349461.0,-11.6358,3.2848,48.7459,-0.4475,5.6372,-5.8059
1349471.0,-11.8082,2.9018,48.5736,-0.5965,5.2397,-5.8953
1349481.0,-12.9287,1.2163,51.5424,-0.0564,5.3946,-5.9432
1349491.0,-12.8617,0.9577,53.4003,1.5272,5.4547,-6.0214
1349501.0,-13.1777,2.3176,53.4194,2.4706,5.2695,-6.2044
1349511.0,-13.8768,4.7501,53.6014,3.0596,4.8518,-6.3497
1349521.0,-14.71,7.5944,52.682,3.323,4.4815,-6.3119
1349531.0,-14.6334,9.3661,51.619,3.0964,4.3383,-6.1358
1349541.0,-15.6102,8.3893,52.5384,2.6457,4.1574,-5.932
1349551.0,-17.0467,5.3822,55.0475,2.2572,3.7599,-5.9027
1349561.0,-17.5543,1.5036,57.3938,2.3849,3.3124,-6.1965
1349571.0,-17.7746,-0.4884,59.1368,3.0213,2.9607,-6.7424
1349581.0,-18.9812,-0.5938,61.3299,3.9515,2.5802,-7.3756
1349591.0,-19.393,2.557,61.531,4.9476,2.0023,-7.9157
1349601.0,-19.9676,7.6136,60.1519,5.4361,1.3792,-8.2531
1349611.0,-20.8296,13.2351,57.9397,5.2998,0.7609,-8.2871
1349621.0,-21.5095,18.081,57.1831,4.7017,0.2097,-8.053
1349631.0,-22.6587,21.2414,57.6907,4.0143,-0.4581,-7.5246
1349641.0,-21.816,22.4576,56.7905,3.3864,-1.2015,-6.9137
1349651.0,-21.0115,22.697,56.4361,2.949,-1.5511,-6.2694
1349661.0,-20.5135,22.4576,57.0107,2.9511,-1.8406,-5.5856
1349671.0,-20.0634,21.9596,57.6332,2.9367,-2.3711,-4.9737
1349681.0,-18.9812,21.4904,56.8479,3.0256,-3.007,-4.3825
1349691.0,-17.5926,21.0115,55.2199,2.9846,-3.5981,-3.845
1349701.0,-16.7498,19.6229,53.0459,2.8064,-4.1175,-3.4231
1349711.0,-15.342,18.4928,49.4163,2.32,-4.5788,-3.1437
1349721.0,-14.2599,17.3628,46.6582,1.5852,-4.7789,-3.0283
1349731.0,-13.5129,16.7115,44.2257,0.6705,-4.8529,-3.0405
1349741.0,-13.0245,15.84,43.948,0.1032,-4.806,-3.0277
1349751.0,-12.1051,15.4282,43.4883,-0.0436,-4.607,-2.9926
1349761.0,-11.6837,14.959,43.766,-0.0527,-4.3867,-2.9335
1349771.0,-11.2144,15.1984,44.2927,0.0202,-4.4022,-2.8112
1349781.0,-10.8122,15.5144,44.0054,-0.2581,-4.6592,-2.718
1349791.0,-10.4579,15.1409,43.4883,-0.6598,-4.9774,-2.6632
1349801.0,-9.5481,14.6908,42.6264,-0.9935,-5.1902,-2.6616
1349811.0,-9.098,14.4227,42.9328,-1.052,-5.161,-2.6547
1349821.0,-9.5768,14.279,43.3446,-0.6391,-5.07,-2.5919
1349831.0,-9.663,14.7866,43.2776,-0.1932,-4.905,-2.4908
1349841.0,-9.5289,15.6868,43.2297,0.2421,-4.8289,-2.3205
1349851.0,-9.6247,16.2231,43.0956,0.3214,-4.8811,-2.154
1349861.0,-9.2512,16.7211,42.8371,0.2783,-4.9534,-1.9459
1349871.0,-8.5617,17.0371,42.4348,-0.0665,-5.0343,-1.8118
1349881.0,-8.1977,16.9605,42.4444,-0.5779,-5.1684,-1.6836
1349891.0,-7.7764,16.7211,42.4636,-1.0584,-5.3004,-1.5681
1349901.0,-7.6998,16.3189,43.2393,-1.5234,-5.3605,-1.4394
1349911.0,-7.5848,15.4665,43.9575,-1.7767,-5.4446,-1.3399
1349921.0,-7.1347,15.2846,44.4077,-2.2727,-5.7303,-1.351
1349931.0,-6.7708,15.1792,45.8825,-2.6457,-6.2183,-1.351
1349941.0,-6.5505,15.4953,46.1315,-2.5919,-6.662,-1.2345
1349951.0,-6.1866,15.8783,46.2943,-2.1354,-6.9675,-0.9307
1349961.0,-6.2058,15.6006,45.8059,-1.3175,-7.2421,-0.5039
1349971.0,-5.1332,14.9685,43.6894,-0.5795,-7.5145,-0.1054
1349981.0,-4.1659,14.0013,41.6304,-0.2235,-7.6465,0.1878
1349991.0,-2.988,12.536,38.5945,-0.1564,-7.6246,0.3549
1350001.0,-1.3695,11.1953,36.4302,-0.3406,-7.5592,0.3453
1350012.0,0.5746,10.5536,34.534,-1.2638,-7.6709,0.1591
1350021.0,1.9537,10.4483,33.9785,-2.2817,-7.9141,-0.0772
1350031.0,2.7102,10.975,32.7335,-3.3113,-8.1504,-0.2464
1350041.0,3.1125,11.157,32.4271,-4.0057,-8.3276,-0.307
1350051.0,3.3423,10.5824,32.8101,-3.9648,-8.2855,-0.2097
1350061.0,3.9552,9.0022,33.1453,-3.3268,-8.0865,-0.0266
1350071.0,5.4013,7.7189,32.2355,-2.5972,-8.128,0.0724
1350081.0,7.039,6.6559,30.301,-2.3993,-8.2637,0.0245
1350091.0,8.3127,6.3207,27.9451,-2.5488,-8.4138,-0.1793
1350101.0,9.3278,6.2058,26.3266,-2.7015,-8.492,-0.4001
1350111.0,10.4387,7.3454,23.0035,-3.0016,-8.4361,-0.605
1350121.0,10.8409,7.7668,21.6053,-3.1107,-8.1839,-0.705
1350131.0,11.7412,8.5712,20.1113,-2.8904,-7.7704,-0.6486
1350141.0,13.5033,8.8298,18.397,-2.684,-7.2218,-0.5247
1350151.0,13.3213,8.5712,17.0084,-2.2705,-6.6338,-0.3927
1350161.0,13.8959,9.0309,14.3173,-2.0641,-5.9357,-0.298
1350171.0,15.0547,9.347,12.9861,-1.9864,-5.0556,-0.1745
1350181.0,16.2135,10.7069,11.7412,-2.1673,-4.2319,-0.0027
1350191.0,17.4394,11.722,11.3389,-2.2876,-3.2017,0.3155
1350201.0,17.8224,12.6605,11.4922,-2.0103,-2.1338,0.8147
1350211.0,17.9661,13.5895,11.5017,-1.6932,-0.9253,1.4527
1350221.0,17.6213,13.3884,11.4251,-1.3037,0.3682,2.1689
1350231.0,17.3723,12.153,12.4211,-1.0844,1.6889,2.8649
1350241.0,16.8743,10.3238,14.0779,-1.1648,2.7505,3.3874
1350251.0,15.9933,7.7476,16.836,-1.4223,3.5593,3.7354
1350261.0,15.3899,5.6312,19.757,-1.6261,4.0632,3.9089
1350271.0,15.0452,3.984,22.7449,-1.764,4.2771,3.9738
1350281.0,15.2942,2.9497,24.6986,-1.4005,4.5331,4.002
1350291.0,14.959,2.8922,26.0585,-0.7928,4.8949,4.118
1350301.0,13.2639,2.9688,26.6714,-0.1325,5.3557,4.3096
1350311.0,11.1857,2.0303,28.9124,0.8141,5.9458,4.5943
1350321.0,10.3142,0.6991,29.6115,1.7379,6.4551,4.7959
1350331.0,10.0461,-1.4557,31.1055,2.1567,6.7584,4.7603
1350341.0,9.8833,-2.739,32.1493,2.0763,6.554,4.4916
1350351.0,10.6015,-3.6009,32.36,1.773,6.3859,4.0951
1350361.0,10.6686,-3.0742,32.6378,1.5969,6.471,3.7455
1350371.0,9.8162,-2.3367,32.9346,1.2861,6.578,3.4704
1350381.0,8.5521,-1.8387,33.3273,1.0238,6.7461,3.281
1350391.0,6.79,-1.9441,34.2945,0.8109,7.025,3.1528
1350401.0,5.861,-2.6432,36.095,0.5289,7.0675,2.9846
1350411.0,5.2672,-3.3902,37.9912,0.241,6.8648,2.6861
1350421.0,5.1619,-3.4955,38.9872,0.1612,6.695,2.3934
1350431.0,5.0566,-2.5953,39.7437,0.4358,6.7616,2.2391
1350441.0,4.0893,-1.5993,40.4812,0.787,6.9664,2.1992
1350451.0,3.5721,-1.245,40.9887,1.1829,7.1197,2.2024
1350461.0,2.8443,-0.9002,41.7836,1.2861,7.2325,2.1763
1350471.0,2.375,-0.9002,42.6743,1.2111,7.1692,2.0545
1350481.0,1.4844,-1.2737,44.3981,0.7684,6.7376,1.8065
1350491.0,1.1109,-1.2641,44.58,0.157,5.8676,1.4745
1350501.0,1.1109,0.4501,44.1491,-0.3789,5.2913,1.2175
1350511.0,1.1684,2.5474,42.9137,-0.1219,5.3323,1.3047
1350521.0,0.6895,3.9744,42.205,0.3006,5.858,1.6368
1350531.0,-0.7087,4.3574,42.3965,0.4661,6.1166,2.0093
1350541.0,-1.6855,3.62,42.7413,0.3006,6.1518,2.2961
1350551.0,-2.557,1.6281,44.6375,0.1144,6.1134,2.3998
1350561.0,-3.1029,-0.0575,45.5952,0.0458,5.7144,2.2828
1350571.0,-2.9975,-0.498,45.3079,0.0452,5.2349,2.0689
1350581.0,-3.6009,0.8523,43.8139,0.3714,5.2275,1.9885
1350591.0,-4.6831,2.6719,41.8794,0.8477,5.626,2.1519
1350601.0,-5.9472,3.7733,41.3143,1.1483,6.3465,2.4935
1350611.0,-7.106,2.7964,42.6455,1.7491,7.0867,2.8739
1350621.0,-7.8338,1.4174,44.58,1.8337,7.6651,3.099
1350631.0,-8.7724,-0.4118,48.4203,1.7762,7.6912,3.0607
1350641.0,-9.4332,-1.81,51.0731,1.3516,7.2852,2.8718
1350651.0,-9.3853,-3.4285,53.9749,1.185,6.5971,2.5302
1350661.0,-9.9407,-4.0318,55.2869,0.8615,5.6489,2.0353
1350671.0,-9.4044,-4.3096,55.4976,0.7184,4.5134,1.4622
1350681.0,-9.1554,-2.9592,53.2279,0.5486,3.6407,0.8977
1350691.0,-9.2512,-0.8715,50.6709,0.5161,3.1145,0.4837
1350701.0,-9.3182,1.7142,47.7883,0.2049,2.8399,0.2123
1350711.0,-9.5768,3.6583,46.3805,-0.1995,2.577,0.0798
1350721.0,-10.1035,5.2098,45.3845,-0.5412,2.2035,0.0298
1350731.0,-9.7396,6.4069,43.7277,-0.8046,1.8826,0.0628
1350741.0,-9.481,7.7189,42.272,-0.8769,1.7602,0.1559
1350751.0,-8.4659,9.663,40.2609,-0.5965,1.947,0.4198
1350761.0,-8.6479,11.2336,39.0255,-0.1703,2.5174,0.8982
1350771.0,-9.1937,12.153,37.6943,0.3618,3.2698,1.5022
1350781.0,-9.4906,11.5975,37.0718,0.3735,3.8945,2.0492
1350791.0,-9.5481,10.0556,37.4357,0.0452,4.4075,2.4051
1350801.0,-9.7971,8.418,39.5905,-0.2645,4.7225,2.5302
1350811.0,-10.4291,7.2305,42.0326,-0.3677,4.7858,2.5728
1350821.0,-11.1857,7.7381,43.4212,-0.4997,4.6427,2.6026
1350831.0,-12.3541,9.3374,44.2353,-0.4853,4.5623,2.7782
1350841.0,-13.1106,11.3772,45.0014,-0.0399,4.6773,3.2608
1350851.0,-14.1641,12.8617,44.7716,0.5252,5.1152,4.0164
1350861.0,-15.275,12.287,46.6774,1.4484,5.8362,4.8763
1350871.0,-16.089,10.6015,49.1099,2.0518,6.2108,5.5952
1350881.0,-16.4817,7.9679,50.8433,2.1013,6.0783,6.0315
1350891.0,-15.8496,5.8993,51.5424,1.6213,5.6872,6.1549
1350901.0,-15.591,3.7637,52.3468,0.6327,5.212,5.9783
1350911.0,-15.5144,2.4708,51.8105,-0.9009,4.449,5.5175
1350921.0,-15.9741,2.5666,51.0923,-2.601,3.5056,4.9742
1350931.0,-17.9948,3.1603,49.876,-4.0606,3.0905,4.565
1350941.0,-19.642,1.9345,53.429,-4.3851,3.4225,4.4282
1350951.0,-20.5231,-0.1341,58.6388,-3.778,3.1788,4.3016
1350961.0,-19.5941,-1.3312,62.0386,-3.3773,1.9231,3.9839
1350971.0,-17.6884,-1.063,61.5693,-2.6941,0.687,3.6274
1350981.0,-18.8472,0.8523,59.7497,-1.9465,0.0213,3.4305
1350991.0,-19.9293,3.3327,58.1025,-1.0036,-0.679,3.4561
1351001.0,-18.6748,5.3151,54.4633,-0.7774,-1.4617,3.587
1351011.0,-17.6979,5.5354,50.4698,-0.7066,-2.0321,3.7466
1351021.0,-17.2478,5.2385,46.4475,-0.8216,-2.1439,3.82
1351031.0,-16.702,4.5107,43.9097,-0.9386,-1.98,3.8184
1351041.0,-16.6636,3.8211,41.9081,-1.2324,-1.6671,3.7514
1351051.0,-16.52,3.2082,42.0901,-1.4606,-1.3893,3.671
1351061.0,-16.2423,3.3423,42.272,-1.7427,-1.1861,3.6173
1351071.0,-16.5775,3.6488,43.1627,-2.1439,-0.9727,3.613
1351081.0,-17.3436,2.7773,45.4611,-2.3046,-0.9104,3.6753
1351091.0,-17.1521,1.8579,46.7635,-2.4349,-0.9615,3.653
1351101.0,-17.0754,0.6416,47.5488,-2.7798,-1.1802,3.5183
1351111.0,-16.5775,-0.68,48.2096,-3.3012,-1.6128,3.1863
1351121.0,-16.089,-1.3503,49.0045,-3.7886,-2.1178,2.7292
1351131.0,-15.6964,-1.3982,50.1729,-4.0425,-2.6558,2.2923
1351141.0,-15.9262,-1.6568,51.437,-3.8137,-3.1501,1.9337
1351151.0,-14.8536,-1.312,51.3508,-3.2209,-3.6349,1.6554
1351161.0,-14.6046,-0.498,50.0005,-2.7457,-4.1468,1.4324
1351171.0,-14.4227,0.5171,48.3629,-2.3498,-4.6384,1.2898
1351181.0,-14.2503,1.4844,45.8825,-1.9981,-4.9396,1.2318
1351191.0,-13.5416,2.7677,43.1148,-1.9268,-5.1333,1.1925
1351201.0,-12.3062,3.8978,40.5961,-2.2796,-5.1892,1.1887
1351211.0,-11.8848,4.3287,38.968,-2.8638,-5.1998,1.2084
1351221.0,-11.655,3.6488,39.15,-3.2336,-5.2062,1.2435
1351231.0,-11.0133,2.7198,38.6616,-3.3507,-5.2259,1.2787
1351241.0,-10.0556,1.3312,38.9968,-3.4497,-5.2653,1.2313
1351251.0,-8.8873,0.0192,39.3128,-3.3337,-5.278,1.1983
1351261.0,-7.8913,-0.8236,39.4373,-3.1911,-5.3504,1.1084
1351271.0,-7.2113,-2.1739,39.897,-2.8473,-5.5723,0.9844
1351281.0,-6.5505,-2.624,39.5235,-2.4334,-5.7979,0.8562
1351291.0,-5.8323,-2.8443,38.7478,-1.7938,-6.0134,0.7194
1351301.0,-5.2194,-2.6719,37.3495,-1.0844,-6.173,0.6369
1351311.0,-4.2713,-2.7007,34.8979,-0.4683,-6.2725,0.5236
1351321.0,-3.3327,-2.3367,32.5324,-0.1873,-6.2736,0.4241
1351331.0,-2.4995,-1.9441,30.0712,-0.0835,-6.1613,0.3129
1351341.0,-1.992,-1.3408,27.7632,-0.1378,-5.9421,0.2575
1351351.0,-1.2354,-0.5459,26.8055,-0.1815,-5.617,0.2666
1351361.0,-0.4118,-0.0096,25.436,-0.2363,-5.2684,0.3251
1351371.0,0.431,-0.2011,24.3442,-0.3602,-4.8843,0.3991
1351381.0,1.3408,-0.6033,23.2238,-0.4773,-4.424,0.4587
1351391.0,1.8483,-1.743,22.9077,-0.4821,-3.9142,0.4635
1351401.0,2.739,-2.7677,22.6204,-0.3778,-3.3342,0.4246
1351411.0,3.4477,-4.1276,22.563,-0.1197,-2.7239,0.3225
1351421.0,4.5203,-5.5929,23.1471,0.2086,-2.0901,0.133
1351431.0,5.2002,-6.8857,24.3347,0.6412,-1.4681,-0.1777
1351441.0,6.3111,-7.4891,24.6028,1.0115,-1.0296,-0.5529
1351451.0,7.1443,-7.6423,24.5837,1.1792,-0.572,-1.0131
1351461.0,7.4699,-7.604,25.3115,1.3824,-0.1767,-1.4681
1351471.0,7.671,-6.4739,25.8478,1.5421,0.2107,-1.9071
1351481.0,7.7668,-4.9704,25.5988,1.533,0.5997,-2.2796
1351491.0,6.9911,-3.4955,25.6946,1.2441,0.9088,-2.5643
1351501.0,6.2632,-2.3942,26.432,1.0701,1.1611,-2.7659
1351511.0,6.3973,-1.4557,26.3362,0.8939,1.6543,-2.9043
1351521.0,5.7461,-0.6895,27.6099,0.7476,2.112,-3.0549
1351531.0,5.2768,-0.2682,28.2612,0.6401,2.4988,-3.1762
1351541.0,5.1427,0.316,29.5253,0.5773,2.8723,-3.2693
1351551.0,3.7924,1.5227,31.1821,0.679,3.1874,-3.2485
1351561.0,2.9497,2.6049,32.3983,0.9381,3.4279,-3.165
1351571.0,1.9249,3.5434,33.1741,1.3244,3.6923,-2.9708
1351581.0,1.2737,3.9169,33.6242,1.6543,4.076,-2.7723
1351591.0,1.0534,3.4668,35.3671,2.0162,4.4469,-2.6638
1351601.0,0.7566,3.1316,35.5204,2.1082,4.6294,-2.6739
1351611.0,0.0,3.1316,37.34,1.938,4.6299,-2.742
1351621.0,-0.7661,3.3806,39.2458,1.7682,4.5086,-2.8213
1351631.0,-1.3503,4.1468,40.2322,1.6778,4.2899,-2.8181
1351641.0,-2.0877,4.9129,41.0653,1.3494,3.943,-2.7532
1351651.0,-2.4325,5.1044,41.7549,1.143,3.5205,-2.6212
1351661.0,-2.7677,5.363,40.7972,1.0158,3.1331,-2.4461
1351671.0,-3.62,4.9129,40.0311,1.0839,2.8654,-2.2806
1351681.0,-4.2617,4.1276,38.2881,1.5107,2.833,-2.1598
1351691.0,-4.5298,3.1125,36.3823,2.17,3.2124,-2.1024
1351701.0,-4.7788,2.5666,34.4765,2.9,3.8568,-2.1992
1351711.0,-5.0661,2.5953,35.5204,3.6652,4.6661,-2.3014
1351721.0,-5.7748,3.5147,36.0758,4.4032,5.1929,-2.4195
1351731.0,-7.0964,4.5777,37.0144,4.574,5.2642,-2.5478
1351741.0,-8.3701,6.3015,36.3536,4.2644,5.1812,-2.6435
1351751.0,-9.7971,7.1443,35.3863,3.5864,5.1466,-2.6909
1351761.0,-10.6207,7.7189,33.9977,2.6654,5.3137,-2.7542
1351771.0,-11.224,6.5601,34.6585,1.6985,5.6899,-2.8468
1351781.0,-11.3102,4.4532,38.2881,1.1291,6.173,-3.0602
1351791.0,-11.2432,2.49,43.3829,1.1116,6.3869,-3.388
1351801.0,-11.904,1.7909,47.8936,1.2042,5.9958,-3.7881
1351811.0,-12.1434,2.2122,50.6805,1.2026,5.1785,-4.1691
1351821.0,-12.3541,3.6392,51.437,1.1371,4.1877,-4.4203
1351831.0,-12.9478,5.047,50.6422,0.9099,3.2491,-4.557
1351841.0,-13.216,6.3015,48.066,0.6045,2.4121,-4.5682
1351851.0,-13.4363,7.0868,45.1163,0.2006,2.022,-4.4921
1351861.0,-14.4227,6.6559,43.7277,0.2187,2.0992,-4.3569
1351871.0,-14.3269,5.114,44.829,0.8908,2.6121,-4.2441
1351881.0,-13.5416,3.4764,46.7348,1.898,2.8255,-4.2846
1351891.0,-12.9478,3.1891,46.9742,2.4259,2.5462,-4.5123
1351901.0,-13.0149,4.2521,47.003,2.66,2.1753,-4.7938
1351911.0,-13.4075,6.0525,45.9782,2.6909,1.9108,-4.9705
1351921.0,-13.9917,7.8626,44.695,2.2508,1.5506,-5.0439
1351931.0,-15.1984,8.3318,43.9384,1.7655,1.2047,-5.0466
1351941.0,-16.271,8.0924,42.6264,1.533,1.0887,-5.0716
1351951.0,-16.8935,7.5082,41.9177,1.6006,1.2531,-5.1679
1351961.0,-16.6732,7.3167,42.3295,2.0082,1.6618,-5.3179
1351971.0,-16.6445,7.9583,43.833,2.4993,2.1332,-5.4653
1351981.0,-17.1329,9.1554,46.4475,2.7819,2.1694,-5.6558
1351991.0,-17.7458,11.2623,48.4778,3.016,1.7698,-5.7144
1352001.0,-18.5982,13.5608,49.5695,3.1506,1.3047,-5.5989
1352011.0,-20.2262,15.4282,49.4929,3.3395,0.828,-5.3653
1352021.0,-21.6244,17.0754,48.6214,3.4939,0.5055,-5.0215
1352031.0,-21.6436,17.7267,47.3286,3.355,0.2373,-4.6964
1352041.0,-21.567,18.0714,46.8306,3.0187,0.1203,-4.4543
1352051.0,-22.132,18.5886,47.1083,2.6201,0.05,-4.225
1352061.0,-22.3044,20.322,47.5393,2.055,-0.0942,-3.9435
1352071.0,-22.2469,20.8583,49.3493,1.4745,-0.3735,-3.546
1352081.0,-22.1128,20.5997,51.2168,1.1653,-0.7348,-3.0724
1352091.0,-22.3044,19.8144,52.6533,1.0828,-1.1414,-2.6377
1352101.0,-21.9405,18.5024,53.2662,1.0594,-1.6011,-2.3003
1352111.0,-21.9405,16.7786,55.0379,1.334,-2.0465,-2.112
1352121.0,-21.4425,16.338,54.176,1.8831,-2.5201,-1.9635
1352131.0,-21.2031,16.587,53.5056,2.1066,-2.9766,-1.8778
1352141.0,-20.7242,17.6022,51.4466,2.0939,-3.3949,-1.8081
1352151.0,-20.4848,18.3013,49.8473,1.6634,-3.7205,-1.7203
1352161.0,-20.1975,18.7705,48.7555,0.9961,-4.1084,-1.6213
1352171.0,-19.3356,18.8663,47.9798,0.2081,-4.4681,-1.516
1352181.0,-18.895,18.2821,47.5776,-0.6167,-4.7273,-1.4271
1352191.0,-18.9142,18.3683,48.4203,-1.4032,-5.1743,-1.3468
1352201.0,-18.6077,17.3819,50.1729,-1.6905,-5.6883,-1.1504
1352211.0,-17.7362,16.7977,50.374,-1.3127,-6.1331,-0.9041
1352221.0,-17.4968,16.0124,49.5791,-0.7955,-6.6211,-0.6854
1352231.0,-16.836,15.3708,47.4818,-0.3847,-7.1346,-0.5114
1352241.0,-15.8209,15.5527,44.3789,-0.2272,-7.5172,-0.4177
1352251.0,-14.9494,15.706,41.3814,-0.223,-7.6523,-0.3203
1352261.0,-14.0492,16.338,39.3128,-0.282,-7.4991,-0.2144
1352271.0,-13.4458,16.5296,37.6656,-0.3326,-7.4267,-0.0575
1352281.0,-12.7276,16.6349,36.0375,-0.6162,-7.3703,0.0766
1352291.0,-11.9614,16.4338,34.8117,-0.8535,-7.274,0.2123
1352301.0,-11.3485,16.3093,33.4901,-1.1967,-7.0728,0.3539
1352311.0,-9.7971,15.6677,32.6856,-1.4761,-6.934,0.4358
1352321.0,-8.6574,15.706,31.7184,-1.6698,-6.6945,0.5353
1352331.0,-8.0349,15.6102,31.5747,-1.7804,-6.3822,0.6385
1352341.0,-7.4029,15.7443,30.6554,-1.7512,-6.0395,0.8184
1352351.0,-6.0047,15.2271,30.5021,-1.5192,-5.6069,0.9998
1352361.0,-5.6599,15.3612,30.2052,-1.4293,-5.2759,1.1542
1352371.0,-5.5354,15.8113,30.483,-1.5351,-5.0971,1.3654
1352381.0,-5.0566,15.3708,31.1438,-1.7251,-4.9923,1.6267
1352391.0,-4.3479,14.5184,31.5268,-1.6049,-4.8742,1.9342
1352401.0,-3.237,13.3405,31.6897,-1.5038,-4.7933,2.221
1352411.0,-2.0111,12.6031,31.4215,-1.5367,-4.8167,2.4349
1352421.0,-1.5419,11.5209,31.1438,-1.7091,-4.8465,2.5685
1352431.0,-0.9385,10.4866,30.6937,-1.856,-4.955,2.6776
1352441.0,-0.2969,9.4332,30.8182,-1.9321,-5.062,2.7691
1352451.0,0.7183,8.2456,30.1382,-1.6911,-4.9582,2.8633
1352461.0,1.9441,7.4412,28.922,-1.417,-4.7379,2.9426
1352471.0,3.0358,5.861,28.7496,-1.2648,-4.5315,2.9192
1352481.0,4.4532,5.1236,28.3282,-1.1675,-4.3835,2.8622
1352491.0,5.3917,3.8882,29.1135,-1.085,-4.316,2.734
1352501.0,6.043,3.3423,28.8358,-1.0467,-4.4149,2.5637
1352511.0,6.5697,1.9824,29.42,-0.895,-4.6102,2.4185
1352521.0,7.355,1.1109,28.2899,-0.5444,-4.7683,2.2162
1352531.0,8.0924,0.3735,27.5046,-0.1894,-4.8044,1.9731
1352541.0,8.6383,-0.9002,27.0257,0.4528,-4.7789,1.7038
1352551.0,9.1363,-1.6664,25.6563,1.2765,-4.6831,1.3649
1352561.0,10.0844,-2.0494,23.6739,2.1465,-4.3942,0.9706
1352571.0,10.7452,-1.5514,21.6915,2.9064,-3.9249,0.5651
1352581.0,10.8122,0.0192,19.1345,3.2901,-3.4853,0.166
1352591.0,11.1953,1.7813,17.2191,3.2379,-2.9889,-0.1181
1352601.0,11.4826,3.8211,15.3516,2.9037,-2.2737,-0.2772
1352611.0,11.5592,4.5203,15.7347,2.5467,-1.5011,-0.3448
1352621.0,12.5169,5.1044,15.7826,1.8629,-0.7492,-0.4496
1352631.0,13.3884,4.7405,17.9948,1.1036,-0.1639,-0.6183
1352641.0,13.5799,4.6926,18.1193,0.0601,0.1857,-0.8721
1352651.0,12.5552,4.7118,20.4561,-1.0733,0.3837,-1.1717
1352661.0,10.9367,4.7214,23.4632,-1.773,0.2432,-1.433
1352671.0,11.4156,5.0374,24.3347,-1.9954,-0.0213,-1.6251
1352681.0,12.3541,6.5793,22.7545,-1.8949,0.0548,-1.6778
1352691.0,13.5416,8.4276,20.5422,-1.5453,0.887,-1.5836
1352701.0,12.2296,10.5824,19.508,-0.9722,2.2476,-1.2936
1352711.0,9.5385,12.2104,19.2781,-0.4954,3.4433,-0.8514
1352721.0,7.7381,12.9478,21.0019,-0.1336,4.5214,-0.3336
1352731.0,6.2728,11.6741,24.2485,0.3986,5.3642,0.166
1352741.0,5.7269,9.5481,27.4759,1.1483,5.5787,0.4464
1352751.0,7.1539,8.5425,26.0489,1.1589,5.3967,0.5028
1352761.0,8.351,8.1977,23.4249,1.0983,5.7734,0.4502
1352771.0,7.5753,9.9407,19.9198,0.7891,6.9169,0.4507
1352781.0,4.5777,11.1953,19.2302,0.1607,8.252,0.6886
1352791.0,2.1548,10.4004,20.7625,-0.2139,9.569,1.002
1352801.0,0.2011,8.0158,25.0529,-0.3246,10.812,1.2127
1352811.0,-1.3982,5.2577,29.3625,-0.4773,11.351,1.1653
1352821.0,-2.5379,2.6911,33.8157,-0.63,11.401,0.861
1352831.0,-3.8403,2.2122,36.1141,-0.4629,11.4654,0.473
1352841.0,-5.43,2.6528,39.7821,0.5922,11.9225,0.2623
1352851.0,-7.92,4.2617,41.4676,2.0598,12.6451,0.1368
1352861.0,-10.3908,6.0525,42.952,3.1139,13.1735,-0.0053
1352871.0,-12.2296,8.2552,44.8578,3.5556,13.5747,-0.274
1352881.0,-13.8098,10.5632,49.0237,3.2869,13.728,-0.5204
1352891.0,-16.0316,11.0612,55.7562,2.6217,12.8207,-0.8524
1352901.0,-17.4585,12.1817,59.5869,1.408,10.7849,-1.2819
1352911.0,-17.085,15.3037,57.9684,0.2011,9.1124,-1.5628
1352921.0,-16.6253,19.5654,54.7698,-0.8567,8.6458,-1.5745
1352931.0,-18.7705,23.8175,53.4769,-2.2093,8.4276,-1.226
1352941.0,-20.3603,25.7041,55.5551,-3.3688,8.1594,-0.6018
1352951.0,-21.6053,25.6371,58.6292,-4.018,7.6672,0.183
1352961.0,-22.3044,23.2333,62.3259,-4.2149,6.6876,0.8828
1352971.0,-22.0362,20.2166,63.8294,-4.0004,5.5106,1.3207
1352981.0,-22.2948,18.1385,63.1782,-3.0309,4.3537,1.6453
1352991.0,-21.567,19.2302,58.4856,-1.5633,3.8956,2.0667
1353001.0,-20.9924,20.1113,53.9174,-0.0702,4.5347,2.6505
1353011.0,-21.4137,20.3411,51.5615,0.9748,5.1274,3.231
1353021.0,-21.0307,20.8104,49.3876,0.8131,5.3068,3.6184
1353031.0,-21.701,20.0921,50.0484,0.3198,5.3876,3.9302
1353041.0,-22.1033,19.3547,51.121,-0.1671,5.3025,4.1084
1353051.0,-22.7353,18.9238,52.2127,-0.6939,4.9236,4.1824
1353061.0,-23.9803,18.9142,52.682,-1.1845,4.4,4.3101
1353071.0,-23.9707,19.0483,52.117,-1.5229,3.8264,4.4277
1353081.0,-23.3387,19.757,49.2056,-2.4073,3.3523,4.5783
1353091.0,-23.7313,19.9868,48.7938,-3.1788,3.0102,4.8199
1353101.0,-23.693,19.9964,48.3246,-3.7051,2.6643,5.1913
1353111.0,-23.4823,19.1057,47.8649,-3.993,2.4445,5.6617
1353121.0,-23.5015,16.3285,48.9279,-3.7312,2.3088,6.0805
1353131.0,-23.4153,14.1928,49.1769,-3.4396,1.7671,6.3295
1353141.0,-23.0801,12.5456,48.0277,-3.2283,1.0919,6.4684
1353151.0,-22.4097,12.1338,45.6909,-2.8782,0.7402,6.5801
1353161.0,-21.7872,11.6741,43.1435,-2.303,0.7396,6.7477
1353171.0,-21.2126,11.7316,39.6288,-1.9853,1.0323,6.9345
1353181.0,-21.1839,10.6686,38.1732,-1.8762,1.4229,7.1005
1353191.0,-20.7625,9.2991,38.0295,-1.9167,1.8635,7.2218
1353201.0,-19.7761,7.3167,39.5331,-1.8821,2.2535,7.167
1353211.0,-19.7665,5.9472,40.7206,-2.3881,2.1827,6.9329
1353221.0,-19.4601,4.7692,43.0861,-2.9782,1.7044,6.595
1353231.0,-18.9429,4.0989,44.0246,-3.4406,1.2228,6.247
1353241.0,-19.0004,4.0223,44.513,-3.91,0.7492,5.8985
1353251.0,-19.2398,3.0933,44.6567,-4.1893,0.3672,5.6223
1353261.0,-19.0674,2.4517,45.078,-4.134,0.1203,5.3238
1353271.0,-18.1576,2.1931,44.7045,-4.3319,-0.0521,4.9923
1353281.0,-18.0044,1.7238,46.5145,-4.4873,-0.4438,4.6475
1353291.0,-17.6405,1.6664,47.2424,-4.3388,-0.9706,4.3559
1353301.0,-17.3053,1.6472,46.9455,-4.3085,-1.4042,4.1095
1353311.0,-17.2766,0.9673,47.8457,-4.0206,-1.8901,3.8786
1353321.0,-16.5104,0.8906,47.4243,-3.6929,-2.3887,3.5971
1353331.0,-15.6389,0.7853,46.9934,-3.4029,-2.8915,3.3087
1353341.0,-15.4474,0.5555,45.9208,-3.1155,-3.3268,3.057
1353351.0,-14.959,0.0383,45.3653,-2.5467,-3.5529,2.7547
1353361.0,-13.9821,0.5555,44.0246,-2.1098,-3.7344,2.4227
1353371.0,-13.5225,1.5897,43.3063,-2.1854,-4.0957,2.1002
1353381.0,-13.2447,2.9113,41.8506,-2.3849,-4.4905,1.864
1353391.0,-12.9287,3.9648,40.711,-2.5893,-4.7417,1.7576
1353401.0,-12.5265,4.0989,39.4373,-2.8133,-4.9561,1.6719
1353411.0,-11.9327,3.6775,38.6903,-3.0607,-5.0721,1.5937
1353421.0,-10.7835,2.5474,38.2976,-3.2294,-5.1046,1.4452
1353431.0,-10.0365,1.5323,38.652,-3.1868,-5.1572,1.2345
1353441.0,-9.098,0.9194,38.968,-2.9724,-5.1833,0.9993
1353451.0,-8.5904,0.3735,40.2705,-2.4988,-5.2025,0.8322
1353461.0,-7.92,0.2203,40.9313,-1.9529,-5.3765,0.6609
1353471.0,-7.4603,0.2394,41.2186,-1.4718,-5.7011,0.5241
1353481.0,-7.1251,0.7661,40.6248,-0.9477,-6.1438,0.4001
1353491.0,-6.8761,1.0726,38.6711,-0.6423,-6.5274,0.3155
1353501.0,-6.5697,1.4461,37.5602,-0.0873,-6.6509,0.3054
1353511.0,-5.6024,1.1588,35.8747,0.4502,-6.5695,0.3092
1353521.0,-4.7884,0.6033,35.1277,0.8615,-6.5029,0.2836
1353531.0,-4.0701,0.1149,34.1988,1.1941,-6.5296,0.1815
1353541.0,-3.122,-0.0479,33.1453,1.4553,-6.5838,0.0761
1353551.0,-2.0399,-0.5076,31.5364,1.6868,-6.5163,-0.0474
1353561.0,-1.4174,-1.2833,30.3585,2.0226,-6.2853,-0.166
1353571.0,-0.249,-2.2027,28.5868,2.3067,-5.9958,-0.3826
1353581.0,0.9385,-2.3176,26.3171,2.2104,-5.6995,-0.7013
1353591.0,2.1644,-2.0016,24.6794,1.9954,-5.2232,-1.0536
1353601.0,2.9209,-1.1013,23.5973,1.7038,-4.6996,-1.3899
1353611.0,3.3519,-0.1341,22.8598,1.2334,-4.217,-1.6565
1353621.0,4.0797,0.3543,22.8503,0.8152,-3.6045,-1.8565
1353631.0,4.5011,-0.0383,23.9133,0.464,-2.9585,-2.0428
1353641.0,4.8459,-0.747,25.9436,0.273,-2.6132,-2.2918
1353651.0,4.865,-1.5323,27.7727,0.3033,-2.3636,-2.5504
1353661.0,4.9608,-1.7047,28.7496,0.6364,-2.2391,-2.8777
1353671.0,5.1332,-0.8523,28.4144,0.8381,-2.2051,-3.198
1353681.0,5.1619,0.565,27.6291,0.9291,-2.1939,-3.4688
1353691.0,5.0278,2.1261,25.8765,0.9653,-2.0023,-3.629
1353701.0,4.8171,3.7924,24.4592,1.1882,-1.5894,-3.6721
1353711.0,4.7788,4.8842,23.377,1.4074,-0.9637,-3.6003
1353721.0,5.0374,5.3343,22.4289,1.7703,-0.2059,-3.4954
1353731.0,5.1427,6.0621,20.7242,1.7336,0.6024,-3.4779
1353741.0,4.6064,6.675,21.2222,1.4628,1.3255,-3.4827
1353751.0,4.2425,7.1539,21.5287,1.0062,1.9662,-3.4939
1353761.0,3.6966,7.0485,22.6683,0.5401,2.5701,-3.5034
1353771.0,3.5338,6.9719,22.8694,-0.2432,3.2246,-3.5497
1353781.0,2.4325,5.8993,25.8957,-0.9679,3.8759,-3.5939
1353791.0,1.7526,4.367,29.1135,-1.3058,4.4192,-3.7056
1353801.0,1.1875,3.0071,33.0974,-1.3617,4.7097,-3.886
1353811.0,0.1915,2.3846,36.2769,-1.1903,4.8444,-4.1191
1353821.0,-0.5267,2.308,38.8914,-0.6284,4.7523,-4.3782
1353831.0,-1.312,3.4572,39.964,-0.1171,4.4969,-4.6251
1353841.0,-1.992,4.6352,39.0734,0.2373,4.1877,-4.8369
1353851.0,-3.2657,6.3207,37.7326,0.3054,4.0568,-4.9588
1353861.0,-3.8307,6.3398,38.4317,0.8987,4.4415,-4.9449
1353871.0,-4.4628,6.4835,39.648,1.7352,4.9827,-4.9178
1353881.0,-5.5258,6.0047,42.3678,2.6446,5.1881,-4.9449
1353891.0,-5.4205,6.5505,44.1874,3.4204,5.0295,-5.1024
1353901.0,-5.9089,8.6287,44.331,3.4321,4.4532,-5.2748
1353911.0,-6.8761,11.0804,43.45,2.8181,3.8881,-5.4142
1353921.0,-7.8817,13.0436,42.8083,1.806,3.3459,-5.4137
1353931.0,-9.2512,13.8672,42.4348,0.787,2.8229,-5.3371
1353941.0,-9.4236,14.3365,41.6208,-0.0005,2.535,-5.203
1353951.0,-9.845,14.1066,41.6208,-0.5279,2.5376,-5.0529
1353961.0,-10.2185,13.6086,41.9656,-0.5545,2.659,-4.8688
1353971.0,-10.5345,13.3309,43.335,-0.2708,2.8021,-4.6586
1353981.0,-10.5058,12.6414,43.5745,0.2751,2.9059,-4.4309
1353991.0,-10.3046,12.8808,43.1052,0.4198,2.8447,-4.2649
1354001.0,-10.3238,12.9574,42.023,0.0819,2.6659,-4.1223
1354011.0,-10.7452,12.4977,42.4636,-0.199,2.5802,-3.9525
1354021.0,-11.5784,11.3389,43.6415,0.2331,2.5478,-3.7429
1354031.0,-11.6358,10.5249,43.9097,0.9977,2.5126,-3.5976
1354041.0,-11.6741,10.1706,43.2872,1.9795,2.4323,-3.4933
1354051.0,-11.3102,10.2089,40.6823,2.6654,2.4717,-3.4332
1354061.0,-10.975,10.5249,38.221,2.6872,2.5398,-3.5151
1354071.0,-10.6303,11.0229,35.846,2.1306,2.6952,-3.6237
1354081.0,-10.7356,10.9846,35.597,1.3654,2.924,-3.7056
1354091.0,-11.3102,10.6111,36.9856,0.6635,3.0698,-3.7998
1354101.0,-12.7755,9.4044,39.2841,0.5747,3.0852,-3.8355
1354111.0,-13.7427,8.2169,41.276,1.1877,3.19,-3.8929
1354121.0,-13.8768,7.6136,41.4963,1.7751,3.3768,-4.0435
1354131.0,-14.4514,7.2592,41.7932,1.9587,3.4162,-4.2989
1354141.0,-14.6812,6.9911,42.0901,1.4011,3.289,-4.7629
1354151.0,-14.3461,7.7285,42.9807,0.4725,2.9607,-5.2812
1354161.0,-14.7004,9.4619,44.1108,-0.5571,2.5813,-5.6521
1354171.0,-15.8209,11.1282,46.323,-1.367,2.1034,-5.8277
1354181.0,-16.9414,12.4786,48.066,-1.549,1.7528,-5.7085
1354191.0,-19.0578,12.6222,50.4985,-0.713,1.6362,-5.4105
1354201.0,-20.4944,11.9614,52.7299,1.0254,1.5889,-5.0359
1354211.0,-21.3467,11.7412,52.7203,2.7308,1.3026,-4.7757
1354221.0,-20.7721,12.5552,50.7475,3.4119,0.7492,-4.7103
1354231.0,-19.8431,13.398,49.7132,3.5311,0.133,-4.7518
1354241.0,-19.6803,15.2654,49.3876,3.6349,-0.4539,-4.714
1354251.0,-19.5941,17.2191,47.1658,3.4635,-1.094,-4.5581
1354261.0,-19.6325,18.2055,44.9344,3.0437,-1.6198,-4.3192
1354271.0,-19.1919,18.7131,42.5402,2.3349,-2.0582,-4.1223
1354281.0,-19.4505,17.7746,40.9887,1.7001,-2.3982,-3.9717
1354291.0,-19.8336,16.2901,39.6384,1.5149,-2.4424,-3.8695
1354301.0,-20.1592,14.5855,39.3319,1.8885,-2.3211,-3.8908
1354311.0,-19.2111,14.3365,37.7039,2.0667,-2.1343,-4.0377
1354321.0,-18.4928,15.7347,36.7175,1.8842,-2.0678,-4.226
1354331.0,-17.8895,18.0044,35.597,1.144,-1.9071,-4.292
1354341.0,-18.0331,20.3699,36.1429,0.5167,-1.7794,-4.1877
1354351.0,-18.2055,22.697,36.5164,-0.1916,-1.6304,-3.8605
1354361.0,-18.9429,23.4823,37.8284,-0.5741,-1.3947,-3.3959
1354371.0,-19.5271,23.1088,40.2992,-0.5183,-1.0504,-2.8553
1354381.0,-19.7761,22.0841,43.7085,0.0458,-0.8556,-2.344
1354391.0,-19.8048,21.4425,45.9016,0.9493,-0.9158,-1.8374
1354401.0,-19.6708,21.0498,47.2711,1.7884,-1.0259,-1.3627
1354411.0,-19.2781,20.5518,47.4627,2.0859,-1.26,-0.9966
1354421.0,-18.8088,20.2741,47.0892,1.7107,-1.6607,-0.7583
1354431.0,-18.7322,19.2685,47.4148,1.0541,-2.2045,-0.6518
1354441.0,-18.4545,18.3587,48.0373,0.4305,-2.5866,-0.6045
1354451.0,-18.4354,17.6788,48.8226,-0.0325,-3.1208,-0.63
1354461.0,-18.7801,17.2574,49.5025,-0.3783,-3.7663,-0.6385
1354471.0,-18.2534,17.2766,48.6598,-0.4927,-4.2574,-0.6082
1354481.0,-18.2151,17.2095,48.4299,-0.4427,-4.6273,-0.539
1354491.0,-17.3628,17.2574,48.8226,-0.0255,-4.9151,-0.3884
1354501.0,-16.6445,17.9086,47.1466,0.4305,-5.2163,-0.1921
1354511.0,-16.338,18.2534,44.9152,0.5843,-5.3605,0.058
1354521.0,-15.0547,18.0236,43.4308,0.4869,-5.4451,0.2549
1354531.0,-14.5089,17.5734,41.8219,-0.2634,-5.734,0.3368
1354541.0,-13.2926,17.1233,40.3854,-1.1988,-6.0852,0.3288
1354551.0,-12.4594,16.8264,39.5809,-2.1529,-6.2901,0.2815
1354561.0,-11.8848,16.0699,39.9161,-2.7606,-6.5109,0.2943
1354571.0,-11.2527,15.591,39.3607,-2.9123,-6.6828,0.3602
1354581.0,-10.9176,14.3652,39.7054,-2.427,-6.6392,0.5204
1354591.0,-9.9311,13.3022,38.4796,-1.4931,-6.5141,0.6886
1354601.0,-8.8394,12.5839,35.8364,-1.0413,-6.2922,0.7726
1354611.0,-7.6231,11.7124,34.9841,-0.8221,-6.0698,0.7263
1354621.0,-5.7748,11.8561,33.4518,-1.0552,-6.0033,0.6024
1354631.0,-4.798,12.287,32.9538,-1.4138,-5.9618,0.4699
1354641.0,-4.2234,13.0149,32.1302,-1.9348,-5.9543,0.3592
1354651.0,-3.6392,13.5608,32.1589,-2.337,-6.0294,0.3097
1354661.0,-3.3902,14.0875,31.9482,-2.5291,-5.9607,0.3443
1354671.0,-2.9401,14.3173,31.862,-2.2737,-5.8123,0.506
1354681.0,-2.0494,14.9781,30.8756,-2.0465,-5.6298,0.7258
1354691.0,-1.8579,15.0739,30.0999,-1.7597,-5.3328,1.0371
1354701.0,-1.7047,14.777,29.5732,-1.3271,-4.9806,1.417
1354711.0,-0.929,13.8002,28.8166,-0.9844,-4.6102,1.7533
1354721.0,0.067,12.6414,28.4623,-0.7726,-4.2856,1.9752
1354731.0,0.9385,11.5209,27.6865,-0.9136,-4.0696,2.0673
1354741.0,1.7334,10.3813,26.681,-1.2292,-3.9797,2.0609
1354751.0,2.49,10.0844,25.503,-1.8874,-3.9132,1.9544
1354761.0,2.9113,9.7588,25.0529,-2.4828,-3.7721,1.8464
1354771.0,3.2178,9.663,24.9859,-2.6787,-3.4156,1.8161
1354781.0,3.735,9.7683,24.4113,-2.5925,-2.9506,1.9034
1354791.0,3.8499,9.232,24.5837,-2.3264,-2.3679,2.0454
1354801.0,3.9073,8.4851,24.5549,-1.9555,-1.9465,2.1423
1354811.0,4.6352,7.6998,24.3921,-2.0156,-1.6708,2.1418
1354821.0,5.7078,6.9815,23.5781,-2.4163,-1.5474,2.0258
1354831.0,6.3877,7.1443,22.7545,-2.9463,-1.4543,1.8576
1354841.0,6.9528,7.6806,22.2757,-3.2023,-1.0866,1.8379
1354851.0,7.0773,8.3797,21.9022,-2.9777,-0.4071,1.9805
1354861.0,6.2441,9.0501,21.0594,-2.8447,0.2581,2.2498
1354871.0,5.9855,8.6862,21.1743,-2.7516,1.0131,2.6159
1354881.0,6.1004,7.7285,20.8487,-2.8574,1.8113,2.8963
1354891.0,6.1962,6.043,22.2182,-3.1741,2.3338,3.0788
1354901.0,6.3015,4.6831,23.8654,-3.6833,2.6494,3.1506
1354911.0,6.2824,3.5721,25.3211,-3.9291,2.9692,3.1948
1354921.0,5.6503,2.6145,26.4607,-3.8094,3.4146,3.2555
1354931.0,4.6543,2.2697,27.3897,-3.5886,4.0377,3.3342
1354941.0,3.4668,1.6185,30.0903,-3.0964,4.5017,3.4651
1354951.0,2.8443,1.1971,30.8756,-2.8276,4.7672,3.5582
1354961.0,2.2601,-0.2203,32.4462,-2.5094,4.8976,3.5556
1354971.0,1.3408,-1.3312,33.4709,-2.3381,5.062,3.4151
1354981.0,0.9002,-3.1125,35.3576,-2.1322,5.0173,3.1528
1354991.0,0.9194,-3.4285,35.0415,-2.1178,4.6602,2.7111
1355001.0,0.6129,-3.0071,34.0743,-2.3035,4.507,2.2732
1355011.0,-0.1245,-1.9441,33.2507,-2.1029,4.9518,1.9885
1355021.0,-1.5131,0.0192,32.4366,-1.9534,5.477,1.8949
1355031.0,-2.6528,1.0534,32.8484,-2.0662,5.8969,1.8709
1355041.0,-4.3,1.3312,34.7351,-2.2221,6.2725,1.9071
1355051.0,-5.3726,1.1109,37.5124,-2.2668,6.2209,1.9066
1355061.0,-5.8993,0.8332,39.2362,-1.9747,5.9437,1.8986
1355071.0,-5.861,1.8196,39.3703,-1.4186,5.8266,1.9715
1355081.0,-6.541,3.5147,38.3168,-0.7348,6.0097,2.1747
1355091.0,-7.6231,5.0757,36.9282,0.0213,6.5349,2.6153
1355101.0,-9.2991,5.8227,36.1429,0.3187,7.059,3.0894
1355111.0,-10.5441,4.9799,35.8651,0.1128,7.3793,3.463
1355121.0,-11.904,3.122,36.7175,-0.4299,7.7417,3.6434
1355131.0,-12.8617,0.6895,40.4812,-1.0131,7.7731,3.5939
1355141.0,-12.9095,-1.6089,43.3925,-1.3893,7.374,3.305
1355151.0,-13.0436,-2.2601,44.7045,-1.5346,6.8525,2.9032
1355161.0,-13.4554,-0.3926,44.4651,-1.2893,6.6424,2.6175
1355171.0,-14.279,2.0016,43.5936,-1.0695,6.8025,2.5914
1355181.0,-15.3325,4.0223,43.4308,-1.0685,6.8435,2.7452
1355191.0,-16.3763,4.8746,43.2584,-1.4117,6.7658,2.9532
1355201.0,-17.2766,3.3615,45.0206,-1.6799,6.6998,3.0953
1355211.0,-16.5966,1.0822,47.3382,-1.8145,6.429,3.024
1355221.0,-18.1576,0.8715,47.9032,-1.8486,5.7458,2.8346
1355231.0,-19.2781,1.7334,48.133,-1.434,5.3866,2.7473
1355241.0,-19.9676,4.5586,46.3517,-0.7141,5.6702,2.9287
1355251.0,-21.4233,6.4548,47.3573,0.091,6.0129,3.38
1355261.0,-21.9883,7.0677,47.0987,0.4177,6.106,3.8929
1355271.0,-22.3427,5.9951,47.3094,0.2134,6.0086,4.2234
1355281.0,-22.3714,4.5203,49.0428,-0.0809,5.8181,4.3532
1355291.0,-22.6013,3.3519,50.69,-0.3352,5.4201,4.2915
1355301.0,-23.0514,3.2465,52.184,-0.4406,4.8087,4.1377
1355311.0,-23.0897,4.7405,51.619,-0.3613,4.4628,4.126
1355321.0,-23.5589,6.541,51.2168,-0.1469,4.3261,4.3192
1355331.0,-24.3921,7.4891,50.4698,-0.3267,4.1366,4.6166
1355341.0,-24.8614,7.5848,49.7611,-0.8157,3.7099,4.8848
1355351.0,-25.7616,6.7708,50.0388,-1.4835,3.248,5.0636
1355361.0,-25.7616,6.1387,49.8377,-1.9262,2.7154,5.1594
1355371.0,-25.9723,4.549,51.4466,-1.7874,2.3769,5.2222
1355381.0,-24.7177,4.4532,50.4889,-1.3968,2.0045,5.136
1355391.0,-24.3538,5.6407,49.378,-1.2308,1.6448,5.1083
1355401.0,-24.3442,7.2113,47.884,-1.2404,1.5064,5.1971
1355411.0,-24.8327,7.7668,47.7021,-1.1095,1.417,5.4068
1355421.0,-25.2828,7.7572,46.6582,-1.036,1.2957,5.6287
1355431.0,-25.2923,7.4316,45.5569,-1.1675,1.2489,5.7889
1355441.0,-25.3881,7.0485,45.5377,-1.6352,1.2483,5.9368
1355451.0,-25.2923,6.2824,47.3765,-1.9087,1.0179,6.0597
1355461.0,-25.1487,5.1332,48.0277,-2.279,0.7045,6.1241
1355471.0,-25.0625,3.8211,50.2687,-2.3844,0.3608,6.1874
1355481.0,-24.8422,2.5091,51.5328,-2.3924,-0.1575,6.2172
1355491.0,-24.0474,1.3982,51.5903,-2.3009,-0.8711,6.1677
1355501.0,-23.4632,0.5746,50.2208,-2.3099,-1.5793,6.0687
1355511.0,-22.448,0.1532,49.2152,-2.5717,-2.1827,5.8665
1355521.0,-22.1607,-0.6225,47.9606,-2.8894,-2.8165,5.6548
1355531.0,-21.5287,-1.6664,45.9878,-2.9117,-3.2869,5.4196
1355541.0,-20.0059,-2.1739,43.4691,-3.1405,-3.472,5.0737
1355551.0,-19.4218,-3.0263,42.8754,-3.2368,-3.5965,4.6762
1355561.0,-19.0004,-2.5379,41.9943,-3.1953,-3.6838,4.3144
1355571.0,-18.4449,-2.1069,41.9656,-3.0378,-3.6343,4.0579
1355581.0,-17.7267,-1.6664,41.6974,-2.8553,-3.6301,3.8881
1355591.0,-17.6788,-1.4557,41.5059,-2.8117,-3.795,3.7381
1355601.0,-17.0276,-1.6376,40.9217,-2.6675,-3.968,3.6067
1355611.0,-16.2327,-2.3655,40.2705,-2.5685,-3.927,3.4444
1355621.0,-15.9741,-2.9975,40.0981,-2.3253,-3.8466,3.2352
1355631.0,-15.7155,-3.735,40.9217,-1.864,-3.7296,3.0022
1355641.0,-15.0069,-4.1468,41.3431,-1.3431,-3.5918,2.7319
1355651.0,-14.1928,-3.6871,41.9081,-1.036,-3.6567,2.4328
1355661.0,-13.7714,-3.0358,42.3582,-0.9684,-3.903,2.1551
1355671.0,-13.3884,-2.2601,42.0613,-1.0882,-4.2287,1.9757
1355681.0,-13.3309,-1.6089,41.3622,-1.3782,-4.4538,1.7693
1355691.0,-13.4267,-1.245,40.8259,-1.7767,-4.7417,1.6192
1355701.0,-12.8329,-1.2641,40.6823,-2.163,-5.0716,1.4569
1355711.0,-12.2487,-1.1875,39.6097,-2.4222,-5.203,1.3085
1355721.0,-11.5209,-1.9249,38.901,-2.4855,-5.1067,1.1552
1355731.0,-10.7643,-2.6432,39.648,-2.32,-4.9284,0.9722
1355741.0,-10.3142,-3.9265,42.5881,-1.6134,-4.7496,0.795
1355751.0,-9.4619,-3.7924,42.4348,-0.8147,-4.7949,0.5954
1355761.0,-9.0309,-2.9305,42.138,-0.4693,-4.9561,0.3714
1355771.0,-8.7149,-1.1971,40.778,-0.3735,-5.0274,0.2634
1355781.0,-8.4084,-0.0575,39.8108,-0.5497,-5.0348,0.2464
1355791.0,-8.2839,0.0479,38.8435,-0.9009,-4.988,0.1953
1355801.0,-7.9392,-0.4405,38.5083,-1.4324,-4.8784,0.1213
1355811.0,-6.9432,-1.1205,38.9872,-2.021,-4.7273,-0.0521
1355821.0,-6.6846,-2.2122,41.0749,-2.5068,-4.5661,-0.2937
1355831.0,-5.7557,-2.8443,43.1148,-2.8622,-4.8103,-0.5928
1355841.0,-5.1715,-3.2753,44.5417,-3.0368,-5.2051,-0.8753
1355851.0,-4.6735,-3.0358,45.1738,-2.8862,-5.5164,-1.127
1355861.0,-4.5203,-2.4325,44.5513,-2.5786,-5.8107,-1.2574
1355871.0,-3.7828,-1.6759,43.6224,-2.2141,-6.0576,-1.2936
1355881.0,-3.2082,-1.063,42.4061,-2.0359,-6.3066,-1.2622
1355891.0,-3.0933,-0.8045,40.8068,-1.9465,-6.5966,-1.1988
1355901.0,-1.992,-1.4174,39.4756,-1.7384,-6.661,-1.1579
1355911.0,-0.9098,-2.1261,38.8531,-1.4154,-6.637,-1.1483
1355921.0,-0.2298,-2.5762,38.5466,-0.7662,-6.7419,-1.1334
1355931.0,0.8811,-2.7964,36.6792,-0.1101,-6.7717,-1.1424
1355941.0,2.1931,-2.4517,34.5244,0.4629,-6.7637,-1.1403
1355951.0,3.2561,-1.9728,31.9961,0.8046,-6.6663,-1.1451
1355961.0,4.5011,-1.2929,29.7839,0.936,-6.5546,-1.1047
1355971.0,5.4205,-0.8236,27.2077,0.9264,-6.3183,-1.0355
1355981.0,6.11,-0.1341,24.2293,0.5992,-5.9102,-0.9653
1355991.0,6.9623,-0.6512,22.5438,0.3225,-5.4813,-0.8775
1356001.0,7.8051,-1.7813,20.7721,-0.0516,-4.9556,-0.8663
1356011.0,8.8202,-2.806,19.9198,-0.3421,-4.4,-0.986
1356021.0,9.7396,-3.7158,18.6556,-0.6859,-3.7759,-1.1994
1356031.0,10.5249,-4.3958,17.9182,-0.8945,-3.1139,-1.4527
1356041.0,11.4826,-4.8076,17.2478,-1.0557,-2.1391,-1.7315
1356051.0,11.9997,-5.0661,17.2287,-1.0089,-1.1818,-1.9922
1356061.0,12.5552,-5.3056,18.2055,-0.8838,-0.1772,-2.3237
1356071.0,12.4403,-5.6599,20.1209,-0.4805,0.7668,-2.6547
1356081.0,11.7699,-4.5586,20.9445,-0.2554,1.5458,-3.0378
1356091.0,10.7069,-3.4477,22.2469,-0.274,2.2168,-3.3736
1356101.0,9.9407,-2.2697,24.1814,-0.2357,2.7122,-3.6412
1356111.0,9.7875,-0.9768,25.7041,-0.2655,3.1315,-3.861
1356121.0,9.2703,0.1724,27.3801,-0.4566,3.4912,-4.018
1356131.0,8.5712,1.0151,29.5157,-0.5571,3.7514,-4.0914
1356141.0,7.3741,2.0111,32.475,-0.3437,3.861,-4.0621
1356151.0,6.7229,3.0742,34.5148,0.1064,3.7418,-3.943
1356161.0,5.6312,3.9552,35.1469,0.6071,3.4683,-3.7397
1356171.0,5.1523,4.8267,34.352,1.0807,3.3443,-3.5072
1356181.0,4.6352,6.1579,32.7335,1.4718,3.488,-3.2262
1356191.0,3.8211,7.2592,31.5939,1.7453,3.7929,-2.8968
1356201.0,3.1603,7.7381,30.9714,1.9768,4.242,-2.4951
1356211.0,3.1125,7.9296,30.7128,1.9699,4.7491,-2.096
1356221.0,2.7964,7.7859,31.5364,1.6682,5.0955,-1.7459
1356231.0,1.9824,6.6559,33.7678,1.2675,5.2376,-1.434
1356241.0,0.996,4.4915,36.0184,1.2302,5.1657,-1.1962
1356251.0,0.182,3.0263,36.4493,1.2893,5.0678,-1.1212
1356261.0,0.0575,1.4557,36.6026,1.4889,5.2126,-1.1323
1356271.0,0.1341,0.9385,36.5164,1.6762,5.526,-1.2324
1356281.0,-0.1437,0.4597,36.8132,1.6277,5.7218,-1.4372
1356291.0,-0.316,0.565,37.3304,1.5234,5.915,-1.6565
1356301.0,-1.3408,-0.0096,39.1883,1.3345,5.9219,-1.9374
1356311.0,-1.8004,0.2586,40.1268,0.9759,5.6383,-2.2647
1356321.0,-2.375,0.431,39.5714,0.3134,5.2099,-2.5951
1356331.0,-3.2465,0.747,38.9968,-0.5917,4.8039,-2.9293
1356341.0,-3.5817,0.9673,37.9816,-1.3697,4.5724,-3.2549
1356351.0,-4.3574,1.8483,37.0239,-2.0135,4.6187,-3.4678
1356361.0,-5.4492,2.1069,37.8284,-2.0875,4.8864,-3.5449
1356371.0,-6.6559,2.1261,38.3743,-1.7155,5.2317,-3.5268
1356381.0,-7.6902,1.743,39.7629,-1.0493,5.5372,-3.5103
1356391.0,-8.2839,2.5762,39.5331,-0.365,5.6899,-3.5614
1356401.0,-8.6191,4.7214,39.0446,0.009,5.9347,-3.4992
1356411.0,-9.3087,7.1251,38.9585,0.124,6.1826,-3.2773
1356421.0,-10.2376,8.8298,39.5714,-0.0096,6.2763,-2.8989
1356431.0,-10.6686,9.0118,41.276,-0.1362,6.1821,-2.4232
1356441.0,-11.6933,8.3606,41.9751,-0.339,5.9682,-1.9624
1356451.0,-12.8808,5.6024,44.2065,0.1862,5.4073,-1.6272
1356461.0,-12.6222,4.5969,41.1707,0.7455,5.1769,-1.4708
1356471.0,-13.2639,3.5626,39.6959,1.2984,5.5749,-1.4223
1356481.0,-13.9821,3.5434,39.1883,1.7491,6.181,-1.4473
1356491.0,-14.4897,3.4285,40.2609,1.9156,6.4056,-1.5128
1356501.0,-13.963,3.9073,40.1747,1.4197,6.3896,-1.6756
1356511.0,-14.5376,4.3096,40.8068,0.5821,6.1816,-1.848
1356521.0,-14.2982,4.9129,40.7302,-0.5438,5.8591,-1.9731
1356531.0,-15.2367,5.2768,42.3582,-1.5809,5.4052,-2.0226
1356541.0,-17.583,5.2289,43.4021,-1.7943,4.9077,-1.8885
1356551.0,-18.4832,4.5394,43.1818,-1.2563,4.9822,-1.5735
1356561.0,-18.9525,2.8539,43.3638,-0.1043,5.4946,-1.2595
1356571.0,-18.9238,0.7183,44.8769,0.9317,5.7931,-1.1254
1356581.0,-18.7131,-0.1149,45.6048,1.4543,5.7686,-1.2781
1356591.0,-19.0004,0.0479,45.8633,1.5224,5.6143,-1.5107
1356601.0,-19.0291,0.8332,46.3326,1.2803,5.4222,-1.6911
1356611.0,-19.6612,1.561,46.3422,0.5912,4.9822,-1.8076
1356621.0,-20.1783,1.5993,46.3422,-0.2921,4.4389,-1.9044
1356631.0,-20.6284,0.5842,46.8593,-0.9881,4.3325,-1.9326
1356641.0,-22.3235,-1.1109,49.4355,-1.1494,4.2463,-1.9438
1356651.0,-23.7505,-3.9456,52.6629,-0.6987,3.9717,-2.0013
1356661.0,-24.124,-6.3207,55.2965,0.0362,3.6295,-2.2785
1356671.0,-23.9516,-7.7381,56.9916,0.9142,3.1703,-2.7877
1356681.0,-22.9652,-7.7955,57.4704,1.674,2.6223,-3.4225
1356691.0,-23.128,-5.545,57.5853,1.9337,1.8831,-4.0499
1356701.0,-24.0857,-2.7102,56.6181,1.7326,0.9903,-4.5113
1356711.0,-24.9572,-0.6704,56.1584,1.384,0.2283,-4.7757
1356721.0,-25.3498,0.9385,55.5263,0.9887,-0.5619,-4.9423
1356731.0,-25.9915,1.5227,54.6453,0.3315,-1.4324,-5.0359
1356741.0,-26.1255,0.5267,54.9038,0.0889,-2.0907,-5.1556
1356751.0,-25.7808,-0.0862,54.607,0.2687,-2.6249,-5.2951
1356761.0,-25.7041,0.3256,54.492,0.5741,-3.1661,-5.5015
1356771.0,-25.8191,1.8866,52.8831,0.9621,-3.6817,-5.6138
1356781.0,-25.5988,4.1084,50.1633,1.1866,-4.1084,-5.5829
1356791.0,-25.2636,6.0717,48.4778,1.1355,-4.2606,-5.3903
1356801.0,-24.7944,6.8761,47.4339,1.0339,-4.3851,-5.0918
1356811.0,-24.2006,6.7325,46.7348,0.7125,-4.6203,-4.8279
1356821.0,-23.9229,5.4875,47.4052,0.5704,-4.9183,-4.5985
1356831.0,-23.5589,4.7501,47.1275,0.8328,-5.1493,-4.4187
1356841.0,-22.8311,4.1276,47.1466,1.3782,-5.2977,-4.2936
1356851.0,-22.0745,4.2521,46.5912,2.1636,-5.3217,-4.1382
1356861.0,-20.8296,4.9033,43.6032,2.6276,-5.3706,-4.0574
1356871.0,-19.9581,5.8802,42.5593,2.519,-5.3483,-4.0217
1356881.0,-19.2685,7.3837,40.1843,1.7874,-5.3807,-3.9924
1356891.0,-18.4832,8.3318,38.5658,0.4448,-5.4142,-4.0063
1356901.0,-18.081,8.5042,38.4221,-0.9951,-5.361,-4.0398
1356911.0,-17.5734,7.8243,39.9832,-2.1657,-5.3052,-4.0568
1356921.0,-16.8264,7.288,41.4484,-2.9287,-5.3648,-4.0696
1356931.0,-16.587,7.0964,43.2201,-3.3353,-5.4568,-4.0653
1356941.0,-16.2901,7.2113,44.6279,-3.1975,-5.5659,-3.9536
1356951.0,-16.1178,7.9392,45.4898,-2.5238,-5.6207,-3.6865
1356961.0,-15.3133,8.7628,46.0453,-1.5405,-5.6101,-3.2975
1356971.0,-14.6334,9.7013,45.4324,-0.7104,-5.6324,-2.834
1356981.0,-13.9151,9.6534,45.0972,-0.0208,-5.7713,-2.3264
1356991.0,-13.0723,9.7396,44.2161,0.5428,-5.9756,-1.8092
1357001.0,-12.0285,9.8641,42.9711,0.8344,-6.1496,-1.4016
1357011.0,-11.7316,9.663,41.9656,0.9849,-6.2773,-0.9546
1357021.0,-11.157,9.7492,40.462,1.0057,-6.4205,-0.5699
1357031.0,-11.3198,8.6095,39.4373,0.9243,-6.5391,-0.2613
1357041.0,-10.0652,8.0158,37.5411,0.8881,-6.4407,-0.0474
1357051.0,-8.8202,7.671,36.6504,0.8652,-6.2012,0.0947
1357061.0,-7.7093,8.1307,36.4781,0.7343,-6.0469,0.2416
1357071.0,-7.2305,8.5234,35.8077,0.3922,-6.024,0.4156
1357081.0,-6.4165,8.8298,35.5395,0.0506,-6.0384,0.6343
1357091.0,-5.4971,8.6191,34.9745,-0.3124,-6.1049,0.9057
1357101.0,-4.5203,7.6614,34.7447,-0.3842,-6.0789,1.202
1357111.0,-3.8307,6.11,34.8404,-0.0234,-5.9315,1.4351
1357121.0,-2.6336,4.9129,33.9785,0.3762,-5.7181,1.6155
1357131.0,-1.4269,4.0701,33.0783,0.679,-5.6266,1.7198
1357141.0,-0.6416,3.4955,32.1493,0.8328,-5.5031,1.8235
1357151.0,0.747,2.8347,30.1286,0.8344,-5.2711,1.8773
1357161.0,2.1835,2.5379,28.4048,0.481,-5.0242,1.8182
1357171.0,3.4189,1.9345,27.3514,-0.1729,-4.9157,1.707
1357181.0,4.2904,1.5993,26.7001,-0.6678,-4.7571,1.5889
1357191.0,5.0757,1.2546,26.001,-0.8939,-4.4681,1.5064
1357201.0,5.6599,1.5036,24.3825,-1.0052,-4.0584,1.4548
1357211.0,5.8706,1.6951,23.5015,-1.177,-3.5088,1.4633
1357221.0,6.9336,1.0439,23.9803,-1.1792,-3.0815,1.4644
1357231.0,7.8817,0.1245,24.0952,-1.3287,-2.8032,1.3835
1357241.0,8.6287,-0.7183,24.4209,-1.2733,-2.6148,1.2116
1357251.0,9.1746,-1.1396,23.9324,-1.2106,-2.4594,0.9988
1357261.0,9.8641,-0.6321,22.199,-1.2036,-2.2375,0.7301
1357271.0,10.0078,0.067,20.9157,-1.0552,-1.7751,0.5444
1357281.0,9.9982,1.6089,19.3643,-0.8008,-0.9993,0.5225
1357291.0,9.4332,3.2657,18.6843,-0.5124,-0.0857,0.6859
1357301.0,8.4946,4.2521,18.4162,-0.3411,0.8125,0.9519
1357311.0,8.102,4.9416,19.1536,-0.257,1.6155,1.284
1357321.0,7.8434,4.9512,19.5846,-0.3331,2.3386,1.6166
1357331.0,7.4986,3.8116,21.0498,-0.4635,2.8867,1.8544
1357341.0,7.4699,3.0646,21.9788,-0.7221,3.2922,2.0071
1357351.0,7.1826,2.5762,22.132,-0.8876,3.7902,2.1056
1357361.0,6.2345,2.9401,23.1088,-0.9594,4.5123,2.2844
1357371.0,4.8937,3.1125,24.4017,-0.8301,5.2126,2.5089
1357381.0,3.6488,2.6528,27.1694,-0.589,5.9841,2.8282
1357391.0,2.7102,0.7278,31.1917,-0.0952,6.495,3.0836
1357401.0,1.7334,-1.561,34.7638,0.2586,6.5157,3.1964
1357411.0,1.3791,-4.2425,37.9146,0.5241,6.0682,3.0304
1357421.0,2.4708,-6.4835,39.5235,0.6561,5.3685,2.5403
1357431.0,2.9975,-6.3111,38.6041,0.5433,4.5017,1.9215
1357441.0,1.7238,-4.3191,35.6832,0.19,3.9073,1.4128
1357451.0,-0.0479,-1.1301,31.9387,0.1266,4.1148,1.2393
1357461.0,-2.2027,1.1492,29.9946,-0.0059,4.7448,1.3787
1357471.0,-3.6009,1.1684,30.5596,-0.1277,5.2881,1.6346
1357481.0,-3.869,-1.0822,32.791,-0.0495,5.5984,1.7491
1357491.0,-3.5434,-3.4381,34.2275,-0.05,5.4414,1.5069
1357501.0,-3.7445,-3.1316,33.1453,-0.3576,5.0684,1.1158
1357511.0,-4.3287,-0.7661,30.3393,-0.5438,5.3163,0.911
1357521.0,-5.4492,2.375,28.9603,-0.3485,6.4593,1.0483
1357531.0,-8.3031,4.7214,29.305,-0.2985,7.6598,1.4681
1357541.0,-10.4579,4.7884,31.5939,-0.4539,8.5532,1.9667
1357551.0,-10.7356,2.9113,34.7542,-0.6742,9.2375,2.311
1357561.0,-12.0668,0.1149,40.2034,-1.0243,9.2795,2.3163
1357571.0,-12.469,-2.0973,44.0533,-1.1988,8.7314,2.0556
1357581.0,-13.3788,-1.8292,45.9304,-1.2946,8.0285,1.6448
1357591.0,-14.2024,0.996,45.4515,-0.8258,7.9907,1.583
1357601.0,-16.6158,4.6064,44.6854,-0.2336,8.5058,1.8943
1357611.0,-19.2207,5.8227,46.9838,0.2629,9.1177,2.4483
1357621.0,-19.9006,5.4013,49.1673,0.5651,9.3716,2.9511
1357631.0,-20.5422,4.3862,52.4713,0.2873,9.1156,3.1959
1357641.0,-21.136,2.6432,55.9764,0.0793,8.4675,3.2459
1357651.0,-21.4329,1.2833,58.8591,-0.0575,7.4826,3.1145
1357661.0,-21.9883,1.6568,59.4528,-0.1501,6.1273,2.8489
1357671.0,-23.3483,3.6871,57.298,-0.0362,5.0971,2.784
1357681.0,-23.9133,6.6463,53.6493,0.2629,4.8742,2.9804
1357691.0,-25.0721,8.5521,51.4658,0.3331,4.9848,3.3704
1357701.0,-25.1678,8.667,51.935,0.207,4.9034,3.7961
1357711.0,-24.507,7.5369,52.4905,-0.306,4.4266,4.0691
1357721.0,-23.7218,5.612,53.5727,-0.9456,3.5774,4.1404
1357731.0,-23.2333,3.735,53.4769,-1.4324,2.5286,4.0685
1357741.0,-22.2852,2.7964,52.3756,-1.7783,1.3952,3.8445
1357751.0,-21.8638,2.9975,49.1673,-1.8507,0.415,3.6008
1357761.0,-21.9405,4.367,44.5322,-1.7746,-0.1117,3.4763
1357771.0,-21.452,6.3782,39.1021,-1.5868,0.083,3.5433
1357781.0,-21.6149,8.3797,36.2578,-1.2898,0.8503,3.9387
1357791.0,-22.4193,8.7819,35.2714,-1.1621,1.6831,4.4708
1357801.0,-22.2373,7.4603,36.0854,-1.1313,2.2588,4.9726
1357811.0,-21.5765,4.1851,37.9625,-1.0626,2.6207,5.261
1357821.0,-20.9732,1.4174,40.0311,-0.8333,2.7271,5.2307
1357831.0,-20.4848,-0.3543,41.3431,-0.7529,2.5084,4.9742
1357841.0,-20.6763,-0.249,41.4484,-0.6061,2.1934,4.6507
1357851.0,-20.8391,1.7909,39.7054,-0.4725,2.328,4.4378
1357861.0,-22.0841,4.0797,38.3264,-0.5369,2.7191,4.4809
1357871.0,-22.7545,5.1523,38.3264,-1.0009,3.0011,4.6437
1357881.0,-23.3866,4.3766,39.6097,-1.5394,3.3167,4.8449
1357891.0,-23.7218,3.0837,41.4867,-2.1151,3.588,4.9641
1357901.0,-24.44,0.9385,46.0357,-2.6164,3.4635,4.9731
1357911.0,-24.5645,-0.2777,48.6119,-2.8457,3.0197,4.8965
1357921.0,-24.4496,-2.1069,51.8297,-2.5254,2.6691,4.8034
1357931.0,-24.5932,-2.9497,53.8887,-2.0486,2.2753,4.6959
1357941.0,-24.0665,-3.1699,54.7889,-1.8853,1.524,4.4932
1357951.0,-24.5262,-3.0071,54.4346,-1.956,0.6694,4.2931
1357961.0,-24.5932,-2.8922,53.6972,-2.1433,0.0011,4.0542
1357971.0,-24.6794,-2.9975,53.2279,-2.4328,-0.629,3.8408
1357981.0,-24.2964,-3.1987,53.8312,-2.5791,-1.2776,3.6679
1357991.0,-23.377,-4.1755,54.8464,-2.4195,-1.9646,3.496
1358001.0,-22.8598,-4.9512,55.0092,-2.0774,-2.7792,3.3156
1358011.0,-22.4193,-5.861,54.4825,-1.6644,-3.6753,3.0288
1358021.0,-21.6053,-6.2249,51.7626,-1.3681,-4.5485,2.6787
1358031.0,-21.3659,-5.7461,48.2863,-1.2893,-5.2456,2.3312
1358041.0,-20.4465,-5.0757,44.8195,-1.4303,-5.56,1.9773
1358051.0,-19.7474,-4.2425,42.023,-1.8012,-5.6457,1.6469
1358061.0,-19.1153,-4.2904,40.8451,-2.0981,-5.7298,1.3446
1358071.0,-18.3779,-4.6543,40.9217,-2.2109,-5.7277,1.0605
1358081.0,-17.4872,-5.5258,42.0709,-1.9326,-5.7537,0.7625
1358091.0,-16.9414,-5.8802,42.9232,-1.3792,-5.89,0.4417
1358101.0,-16.0507,-5.1715,43.2489,-0.7785,-6.1986,0.1325
1358111.0,-15.6485,-3.8307,42.3774,-0.1612,-6.4747,-0.0692
1358121.0,-15.6102,-2.4134,40.7302,0.3884,-6.6104,-0.1219
1358131.0,-14.9015,-1.494,38.6041,0.7529,-6.6519,-0.1117
1358141.0,-13.4746,-0.6895,36.2674,0.8115,-6.4987,-0.1016
1358151.0,-12.6605,-0.0862,36.1716,0.6588,-6.2773,-0.091
1358161.0,-11.9806,-0.3448,35.9418,0.4097,-6.1901,-0.0654
1358171.0,-11.2623,-0.9002,37.0718,0.1692,-6.305,-0.0357
1358181.0,-10.4483,-1.6089,37.4836,0.1447,-6.5354,-0.058
1358191.0,-9.3182,-2.4229,37.34,0.3384,-6.7844,-0.0686
1358201.0,-8.0158,-2.8347,35.8939,0.6582,-6.9967,-0.083
1358211.0,-7.0006,-2.9305,34.352,1.0669,-7.0819,-0.0537
1358221.0,-5.6407,-3.2848,32.4941,1.5612,-7.0127,0.0
1358231.0,-4.367,-3.2944,29.8988,2.0109,-6.7823,0.0612
1358241.0,-3.4189,-4.0989,28.424,2.4371,-6.5051,0.1325
1358251.0,-2.3655,-4.0893,26.25,2.7393,-6.3364,0.1692
1358261.0,-1.1588,-4.5873,24.3155,2.8686,-6.1294,0.1697
1358271.0,-0.0096,-4.9321,21.9596,2.9942,-5.8314,0.1394
1358281.0,1.7334,-5.5067,19.2877,3.1123,-5.3674,0.0819
1358291.0,2.8347,-6.3686,16.6253,3.2097,-4.6624,-0.0468
1358301.0,3.7541,-6.7229,13.9343,3.0884,-3.7306,-0.2873
1358311.0,4.3,-6.8857,12.4977,2.8505,-2.6845,-0.5635
1358321.0,4.1659,-7.6423,12.4977,2.6877,-1.4857,-0.8844
1358331.0,4.3287,-8.8298,13.6278,2.6164,-0.1352,-1.2654
1358341.0,5.047,-10.1897,15.773,2.4802,0.8998,-1.8374
1358351.0,5.5354,-10.9463,17.3053,1.9023,1.5117,-2.6372
1358361.0,5.3726,-11.0229,18.9525,1.0275,1.9688,-3.6003
1358371.0,4.0989,-10.1993,21.7777,0.1623,2.2913,-4.5735
1358381.0,2.0782,-8.9352,24.8901,-0.1336,2.3285,-5.3685
1358391.0,0.6895,-7.1443,26.2404,0.2442,2.5509,-5.957
1358401.0,-1.0726,-3.9552,25.2445,0.9684,3.1166,-6.313
1358411.0,-2.5187,-1.4174,25.752,1.6011,4.0973,-6.4295
1358421.0,-4.3096,0.9768,26.8246,1.6825,4.7959,-6.4434
1358431.0,-5.2864,2.7294,28.5293,0.886,4.9854,-6.4444
1358441.0,-6.3686,2.6528,32.2834,-0.1101,4.8577,-6.4476
1358451.0,-6.9815,2.9018,34.8021,-0.9924,4.523,-6.4982
1358461.0,-7.7285,2.8443,37.2442,-1.4654,4.1627,-6.5519
1358471.0,-8.4372,3.7158,38.2306,-1.6889,3.8525,-6.5413
1358481.0,-9.9599,4.2904,37.9242,-1.532,3.5178,-6.4694
1358491.0,-9.8354,5.9089,34.1988,-1.5772,3.613,-6.3689
1358501.0,-11.5784,7.4699,31.8716,-1.9997,3.9877,-6.1416
1358511.0,-13.1298,7.8913,31.2779,-2.6052,4.7848,-5.767
1358521.0,-14.2503,4.5107,36.2769,-2.0582,5.6979,-5.3578
1358531.0,-14.279,1.7621,39.3607,-1.1079,6.1065,-5.212
1358541.0,-13.8385,-0.9098,42.3869,-0.0814,6.189,-5.3632
1358551.0,-13.8385,-0.2394,43.4979,0.8849,6.3066,-5.6633
1358561.0,-14.0396,1.7238,43.9192,1.5022,5.9394,-5.9102
1358571.0,-14.1449,6.0047,39.9927,0.9764,5.5042,-6.1092
1358581.0,-16.1561,10.2472,35.9034,-0.4608,5.3014,-6.032
1358591.0,-19.575,12.4977,35.6257,-1.9874,5.775,-5.5499
1358601.0,-21.567,10.6877,40.2417,-1.8539,6.404,-4.7576
1358611.0,-21.4616,7.7764,45.4611,-1.2829,6.7355,-4.1265
1358621.0,-21.4233,3.0454,50.1059,0.1602,6.6046,-3.745
1358631.0,-21.1743,-0.4693,51.8009,1.8081,6.3731,-3.7961
1358641.0,-20.4178,-1.4269,49.9335,2.5004,6.0012,-4.2808
1358651.0,-20.3603,-0.6321,48.1235,2.1157,5.4424,-4.9439
1358661.0,-21.0594,2.2984,45.0685,0.9003,4.9598,-5.6111
1358671.0,-23.377,5.8131,43.5266,-0.4443,4.7688,-5.9527
1358681.0,-26.5182,8.7532,43.6319,-1.2515,5.1391,-5.8181
1358691.0,-28.7879,8.8107,46.754,-1.3149,5.9671,-5.3004
1358701.0,-29.2859,6.9911,53.4482,-0.6396,6.2555,-4.7997
1358711.0,-29.2667,5.0278,58.294,-0.4182,5.4398,-4.523
1358721.0,-29.4487,2.6911,60.0178,-0.2841,4.3293,-4.5022
1358731.0,-29.7168,1.8004,58.6196,-0.2762,3.612,-4.7182
1358741.0,-29.5732,2.2027,57.8343,-0.7865,2.8984,-5.054
1358751.0,-29.4391,3.9744,56.3595,-1.9539,2.1072,-5.3685
1358761.0,-30.5979,5.43,57.729,-2.8707,1.4058,-5.4706
1358771.0,-32.858,6.0621,61.1,-2.7164,0.961,-5.2509
1358781.0,-34.6202,5.5162,65.2372,-1.2132,0.4667,-4.7842
1358791.0,-36.0854,4.7309,66.3002,0.6465,-0.365,-4.3585
1358801.0,-35.3671,4.4532,63.2835,1.9864,-1.2744,-4.117
1358811.0,-34.2371,5.0949,60.4105,2.2168,-2.0364,-4.1281
1358821.0,-33.3847,6.4835,57.547,1.4862,-2.9569,-4.3075
1358831.0,-32.3888,8.3797,55.1145,0.2442,-3.7966,-4.4852
1358841.0,-32.293,10.4674,54.3101,-0.7402,-4.4485,-4.4607
1358851.0,-32.36,12.153,55.0283,-1.102,-5.0897,-4.1643
1358861.0,-31.8812,13.3501,54.4729,-0.7992,-5.5813,-3.546
1358871.0,-31.4885,13.8672,53.362,0.0309,-5.8884,-2.7792
1358881.0,-30.1095,14.1354,50.1442,0.7045,-6.1565,-1.9816
1358891.0,-28.8932,13.2256,47.7883,1.0052,-6.4386,-1.2547
1358901.0,-27.1311,11.8752,44.2736,1.0296,-6.6067,-0.6508
1358911.0,-25.4647,10.1801,43.4404,1.0637,-6.7227,-0.1415
1358921.0,-23.7888,8.4851,41.8123,1.1653,-6.8573,0.2469
1358931.0,-21.9117,6.6367,39.8108,1.1797,-6.8424,0.5023
1358941.0,-20.2262,5.8706,38.221,0.9903,-6.7616,0.6316
1358951.0,-19.0291,4.4819,37.2634,0.6529,-6.7291,0.6699
1358961.0,-17.9852,3.6583,36.3727,0.4422,-6.8015,0.704
1358971.0,-16.9031,2.739,34.6297,0.132,-6.7632,0.6247
1358981.0,-16.204,2.0877,32.3121,-0.2788,-6.5806,0.4922
1358991.0,-14.9781,1.4174,31.0863,-0.9732,-6.2475,0.2618
1359001.0,-14.0013,1.1492,31.8333,-1.665,-6.007,-0.0303
1359011.0,-12.7563,0.68,33.4901,-1.9438,-5.8857,-0.2714
1359022.0,-11.8465,0.6991,34.6106,-1.7368,-5.7298,-0.4555
1359031.0,-11.1187,0.929,34.5435,-1.1408,-5.5435,-0.5358
1359041.0,-10.5058,2.0111,34.103,-0.6252,-5.3403,-0.5593
1359051.0,-9.7205,2.9592,33.4231,-0.3363,-5.2658,-0.5103
1359061.0,-9.1459,3.8116,32.4462,-0.2857,-5.1987,-0.4033
1359071.0,-8.9447,4.4053,31.6513,-0.1862,-5.0412,-0.1974
1359081.0,-8.3989,4.2042,31.2874,-0.2309,-4.8683,-0.0176
1359091.0,-7.9583,3.6105,31.0001,-0.4331,-4.7326,0.133
1359101.0,-7.1443,2.6432,31.0672,-0.5986,-4.6634,0.2043
1359111.0,-6.4069,1.9058,31.2108,-0.7279,-4.5155,0.1958
1359121.0,-5.3917,1.5131,31.9003,-0.7061,-4.4256,0.1235
1359131.0,-4.4341,1.743,32.3026,-0.8088,-4.5538,0.0357
1359141.0,-3.5051,2.375,31.4311,-0.7567,-4.5708,0.0016
1359151.0,-3.2944,3.1891,30.9427,-0.6875,-4.4208,0.0585
1359161.0,-2.9401,3.6488,31.0193,-0.5507,-4.3394,0.2097
1359171.0,-2.2505,3.8882,30.5692,-0.5103,-4.3149,0.4012
1359181.0,-1.5227,3.4764,30.0137,-0.3406,-4.2282,0.589
1359191.0,-0.929,2.7964,29.3721,-0.0692,-4.0201,0.7508
1359201.0,-0.7374,1.9058,28.8358,0.2496,-3.8025,0.9078
1359211.0,-0.3065,1.1396,28.3857,0.6481,-3.5689,0.9855
1359221.0,0.747,0.68,27.0736,0.9184,-3.3076,0.9807
1359231.0,2.0016,0.5171,26.2883,0.886,-3.1043,0.8881
1359241.0,3.055,0.7757,25.4073,0.6077,-2.8936,0.7407
1359251.0,3.8499,0.9577,24.5262,0.3214,-2.693,0.572
1359261.0,4.5586,1.2546,24.1719,-0.0463,-2.4935,0.4172
1359271.0,4.9416,1.5706,23.4344,-0.5353,-2.3658,0.2517
1359281.0,5.0661,1.5706,22.0171,-1.102,-2.2306,0.0894
1359291.0,5.0661,2.0494,21.0977,-1.4314,-1.9055,-0.0569
1359301.0,5.0853,2.4229,20.571,-1.4777,-1.3984,-0.125
1359311.0,5.2864,3.2753,20.3316,-1.2074,-0.7434,-0.0788
1359321.0,5.1715,4.118,20.4656,-0.6114,0.1176,0.1086
1359331.0,4.7884,4.6735,20.7434,0.2166,1.0243,0.3783
1359341.0,4.5873,5.6599,20.3507,0.7237,1.8533,0.6667
1359351.0,4.118,6.4643,20.5997,0.8652,2.6403,0.9647
1359361.0,3.2082,6.3015,21.318,0.629,3.1751,1.2164
1359371.0,2.8443,6.043,22.0075,0.1245,3.4901,1.3521
1359381.0,2.7869,6.043,22.563,-0.3421,3.8461,1.4628
1359391.0,2.3559,6.7421,22.7066,-0.762,4.5214,1.6565
1359401.0,0.6512,7.0198,23.6068,-0.9935,5.212,1.963
1359411.0,-0.814,6.5027,25.3307,-1.234,5.9607,2.3088
1359421.0,-2.2314,5.0949,28.6921,-1.151,6.4923,2.668
1359431.0,-3.1603,3.5147,31.862,-0.953,6.8084,2.8942
1359441.0,-3.8116,1.3216,35.0703,-0.7928,6.4737,2.9298
1359451.0,-3.1699,0.7661,35.9801,-0.803,5.6936,2.7665
1359461.0,-2.5474,2.0111,33.3752,-0.7561,5.3786,2.6505
1359471.0,-3.5721,4.6352,30.1191,-0.9817,5.8282,2.7085
1359481.0,-7.1251,6.3303,29.42,-1.3361,6.661,2.9846
1359491.0,-10.1801,6.7325,30.8469,-1.7219,7.4506,3.4295
1359501.0,-12.2104,5.0566,35.9896,-2.212,7.722,3.8456
1359511.0,-12.469,3.3806,40.0789,-2.4754,7.3618,4.1037
1359521.0,-12.2679,1.8196,42.138,-2.4248,6.9952,4.2601
1359531.0,-12.9478,1.0343,43.1722,-1.847,6.9776,4.4181
1359541.0,-14.6334,0.565,43.948,-0.9892,7.2442,4.6437
1359551.0,-16.52,0.1532,44.762,-0.074,7.5853,4.8795
1359561.0,-17.8703,-0.7087,45.8537,0.7348,7.9024,5.0662
1359571.0,-18.6269,-2.0303,48.4395,1.5064,8.0136,5.1195
1359581.0,-18.4258,-3.3519,50.4506,1.8347,7.5267,4.9125
1359591.0,-17.6117,-4.3191,50.7762,1.9257,6.5753,4.4213
1359601.0,-17.1712,-2.7677,47.9894,1.5399,5.85,3.8583
1359611.0,-18.4832,-0.747,45.7101,1.2058,5.7436,3.5056
1359621.0,-20.1592,1.7909,44.264,1.0227,6.1746,3.4252
1359631.0,-21.2605,3.0646,43.8905,0.4645,6.4971,3.4641
1359641.0,-21.6915,3.4093,45.4898,-0.4789,6.4519,3.4774
1359651.0,-22.4385,3.0263,48.4395,-1.508,6.0549,3.4369
1359661.0,-22.6204,2.1644,51.37,-2.2429,5.3137,3.3688
1359671.0,-22.946,1.561,52.9693,-2.4584,4.2239,3.2592
1359681.0,-22.9077,2.4995,51.7626,-2.0864,3.4651,3.2853
1359691.0,-23.2238,4.4436,49.3206,-1.1174,3.5588,3.5556
1359701.0,-24.6699,5.8035,46.7348,-0.4906,4.0228,3.961
1359711.0,-25.4552,5.8419,46.9359,-0.4257,4.0653,4.3495
1359721.0,-25.3115,4.5298,48.2001,-0.6146,3.8445,4.598
1359731.0,-24.6794,3.8307,48.2671,-0.7008,3.488,4.6975
1359741.0,-24.3059,2.5666,49.6174,-1.0339,2.9202,4.6485
1359751.0,-24.2964,2.3846,48.7843,-1.284,2.0034,4.5017
1359761.0,-24.191,2.9113,46.3134,-1.5022,1.3627,4.3984
1359771.0,-23.5494,4.3287,43.0477,-1.4489,1.4069,4.4575
1359781.0,-24.3442,5.0278,40.7014,-1.7283,1.765,4.6336
1359791.0,-25.7712,5.0566,39.8682,-2.2019,1.9582,4.8864
1359801.0,-26.9779,4.1276,40.8451,-2.6169,2.2423,5.1849
1359811.0,-26.7863,2.6624,43.45,-2.7116,2.3674,5.4797
1359821.0,-25.934,0.0766,46.074,-2.5972,2.2562,5.6734
1359831.0,-25.12,-2.3559,48.5927,-2.0444,1.9231,5.7266
1359841.0,-24.7465,-3.9073,49.0907,-1.3659,1.5511,5.6111
1359851.0,-23.9324,-4.1372,48.5544,-0.8205,1.1786,5.3972
1359861.0,-23.6451,-3.5721,46.7061,-0.5752,0.8312,5.1673
1359871.0,-23.9899,-3.1891,45.4036,-0.605,0.5571,4.9593
1359881.0,-24.0091,-2.5762,44.1587,-0.8168,0.422,4.7645
1359891.0,-23.7888,-2.7198,44.1395,-1.0445,0.2783,4.5693
1359901.0,-23.5111,-3.2082,44.7045,-1.234,0.0851,4.3452
1359911.0,-23.5781,-3.6392,45.1738,-1.2255,-0.1298,4.0728
1359921.0,-23.2238,-3.4381,44.9535,-1.1701,-0.4448,3.7487
1359931.0,-22.1033,-2.8922,43.5553,-1.3489,-0.6832,3.4108
1359941.0,-21.7394,-2.2314,42.5593,-1.7379,-0.8354,3.1065
1359951.0,-22.0458,-1.2354,41.8506,-2.3189,-1.0674,2.7925
1359961.0,-22.2182,-0.6895,42.3774,-2.7989,-1.2148,2.5738
1359971.0,-22.4289,-0.5842,42.5785,-2.8979,-1.2627,2.42
1359981.0,-22.0554,-0.4788,43.5649,-2.9048,-1.3287,2.2881
1359991.0,-21.8351,-0.6321,44.3981,-2.8165,-1.5591,2.2104
1360001.0,-21.2222,-0.6225,44.5513,-2.718,-1.8949,2.0976
1360011.0,-20.6284,-0.7566,44.8673,-2.7175,-2.2737,1.9858
1360021.0,-20.322,-0.9768,44.5417,-2.7755,-2.7899,1.8432
1360031.0,-20.1879,-0.8523,43.5745,-2.8516,-3.2321,1.7267
1360041.0,-19.757,-1.0343,42.4923,-2.8915,-3.4257,1.5804
1360051.0,-19.3835,-1.4365,41.8028,-2.867,-3.5226,1.4516
1360061.0,-18.6365,-1.4748,41.0845,-2.9362,-3.6801,1.2616
1360071.0,-17.9374,-1.3695,40.8451,-3.0639,-3.8764,1.0759
1360081.0,-17.4106,-1.5419,40.3854,-3.0793,-3.9823,0.9429
1360091.0,-16.8073,-2.0016,40.4812,-2.8436,-3.977,0.8599
1360101.0,-16.4051,-2.1739,40.7302,-2.5568,-4.1116,0.7928
1360111.0,-15.6198,-3.0071,40.5865,-2.3493,-4.2665,0.6838
1360121.0,-15.2654,-3.3998,39.7342,-2.2583,-4.4006,0.514
1360131.0,-14.8824,-3.8786,39.5714,-2.2716,-4.5629,0.3129
1360141.0,-14.212,-3.8116,38.3934,-2.2737,-4.5496,0.1139
1360151.0,-13.7044,-3.7733,38.5083,-2.2322,-4.5022,-0.0511
1360161.0,-13.7906,-3.62,39.0829,-2.1098,-4.5953,-0.1777
1360171.0,-13.1011,-3.9169,39.0159,-1.7959,-4.6831,-0.2677
1360181.0,-11.8274,-4.2329,39.0446,-1.3968,-4.6081,-0.3773
1360191.0,-11.4443,-4.2713,38.719,-1.1073,-4.6874,-0.4853
1360201.0,-10.8793,-4.4341,38.5275,-0.9658,-4.8369,-0.6321
1360211.0,-10.5441,-4.6352,37.6177,-0.8796,-4.9433,-0.82
1360221.0,-9.9311,-4.7501,37.1484,-0.9003,-4.987,-1.0248
1360231.0,-9.0692,-4.5298,37.0144,-0.9009,-5.0583,-1.2036
1360241.0,-8.6862,-4.367,36.6696,-0.8966,-5.1306,-1.3707
1360251.0,-8.1977,-4.367,36.3536,-0.7567,-5.2269,-1.4958
1360261.0,-8.2552,-4.6352,36.0375,-0.5954,-5.2966,-1.5644
1360271.0,-7.0677,-5.2768,35.913,-0.2075,-5.1977,-1.6256
1360281.0,-6.3015,-5.7652,35.7406,0.1256,-5.1344,-1.7373
1360291.0,-5.7078,-5.9472,35.8651,0.4347,-5.2599,-1.9188
1360301.0,-4.7214,-5.6886,34.6776,0.571,-5.485,-2.1598
1360311.0,-3.5243,-4.4819,32.2547,0.4097,-5.6287,-2.3748
1360321.0,-2.9018,-3.5913,30.1382,0.1341,-5.5249,-2.5446
1360331.0,-2.4134,-2.3463,28.0505,-0.183,-5.2844,-2.5781
1360341.0,-2.4325,-2.0303,27.2556,-0.183,-4.8763,-2.5227
1360351.0,-2.2505,-1.494,26.5661,0.0399,-4.2489,-2.3769
1360361.0,-1.561,-1.8675,26.5565,0.4933,-3.6572,-2.1928
1360371.0,-0.5363,-2.7007,26.499,1.1781,-3.0591,-2.0364
1360381.0,0.3543,-3.5338,26.4224,1.8539,-2.5233,-1.9507
1360391.0,0.9768,-4.3,26.0585,2.369,-2.0273,-1.972
1360401.0,1.3982,-4.0223,24.7369,2.627,-1.6676,-2.1077
1360411.0,2.2697,-3.3136,23.9995,2.4876,-1.2622,-2.2716
1360421.0,2.4325,-2.4612,22.812,2.1162,-0.9243,-2.4493
1360431.0,2.1739,-1.1684,21.6532,1.5277,-0.5763,-2.651
1360441.0,1.743,-0.8619,21.2892,0.9998,0.0011,-2.7633
1360451.0,1.743,-0.9385,22.0267,0.7146,0.613,-2.8692
1360461.0,1.5131,-1.0151,22.4863,0.5348,1.1861,-3.0463
1360471.0,1.3312,-1.312,23.3961,0.5827,1.8704,-3.2246
1360481.0,0.8906,-0.8715,24.2581,0.887,2.576,-3.4098
1360491.0,0.4022,0.2203,25.2636,1.0174,3.1639,-3.5976
1360501.0,-0.68,1.8196,25.4839,0.8748,3.546,-3.7264
1360511.0,-1.8483,3.9169,25.369,0.39,4.0057,-3.7828
1360521.0,-3.0837,5.9472,25.1678,-0.4986,4.5927,-3.7072
1360531.0,-5.1523,6.3303,28.242,-1.3255,5.1157,-3.4672
1360541.0,-6.4165,5.2194,32.4462,-1.533,5.4893,-3.1948
1360551.0,-7.1635,3.5338,37.3687,-0.8008,5.7388,-2.9016
1360561.0,-7.1156,2.3942,40.5099,0.3986,5.8931,-2.7345
1360571.0,-7.7764,1.8292,42.6743,1.4857,5.8032,-2.6755
1360581.0,-7.9679,2.4804,43.4308,2.4147,5.6111,-2.6563
1360591.0,-8.5329,4.2425,42.8275,2.6616,5.294,-2.659
1360601.0,-9.1937,6.1196,41.4484,2.2306,4.8832,-2.6074
1360611.0,-9.8067,7.4124,40.395,1.3872,4.5586,-2.4578
1360621.0,-11.0133,7.7093,41.1803,0.6385,4.3303,-2.1588
1360631.0,-12.2487,6.0047,43.1244,0.4975,4.1366,-1.8294
1360641.0,-11.7029,4.0414,43.4117,0.9727,4.1095,-1.6054
1360651.0,-11.1761,2.557,43.4021,1.5038,4.2489,-1.5048
1360661.0,-11.3581,1.561,44.1299,2.0412,4.317,-1.4942
1360671.0,-10.8984,1.0918,43.4308,2.2445,4.2638,-1.6022
1360681.0,-10.3142,1.3791,42.4636,1.8901,4.0329,-1.7948
1360691.0,-10.7548,1.8675,42.6264,1.1015,3.6561,-1.9981
1360701.0,-11.6262,1.9345,42.5593,0.3581,3.1937,-2.1237
1360711.0,-12.6988,1.8579,42.0518,0.0676,2.9703,-2.1598
1360721.0,-13.5608,1.6376,41.2377,0.2549,3.123,-2.1018
1360731.0,-13.9726,0.2107,41.3622,0.7758,3.671,-2.0007
1360741.0,-14.0396,-1.3791,42.8945,1.5139,4.0121,-2.0694
1360751.0,-13.963,-2.1835,43.2201,1.806,4.0371,-2.3136
1360761.0,-13.9151,-1.7142,43.7852,1.8459,3.9669,-2.5983
1360771.0,-14.1928,-0.9864,43.7469,1.5373,3.769,-2.8367
1360781.0,-14.8441,-0.067,43.584,0.9248,3.5492,-3.0219
1360791.0,-15.4378,0.8236,42.9807,0.1825,3.273,-3.0868
1360801.0,-16.4434,0.8523,41.6112,-0.9541,3.1246,-3.0708
1360811.0,-17.5447,-1.5706,42.521,-1.7895,3.2714,-3.0639
1360821.0,-17.5543,-4.1851,44.1587,-2.2056,3.3858,-3.206
1360831.0,-16.8552,-7.2018,46.323,-2.5669,3.3582,-3.5875
1360841.0,-16.9893,-8.9926,49.1386,-2.5392,3.1932,-4.1446
1360851.0,-17.516,-9.0214,51.4562,-2.1173,2.883,-4.7214
1360861.0,-17.8703,-7.4795,51.868,-1.6368,2.402,-5.212
1360871.0,-18.646,-5.047,51.3891,-1.2962,1.9507,-5.5233
1360881.0,-19.824,-2.2505,50.3932,-1.2292,1.4388,-5.6383
1360891.0,-20.5997,-0.929,48.6598,-1.1909,1.0307,-5.6175
1360901.0,-21.0115,-0.1341,47.7212,-1.0866,0.8067,-5.535
1360911.0,-21.3275,0.0096,46.8976,-1.0302,0.6194,-5.4792
1360921.0,-21.7298,0.2969,46.9838,-0.7189,0.5044,-5.4558
1360931.0,-21.4042,0.9673,46.256,-0.2629,0.4864,-5.3946
1360941.0,-21.0498,2.2889,45.6526,0.0963,0.4656,-5.2812
1360951.0,-21.1264,3.735,44.2065,-0.0074,0.4193,-5.1429
1360961.0,-21.5861,4.5107,43.5553,-0.597,0.3124,-4.9715
1360971.0,-21.4616,4.4245,43.7373,-1.5213,0.0553,-4.83
1360981.0,-21.0211,3.5147,44.9248,-2.2828,-0.3166,-4.7012
1360991.0,-21.069,2.3272,46.0261,-2.6414,-0.5678,-4.5804
1361001.0,-21.0786,0.9673,47.8074,-2.3764,-0.8141,-4.4644
1361011.0,-21.4904,0.182,48.9471,-1.5655,-1.0775,-4.3585
1361021.0,-21.1264,-0.0383,48.9183,-0.497,-1.3883,-4.2564
1361031.0,-20.4944,0.4884,47.5776,0.5263,-1.6676,-4.1611
1361041.0,-20.0347,2.059,45.2696,1.1813,-1.9358,-4.0659
1361051.0,-19.8623,3.4381,42.2146,1.2223,-2.1402,-3.9398
1361061.0,-19.2781,4.7692,40.2513,0.8892,-2.171,-3.7823
1361071.0,-18.9429,5.4971,39.0351,0.3443,-2.1072,-3.5593
1361081.0,-18.6939,5.2577,39.7629,-0.0298,-1.9885,-3.2491
1361091.0,-19.1057,4.5969,40.462,0.067,-1.6953,-2.8777
1361101.0,-18.6652,3.055,42.5019,0.4954,-1.3851,-2.5451
1361111.0,-18.0523,1.5131,44.015,0.9035,-1.3973,-2.3285
1361121.0,-17.3819,0.4501,44.8578,1.1802,-1.5931,-2.2705
1361131.0,-16.8552,-0.0766,44.5034,1.2441,-1.7975,-2.2695
1361141.0,-16.2518,0.1532,44.6375,1.0972,-1.9209,-2.378
1361151.0,-16.6158,0.565,44.8482,0.7019,-2.1428,-2.4855
1361161.0,-16.8935,1.4557,45.576,0.3267,-2.3849,-2.5408
1361171.0,-16.8935,2.2027,46.6869,0.0862,-2.6244,-2.4908
1361181.0,-17.1616,2.7869,47.7787,0.1532,-2.9633,-2.2796
1361191.0,-16.8264,2.873,48.5544,0.3416,-3.3172,-2.0534
1361201.0,-16.5487,2.0494,48.8704,0.6981,-3.7115,-1.8044
1361211.0,-16.0507,1.1588,49.1769,1.2042,-4.0935,-1.6208
1361221.0,-15.5049,0.1437,47.9894,1.6198,-4.4314,-1.5197
1361231.0,-14.7483,-0.7278,46.8785,1.7789,-4.7337,-1.5304
1361241.0,-13.8193,-0.8619,45.6622,1.5868,-5.1407,-1.7001
1361251.0,-13.1585,-0.0479,43.8426,1.0126,-5.5989,-1.9869
1361261.0,-12.8808,1.5514,42.2624,0.3938,-5.8602,-2.1524
1361271.0,-12.4403,3.2561,41.8506,0.0968,-6.0177,-2.1215
1361281.0,-11.9231,3.8786,40.9792,-0.1096,-6.0789,-1.9635
1361291.0,-10.5632,2.988,40.9313,-0.1995,-6.1587,-1.7836
1361301.0,-9.8545,1.0822,42.6934,0.1362,-6.115,-1.7118
1361311.0,-9.1171,0.2682,42.6838,0.6391,-6.3955,-1.765
1361321.0,-8.3414,0.431,42.6168,1.1685,-6.7089,-1.8225
1361331.0,-8.1116,1.8771,39.7342,1.6575,-6.8313,-1.8108
1361341.0,-7.7764,3.0167,38.4317,1.8427,-6.7589,-1.6969
1361351.0,-7.0773,3.8882,36.5834,1.7507,-6.7674,-1.5713
1361361.0,-5.9089,4.2808,35.4055,1.2531,-6.8776,-1.4814
1361371.0,-4.7788,4.2042,34.8883,0.9355,-6.9254,-1.3798
1361381.0,-4.1659,4.4628,33.8349,0.6566,-6.8855,-1.2494
1361391.0,-3.304,3.9073,33.1932,0.7593,-6.6248,-1.0413
1361401.0,-1.992,3.6105,32.1398,1.1233,-6.2513,-0.8599
1361411.0,-1.1301,2.9305,32.1302,1.3856,-5.9714,-0.7364
1361421.0,0.0096,2.873,31.5173,1.3595,-5.9437,-0.7338
1361431.0,0.996,3.4955,29.7168,1.1126,-6.1161,-0.7886
1361441.0,2.0782,4.6926,27.6578,0.7466,-6.0959,-0.812
1361451.0,2.9113,5.679,25.1678,0.3124,-5.8139,-0.7577
1361461.0,3.3615,6.5793,23.4057,-0.0623,-5.4275,-0.6391
1361471.0,3.984,6.9623,22.5534,-0.2783,-4.9274,-0.4491
1361481.0,4.5011,7.5848,21.6819,-0.2437,-4.2761,-0.1841
1361491.0,4.9321,7.7955,20.9541,-0.1788,-3.6663,0.1086
1361501.0,5.5258,8.0637,20.1783,0.0372,-2.9942,0.4677
1361511.0,6.2632,8.7053,18.8472,0.2166,-2.1907,0.8753
1361521.0,7.7955,8.4659,17.9948,0.3326,-1.2217,1.26
1361531.0,6.8857,8.6957,17.4489,0.3464,-0.1602,1.7102
1361541.0,5.9185,9.0214,16.769,0.133,0.9243,2.1774
1361551.0,5.7844,8.418,18.0331,-0.1314,1.9874,2.6531
1361561.0,5.5258,7.0485,20.4752,-0.2091,2.8867,3.0772
1361571.0,5.2002,5.1427,23.061,-0.2496,3.5481,3.3661
1361581.0,4.6831,4.1372,24.9763,-0.3257,3.9733,3.5561
1361591.0,3.8882,3.6583,26.6331,-0.4353,4.3676,3.7051
1361601.0,3.4093,3.1987,28.0792,-0.4619,4.7438,3.878
1361611.0,2.6049,2.7102,29.5828,-0.3001,5.0503,4.0834
1361621.0,2.557,2.1069,30.8469,-0.0889,5.5553,4.2904
1361631.0,1.7142,0.9577,32.3792,-0.0442,5.8852,4.399
1361641.0,1.063,-0.4405,34.85,-0.1846,5.8751,4.3729
1361651.0,0.5459,-1.7526,36.5259,-0.3501,5.5851,4.225
1361661.0,0.2969,-2.6815,38.0199,-0.5284,5.2227,4.0153
1361671.0,0.0096,-2.8443,38.1061,-0.5475,4.872,3.8089
1361681.0,0.0096,-2.4995,36.9569,-0.6146,4.8438,3.6923
1361691.0,-0.6321,-2.4708,36.7845,-0.5566,5.0386,3.6726
1361701.0,-1.245,-2.7773,36.7271,-0.5571,5.2786,3.6146
1361711.0,-1.8579,-3.486,37.5315,-0.6763,5.3914,3.4752
1361721.0,-2.2984,-4.7788,39.0925,-0.8886,5.1764,3.1687
1361731.0,-2.7294,-5.2289,39.2362,-1.3026,4.5762,2.6973
1361741.0,-2.739,-3.9456,37.1963,-1.88,4.117,2.2072
1361751.0,-3.6009,-1.561,35.5108,-1.9193,4.3905,2.0412
1361761.0,-5.1523,1.1971,34.4765,-1.5846,5.1493,2.2455
1361771.0,-6.4356,2.1548,35.1277,-1.0046,5.9714,2.6856
1361781.0,-7.92,1.9249,37.0048,-0.4917,6.7796,3.1522
1361791.0,-8.6479,0.067,40.1172,-0.0761,7.1771,3.4438
1361801.0,-8.8011,-2.1069,42.0709,0.1937,7.0888,3.4438
1361811.0,-9.1746,-3.7062,43.9384,0.2762,6.7509,3.1549
1361821.0,-9.2799,-3.2657,43.7181,-0.0059,6.1411,2.6797
1361831.0,-10.094,-1.0918,42.7221,-0.2879,5.6521,2.3163
1361841.0,-11.6837,2.4421,40.4907,-0.3523,5.8602,2.2609
1361851.0,-13.8959,5.5162,39.3511,-0.331,6.5413,2.5467
1361861.0,-15.6293,7.2305,40.7014,-0.3895,7.2139,3.0107
1361871.0,-17.0084,7.3933,43.019,-0.6987,7.4778,3.4832
1361881.0,-17.9182,6.4739,46.2943,-1.1515,7.2458,3.8355
1361891.0,-18.7705,4.8171,49.6557,-1.2973,6.7147,4.0568
1361901.0,-19.1249,4.0893,51.0635,-1.2106,6.0677,4.1776
1361911.0,-19.4409,4.6256,50.8337,-0.8657,5.5771,4.3346
1361921.0,-20.2645,5.5641,49.5791,-0.4597,5.5169,4.6443
1361931.0,-21.069,6.2824,48.9949,-0.1213,5.5467,5.0599
1361941.0,-22.1895,6.1675,49.0716,-0.2469,5.377,5.4031
1361951.0,-22.6108,4.9129,49.7611,-0.6183,4.9784,5.6202
1361961.0,-22.448,3.3902,50.3932,-0.978,4.4634,5.716
1361971.0,-22.2086,2.1548,50.4219,-1.2696,3.8349,5.6425
1361981.0,-21.8543,1.6759,49.1865,-1.6155,3.223,5.5207
1361991.0,-21.9883,1.9537,47.9032,-1.8033,2.8234,5.4456
1362001.0,-21.9979,2.6719,45.4994,-1.9374,2.7446,5.4712
1362011.0,-22.6683,3.1412,44.6662,-2.2035,2.8883,5.593
1362021.0,-23.7313,2.6432,45.0397,-2.2689,2.9069,5.7521
1362031.0,-23.9324,1.7334,45.7676,-2.0896,2.9011,5.9213
1362041.0,-23.6834,0.68,47.4818,-1.7065,2.9878,6.0661
1362051.0,-23.875,-0.6321,49.1482,-1.2068,2.8362,6.1124
1362061.0,-23.5973,-1.5897,49.7994,-0.7482,2.5153,6.0421
1362071.0,-23.2429,-1.8292,49.3876,-0.2868,2.2311,5.9421
1362081.0,-22.8024,-0.9481,48.8896,-0.1846,2.0167,5.7963
1362091.0,-23.2812,-0.249,48.4491,-0.3001,1.706,5.6941
1362101.0,-23.4153,0.4022,46.6678,-0.7455,1.4096,5.5755
1362111.0,-22.7353,0.6129,45.26,-1.3798,1.1568,5.4706
1362121.0,-23.942,0.4214,45.509,-1.9922,1.1611,5.4238
1362131.0,-25.4935,0.0096,47.2903,-2.2785,1.1206,5.3924
1362141.0,-25.12,-1.1205,49.4355,-2.4956,0.8578,5.3914
1362151.0,-24.2006,-2.806,51.1976,-2.3796,0.3001,5.3169
1362161.0,-23.2716,-3.9073,51.3796,-2.2349,-0.2767,5.1163
1362171.0,-22.6013,-4.4053,51.1401,-2.0917,-0.8264,4.8358
1362181.0,-21.8926,-4.1276,50.6326,-2.2131,-1.3963,4.5395
1362191.0,-21.8543,-4.0318,49.6749,-2.2189,-1.9858,4.2691
1362201.0,-21.7202,-3.984,47.7978,-2.2546,-2.4557,4.0276
1362211.0,-21.0019,-3.9361,46.5816,-2.1976,-2.8409,3.7567
