time_ms,ax,ay,az,gx,gy,gz
4912791.0,18.1002,-8.3893,38.9297,-1.8161,-3.1427,-0.4789
4912801.0,18.3492,-7.8338,38.3551,-1.8991,-3.3172,-0.4464
4912811.0,18.3396,-7.5561,37.7135,-1.9858,-3.4742,-0.381
4912821.0,18.8184,-7.2784,36.3919,-2.0731,-3.6125,-0.281
4912831.0,18.2917,-7.9104,35.8173,-2.1593,-3.7014,-0.1889
4912841.0,18.5407,-9.0788,34.5627,-2.1407,-3.8073,-0.116
4912851.0,19.1919,-10.5632,33.356,-2.0454,-3.7418,-0.1463
4912861.0,19.7378,-11.3868,32.4845,-2.0231,-3.6476,-0.2565
4912871.0,19.5271,-11.9997,32.0631,-1.8555,-3.546,-0.414
4912881.0,20.0826,-12.038,31.3066,-1.6128,-3.3161,-0.5518
4912891.0,20.7051,-12.2392,31.297,-1.4011,-3.1458,-0.6593
4912901.0,21.0402,-12.0764,31.4023,-1.119,-2.9985,-0.7859
4912911.0,21.5765,-12.1721,31.1246,-0.8386,-2.8351,-0.8897
4912921.0,21.8064,-12.4882,31.3353,-0.571,-2.7851,-1.0211
4912931.0,21.9979,-12.1817,31.4694,-0.332,-2.833,-1.1691
4912941.0,22.2373,-11.5688,31.0672,-0.1756,-2.8404,-1.2733
4912951.0,21.95,-10.9463,30.3106,-0.0032,-2.8851,-1.3404
4912961.0,21.9596,-10.3525,28.9124,-0.066,-2.9601,-1.3478
4912971.0,22.6683,-10.41,27.2939,-0.3634,-2.8388,-1.3489
4912981.0,22.6779,-10.161,26.5182,-0.531,-2.643,-1.3755
4912991.0,23.1184,-10.094,26.6906,-0.5731,-2.3759,-1.3713
4913001.0,22.946,-9.912,26.5948,-0.5715,-2.1167,-1.3606
4913011.0,23.2621,-9.7492,26.6906,-0.7253,-2.0071,-1.3702
4913021.0,23.3483,-9.2416,27.3418,-0.9903,-1.9523,-1.3808
4913031.0,23.5494,-8.8394,27.9068,-1.1627,-1.9709,-1.3659
4913041.0,23.9324,-8.4755,28.2037,-1.2159,-1.9614,-1.3031
4913051.0,24.0091,-8.667,28.5197,-1.3372,-1.9667,-1.2122
4913061.0,24.373,-8.983,28.5293,-1.2446,-1.9704,-1.1818
4913071.0,25.0529,-9.3182,28.1558,-1.2159,-1.9374,-1.1334
4913081.0,25.12,-9.4715,28.2516,-1.1462,-1.8667,-1.1419
4913091.0,25.254,-9.481,27.8206,-1.1297,-1.7826,-1.1318
4913101.0,25.254,-9.4715,28.3857,-1.2302,-1.7884,-1.0908
4913111.0,25.8286,-10.5728,28.3473,-1.2297,-1.7496,-1.0823
4913121.0,26.4703,-11.0325,28.1271,-1.2308,-1.7049,-1.1302
4913131.0,26.9874,-11.8082,28.3569,-1.3393,-1.6267,-1.1712
4913141.0,27.5525,-12.4115,28.673,-1.3936,-1.549,-1.243
4913151.0,27.6674,-12.6701,29.6402,-1.3995,-1.558,-1.3505
4913161.0,28.0122,-12.5169,30.2531,-1.3367,-1.5596,-1.4479
4913171.0,28.06,-11.9614,30.3968,-1.309,-1.6501,-1.5197
4913181.0,27.993,-11.473,30.234,-1.2377,-1.6921,-1.5171
4913191.0,28.4048,-10.9654,29.9946,-1.2153,-1.798,-1.5155
4913201.0,28.8453,-10.8122,29.2955,-1.2542,-1.8177,-1.4761
4913211.0,29.1614,-10.8505,29.3242,-1.3367,-1.7485,-1.4793
4913221.0,29.3816,-10.5632,29.4295,-1.4213,-1.8214,-1.4867
4913231.0,29.7264,-10.1993,28.7496,-1.5484,-1.8725,-1.5032
4913241.0,29.554,-10.0556,28.6155,-1.7592,-1.9789,-1.5048
4913251.0,29.9179,-10.1514,28.8453,-1.8619,-1.989,-1.5229
4913261.0,30.3106,-9.7779,28.5102,-2.0465,-2.0348,-1.5868
4913271.0,30.8852,-8.8394,28.2995,-2.2902,-2.0651,-1.615
4913281.0,30.7894,-7.7285,28.8741,-2.4254,-2.1151,-1.5474
4913291.0,30.7415,-7.3837,29.3433,-2.4812,-2.2152,-1.4096
4913301.0,30.8086,-7.2113,28.989,-2.4722,-2.3663,-1.242
4913311.0,30.799,-7.0677,27.9451,-2.5536,-2.5254,-1.1063
4913321.0,30.6075,-7.5753,28.0984,-2.7005,-2.6664,-1.0073
4913331.0,29.7743,-7.7955,26.4607,-2.9452,-2.9373,-0.9025
4913341.0,30.1095,-8.4372,24.5932,-3.0176,-3.0581,-0.8391
4913351.0,30.0712,-9.098,23.8271,-3.1187,-2.9931,-0.8551
4913361.0,29.6306,-9.3374,22.9843,-2.8809,-3.0799,-0.9573
4913371.0,29.1039,-8.5712,21.3563,-2.3913,-3.0235,-1.0413
4913381.0,27.8877,-7.6806,20.2262,-1.6437,-2.9032,-1.1462
4913391.0,27.0832,-6.2728,17.2766,-0.7513,-2.9564,-1.2286
4913401.0,26.5852,-4.7309,12.1338,0.0149,-2.7079,-1.2265
4913411.0,25.3402,-2.806,6.2153,0.1165,-2.1487,-1.1531
4913421.0,25.12,-1.4365,1.8962,-0.2448,-1.3867,-1.0318
4913431.0,24.9093,-0.4405,-0.4884,-0.5949,-0.4119,-0.9323
4913441.0,25.12,0.7374,-0.0862,-0.5864,0.6332,-0.8429
4913451.0,23.4057,2.9305,0.68,0.0011,1.4846,-0.7008
4913461.0,21.7298,4.798,0.182,0.6492,2.2056,-0.3932
4913471.0,22.3714,5.3151,-0.9194,1.5346,3.1714,-0.0176
4913481.0,21.5957,6.0142,-2.739,2.1327,4.267,0.4113
4913491.0,21.8638,5.7365,-3.0167,2.4605,5.5872,0.8902
4913501.0,21.0498,4.7884,-0.1245,2.6276,6.778,1.3361
4913511.0,20.1592,3.5721,4.0127,2.7792,7.6608,1.6778
4913521.0,19.9485,2.2218,7.2975,2.767,8.3201,1.9507
4913531.0,19.2494,0.9098,12.1913,2.7186,8.7373,2.0742
4913541.0,17.5926,0.7949,16.7977,2.8335,8.7139,2.1045
4913551.0,16.3572,1.0343,20.0826,2.9569,8.5335,2.1082
4913561.0,15.7443,2.3559,21.5095,3.099,8.2621,2.113
4913571.0,14.9207,4.3096,21.7777,3.0405,8.0684,2.4046
4913581.0,14.1258,4.4149,22.2469,3.2778,8.1759,2.9266
4913591.0,14.5759,2.7485,22.1033,3.1874,8.3504,3.4869
4913601.0,14.3556,-0.6321,21.5478,2.9133,8.7517,3.8669
4913611.0,12.5839,-3.4572,23.8079,2.3115,9.1715,3.8977
4913621.0,11.2623,-5.5929,26.0872,1.2861,9.0757,3.6365
4913631.0,11.8082,-4.8554,27.744,0.1942,8.8389,3.2571
4913641.0,12.9,-3.0742,32.1206,-0.265,9.048,3.2762
4913651.0,12.8425,-1.9632,36.1812,0.281,9.2284,3.5657
4913661.0,13.8098,-2.3655,38.7382,0.9945,9.2944,4.0542
4913671.0,14.7674,-4.4819,40.7206,1.293,9.4982,4.5049
4913681.0,14.2407,-7.604,43.9958,1.2755,9.3599,4.7289
4913691.0,15.3899,-10.5632,47.0508,0.986,8.7745,4.7294
4913701.0,16.9701,-12.5456,48.3246,0.5715,8.3159,4.5751
4913711.0,18.0331,-13.283,49.809,0.2187,8.0163,4.3761
4913721.0,18.7418,-12.8617,52.5479,0.017,7.7593,4.2989
4913731.0,18.7227,-12.7467,54.8943,-0.1474,7.5049,4.4288
4913741.0,18.5503,-14.0109,58.0163,0.0713,7.3112,4.7347
4913751.0,18.9717,-18.2438,61.7321,0.6274,7.1809,5.0551
4913761.0,20.322,-24.4496,65.4958,1.5671,7.0803,5.1253
4913771.0,20.5901,-30.4734,69.3361,2.4584,6.7791,4.83
4913781.0,21.3659,-35.8939,71.826,3.1788,6.4944,4.1877
4913791.0,22.4863,-39.2745,75.063,3.5939,6.1374,3.2283
4913801.0,22.4576,-40.2034,78.4508,3.7759,5.4887,2.1391
4913811.0,22.3906,-38.6903,78.4508,3.8456,4.8332,1.0531
4913821.0,20.9445,-34.3807,78.4508,3.613,3.786,0.2192
4913831.0,20.0921,-29.9658,78.4508,3.2549,2.5233,-0.3959
4913841.0,18.7705,-24.9859,78.4508,2.4765,0.9817,-0.7737
4913851.0,17.7267,-21.0307,78.4508,1.6581,-0.7678,-0.9732
4913861.0,15.8688,-17.5926,78.4508,0.7317,-2.6058,-0.9881
4913871.0,15.4187,-14.959,78.4508,-0.0181,-4.523,-0.9344
4913881.0,14.6142,-12.9957,78.4508,-1.1036,-5.966,-0.7992
4913891.0,13.5129,-11.722,78.4508,-2.0316,-7.1888,-0.6534
4913901.0,12.4977,-10.8122,75.7334,-3.0565,-8.3185,-0.4688
4913911.0,12.0859,-11.8848,72.4007,-3.9509,-9.1507,-0.2975
4913921.0,12.4211,-13.8481,69.135,-4.8225,-9.9931,-0.3347
4913931.0,12.1913,-15.275,66.6546,-5.51,-10.8019,-0.4699
4913941.0,11.7699,-16.2518,64.1359,-5.8628,-11.3936,-0.7146
4913951.0,11.7124,-16.6253,61.7991,-6.023,-12.1423,-0.9722
4913961.0,11.2911,-16.4913,57.8343,-6.0459,-12.7893,-1.2356
4913971.0,11.473,-16.4338,53.6876,-6.0927,-13.3438,-1.4473
4913981.0,11.3868,-16.4146,49.2152,-5.9873,-13.6902,-1.64
4913991.0,11.406,-16.2327,44.5609,-5.792,-13.8402,-1.7687
4914001.0,11.4347,-16.7211,40.1651,-5.5271,-13.7982,-1.8369
4914011.0,11.0133,-18.579,36.2291,-5.0024,-13.5822,-1.898
4914021.0,10.6494,-21.7777,32.9155,-4.6166,-13.4662,-2.1609
4914031.0,11.3006,-24.9188,28.8741,-4.275,-13.3065,-2.7138
4914041.0,12.7467,-25.752,24.9859,-3.9525,-13.1208,-3.5503
4914051.0,13.1968,-23.5111,20.7817,-3.5556,-13.0639,-4.4532
4914061.0,12.8425,-18.7131,16.1656,-3.1357,-12.6153,-5.1572
4914071.0,12.2775,-12.536,11.3102,-2.6387,-11.9092,-5.4057
4914081.0,12.2679,-8.3127,7.5657,-2.113,-11.1786,-5.2605
4914091.0,13.9055,-6.3207,2.8635,-1.7879,-10.3661,-4.9678
4914101.0,15.2463,-4.9895,-0.5171,-1.4963,-9.2769,-4.7331
4914111.0,15.8017,-3.9744,-2.3272,-1.1925,-8.2355,-4.5038
4914121.0,17.1521,-2.7581,-3.5243,-0.9413,-7.1585,-4.2691
4914131.0,17.2766,-1.8675,-4.3096,-0.5992,-6.1816,-4.0015
4914141.0,18.2821,-0.8236,-5.6407,-0.5694,-5.3844,-3.7274
4914151.0,18.7993,-0.0383,-5.7844,-0.5284,-4.5011,-3.4635
4914161.0,18.7131,0.9002,-5.6695,-0.4539,-3.7003,-3.1693
4914171.0,18.8472,1.8579,-4.5873,-0.2363,-2.9649,-2.8665
4914181.0,18.8472,2.8443,-4.7022,0.0074,-2.3418,-2.4961
4914191.0,18.7131,3.371,-3.6679,0.3437,-1.7943,-2.1598
4914201.0,18.4066,4.3,-3.6871,0.7146,-1.3521,-1.7895
4914211.0,17.6692,4.8459,-3.6871,1.2084,-0.9546,-1.4676
4914221.0,17.1712,5.1523,-5.2481,1.4133,-0.5992,-1.1999
4914231.0,18.4449,5.9376,-9.2608,1.2068,-0.0607,-0.9136
4914241.0,18.7897,6.292,-10.8697,0.8913,0.7519,-0.7194
4914251.0,18.8567,7.7955,-11.3389,0.4113,1.541,-0.4933
4914261.0,19.3164,9.1075,-11.4156,0.3714,2.6361,-0.0952
4914271.0,19.1345,10.5919,-10.9654,0.3421,3.6184,0.4746
4914281.0,19.3643,10.0556,-9.4906,0.3943,4.5751,1.1754
4914291.0,19.5367,8.7436,-8.0637,0.5779,5.6356,1.8714
4914301.0,19.0578,5.8131,-6.5601,0.8977,6.5381,2.4871
4914311.0,19.4792,2.1356,-4.8363,1.2952,7.5507,2.8564
4914321.0,19.1919,-1.1205,-3.802,1.3846,8.4622,3.0022
4914331.0,17.7458,-3.802,-1.9632,1.2127,9.2002,3.0458
4914341.0,15.9071,-6.8761,-0.5171,0.9136,10.0197,3.1129
4914351.0,15.2463,-10.9367,0.9002,0.3342,10.8732,3.1602
4914361.0,15.208,-16.1369,2.7869,-0.3235,11.8672,2.9548
4914371.0,16.3093,-21.1647,7.5369,-0.5768,12.9532,2.3966
4914381.0,16.9031,-24.1336,14.279,-0.281,13.9951,1.5304
4914391.0,16.1752,-23.4632,22.2757,0.4422,14.2335,0.4544
4914401.0,15.6964,-19.1632,27.0832,1.0206,14.0281,-0.4204
4914411.0,14.9015,-12.785,31.1055,1.7448,13.9046,-0.8354
4914421.0,14.9015,-8.0732,34.1222,2.4387,13.4672,-0.6396
4914431.0,14.777,-5.612,32.8293,2.9585,13.2081,-0.0692
4914441.0,15.208,-6.3877,31.613,2.5664,13.3725,0.5944
4914451.0,15.8209,-11.0804,32.8197,1.7767,13.4396,1.0786
4914461.0,16.6253,-16.204,34.3903,0.6508,13.5236,1.1653
4914471.0,17.018,-20.0634,37.7039,-0.4757,13.7626,0.9509
4914481.0,16.4051,-21.9405,42.6838,-1.5234,13.6444,0.6737
4914491.0,16.3093,-23.3099,48.564,-2.1859,13.364,0.4693
4914501.0,15.7155,-25.0242,55.172,-2.3525,13.0064,0.3555
4914511.0,16.9509,-27.5142,60.4775,-2.1849,12.2764,0.1676
4914521.0,18.4162,-29.9563,63.7911,-2.0247,11.2175,-0.1894
4914531.0,18.7131,-31.7567,67.0664,-1.964,10.0096,-0.6492
4914541.0,19.4505,-32.4845,66.396,-1.8134,8.8506,-1.1611
4914551.0,19.9772,-32.2738,64.653,-1.8523,7.9189,-1.6102
4914561.0,19.3739,-32.1781,62.8047,-1.781,7.3815,-1.9741
4914571.0,19.891,-33.6912,61.9907,-1.3133,7.4709,-2.3216
4914581.0,18.4066,-34.7255,62.3354,-1.1456,7.4448,-2.7622
4914591.0,18.081,-37.2442,65.8789,-0.6588,7.4496,-3.372
4914601.0,17.6022,-37.4166,68.7998,-0.3517,7.2027,-4.1909
4914611.0,15.6964,-35.6066,72.5539,0.0,6.769,-5.0599
4914621.0,13.8098,-33.0017,78.2712,0.5098,6.0725,-5.8618
4914631.0,12.6701,-28.2037,78.4508,0.9296,4.7347,-6.5737
4914641.0,11.2144,-22.879,78.4508,1.2031,3.5407,-7.026
4914651.0,9.7779,-17.7746,78.4508,1.3127,2.4259,-7.2601
4914661.0,8.7245,-12.6414,78.4508,1.0137,1.2686,-7.3192
4914671.0,6.5697,-7.92,78.4508,0.4193,0.3485,-7.1894
4914681.0,5.0949,-3.9265,78.4508,-0.5193,-0.7061,-6.9026
4914691.0,5.0661,-1.5227,78.4508,-1.4803,-1.6751,-6.6025
4914701.0,3.7158,1.561,78.4508,-2.7106,-2.8367,-6.2981
4914711.0,2.3846,3.7733,78.4508,-3.6157,-4.3979,-5.9485
4914721.0,2.0877,5.5545,78.4508,-4.1829,-6.2113,-5.4951
4914731.0,2.0016,6.6655,78.4508,-4.4064,-7.8375,-4.9662
4914741.0,2.8252,7.3167,75.379,-4.7906,-9.1901,-4.4384
4914751.0,3.5626,7.4124,69.767,-5.261,-10.2315,-3.8919
4914761.0,3.7445,6.6176,63.9156,-5.7362,-10.9349,-3.3901
4914771.0,5.1523,5.1811,59.1655,-6.3933,-11.4734,-2.9532
4914781.0,7.2592,3.4955,55.8424,-6.9749,-11.7751,-2.6334
4914791.0,7.5657,2.0303,53.6972,-7.0085,-12.0598,-2.4334
4914801.0,8.4084,0.8332,50.2495,-6.8909,-12.6052,-2.1657
4914811.0,9.9407,-0.8236,45.1834,-6.4428,-12.5387,-1.864
4914821.0,10.8984,-3.486,41.4771,-6.3188,-12.2551,-1.6315
4914831.0,13.5129,-7.0964,40.4333,-5.8575,-12.0657,-1.5836
4914841.0,15.1409,-9.8354,38.4988,-5.1301,-12.0039,-1.6852
4914851.0,16.9988,-11.6071,35.2139,-4.3841,-11.8507,-1.8853
4914861.0,18.5311,-12.2296,31.8812,-3.712,-11.6969,-2.1226
4914871.0,19.7474,-11.4539,27.4376,-3.2682,-11.4894,-2.2977
4914881.0,20.7625,-10.8984,23.1184,-2.8835,-10.9381,-2.312
4914891.0,21.3084,-11.4156,20.6763,-2.6952,-10.2916,-2.2264
4914901.0,22.7736,-12.9478,19.0866,-2.4286,-9.6376,-2.2418
4914911.0,23.942,-14.2694,17.9469,-2.0752,-8.9677,-2.3503
4914921.0,24.373,-14.5472,17.6884,-1.7906,-8.4797,-2.5488
4914931.0,24.6507,-14.0779,16.7498,-1.5011,-7.9732,-2.7723
4914941.0,24.6411,-12.6893,16.9414,-1.3601,-7.6332,-2.9096
4914951.0,24.4113,-11.1953,16.1465,-1.2616,-7.4778,-2.9575
4914961.0,24.9667,-9.6247,15.5623,-1.1893,-7.2548,-2.9144
4914971.0,25.0625,-7.7093,14.8536,-1.1637,-7.0978,-2.7947
4914981.0,24.7848,-6.3015,15.3899,-0.8594,-7.0436,-2.6127
4914991.0,24.5358,-5.1044,13.4746,-0.2879,-7.1159,-2.3275
4915001.0,24.2676,-4.4628,10.9463,0.3613,-6.9909,-2.0023
4915011.0,23.9324,-3.7733,7.0677,0.8493,-6.7296,-1.641
4915021.0,23.693,-3.5817,2.8826,1.1196,-6.2991,-1.3383
4915031.0,23.4728,-3.5147,-0.4501,1.0078,-5.642,-1.0275
4915041.0,23.195,-3.2561,-1.6855,0.8035,-4.9604,-0.7811
4915051.0,22.5151,-3.0358,-2.3942,0.8221,-4.2686,-0.5231
4915061.0,22.2278,-3.1029,-2.8252,0.9966,-3.6184,-0.2762
4915071.0,22.3235,-2.7102,-4.2713,1.1526,-3.0352,-0.107
4915081.0,22.3427,-1.4748,-5.7844,1.3484,-2.2998,0.0309
4915091.0,21.452,0.68,-5.4875,1.6389,-1.5506,0.2176
4915101.0,20.9541,2.9305,-4.798,2.1141,-0.7987,0.4491
4915111.0,20.0251,5.5737,-4.798,2.9926,-0.0883,0.7444
4915121.0,17.5064,8.8777,-6.11,3.662,0.5811,1.2015
4915131.0,16.0795,10.4962,-7.8051,4.0228,1.3457,1.9539
4915141.0,15.6198,10.2376,-10.41,4.0935,2.4791,2.7532
4915151.0,15.4953,9.2799,-10.5441,3.8014,3.7306,3.4449
4915161.0,15.955,7.8817,-7.4029,3.6492,5.0173,4.001
4915171.0,15.524,7.7189,-2.6336,3.7376,6.0017,4.5166
4915181.0,12.9478,7.4891,2.1261,4.0914,6.5157,5.1195
4915191.0,10.6303,6.2441,3.8307,4.0026,6.7041,5.9123
4915201.0,13.1106,-0.4788,9.9503,4.1904,6.9914,6.4944
4915211.0,13.781,-3.553,7.4795,5.9134,7.9641,6.3981
4915221.0,13.2351,-7.2496,10.7548,5.0524,7.6832,6.2438
4915231.0,15.4665,-7.0964,10.0748,5.6521,8.5244,5.8756
4915241.0,13.3788,-5.4779,13.4363,5.2828,8.4537,5.7521
4915251.0,11.3964,-3.486,16.0986,5.8894,8.5798,5.7782
4915261.0,8.2648,-3.1412,16.9797,6.8712,8.7878,6.1395
4915271.0,8.9447,-6.675,17.4777,8.4755,9.4759,6.3295
4915281.0,8.4084,-10.3046,17.1808,11.0004,10.3799,6.106
4915291.0,8.849,-12.402,13.4458,12.8973,11.5969,5.7388
4915301.0,9.098,-12.2583,8.6574,13.7705,13.8131,5.2402
4915311.0,7.7189,-10.161,10.6207,13.1267,16.2215,4.8736
4915321.0,4.9416,-7.0677,20.4944,11.8789,17.4357,4.7613
4915331.0,2.6624,-4.6831,33.0687,10.4411,17.4357,4.8103
4915341.0,1.8579,-2.5187,46.7061,8.9235,17.4357,5.0567
4915351.0,2.3559,-1.3695,59.5773,7.888,17.4357,5.3951
4915361.0,0.6512,-1.3503,70.9354,6.9212,15.8708,5.8931
4915371.0,2.9113,-3.3806,77.6966,6.4162,13.5087,6.3667
4915381.0,4.2234,-4.4724,75.4269,4.8209,11.0408,6.753
4915391.0,6.1962,-8.6574,75.2545,3.2198,9.08,7.0558
4915401.0,7.8434,-12.0572,72.3432,2.46,7.9902,7.1415
4915411.0,8.2361,-14.4993,69.7575,1.0483,6.8717,7.0638
4915421.0,8.9543,-17.1233,69.518,0.1086,5.6909,6.8467
4915431.0,9.9503,-16.9988,66.5875,-1.1717,4.8028,6.5705
4915441.0,10.7931,-15.0643,65.3904,-2.378,3.8152,6.363
4915451.0,10.9367,-12.3158,65.1319,-2.726,3.0894,6.4279
4915461.0,8.6383,-9.165,63.3218,-2.5478,2.7409,6.8786
4915471.0,8.3701,-10.9367,63.3123,-1.7703,2.7484,7.5815
4915481.0,9.8258,-15.8209,62.9771,-0.7891,2.6685,8.0455
4915491.0,11.2719,-20.8487,61.8279,-0.0968,2.66,8.0892
4915501.0,12.2679,-23.8175,63.4846,0.431,2.9059,7.8737
4915511.0,12.3349,-25.503,66.0321,0.9791,2.8298,7.5603
4915521.0,12.8521,-25.7329,68.0528,1.4745,2.6425,7.1723
4915531.0,12.1625,-24.1431,69.9298,1.2792,2.2189,6.8063
4915541.0,12.287,-23.0993,73.186,0.9381,1.2627,6.5093
4915551.0,12.2104,-20.5901,74.4884,0.5417,0.2953,6.256
4915561.0,11.157,-18.3587,77.7541,0.3868,-0.4752,6.1262
4915571.0,9.8258,-16.0986,78.4508,0.0612,-1.9662,6.1613
4915581.0,9.1459,-15.6868,78.4508,0.0697,-3.787,6.2938
4915591.0,9.7109,-15.8209,78.4508,0.1548,-5.4813,6.371
4915601.0,9.7779,-16.4051,76.7294,0.216,-7.117,6.3316
4915611.0,9.1554,-15.6006,71.7399,0.3076,-8.2908,6.2369
4915621.0,6.9719,-14.7387,66.7025,0.008,-9.2189,6.2997
4915631.0,5.8419,-17.085,62.5749,-0.2613,-9.9862,6.4269
4915641.0,6.9432,-21.7298,58.6005,-0.224,-10.2336,6.3114
4915651.0,8.8011,-26.9396,56.5606,-0.2176,-10.2501,5.7771
4915661.0,10.4196,-30.6649,56.6277,-0.0245,-10.2815,4.9322
4915671.0,10.3525,-31.2012,57.3363,-0.0878,-10.713,3.8738
4915681.0,9.0214,-29.9467,57.3842,-0.2517,-11.4654,2.8718
4915691.0,9.6438,-28.1845,57.1927,0.191,-12.0295,2.0353
4915701.0,9.1459,-26.4128,55.0283,0.9578,-12.4908,1.3771
4915711.0,8.8585,-26.6714,53.0747,1.8023,-12.6361,0.854
4915721.0,9.4523,-28.2228,51.2455,2.7228,-12.6866,0.224
4915731.0,10.0269,-29.554,48.1809,2.9085,-13.1235,-0.5422
4915741.0,10.2855,-29.4295,44.1395,2.42,-13.5667,-1.491
4915751.0,9.9216,-27.562,41.1898,2.0242,-13.7051,-2.3871
4915761.0,10.2951,-26.5373,38.6424,1.8246,-13.803,-3.2342
4915771.0,9.5481,-23.2908,32.7718,1.5543,-13.8142,-3.8983
4915781.0,9.7875,-22.7832,29.2284,1.5953,-13.5316,-4.4719
4915791.0,10.3142,-22.1512,24.4209,1.4617,-13.007,-5.0487
4915801.0,10.9942,-21.3946,19.4409,1.1685,-12.5291,-5.6713
4915811.0,11.0708,-20.6859,14.9207,0.497,-11.6495,-6.2209
4915821.0,11.1091,-19.8431,12.4307,-0.2778,-10.8115,-6.794
4915831.0,10.7739,-19.2398,10.6398,-1.0376,-10.1772,-7.3304
4915841.0,11.4826,-18.397,7.7093,-1.7932,-9.4014,-7.8683
4915851.0,11.2432,-17.6788,5.9568,-2.3269,-8.4271,-8.3781
4915861.0,11.9423,-16.6541,3.735,-2.9383,-7.4756,-8.8799
4915871.0,12.5648,-15.6389,2.4708,-3.4939,-6.5562,-9.3843
4915881.0,12.5648,-12.4882,0.4214,-3.9924,-5.717,-9.8292
4915891.0,12.1051,-9.9407,-0.1053,-4.0542,-4.6299,-10.1719
4915901.0,10.4387,-6.1675,-1.5323,-3.6604,-3.4534,-10.2469
4915911.0,9.5385,-3.735,-2.1261,-3.0288,-2.2934,-10.1809
4915921.0,10.0748,-0.8906,-3.3136,-2.4248,-1.0834,-10.0101
4915931.0,10.0173,1.1779,-2.7964,-1.7075,0.0798,-9.7196
4915941.0,9.2129,2.9113,-3.371,-1.1382,1.1515,-9.4136
4915951.0,8.351,5.1044,-4.0893,-1.0445,1.9736,-9.0624
4915961.0,7.9487,7.4316,-4.7309,-1.4963,2.6813,-8.7256
4915971.0,7.8243,9.912,-5.5833,-2.1588,3.381,-8.2674
4915981.0,7.3263,12.5935,-5.4684,-2.9788,4.1021,-7.6699
4915991.0,7.9871,14.7004,-5.8035,-3.8658,4.7933,-6.9531
4916001.0,8.7053,15.1601,-6.8187,-4.7874,5.6675,-6.1321
4916011.0,9.5193,16.7786,-5.8897,-5.3807,6.6589,-5.2291
4916021.0,9.9216,15.2654,-1.6281,-5.6399,8.0264,-4.1925
4916031.0,9.481,16.0316,-0.0287,-5.2727,9.064,-3.2549
4916041.0,10.1993,14.2407,4.0318,-4.5107,9.9893,-2.3466
4916051.0,8.2552,13.963,5.047,-3.7439,11.118,-1.4378
4916061.0,7.8721,11.2336,8.4659,-3.3007,11.8645,-0.5683
4916071.0,6.4643,7.671,9.9503,-3.1113,12.5877,0.1208
4916081.0,5.3056,3.1125,11.3772,-3.6971,13.0985,0.597
4916091.0,5.7557,-2.3559,13.2639,-4.5948,13.8865,0.8727
4916101.0,5.2098,-8.2456,18.0427,-5.3711,14.4506,0.8216
4916111.0,5.5067,-13.283,23.2046,-5.8,14.6044,0.339
4916121.0,4.2042,-16.7881,27.8972,-5.4573,14.9321,-0.3464
4916131.0,3.8116,-17.8895,29.4487,-5.0955,15.2131,-1.0711
4916141.0,2.739,-19.3643,33.2603,-4.9561,15.883,-1.7384
4916151.0,4.7022,-20.4273,37.0718,-5.3094,16.0597,-2.32
4916161.0,7.6902,-24.0186,44.0437,-5.344,16.3236,-2.9378
4916171.0,9.5864,-26.25,54.1951,-5.0157,16.686,-3.8238
4916181.0,8.8202,-25.9053,66.08,-4.3474,15.8373,-4.8332
4916191.0,7.2305,-22.4768,75.7621,-3.5598,13.9302,-5.7484
4916201.0,7.853,-16.9414,78.3957,-3.1703,11.947,-6.2076
4916211.0,9.663,-14.5951,78.4508,-2.1247,10.2974,-6.3242
4916221.0,9.5289,-12.3732,78.4508,-0.7242,8.8549,-6.3667
4916231.0,10.9942,-11.5017,76.6145,0.2416,8.045,-6.3252
4916241.0,11.8944,-12.2583,73.0519,0.4954,7.7912,-6.3534
4916251.0,11.3198,-12.4115,72.755,-0.042,7.8151,-6.5147
4916261.0,10.5632,-13.8672,77.0263,-0.7897,7.871,-6.7004
4916271.0,10.5919,-15.0452,78.4508,-1.2372,7.63,-7.0313
4916281.0,9.0692,-15.1314,78.4508,-1.26,6.6663,-7.5241
4916291.0,6.8761,-12.6318,78.4508,-1.1728,4.9087,-8.0541
4916301.0,4.6543,-8.6766,78.4508,-1.1004,2.7819,-8.4771
4916311.0,2.6719,-4.6926,78.4508,-1.1467,0.5449,-8.79
4916321.0,0.7566,0.7087,78.4508,-1.3462,-1.6006,-8.9879
4916331.0,-0.8332,7.4986,78.4508,-1.8166,-3.2736,-8.9273
4916341.0,-1.8387,14.2024,78.4508,-2.4796,-4.4979,-8.5659
4916351.0,-3.1603,19.3164,78.4508,-3.3528,-5.7777,-7.7864
4916361.0,-2.5953,21.8447,78.4508,-4.0483,-6.7365,-6.9228
4916371.0,-2.1548,23.7984,78.4508,-4.9178,-7.8503,-5.9538
4916381.0,-2.6624,24.1719,78.4508,-5.2551,-8.9336,-4.9502
4916391.0,-2.5091,23.8079,77.9935,-5.4244,-9.9936,-3.8701
4916401.0,-0.4405,21.2797,72.8125,-5.3914,-10.7524,-2.7686
4916411.0,0.7949,16.8839,68.8285,-5.3206,-11.1802,-1.8651
4916421.0,2.2027,12.8042,64.2316,-5.6872,-11.707,-1.26
4916431.0,3.5338,8.1116,60.8127,-5.9623,-12.0007,-0.8418
4916441.0,4.1372,4.0797,58.4951,-6.2683,-12.2679,-0.6939
4916451.0,5.9664,0.8811,56.8767,-6.5189,-12.7031,-0.7274
4916461.0,7.2688,-1.4078,55.2103,-6.5099,-13.0277,-0.8168
4916471.0,7.6423,-3.4189,52.8352,-6.3247,-13.4433,-0.9328
4916481.0,8.7819,-5.4013,49.5887,-6.0858,-13.6141,-1.0818
4916491.0,10.1897,-6.9719,46.0549,-5.9836,-13.4609,-1.334
4916501.0,11.2815,-8.0541,44.8769,-6.0155,-13.3262,-1.6634
4916511.0,12.0955,-6.8857,43.5649,-6.0448,-13.3151,-2.0412
4916521.0,13.3309,-4.9799,43.3829,-6.0139,-13.3853,-2.2567
4916531.0,14.0204,-2.6049,42.2624,-5.89,-13.5976,-2.2652
4916541.0,14.0396,-1.1588,40.778,-5.6207,-13.9073,-2.0939
4916551.0,15.3229,-1.3503,37.6368,-5.5329,-13.9153,-1.822
4916561.0,16.6924,-2.4038,35.3384,-5.5627,-14.0903,-1.6442
4916571.0,17.7458,-3.4955,32.5611,-5.9059,-14.1968,-1.5639
4916581.0,18.1576,-4.2138,30.799,-6.1363,-14.2271,-1.5623
4916591.0,17.3723,-4.0797,30.4159,-6.1794,-14.5586,-1.6022
4916601.0,17.2287,-3.7445,28.7783,-5.5611,-14.8789,-1.6049
4916611.0,16.8743,-3.2657,24.4879,-4.6065,-15.179,-1.5032
4916621.0,17.2574,-2.9401,17.9757,-3.7658,-15.212,-1.4117
4916631.0,17.4489,-2.4995,9.9599,-3.3933,-14.8443,-1.2973
4916641.0,18.0714,-2.4038,4.7788,-3.0628,-13.952,-1.2127
4916651.0,17.8607,-1.0056,0.7278,-2.6606,-12.8995,-1.1137
4916661.0,17.8512,0.1341,-0.6512,-2.1194,-12.1939,-0.8881
4916671.0,19.2111,1.0918,-4.2425,-1.0408,-11.3345,-0.5928
4916681.0,19.6037,1.7526,-8.3893,-0.041,-10.1719,-0.2176
4916691.0,22.1703,3.8116,-13.7044,0.414,-8.9049,0.2086
4916701.0,20.6859,4.2713,-15.1314,1.2765,-7.4985,0.6465
4916711.0,20.9253,6.1196,-17.9661,1.9337,-6.0033,1.2654
4916721.0,22.1128,5.5258,-19.9102,2.3291,-4.6241,2.0034
4916731.0,21.6244,4.0223,-20.5231,2.61,-2.9713,2.618
4916741.0,20.8296,1.7526,-18.7705,2.8308,-1.4591,3.1469
4916751.0,21.4808,-1.3599,-15.8879,3.2693,-0.2176,3.4444
4916761.0,22.0362,-3.2274,-13.6469,3.7131,0.8418,3.5487
4916771.0,22.0554,-4.9225,-10.1514,4.3075,1.7507,3.5327
4916781.0,21.8543,-6.0813,-6.0142,5.0827,2.4126,3.4497
4916791.0,21.8255,-6.0142,-3.8978,5.8224,2.7782,3.2943
4916801.0,20.1304,-4.6064,-3.0933,6.2321,3.1267,3.2427
4916811.0,18.9525,-3.6966,-2.5762,6.3066,3.4013,3.4172
4916821.0,19.5654,-4.4341,-2.2218,6.1491,3.7759,3.6945
4916831.0,20.7817,-6.5122,-1.8292,6.0145,4.2548,3.8248
4916841.0,21.5957,-8.1786,-0.1532,5.7729,4.8848,3.8456
4916851.0,21.6053,-9.596,3.3232,5.973,5.4281,3.8025
4916861.0,22.4672,-9.5002,6.5027,6.1933,5.692,3.7823
4916871.0,22.199,-8.8969,9.7109,6.3492,5.8192,3.8131
4916881.0,21.8064,-7.7093,11.7124,6.6323,5.7058,3.9493
4916891.0,21.8638,-8.0349,13.3405,6.9153,5.6851,4.2191
4916901.0,20.4465,-10.6877,12.3445,6.9286,5.6808,4.4687
4916911.0,21.7106,-15.4665,11.8465,6.4125,5.7612,4.4325
4916921.0,23.444,-18.9717,11.4443,5.6739,6.0235,3.9616
4916931.0,24.5741,-19.5941,13.2639,4.9545,6.2896,3.3917
4916941.0,24.8614,-17.8512,16.52,4.6469,6.6179,2.9857
4916951.0,23.9516,-15.6485,20.6572,4.8986,6.7642,2.8516
4916961.0,23.0131,-14.6525,23.4057,5.5074,6.6812,2.8479
4916971.0,21.883,-15.5815,24.6603,6.3417,6.4396,2.8218
4916981.0,22.0362,-17.2191,22.4097,6.9302,6.198,2.4802
4916991.0,23.5589,-17.3532,18.512,6.968,6.4609,1.9353
4917001.0,23.1088,-14.2407,16.2997,6.6354,7.0755,1.4575
4917011.0,22.6683,-9.7779,16.6062,6.3029,7.8609,1.3713
4917021.0,21.385,-6.924,18.2534,6.0373,8.7964,1.674
4917031.0,19.6612,-6.9623,22.8981,6.0618,9.7201,2.1194
4917041.0,18.4354,-8.4851,28.8166,6.2385,10.2229,2.4062
4917051.0,16.9222,-10.726,35.1086,6.7626,10.1745,2.4126
4917061.0,15.8975,-11.6646,37.9337,7.1968,9.6249,2.1572
4917071.0,16.5296,-10.3813,37.0239,7.1958,9.1076,1.7368
4917081.0,16.7403,-6.0238,34.8979,6.8515,8.9906,1.6416
4917091.0,15.1792,-3.7062,35.4629,6.8605,9.2912,1.9108
4917101.0,14.0204,-3.0454,34.6202,6.438,9.7132,2.3025
4917111.0,14.528,-4.2234,37.091,5.9033,10.3597,2.6425
4917121.0,12.7467,-6.0908,43.4979,5.7825,10.5284,2.8558
4917131.0,12.1434,-7.2496,46.2847,5.5286,10.0559,2.8612
4917141.0,12.1051,-7.2209,47.9702,5.0396,9.5849,2.7532
4917151.0,12.4977,-6.1675,49.1577,4.6086,8.9645,2.7941
4917161.0,13.5129,-6.7229,49.4738,4.6757,9.1529,2.9734
4917171.0,14.0013,-8.3031,50.6326,4.4235,9.6743,3.1384
4917181.0,15.0356,-10.3525,55.3635,3.9791,10.0484,3.2193
4917191.0,15.7922,-12.9574,62.9579,3.637,9.8845,3.1235
4917201.0,16.3093,-12.8712,69.0583,2.9963,9.171,3.0102
4917211.0,16.7403,-12.287,76.5283,2.7968,8.219,3.1262
4917221.0,17.4585,-13.714,78.4508,2.5722,7.1149,3.4923
4917231.0,18.3683,-18.3683,78.4508,2.403,6.297,3.7977
4917241.0,19.2973,-25.8095,78.4508,1.9092,5.7883,3.8025
4917251.0,21.1073,-32.7048,78.4508,1.0392,4.4554,3.1735
4917261.0,19.8048,-34.5818,78.4508,-0.9887,1.897,2.1971
4917271.0,20.2454,-37.3879,78.4508,-1.9449,-0.8104,0.8599
4917281.0,18.5982,-31.8046,78.4508,-2.3195,-4.0888,-0.2389
4917291.0,17.2287,-25.4264,78.4508,-1.9651,-7.1707,-1.0195
4917301.0,14.9111,-17.8799,78.4508,-2.1721,-9.8584,-1.3324
4917311.0,13.9247,-11.9519,78.4508,-1.8784,-11.749,-1.3744
4917321.0,13.4554,-7.0868,70.8492,-1.5022,-12.7978,-1.1361
4917331.0,13.5895,-3.7637,57.9684,-1.1057,-13.0857,-0.7827
4917341.0,14.3077,-0.5076,46.8593,-0.8163,-12.685,-0.3081
4917351.0,13.9917,1.6281,38.4317,-0.6971,-11.9273,0.3102
4917361.0,14.1258,0.8811,32.6282,-0.2841,-10.4565,1.0738
4917371.0,15.093,-2.8347,31.6226,0.282,-9.0539,1.6251
4917381.0,16.6349,-7.1156,32.4845,0.9791,-7.8614,1.8512
4917391.0,17.9374,-11.4251,37.2442,2.4871,-6.7514,1.798
4917401.0,16.9797,-13.4554,40.0023,3.7913,-6.3891,1.6107
4917411.0,17.2191,-14.8441,40.8642,4.5139,-6.3598,1.4074
4917421.0,18.0906,-16.1752,41.3718,4.7582,-6.4503,1.1632
4917431.0,18.2151,-16.4146,41.209,4.2936,-6.7057,0.9073
4917441.0,17.1616,-16.7403,42.1571,3.844,-6.9116,0.6944
4917451.0,16.4434,-16.836,43.0765,3.4582,-7.5023,0.4848
4917461.0,15.0547,-16.9509,41.142,3.0868,-8.0897,0.3124
4917471.0,14.3461,-17.9278,38.4796,2.7191,-8.5335,0.0931
4917481.0,14.3844,-18.1002,34.9841,2.4211,-8.9406,-0.2543
4917491.0,13.5895,-17.3053,29.4678,2.1274,-9.196,-0.6061
4917501.0,12.8042,-16.5487,24.0761,1.8087,-9.1997,-0.8892
4917511.0,13.0628,-16.2997,16.6445,1.0504,-8.9571,-1.1595
4917521.0,13.8481,-16.3476,10.9367,0.2692,-8.3276,-1.475
4917531.0,12.9191,-15.8975,7.7859,-0.1852,-7.5496,-1.8816
4917541.0,13.0149,-14.9111,4.0606,-0.4661,-6.8627,-2.2769
4917551.0,11.8848,-14.03,-0.2586,-0.5608,-5.9597,-2.7361
4917561.0,11.8944,-12.8808,-3.9744,-0.8567,-4.9768,-3.2028
4917571.0,12.3732,-10.5824,-7.106,-0.9674,-3.9568,-3.7594
4917581.0,11.5592,-6.4835,-10.2855,-1.3324,-3.0187,-4.1936
4917591.0,12.4307,-1.992,-13.4171,-1.3383,-1.748,-4.4101
4917601.0,11.9902,2.9497,-16.7307,-1.4239,-0.2916,-4.2361
4917611.0,10.4291,6.177,-19.6803,-1.8241,1.2835,-3.6875
4917621.0,9.7971,6.5027,-21.9117,-2.4626,3.0958,-2.9985
4917631.0,8.983,4.4149,-22.1128,-2.7782,5.3041,-2.3748
4917641.0,9.3087,-0.0479,-17.334,-2.4041,7.6363,-2.079
4917651.0,9.7683,-1.7238,-13.3405,-1.8565,9.5147,-2.2226
4917661.0,10.7643,-2.1356,-7.7285,-1.4042,11.0626,-2.4365
4917671.0,10.5632,-1.2546,-1.6951,-0.8971,12.4174,-2.6196
4917681.0,10.3717,0.4597,3.9265,-1.0052,13.1937,-2.6723
4917691.0,10.6015,1.7621,10.4579,-1.3223,13.6008,-2.5541
4917701.0,9.9311,2.0111,17.8799,-1.7081,13.7205,-2.3535
4917711.0,10.3813,2.9209,23.0514,-2.1992,13.4023,-2.0561
4917721.0,11.0421,2.5091,28.9698,-2.4259,13.223,-1.7118
4917731.0,11.5975,1.4174,34.3616,-2.3711,12.8314,-1.358
4917741.0,13.1968,0.4788,36.66,-2.2535,12.2801,-1.0153
4917751.0,11.5113,-0.5842,35.8268,-3.1592,11.8741,-0.5827
4917761.0,11.3485,-5.2289,39.8012,-4.3415,11.4489,-0.2118
4917771.0,10.4483,-9.1554,40.3088,-5.245,11.0445,0.0117
4917781.0,11.4634,-15.84,45.0301,-5.9118,10.9184,0.0681
4917791.0,12.1242,-20.8008,46.7923,-6.1454,10.6476,-0.1761
4917801.0,13.4937,-24.9188,50.0867,-6.3699,9.992,-0.7152
4917811.0,13.4841,-27.3131,52.8161,-6.1523,9.9287,-1.334
4917821.0,13.6853,-28.2995,56.3212,-5.4893,9.7073,-1.9161
4917831.0,14.0013,-29.487,59.855,-4.9034,9.4546,-2.4004
4917841.0,14.1162,-30.9235,63.7432,-4.4681,9.1098,-2.9623
4917851.0,14.0779,-31.4598,68.8764,-3.7711,8.3547,-3.5902
4917861.0,14.5663,-30.5117,71.4717,-2.9373,7.7774,-4.1425
4917871.0,13.4363,-29.9754,74.498,-2.0885,7.0542,-4.6597
4917881.0,13.4075,-28.3569,74.316,-1.789,6.1784,-5.2589
4917891.0,12.785,-24.4975,75.2162,-2.0822,5.9011,-5.857
4917901.0,10.4483,-19.891,78.4508,-2.5515,5.4329,-6.2502
4917911.0,8.5808,-14.8536,78.4508,-2.6382,4.3075,-6.487
4917921.0,7.7189,-9.6438,78.4508,-2.66,3.0719,-6.5131
4917931.0,7.5178,-4.2617,78.4508,-2.8447,1.5421,-6.4247
4917941.0,7.288,1.2641,78.4508,-3.413,-0.5119,-6.156
4917951.0,7.1826,5.4779,78.4508,-4.2074,-2.3743,-5.6681
4917961.0,7.2592,8.2552,78.4508,-4.9215,-4.1015,-5.0184
4917971.0,6.857,10.0365,78.4508,-5.3892,-5.6633,-4.2159
4917981.0,7.8817,9.347,78.4508,-5.3302,-6.5939,-3.413
4917991.0,9.6917,6.292,77.7732,-4.4809,-7.1888,-2.768
4918001.0,10.9559,4.0414,73.2051,-3.3715,-7.7263,-2.3503
4918011.0,11.4922,2.8826,67.3441,-2.7095,-8.1312,-1.9912
4918021.0,12.402,1.2546,62.7281,-2.5148,-8.2882,-1.6852
4918031.0,13.2351,0.1053,58.2844,-2.3227,-8.2956,-1.3963
4918041.0,13.8481,-2.0303,54.9326,-2.3328,-8.1637,-1.1802
4918051.0,15.4474,-3.5721,52.6054,-2.0619,-7.6906,-1.028
4918061.0,16.0028,-4.4341,52.7874,-1.6937,-7.2293,-0.9684
4918071.0,16.0603,-4.3862,54.0611,-1.3665,-7.1952,-0.9046
4918081.0,15.7826,-4.549,53.927,-1.2553,-7.4762,-0.7875
4918091.0,15.4953,-4.9225,52.9119,-1.242,-7.987,-0.6971
4918101.0,16.3859,-5.9664,51.8584,-1.1478,-8.5521,-0.6886
4918111.0,16.6445,-6.2058,49.3014,-0.8163,-8.9171,-0.6976
4918121.0,16.9893,-6.2058,46.2272,-0.3709,-9.1034,-0.6779
4918131.0,17.085,-6.1196,42.3582,-0.0234,-9.2971,-0.5747
4918141.0,17.085,-6.3398,38.2689,0.1506,-9.2231,-0.4326
4918151.0,17.7458,-8.1403,35.3193,0.3507,-8.9187,-0.3214
4918161.0,17.9086,-9.4427,33.1549,0.5986,-8.6043,-0.3421
4918171.0,18.5215,-10.2663,31.2779,0.6114,-8.351,-0.4342
4918181.0,19.4984,-11.0421,30.0807,0.4986,-8.087,-0.5662
4918191.0,19.7378,-11.0516,29.305,0.4879,-7.8231,-0.7322
4918201.0,20.4848,-10.4962,28.9028,0.6306,-7.506,-0.8716
4918211.0,20.8487,-9.6726,28.7017,0.8689,-7.2484,-0.9323
4918221.0,20.9157,-8.8681,28.558,1.0946,-7.0643,-0.9402
4918231.0,21.634,-7.9583,28.1654,1.2664,-6.9946,-0.8902
4918241.0,21.634,-7.6806,28.2324,1.4899,-6.8712,-0.7503
4918251.0,21.5574,-7.7764,27.7823,1.8193,-6.8126,-0.6125
4918261.0,21.8734,-8.102,26.5756,2.0183,-6.8834,-0.5763
4918271.0,21.6149,-8.0254,24.5645,1.8863,-6.91,-0.5534
4918281.0,21.3563,-7.9487,23.0897,1.7773,-6.8584,-0.5885
4918291.0,20.6093,-7.3071,22.1128,1.5969,-6.8685,-0.5704
4918301.0,20.6667,-6.8187,20.0921,1.4532,-6.9292,-0.5364
4918311.0,20.9157,-6.3686,17.6596,1.2813,-6.8643,-0.481
4918321.0,21.0307,-6.0908,15.4761,1.2244,-6.719,-0.4885
4918331.0,21.3754,-5.4109,13.216,1.1164,-6.5306,-0.4773
4918341.0,21.8351,-5.3726,10.5249,0.9413,-6.0884,-0.4374
4918351.0,21.6819,-5.7557,10.0556,0.8519,-5.5845,-0.4725
4918361.0,21.5095,-5.1427,9.1554,0.7593,-5.2232,-0.4794
4918371.0,20.8487,-4.5873,8.3893,0.9259,-4.7608,-0.4305
4918381.0,19.8623,-3.6966,8.3031,1.0084,-4.4314,-0.339
4918391.0,19.891,-3.0167,7.0294,1.085,-4.2271,-0.1974
4918401.0,19.8527,-2.3655,4.9033,0.8115,-3.9962,-0.0287
4918411.0,20.14,-2.4708,3.2178,0.3805,-3.687,0.1261
4918421.0,19.757,-2.5379,1.992,-0.0431,-3.4167,0.2054
4918431.0,18.6556,-2.3559,0.8332,-0.1681,-3.0394,0.2171
4918441.0,17.1329,-1.4365,-1.1971,-0.3203,-2.6898,0.215
4918451.0,16.9605,-0.6608,-3.7828,-0.7061,-2.3812,0.2006
4918461.0,15.6006,0.4693,-6.6846,-1.1302,-1.9401,0.0793
4918471.0,15.1984,2.8156,-8.1307,-1.4984,-1.1132,0.0809
4918481.0,14.3077,6.0142,-9.1171,-1.4745,-0.3416,0.273
4918491.0,13.1106,8.6191,-10.2759,-1.5059,0.5555,0.7966
4918501.0,12.9095,10.4196,-12.0189,-1.6373,1.6538,1.5144
4918511.0,13.781,9.4619,-11.0804,-1.7384,2.7047,2.311
4918521.0,14.5089,7.0102,-9.6055,-1.4857,3.8775,3.0219
4918531.0,14.6525,3.371,-7.0294,-1.1557,4.9274,3.488
4918541.0,14.9207,-0.0766,-3.5243,-0.6556,5.7442,3.6742
4918551.0,15.9645,-1.743,-0.9194,-0.2772,6.3848,3.6551
4918561.0,15.6772,-3.0263,2.1069,-0.1527,6.6706,3.7083
4918571.0,14.8441,-3.8978,5.3151,0.4369,7.0936,3.8301
4918581.0,14.4801,-5.5929,9.5385,0.9631,7.4512,3.9951
4918591.0,14.461,-6.7421,12.0859,1.7501,7.8167,4.2356
4918601.0,16.338,-9.9982,14.1449,2.2019,8.0785,4.5501
4918611.0,19.1536,-15.4953,15.4857,2.3754,8.145,4.6235
4918621.0,21.2414,-20.8008,16.1944,2.1705,8.4781,4.2601
4918631.0,21.6532,-23.8175,19.891,1.7948,8.9304,3.5088
4918641.0,21.2222,-23.9899,25.1487,1.2164,8.6995,2.6845
4918651.0,20.3699,-21.1743,29.9563,0.9887,8.1413,2.0247
4918661.0,19.4888,-17.0276,32.2547,1.1398,7.837,1.7746
4918671.0,19.5367,-13.4363,34.5244,1.6256,7.7869,1.8885
4918681.0,19.5271,-11.3198,35.9418,2.0055,7.6438,2.1833
4918691.0,20.073,-11.157,35.9896,2.0529,7.3208,2.5573
4918701.0,19.891,-12.1338,36.7366,1.873,7.0234,2.7947
4918711.0,19.4313,-13.465,36.1429,1.5777,6.5609,2.8021
4918721.0,17.9757,-13.6086,33.8253,1.1158,6.1209,2.627
4918731.0,17.267,-13.0723,31.2491,0.5497,6.0219,2.5366
4918741.0,18.8376,-13.0149,29.0752,0.298,6.3401,2.5105
4918751.0,20.6955,-14.0683,28.1558,0.5491,7.2862,2.6749
4918761.0,20.0059,-15.7634,28.2516,1.1217,8.6144,2.8112
4918771.0,19.3643,-18.2438,31.6992,1.3798,9.6435,2.792
4918781.0,18.3587,-20.6667,36.7845,1.4995,10.208,2.585
4918791.0,16.6349,-22.4289,42.5976,1.9624,10.2953,2.1801
4918801.0,17.7458,-22.8215,44.4747,2.344,9.8483,1.6618
4918811.0,18.7514,-23.0131,45.0972,2.7026,9.917,1.1637
4918821.0,18.7131,-21.7777,45.8921,3.2209,10.3794,0.854
4918831.0,18.3779,-21.9596,49.4738,3.919,10.8599,0.7545
4918841.0,17.5064,-23.0993,52.8544,4.3633,11.2813,0.629
4918851.0,17.1712,-24.7944,57.6332,4.399,11.2164,0.3108
4918861.0,17.8224,-25.4839,62.4504,3.9658,10.7311,-0.2336
4918871.0,17.3532,-25.12,67.4111,3.3193,9.6876,-0.8971
4918881.0,18.0427,-21.9692,69.135,2.5829,8.2376,-1.4793
4918891.0,17.9086,-17.3149,70.0735,2.4195,7.5012,-1.7826
4918901.0,17.0659,-12.8329,72.0846,2.2322,6.7626,-1.748
4918911.0,17.1904,-8.4467,72.6209,2.0742,5.9905,-1.5596
4918921.0,17.583,-2.8539,71.9697,1.2457,5.2535,-1.1201
4918931.0,17.0276,0.4501,75.7047,0.1815,4.3277,-0.3315
4918941.0,15.7538,2.4708,78.1084,-0.5662,2.7239,0.5922
4918951.0,15.5527,2.9688,76.2793,-1.0323,1.144,1.6229
4918961.0,15.1122,0.996,73.9713,-1.1738,0.0835,2.594
4918971.0,14.0683,-2.2793,69.9777,-1.1233,-0.8817,3.3475
4918981.0,13.781,-5.9089,64.3657,-1.3702,-1.3803,3.8466
4918991.0,14.4322,-9.2512,60.5063,-1.9252,-1.4388,4.0387
4919001.0,14.2407,-10.1227,58.3611,-2.7297,-1.624,4.0329
4919011.0,14.0779,-8.2169,56.1775,-3.7801,-1.7666,4.1063
4919021.0,12.4977,-6.4356,57.3555,-4.7805,-1.956,4.4086
4919031.0,11.5592,-5.1044,58.1791,-5.0178,-2.4004,4.9002
4919041.0,10.5728,-5.7748,58.3898,-4.6533,-2.768,5.5329
4919051.0,10.4866,-8.1211,56.666,-3.9195,-3.0384,6.0698
4919061.0,10.5824,-10.161,53.7833,-3.3906,-3.1964,6.3774
4919071.0,10.5728,-10.8122,50.8816,-3.3023,-3.2321,6.6003
4919081.0,9.4332,-11.2527,49.9143,-3.5125,-3.3571,6.8435
4919091.0,8.3701,-11.6358,48.0085,-3.8184,-3.5141,7.1005
4919101.0,7.1347,-13.8193,48.0564,-3.9366,-3.5577,7.4145
4919111.0,6.79,-17.6979,48.315,-3.6918,-3.7094,7.5693
4919121.0,7.4795,-20.887,44.695,-3.5923,-3.7753,7.4512
4919131.0,8.5425,-24.6603,44.446,-3.6939,-3.5657,7.1053
4919141.0,9.3948,-25.8861,42.5976,-3.8137,-3.2613,6.5668
4919151.0,9.4619,-26.0776,43.6415,-4.1744,-2.9309,6.0347
4919161.0,9.5289,-24.9763,44.7716,-4.6986,-2.9633,5.5398
4919171.0,9.098,-21.9883,46.9264,-5.1567,-3.1623,5.2594
4919181.0,8.351,-19.1728,49.7132,-4.9747,-3.3645,5.2716
4919191.0,7.4795,-18.0619,51.437,-4.2388,-3.8158,5.5122
4919201.0,7.5753,-18.0044,51.2646,-2.8968,-4.134,5.7883
4919211.0,7.2975,-19.1919,49.876,-1.5506,-4.3011,6.0278
4919221.0,7.5082,-20.2358,46.7923,-0.5571,-4.4708,6.1464
4919231.0,7.2975,-20.2166,42.7413,-0.415,-4.5352,6.1619
4919241.0,6.3973,-18.9908,39.7533,-1.1504,-4.4586,6.1385
4919251.0,5.7557,-18.33,38.8244,-2.4456,-4.4564,6.2587
4919261.0,4.1946,-18.5886,39.2362,-3.6785,-4.6858,6.4221
4919271.0,4.2425,-19.824,40.395,-4.4288,-4.93,6.4673
4919281.0,4.5873,-21.2701,39.964,-4.3835,-5.161,6.454
4919291.0,4.7597,-22.5917,37.7805,-3.9243,-5.1136,6.3151
4919301.0,5.7269,-23.693,36.344,-3.1235,-4.7571,6.0155
4919311.0,6.2153,-23.4153,35.6544,-2.3972,-4.3117,5.7223
4919321.0,5.7078,-22.2278,35.53,-1.7224,-4.0084,5.4361
4919331.0,4.4245,-21.2797,34.1796,-1.5415,-3.9685,5.3233
4919341.0,4.6926,-23.2333,32.5899,-1.608,-3.8206,5.2743
4919351.0,5.7461,-27.0066,32.0823,-1.7799,-3.455,5.0615
4919361.0,7.0581,-31.8716,31.4215,-2.2652,-2.9421,4.4697
4919371.0,8.5712,-36.2674,34.8021,-2.5478,-2.709,3.4853
4919381.0,9.5098,-38.1253,36.411,-3.2757,-2.8697,2.3168
4919391.0,10.2855,-38.719,38.9201,-3.8583,-3.4476,1.0956
4919401.0,9.9695,-37.2442,39.1117,-4.3298,-4.1712,-0.0617
4919411.0,9.4332,-35.2714,38.7095,-4.4756,-4.8513,-1.0562
4919421.0,9.7683,-33.6625,38.0103,-4.0244,-5.1248,-1.88
4919431.0,8.4946,-32.0536,37.1963,-3.1687,-5.3169,-2.5834
4919441.0,9.0214,-31.3353,36.6121,-2.1359,-5.4579,-3.207
4919451.0,8.3414,-30.1957,34.7351,-1.3824,-5.6883,-3.7562
4919461.0,8.6479,-29.4391,31.862,-1.2787,-5.7846,-4.2122
4919471.0,9.5864,-29.4966,31.9961,-1.4665,-5.8426,-4.6986
4919481.0,9.2703,-28.922,32.6473,-1.7868,-6.1858,-5.1966
4919491.0,9.1363,-27.6099,31.7088,-1.8134,-6.5466,-5.6425
4919501.0,9.6822,-27.6099,31.4598,-1.9066,-6.6189,-5.9676
4919511.0,11.0229,-29.3242,30.483,-2.0667,-6.6759,-6.3263
4919521.0,12.469,-32.7144,29.1614,-2.7335,-6.8531,-6.8988
4919531.0,11.9997,-34.85,27.1311,-3.9924,-7.0872,-7.7167
4919541.0,12.8904,-36.0088,27.811,-5.3397,-7.141,-8.8134
4919551.0,12.4403,-32.6761,29.0943,-6.2837,-7.2947,-9.8473
4919561.0,10.0556,-27.3992,32.1589,-6.1023,-7.6645,-10.6385
4919571.0,7.2688,-21.4999,34.0264,-4.897,-7.9173,-10.9285
4919581.0,6.3303,-18.2438,33.538,-2.6685,-8.127,-10.7976
4919591.0,7.6998,-18.0236,29.9946,-0.9626,-8.3276,-10.5039
4919601.0,8.0828,-19.259,25.2349,0.0282,-8.6351,-10.414
4919611.0,8.6479,-21.136,21.4999,0.2655,-8.8677,-10.596
4919621.0,11.0804,-21.385,18.3683,0.4917,-8.9304,-11.0727
4919631.0,10.6973,-18.6748,14.777,0.4528,-8.8767,-11.5139
4919641.0,10.1227,-15.1218,13.034,0.3272,-8.8842,-11.814
4919651.0,10.2472,-10.7835,10.6973,0.4885,-8.9257,-11.9385
4919661.0,9.5002,-6.2728,6.6559,0.5646,-8.9193,-11.8273
4919671.0,9.6822,-1.9154,2.2793,0.3863,-8.5127,-11.4335
4919681.0,9.9216,2.0016,-1.1109,0.1458,-7.7529,-10.7636
4919691.0,10.8793,4.0893,-2.4708,-0.2059,-6.9882,-9.785
4919701.0,12.6988,4.8076,-2.5857,-0.365,-6.3875,-8.8331
4919711.0,15.6868,4.051,-3.122,-0.2948,-5.7745,-7.9051
4919721.0,16.5104,2.8635,-4.4149,-0.2246,-5.1998,-7.0319
4919731.0,17.9661,0.0862,-5.6312,-0.3555,-4.673,-6.2646
4919741.0,20.4561,-3.486,-7.2113,-0.5321,-4.0504,-5.758
4919751.0,23.2716,-7.355,-7.92,-0.7817,-3.5247,-5.568
4919761.0,24.6603,-9.7875,-8.7915,-1.061,-2.9107,-5.7181
4919771.0,25.7999,-10.5919,-8.2169,-1.1169,-2.3333,-6.0437
4919781.0,26.1064,-10.0173,-6.7516,-0.7992,-1.9268,-6.3949
4919791.0,26.7289,-8.4276,-7.0006,-0.1623,-1.4894,-6.6918
4919801.0,26.1543,-5.3439,-8.1499,0.4693,-0.9929,-6.8249
4919811.0,26.432,-3.0263,-8.849,0.9727,-0.4065,-6.7647
4919821.0,27.3035,-0.5171,-9.9024,1.4133,0.1139,-6.5508
4919831.0,27.3322,1.6568,-11.7699,1.4638,0.7833,-6.1773
4919841.0,26.5182,3.7924,-13.0819,1.218,1.5378,-5.5776
4919851.0,26.7672,2.9113,-12.6318,0.812,2.3461,-4.8491
4919861.0,26.1638,0.0192,-12.6605,0.356,3.098,-4.2936
4919871.0,27.3992,-4.2521,-12.8617,-0.2001,3.8951,-4.1808
4919881.0,28.491,-6.3877,-12.1721,-1.0142,4.7182,-4.6001
4919891.0,26.7384,-4.9512,-9.73,-1.8273,5.294,-5.1689
4919901.0,25.4743,-1.0247,-5.8323,-1.7868,5.8543,-5.5451
4919911.0,24.7944,4.3096,-2.6049,-1.0467,6.5322,-5.6
4919921.0,23.8367,9.5098,-1.8771,-0.3278,6.7562,-5.3312
4919931.0,21.2988,14.212,-2.8922,-0.0686,7.1777,-4.7097
4919941.0,22.8311,16.0124,-4.3862,-0.2214,7.7518,-3.8429
4919951.0,23.5398,16.587,-6.2728,-1.135,8.3201,-2.9107
4919961.0,24.0952,15.4091,-5.5641,-1.914,8.9938,-2.1705
4919971.0,25.0242,15.6102,-3.8499,-2.3142,9.9846,-1.5069
4919981.0,24.9093,16.4913,-1.0151,-2.0742,10.9663,-0.8397
4919991.0,23.9899,17.8129,1.8866,-1.2792,11.9528,-0.0452
4920001.0,21.5287,19.0578,3.8499,-0.4432,12.9979,0.9163
4920011.0,18.579,17.3532,4.7692,-0.0266,13.8823,1.9513
4920021.0,18.0427,14.7579,5.8706,-0.4917,15.0657,3.1443
4920031.0,16.5966,9.0788,9.7109,-1.2712,16.1411,4.1547
4920041.0,16.6062,1.1205,15.3995,-2.3221,16.8211,4.8199
4920051.0,18.3492,-6.0908,21.3371,-2.9687,17.3171,4.9721
4920061.0,18.6365,-11.4347,29.2667,-3.2443,17.4357,4.7166
4920071.0,18.6748,-15.3229,37.7039,-2.8271,17.4357,4.0824
4920081.0,17.9278,-14.9494,44.4938,-2.2641,17.0265,3.2528
4920091.0,18.0236,-10.3046,48.8704,-1.8118,15.8027,2.5669
4920101.0,16.769,-2.988,50.192,-1.9672,14.1356,2.4318
4920111.0,16.4625,3.3423,49.4067,-2.3727,12.3759,2.8436
4920121.0,14.7483,9.4236,45.0493,-2.6462,11.0115,3.8094
4920131.0,10.5919,12.3924,40.2513,-2.8521,10.4416,5.3291
4920141.0,3.486,8.8202,35.8364,-2.7824,11.4101,7.5438
4920151.0,4.9416,-9.3661,42.3965,-0.8673,13.1283,9.0821
4920161.0,7.8147,-25.3307,42.3295,-0.4379,13.9238,9.1694
4920171.0,12.9766,-37.7422,46.9455,-0.4879,14.7087,7.6949
4920181.0,13.7331,-39.3894,54.6836,-1.3654,15.3759,5.7591
4920191.0,11.473,-35.7502,68.6082,-1.8071,14.7001,4.1164
4920201.0,9.1746,-27.744,77.2561,-1.7262,12.8596,3.1693
4920211.0,7.288,-21.0594,78.4508,-1.3202,11.0238,2.9442
4920221.0,5.7557,-17.5256,78.4508,-0.4406,9.751,3.0905
4920231.0,7.173,-18.7322,78.4508,0.5864,8.9129,3.3848
4920241.0,7.6998,-22.1033,78.4508,1.8049,7.8534,3.3262
4920251.0,9.6055,-23.5973,78.4508,2.1018,6.753,2.9681
4920261.0,10.1514,-22.0267,76.126,1.7906,5.6361,2.502
4920271.0,8.9926,-19.2877,72.0751,0.8631,4.2803,2.1625
4920281.0,8.9639,-15.4857,65.3617,-0.6215,3.1607,2.0204
4920291.0,8.6191,-12.6031,60.4871,-1.6144,2.9612,2.1018
4920301.0,7.8721,-10.3908,56.1297,-2.2705,3.2592,2.3365
4920311.0,6.6559,-9.9886,54.8081,-2.5355,3.985,2.6787
4920321.0,5.4875,-9.7205,56.3404,-2.5717,4.7119,2.9772
4920331.0,4.2234,-10.0556,60.219,-2.7537,4.9433,3.2549
4920341.0,3.6775,-10.9654,63.8869,-2.6265,4.8342,3.5923
4920351.0,3.2848,-11.8752,68.0049,-2.3732,4.5283,3.8637
4920361.0,3.8116,-12.6318,70.7247,-2.0843,3.9509,4.1201
4920371.0,3.8211,-13.9917,72.937,-2.0023,3.0134,4.3266
4920381.0,3.122,-14.9494,71.8356,-2.0375,2.1662,4.4681
4920391.0,3.4189,-17.3819,71.9027,-2.3589,1.3872,4.49
4920401.0,3.304,-20.0347,71.4047,-2.9814,0.455,4.2888
4920411.0,3.6392,-21.2126,70.4183,-3.6168,-0.4119,3.8748
4920421.0,3.055,-18.3013,68.6753,-4.4756,-1.1627,3.4087
4920431.0,1.5323,-13.4171,68.0911,-5.6729,-1.9741,3.3284
4920441.0,-0.6129,-10.0173,68.3018,-6.4955,-3.2257,3.5939
4920451.0,-1.4461,-8.7819,65.1319,-7.2905,-4.5751,4.0898
4920461.0,-1.2067,-9.3661,59.9795,-7.5363,-5.4446,4.5485
4920471.0,-0.4788,-10.2472,56.0339,-7.2415,-5.6164,4.9135
4920481.0,-0.7853,-10.3621,52.9597,-6.628,-5.6872,5.2461
4920491.0,-0.6991,-10.4674,50.1537,-5.9224,-5.9591,5.5925
4920501.0,-0.3926,-10.3142,45.0397,-5.2168,-5.9895,5.924
4920511.0,-0.5363,-11.1474,42.1092,-4.7092,-5.6702,6.239
4920521.0,-0.4214,-12.4594,39.4181,-4.0515,-5.2142,6.4524
4920531.0,0.8619,-13.5512,36.9186,-3.5417,-4.6219,6.5434
4920541.0,1.3599,-14.6525,36.3248,-3.1235,-3.8711,6.5099
4920551.0,1.1396,-14.8632,37.6847,-3.2177,-3.4555,6.4519
4920561.0,0.9481,-15.6964,38.4796,-3.2799,-3.3571,6.3832
4920571.0,1.7334,-17.8895,38.9201,-3.5503,-3.3491,6.2795
4920581.0,3.1316,-21.452,39.3128,-3.8126,-3.3065,5.9778
4920591.0,4.8842,-25.0434,41.1324,-4.0132,-3.0948,5.3318
4920601.0,3.7445,-26.93,43.5457,-4.142,-3.446,4.5395
4920611.0,5.5067,-29.6498,44.9056,-4.1425,-3.745,3.7572
4920621.0,6.857,-32.9059,45.8921,-3.9616,-4.1744,2.8016
4920631.0,6.675,-34.85,45.9878,-3.778,-4.7693,1.657
4920641.0,8.3318,-36.5259,44.4651,-3.695,-5.2126,0.4502
4920651.0,7.9966,-37.9242,44.3789,-3.9227,-5.5962,-0.8354
4920661.0,7.4986,-37.723,44.0725,-3.9861,-5.9261,-2.1322
4920671.0,6.3877,-36.1429,43.766,-3.7141,-6.5487,-3.3688
4920681.0,4.2329,-34.601,43.019,-3.5561,-7.1207,-4.4282
4920691.0,4.2425,-34.6585,38.968,-3.4768,-7.1186,-5.2211
4920701.0,5.43,-38.6137,38.6999,-3.7535,-6.9818,-6.1949
4920711.0,4.5107,-41.391,39.8587,-4.557,-7.216,-7.4788
4920721.0,4.3191,-43.3638,42.1571,-5.3499,-7.7614,-8.9906
4920731.0,3.3615,-43.0573,45.4324,-5.6702,-8.3994,-10.538
4920741.0,0.4501,-39.0542,46.2272,-5.3259,-9.5732,-12.0087
4920751.0,-1.4748,-33.3752,43.7947,-4.5171,-10.5976,-13.0969
4920761.0,-1.8004,-28.6538,39.3894,-3.2847,-10.9903,-13.7173
4920771.0,-3.055,-23.6547,34.1222,-1.9944,-11.3202,-14.0563
4920781.0,-3.1029,-20.7051,31.1534,-0.5561,-11.2547,-14.2154
4920791.0,-1.6568,-17.9086,27.0832,0.7604,-11.2446,-14.1207
4920801.0,0.6033,-16.1082,24.4017,1.872,-11.4447,-14.0158
4920811.0,0.6033,-13.4937,19.2302,2.1902,-11.9071,-13.9116
4920821.0,2.0686,-9.8067,12.4403,2.3493,-11.9071,-13.6439
4920831.0,4.2617,-6.6559,7.173,2.021,-11.4995,-13.1804
4920841.0,5.6886,-3.7637,2.3367,1.3941,-11.0227,-12.5339
4920851.0,7.1251,-2.6719,-2.3846,0.3874,-10.1543,-11.7113
4920861.0,9.1171,-3.1891,-5.861,-0.7939,-9.0262,-10.9477
4920871.0,10.5345,-4.6543,-7.0006,-2.0923,-7.8487,-10.3123
4920881.0,13.7619,-6.9815,-6.426,-3.0783,-6.6924,-9.901
4920891.0,15.8113,-8.6191,-6.0238,-3.9403,-5.7692,-9.727
4920901.0,17.5351,-10.7548,-4.9704,-4.2127,-4.6203,-9.6903
4920911.0,19.4122,-12.6701,-3.0933,-4.1452,-3.7817,-9.8436
4920921.0,19.9868,-13.3022,-0.498,-3.3779,-3.0469,-10.2277
4920931.0,19.7474,-12.1051,-0.3831,-2.3088,-2.3892,-10.6311
4920941.0,19.4984,-9.7588,-0.9194,-1.2781,-1.7405,-10.8439
4920951.0,19.4696,-7.4603,-1.6568,-0.4943,-1.0206,-10.87
4920961.0,19.6516,-4.9608,-2.5091,0.1756,-0.3932,-10.8093
4920971.0,21.5765,-2.6719,-4.1659,0.5954,0.3799,-10.6172
4920981.0,21.883,-0.4022,-5.3822,0.6502,1.2185,-10.3113
4920991.0,21.5382,1.0151,-5.7557,0.4518,2.1173,-9.9622
4921001.0,22.1703,1.3503,-5.6503,0.0351,3.1315,-9.5562
4921011.0,23.6834,1.1013,-4.865,-0.6955,3.8844,-9.287
4921021.0,23.6547,1.494,-2.9113,-1.3941,4.6741,-9.2311
4921031.0,22.4193,4.1276,-0.2011,-2.0806,5.3169,-9.1757
4921041.0,23.1184,7.7285,3.0358,-2.2242,5.9793,-8.9241
4921051.0,22.6875,11.5975,5.8131,-2.0662,6.6754,-8.3664
4921061.0,22.6587,13.3022,10.6494,-1.6261,7.1553,-7.6183
4921071.0,23.0131,14.461,12.9861,-1.3159,7.3772,-6.8754
4921081.0,23.1567,14.6238,15.0739,-1.1749,7.5645,-6.1422
4921091.0,23.5781,13.8864,18.3587,-1.0477,7.5874,-5.5228
4921101.0,23.5494,14.3461,20.3986,-0.8498,7.4315,-4.9465
4921111.0,23.9229,13.7236,22.448,-0.5039,7.4554,-4.3282
4921121.0,23.061,12.9574,22.8311,-0.4459,7.2421,-3.7908
4921131.0,24.0761,12.0572,22.5821,-0.4848,7.3719,-3.397
4921141.0,24.1527,11.4347,23.2238,-0.7673,7.489,-3.1384
4921151.0,22.7162,11.9135,24.5166,-1.0935,7.4012,-2.9644
4921161.0,20.5327,13.1394,24.7656,-1.4766,7.3793,-2.7792
4921171.0,18.7418,14.7866,26.3458,-1.947,7.5299,-2.4844
4921181.0,17.334,16.2997,28.6442,-2.2035,7.663,-1.9614
4921191.0,17.3915,14.3077,34.0839,-1.5649,7.6204,-1.4005
4921201.0,17.6884,12.6318,34.4861,-0.4837,7.191,-0.9594
4921211.0,19.8623,9.4523,32.0823,0.3384,7.2804,-0.6119
4921221.0,21.9022,6.6176,28.9028,0.4842,7.514,-0.5917
4921231.0,22.3427,4.9799,27.5525,0.2198,7.9556,-0.787
4921241.0,20.7817,6.9815,27.6674,-0.133,8.617,-1.0307
4921251.0,18.5982,11.4634,32.0153,-0.588,8.8522,-1.0908
4921261.0,17.7171,16.7211,34.8883,-0.8572,8.4835,-0.7907
4921271.0,17.0084,21.1169,36.7558,-0.6997,8.0173,-0.1091
4921281.0,15.0356,23.3866,36.2769,0.0649,7.6363,0.8924
4921291.0,13.6086,22.5917,31.6801,0.7279,7.6906,1.9837
4921301.0,13.8959,18.579,26.7863,0.8737,8.2744,2.8335
4921311.0,14.7674,14.3461,24.3059,0.3672,8.9395,3.231
4921321.0,13.6661,12.2392,23.8367,-0.5763,9.8398,3.4023
4921331.0,12.0668,11.5688,27.6578,-1.2074,10.6965,3.4284
4921341.0,10.0078,12.4977,32.0153,-1.8454,10.9722,3.5572
4921351.0,8.5712,13.9438,35.2331,-2.4036,11.0403,3.8275
4921361.0,8.4084,14.6525,39.9066,-2.7803,10.82,4.2718
4921371.0,9.1842,15.0643,42.7126,-2.5648,10.4379,4.8231
4921381.0,8.8298,14.9973,42.6934,-1.9837,10.1602,5.4797
4921391.0,8.5234,14.0204,40.2322,-1.2808,10.3927,6.2864
4921401.0,7.9679,9.7779,39.0638,-0.1032,11.3047,6.9547
4921411.0,6.3111,7.0964,35.0703,0.0718,12.295,7.2633
4921421.0,3.9265,4.2138,35.9322,-0.6635,13.2145,7.3362
4921431.0,2.0111,3.6871,39.1691,-1.7437,13.8429,7.2692
4921441.0,0.0192,3.8116,45.6048,-2.3541,14.1739,7.3091
4921451.0,-0.8332,4.2234,52.9406,-1.3931,14.7635,7.5283
4921461.0,-3.9744,5.7365,59.0314,0.2187,15.4228,7.9333
4921471.0,-5.4013,3.4668,67.5931,1.9901,15.6851,8.5026
4921481.0,-6.11,-0.8045,75.5802,3.4124,15.5079,8.6915
4921491.0,-5.2481,-3.9361,78.4508,3.9249,14.193,8.4803
4921501.0,-3.7541,-6.8953,78.4508,3.9701,12.9138,7.9279
4921511.0,-3.802,-3.7541,78.4508,3.4582,10.8705,7.3479
4921521.0,-3.9361,-2.7102,78.4508,3.09,9.2928,6.9419
4921531.0,-6.7516,0.8045,78.4508,2.4568,7.9402,6.8329
4921541.0,-7.355,1.0247,78.4508,1.9848,6.3114,6.8089
4921551.0,-7.7668,1.8675,78.4508,0.7971,4.7299,6.9664
4921561.0,-7.3741,-0.3352,78.4508,-0.158,3.1075,7.0367
4921571.0,-6.7229,-2.0973,78.4508,-1.715,1.2936,6.9638
4921581.0,-7.2305,-5.5641,78.4508,-2.7553,-0.0952,6.8015
4921591.0,-7.4603,-11.4156,78.4508,-3.2661,-1.608,6.437
4921601.0,-5.8035,-16.9605,78.4508,-3.8014,-4.2287,5.6548
4921611.0,-3.2082,-20.3603,78.4508,-4.5788,-6.7413,4.3665
4921621.0,-1.8771,-18.7131,78.4508,-5.4297,-8.5138,3.0139
4921631.0,-1.743,-14.5759,73.435,-5.9863,-9.9851,1.914
4921641.0,-1.3791,-8.6287,64.9691,-6.3715,-10.9642,1.1659
4921651.0,-0.8619,-3.055,57.7386,-6.9888,-11.2824,0.8657
4921661.0,-0.7757,0.4405,52.7203,-7.1026,-11.4037,0.8902
4921671.0,-0.2777,3.1603,48.8321,-6.4886,-11.0451,1.1132
4921681.0,-0.2586,5.0661,46.3805,-5.3722,-10.3943,1.5655
4921691.0,0.3543,5.5162,44.446,-4.3122,-9.8505,2.1449
4921701.0,1.6089,4.0893,43.4404,-3.3901,-9.3806,2.7281
4921711.0,2.624,1.9632,43.2776,-2.61,-9.0241,3.1081
4921721.0,3.3519,-0.4597,43.6702,-1.8768,-8.8464,3.3449
4921731.0,4.865,-2.0399,43.8905,-0.9935,-8.6681,3.4018
4921741.0,4.3191,-1.7238,43.6702,-0.3437,-8.4265,3.4747
4921751.0,3.4381,-0.5076,43.0765,-0.3257,-8.3967,3.6588
4921761.0,2.9497,0.4118,42.7604,-0.6109,-8.5239,4.0244
4921771.0,3.0646,-0.6991,41.8794,-1.1898,-8.7639,4.4602
4921781.0,5.5929,-3.4285,39.2649,-1.914,-8.8932,4.7305
4921791.0,7.0964,-6.6367,37.1867,-2.925,-9.0379,4.7486
4921801.0,7.8338,-8.2648,34.4382,-3.7647,-8.9028,4.5331
4921811.0,8.2552,-7.8147,34.5531,-4.6826,-8.4702,4.3309
4921821.0,7.8338,-7.2113,36.3536,-5.1806,-8.4409,4.2276
4921831.0,7.2688,-7.4316,37.8092,-5.154,-8.5367,4.2553
4921841.0,7.7764,-8.3989,37.6177,-4.5937,-8.3813,4.2888
4921851.0,8.0924,-9.1171,37.7518,-4.1084,-8.4585,4.2558
4921861.0,9.414,-9.5098,36.7462,-3.6184,-8.6474,4.1776
4921871.0,9.5289,-8.0158,35.0415,-3.14,-8.5127,4.1329
4921881.0,9.232,-5.9855,32.791,-3.4146,-8.4893,4.3261
4921891.0,9.845,-6.608,34.9745,-2.9383,-8.6165,4.549
4921901.0,9.7492,-6.1004,31.3066,-2.9309,-8.7517,4.8326
4921911.0,10.4291,-7.2209,29.3433,-2.7393,-8.7421,5.0152
4921921.0,11.5496,-7.7476,26.432,-2.7579,-8.6745,5.1865
4921931.0,11.2815,-8.102,23.061,-2.6276,-8.3675,5.3259
4921941.0,11.473,-8.9447,21.9883,-2.3248,-7.8263,5.4584
4921951.0,11.9997,-8.9256,19.7378,-1.8118,-7.3091,5.609
4921961.0,12.4307,-9.2416,18.0236,-1.21,-6.47,5.7202
4921971.0,13.0149,-8.0254,15.9837,-1.2483,-5.8607,5.9208
4921981.0,13.283,-7.2592,16.271,-1.209,-5.1397,6.1789
4921991.0,12.0764,-5.9855,15.4474,-1.4686,-4.631,6.579
4922001.0,11.9902,-6.6463,15.7251,-1.6011,-4.2729,7.0675
4922011.0,12.2296,-8.1403,14.1928,-1.8235,-3.6019,7.4943
4922021.0,11.7412,-10.4866,13.781,-2.1136,-2.9607,7.8173
4922031.0,11.6837,-12.5552,14.3269,-2.519,-2.4403,7.9721
4922041.0,12.1434,-14.0396,14.71,-2.941,-2.0119,8.0067
4922051.0,12.1147,-14.9781,15.275,-3.2853,-1.7219,7.987
4922061.0,12.402,-16.1178,15.955,-3.3667,-1.3925,7.9998
4922071.0,12.4498,-17.0563,16.6541,-3.1836,-0.9253,7.9897
4922081.0,11.5879,-18.7035,17.3244,-3.0043,-0.596,7.9599
4922091.0,12.5265,-21.1935,18.3587,-2.8069,-0.3054,7.7997
4922101.0,12.8425,-22.8694,18.6843,-2.6223,-0.0639,7.4905
4922111.0,13.3501,-24.3155,21.3371,-2.4419,-0.1995,7.0899
4922121.0,13.6565,-24.6315,21.1743,-2.0774,-0.1447,6.5828
4922131.0,14.5567,-25.2062,21.2988,-1.7432,-0.2522,6.1156
4922141.0,15.1314,-25.3019,21.2892,-1.3271,-0.2512,5.6223
4922151.0,15.6964,-25.187,20.5614,-1.0413,-0.3911,5.1099
4922161.0,14.9015,-24.4975,19.4122,-0.7737,-0.6188,4.6299
4922171.0,14.6238,-23.061,16.9126,-0.5135,-0.4725,4.284
4922181.0,14.6334,-22.3618,15.4091,-0.1224,-0.0096,4.01
4922191.0,13.7427,-21.6149,13.9821,0.2405,0.4986,3.8035
4922201.0,13.8481,-21.6244,13.714,0.763,1.0323,3.6753
4922211.0,13.9534,-21.5861,13.7714,1.1754,1.6293,3.5912
4922221.0,13.2256,-21.4712,14.1449,1.5314,2.1795,3.5199
4922231.0,13.2064,-21.8447,14.6046,1.856,2.6313,3.4635
4922241.0,13.3788,-22.0075,15.5432,2.2742,3.0932,3.3938
4922251.0,13.5129,-22.5055,15.5623,2.4631,3.5859,3.4013
4922261.0,14.1928,-24.5837,16.1752,2.4227,3.9781,3.3092
4922271.0,13.7427,-27.0066,16.9318,2.2758,4.2367,3.0543
4922281.0,14.6717,-28.7017,17.4872,2.0726,4.4868,2.6696
4922291.0,14.0492,-29.3242,18.148,2.0853,4.9162,2.2104
4922301.0,13.216,-28.8453,18.9333,2.2998,5.368,1.7666
4922311.0,13.4937,-29.056,21.5095,2.6505,5.8053,1.4473
4922321.0,13.1968,-30.2531,23.4249,3.2406,5.9442,1.0701
4922331.0,12.0668,-30.6554,23.9516,3.5508,6.0283,0.6401
4922341.0,12.038,-30.7894,22.9269,3.6253,6.305,0.2304
4922351.0,11.1953,-31.1246,24.4496,3.447,6.6131,-0.0995
4922361.0,10.6973,-31.9961,24.8518,3.2746,6.8525,-0.3831
4922371.0,10.659,-33.8827,26.0202,2.9197,7.1569,-0.646
4922381.0,10.8793,-36.4014,27.8781,2.6638,7.5331,-1.1031
4922391.0,11.3772,-37.3495,30.981,2.5674,7.6874,-1.6485
4922401.0,11.6262,-39.1787,34.0455,2.6095,7.7316,-2.2647
4922411.0,11.2719,-39.0255,36.0567,2.3785,7.5166,-2.9
4922421.0,10.7356,-38.6711,38.8627,2.5807,7.1649,-3.5694
4922431.0,9.5577,-37.6177,40.2034,2.5116,6.9478,-4.0472
4922441.0,10.4387,-37.8475,41.4293,2.8069,6.6711,-4.4868
4922451.0,10.4579,-39.1117,41.6591,3.0112,6.4332,-4.9582
4922461.0,12.4115,-41.4005,42.3869,2.9202,6.5498,-5.5574
4922471.0,12.2296,-42.9807,44.695,2.6536,6.2438,-6.4162
4922481.0,12.1051,-42.3295,47.252,2.4919,5.791,-7.3793
4922491.0,11.0899,-38.9776,49.3493,2.3769,5.3456,-8.1568
4922501.0,9.4427,-35.7789,50.9199,2.0976,4.4687,-8.5761
4922511.0,9.7205,-35.5395,50.7092,1.5868,3.6593,-8.7979
4922521.0,10.343,-37.3208,49.3397,0.8844,2.8436,-9.163
4922531.0,10.1418,-39.5426,47.0508,0.2575,2.2157,-9.7919
4922541.0,10.0173,-40.7972,44.1108,-0.1043,2.1029,-10.6215
4922551.0,9.5577,-39.5905,42.4061,-0.0825,2.5951,-11.5974
4922561.0,8.1977,-34.9362,42.4061,-0.0388,3.1113,-12.535
4922571.0,6.3782,-28.5868,45.7867,0.1868,3.4199,-13.1113
4922581.0,4.8842,-22.7928,48.9375,0.431,3.4034,-13.2187
4922591.0,4.5107,-20.2741,52.6724,0.6508,3.0128,-13.0655
4922601.0,4.7788,-20.2166,55.172,0.8466,2.1854,-12.9192
4922611.0,4.616,-21.8255,55.3923,0.671,1.1403,-12.9516
4922621.0,6.2249,-24.2389,54.3005,1.0163,0.4337,-13.3097
4922631.0,7.0006,-22.8024,51.0444,1.5234,0.4076,-14.0084
4922641.0,3.0263,-15.524,50.441,1.7091,0.4683,-14.5426
4922651.0,2.0686,-7.4986,52.9406,2.0657,0.2363,-14.5496
4922661.0,2.0877,0.0766,51.5232,2.0082,-0.0889,-13.8695
4922671.0,2.1356,2.0973,52.6341,1.6421,-0.7338,-12.9532
4922681.0,3.9265,2.9592,52.2032,1.2648,-1.3239,-12.2322
4922691.0,6.3686,4.2138,50.7092,0.8099,-1.9433,-11.6612
4922701.0,6.4165,6.6367,49.3397,0.6492,-2.2003,-11.1467
4922711.0,5.9951,10.1897,48.5257,0.6758,-2.3738,-10.4677
4922721.0,5.7844,12.3924,47.8553,0.8221,-2.6105,-9.5642
4922731.0,6.2345,12.7084,46.7635,0.9232,-2.8958,-8.5766
4922741.0,8.3701,10.8505,43.9288,0.6779,-3.1299,-7.6885
4922751.0,10.1227,9.0309,41.7932,0.2224,-3.1655,-7.1537
4922761.0,10.9271,9.9216,40.1843,-0.5933,-3.2049,-6.7945
4922771.0,10.7452,12.287,41.027,-1.135,-3.2177,-6.2832
4922781.0,9.5385,14.9685,42.454,-1.4633,-3.5449,-5.4855
4922791.0,9.9407,15.1792,42.5306,-1.4904,-3.8935,-4.5011
4922801.0,11.1953,12.7276,41.5346,-1.2478,-4.0962,-3.5534
4922811.0,12.1625,9.2512,40.778,-0.8844,-4.3277,-2.9277
4922821.0,12.7372,6.11,40.0885,-0.2086,-4.4719,-2.5116
4922831.0,13.4075,3.3998,37.8667,0.5816,-4.6384,-2.2588
4922841.0,13.9726,0.8619,34.6776,1.1691,-4.7092,-2.113
4922851.0,14.8536,-1.561,30.2819,1.3446,-4.574,-2.1072
4922861.0,15.6772,-2.7964,26.3937,1.0797,-4.2995,-2.2333
4922871.0,16.9509,-4.2808,24.4017,0.7109,-3.6572,-2.3285
4922881.0,18.081,-5.3534,23.9899,0.4911,-2.8713,-2.4717
4922891.0,18.9046,-6.4452,25.9053,0.5098,-2.1306,-2.6983
4922901.0,19.9006,-5.6312,29.305,1.2074,-1.4287,-3.0181
4922911.0,19.2877,-2.5666,33.5476,2.112,-1.1089,-3.1581
4922921.0,18.0714,0.7853,36.2195,3.2203,-1.3026,-3.0687
4922931.0,17.4872,4.2138,35.846,3.7769,-1.6022,-2.7436
4922941.0,17.9086,5.8131,34.3903,3.9536,-2.1029,-2.2849
4922951.0,18.9238,6.6463,31.4981,3.762,-2.3349,-1.7661
4922961.0,20.4752,5.679,29.6498,3.6822,-2.0545,-1.2547
4922971.0,21.318,5.2385,28.5772,3.3922,-1.8172,-0.8477
4922981.0,22.1607,4.5298,28.3473,3.5316,-1.4686,-0.6598
4922991.0,21.6627,5.8227,27.5046,2.8766,-1.3564,-0.4385
4923001.0,20.5997,5.7652,31.2779,2.5935,-1.5314,-0.1437
