time_ms,ax,ay,az,gx,gy,gz
4856871.0,15.5527,-2.2122,38.2019,-0.5316,0.2496,-0.6604
4856881.0,15.2559,-1.5131,39.3224,-0.48,0.331,-0.6604
4856891.0,15.2271,-0.929,40.5769,-0.4076,0.248,-0.5837
4856901.0,15.2367,-0.6225,41.2569,-0.2458,0.2118,-0.5151
4856911.0,15.208,-0.2777,41.5825,-0.165,0.1453,-0.406
4856921.0,15.3612,-0.7278,42.2433,-0.0372,0.0282,-0.2905
4856931.0,15.1505,-1.1301,42.6647,0.099,-0.0527,-0.1719
4856941.0,15.524,-2.9497,42.4444,0.2272,-0.0782,-0.1373
4856951.0,15.7538,-3.9935,42.5402,0.2261,-0.0298,-0.2006
4856961.0,15.3708,-4.8842,44.0916,0.2453,-0.009,-0.3384
4856971.0,15.457,-5.4684,45.5952,0.5263,-0.0835,-0.4853
4856981.0,15.9071,-5.6216,46.3996,0.8657,-0.2299,-0.7003
4856991.0,16.6445,-4.9225,47.0413,1.0121,-0.4129,-0.919
4857001.0,17.5351,-4.5969,48.8417,1.2872,-0.6529,-1.1217
4857011.0,16.6349,-3.3519,49.4642,1.5884,-1.0472,-1.2957
4857021.0,16.4817,-2.3655,50.5464,1.673,-1.5846,-1.3755
4857031.0,16.4434,-1.3695,50.7762,1.8267,-2.1955,-1.3638
4857041.0,16.3093,-0.747,50.3549,1.8134,-2.8761,-1.3239
4857051.0,16.4146,0.0287,48.1522,1.6793,-3.4917,-1.2542
4857061.0,16.5296,-0.0383,46.7923,1.4415,-3.8796,-1.1855
4857071.0,16.8073,-0.2586,45.9016,1.2872,-4.2723,-1.1148
4857081.0,16.7977,-0.2682,44.1682,0.9982,-4.6868,-1.0637
4857091.0,17.1425,-0.1532,41.6783,0.6066,-5.1024,-1.0536
4857101.0,17.334,-0.0096,39.2266,0.1634,-5.394,-1.0222
4857111.0,17.4585,0.3352,36.6696,-0.4725,-5.6633,-1.0052
4857121.0,17.765,0.9002,33.8061,-1.35,-5.974,-0.9738
4857131.0,17.8512,1.3695,31.364,-2.1343,-6.189,-0.9738
4857141.0,17.9661,1.8579,29.3721,-2.378,-6.1353,-0.9509
4857151.0,18.5599,2.3176,27.2173,-2.1747,-5.9362,-0.8838
4857161.0,18.9046,2.7869,25.5222,-1.3287,-5.7053,-0.787
4857171.0,18.9333,3.9935,20.9924,-0.2086,-5.3456,-0.6444
4857181.0,19.0483,5.2577,15.1122,0.282,-4.7672,-0.4033
4857191.0,19.575,5.1715,10.1227,0.4055,-3.8956,-0.1495
4857201.0,20.2454,5.1715,5.5641,0.2421,-2.668,0.1086
4857211.0,20.2741,4.2329,4.5011,-0.0277,-1.2329,0.2751
4857221.0,19.4696,3.0454,4.4915,-0.0756,0.1815,0.3986
4857231.0,19.3835,1.0822,5.9664,0.2261,1.4011,0.4486
4857241.0,19.0387,-0.2586,6.3494,0.5353,2.5563,0.3751
4857251.0,18.2725,-2.1356,8.3701,0.8413,3.678,0.2049
4857261.0,18.5024,-3.4189,9.7588,1.3441,4.7528,-0.1389
4857271.0,18.0427,-3.3232,11.6837,1.7757,5.7867,-0.5741
4857281.0,16.8839,-1.7142,13.5416,2.2136,6.6849,-0.9381
4857291.0,15.6964,1.2737,15.5049,2.4541,7.5533,-1.1691
4857301.0,14.3939,4.1659,17.3053,2.5898,8.36,-1.1861
4857311.0,13.3405,6.7708,20.5614,2.6372,8.9065,-1.0653
4857321.0,12.6893,9.2608,23.5877,2.6787,9.2524,-0.7444
4857331.0,12.2679,9.4236,26.7768,2.9788,9.4509,-0.3448
4857341.0,11.2719,9.1842,28.5006,3.2475,9.6036,0.0074
4857351.0,9.7971,7.9871,30.0999,2.9548,9.5376,0.3368
4857361.0,9.7875,5.0566,31.9387,2.3535,9.4189,0.5342
4857371.0,10.4291,2.1356,34.3041,1.7251,9.2816,0.5326
4857381.0,10.8601,0.4597,36.3057,1.0515,9.0959,0.3294
4857391.0,10.9942,0.182,39.1883,0.4401,8.8113,0.1155
4857401.0,10.8218,1.6089,41.1994,-0.0915,8.3733,-0.0011
4857411.0,10.659,2.4612,43.8713,-0.5779,7.9232,-0.017
4857421.0,10.0461,2.6815,45.7484,-0.8519,7.4033,0.0415
4857431.0,9.8354,2.873,46.7157,-1.2196,6.7972,0.1522
4857441.0,9.9216,1.5419,47.4148,-1.6043,6.222,0.2198
4857451.0,9.9695,0.4884,47.3477,-2.0869,5.6175,0.1985
4857461.0,10.4962,-0.431,47.2998,-2.8378,5.0125,0.1245
4857471.0,10.7643,-1.0056,47.3477,-3.2054,4.5607,0.0048
4857481.0,10.726,-0.8332,46.7444,-3.3395,4.267,-0.0601
4857491.0,10.3908,-0.5171,46.1315,-3.4811,4.0302,-0.0889
4857501.0,10.0078,-0.2586,44.762,-3.761,3.7748,-0.0266
4857511.0,9.9216,-1.3695,44.7716,-3.828,3.7471,0.0745
4857521.0,9.7492,-4.4341,44.5992,-3.2757,4.0472,0.107
4857531.0,10.1418,-5.8227,45.1451,-2.4004,4.6597,0.008
4857541.0,10.1993,-7.2018,46.1315,-1.4585,5.3275,-0.183
4857551.0,9.9407,-7.3358,47.0508,-0.8365,5.8926,-0.4119
4857561.0,8.5329,-7.7859,49.9622,-0.2826,6.4684,-0.6018
4857571.0,6.0334,-9.2225,53.86,0.6561,7.0814,-0.7955
4857581.0,4.1851,-12.536,59.357,2.0124,7.7965,-1.1217
4857591.0,2.4708,-16.2997,65.3042,3.4678,8.1445,-1.8097
4857601.0,2.1356,-17.0467,70.1118,4.217,8.0072,-2.8511
4857611.0,2.6336,-13.6182,75.3503,4.4107,7.3112,-4.0297
4857621.0,2.0973,-4.9416,78.4508,4.0446,6.3391,-4.8986
4857631.0,-0.1915,2.3655,78.4508,3.6248,5.1024,-5.2115
4857641.0,-1.1971,12.3732,78.4508,3.0788,3.0442,-5.0391
4857651.0,-1.9537,19.0866,78.4508,1.6102,0.8317,-4.3245
4857661.0,-2.1931,21.634,78.4508,0.7396,-1.2308,-3.3965
4857671.0,-1.9249,22.4959,78.4508,0.124,-3.1953,-2.3652
4857681.0,-1.8483,19.8048,78.4508,-0.3432,-5.1535,-1.4468
4857691.0,-3.6966,18.1289,75.628,-0.7482,-7.0239,-0.638
4857701.0,-3.0358,14.212,70.2171,-2.1253,-8.2924,0.0772
4857711.0,-1.8771,9.5193,66.0225,-2.4232,-9.5977,0.4454
4857721.0,-0.0575,6.2441,58.294,-3.645,-10.3794,0.5624
4857731.0,1.3982,2.4612,55.4114,-4.0951,-10.8503,0.4001
4857741.0,2.1835,2.8635,48.9662,-4.6124,-10.8945,0.2027
4857751.0,2.8347,2.4134,46.9934,-5.2424,-10.8556,0.0867
4857761.0,3.3423,2.7964,45.2408,-5.154,-10.7923,0.0016
4857771.0,4.367,2.8443,42.5881,-5.0359,-10.5183,0.0846
4857781.0,5.0566,2.241,41.4771,-4.3686,-10.1931,0.1591
4857791.0,5.7748,1.4557,38.4221,-3.9765,-9.8042,0.2581
4857801.0,6.6655,0.4118,37.5602,-3.5827,-9.3492,0.282
4857811.0,7.8147,-0.6129,36.2674,-3.0267,-8.8746,0.2794
4857821.0,8.9256,-1.2354,35.2139,-2.5414,-8.3999,0.2299
4857831.0,9.73,-1.6281,34.1605,-2.0401,-8.0024,0.1708
4857841.0,10.7739,-1.3791,32.9155,-1.6618,-7.5826,0.1357
4857851.0,11.6837,-1.2546,32.044,-1.2717,-7.1319,0.1133
4857861.0,12.1817,-1.3982,31.4311,-0.8727,-6.6977,0.1304
4857871.0,12.0764,-1.6951,32.0153,-0.6029,-6.3071,0.1336
4857881.0,12.785,-2.9497,33.0113,-0.174,-6.0751,0.1352
4857891.0,14.1162,-3.5243,32.5803,0.2368,-5.916,0.0649
4857901.0,15.1697,-3.5243,32.5324,0.4629,-5.8421,-0.0165
4857911.0,15.7251,-3.9456,32.2355,0.6045,-5.8868,-0.1426
4857921.0,15.8688,-4.1851,32.0823,0.7428,-5.9506,-0.2389
4857931.0,16.204,-4.0127,30.9618,0.8753,-6.0469,-0.339
4857941.0,16.9893,-3.5626,29.0656,0.6939,-6.1581,-0.3991
4857951.0,17.9182,-3.8116,27.7919,0.4432,-6.1895,-0.4672
4857961.0,17.7075,-3.7924,26.3266,0.2501,-6.1826,-0.5491
4857971.0,18.148,-3.8499,24.4496,-0.1501,-6.0384,-0.6497
4857981.0,18.8855,-3.8116,23.1088,-0.4768,-5.8713,-0.7529
4857991.0,19.4122,-3.5338,21.816,-0.8131,-5.6755,-0.8876
4858001.0,19.5463,-2.9975,20.9445,-1.209,-5.509,-0.9903
4858011.0,19.9772,-2.9113,20.1879,-1.4777,-5.3429,-1.0866
4858021.0,20.2741,-1.9345,19.259,-1.557,-5.1184,-1.135
4858031.0,20.4561,-1.1779,17.832,-1.4958,-4.8624,-1.1754
4858041.0,20.638,-0.2394,15.8209,-1.4096,-4.5027,-1.1616
4858051.0,20.9349,0.4501,13.8193,-1.4889,-4.1265,-1.1185
4858061.0,21.3275,0.8236,11.8752,-1.6346,-3.6248,-1.0802
4858071.0,21.567,0.8523,10.7643,-1.6841,-3.0016,-1.0195
4858081.0,21.7489,1.0534,9.6438,-1.6639,-2.2998,-1.0179
4858091.0,21.5191,1.0534,9.2703,-1.5362,-1.4904,-1.0403
4858101.0,21.452,1.6089,9.2416,-1.1483,-0.7615,-1.0557
4858111.0,20.8391,2.8252,7.7476,-0.977,0.0027,-1.0004
4858121.0,20.4465,3.3136,7.5753,-0.837,0.944,-0.8886
4858131.0,19.6516,3.6966,7.4316,-0.6295,2.0444,-0.6949
4858141.0,18.9142,2.4038,9.912,-0.4065,3.2012,-0.4571
4858151.0,19.1057,-1.9154,14.4227,0.3597,4.1851,-0.4321
4858161.0,19.6325,-4.0606,16.4625,1.2749,5.0173,-0.5944
4858171.0,19.3356,-6.1292,18.9046,1.7725,5.7516,-0.8865
4858181.0,19.5463,-8.2744,22.3906,2.2588,6.3236,-1.409
4858191.0,20.2549,-7.8626,25.005,2.5611,6.5673,-2.0901
4858201.0,20.2933,-5.5354,26.9779,2.4381,6.4918,-2.7324
4858211.0,19.7186,-2.375,29.2571,2.1487,6.2236,-3.1772
4858221.0,18.7227,1.8387,29.9658,2.0752,5.8985,-3.4204
4858231.0,17.0084,6.5888,28.9698,1.9736,5.683,-3.3614
4858241.0,16.3189,9.6822,27.8206,1.6607,5.6952,-3.0714
4858251.0,16.6732,14.1449,26.432,1.5628,5.8793,-2.5547
4858261.0,16.089,17.2957,24.7465,1.326,6.3598,-1.6735
4858271.0,15.026,17.0754,25.0338,1.1158,7.0973,-0.6359
4858281.0,14.6717,14.4322,25.7425,1.0195,7.9572,0.257
4858291.0,14.7387,10.726,27.4184,0.7396,8.8224,0.9168
4858301.0,14.8919,6.426,31.7184,0.3858,9.428,1.2675
4858311.0,14.4514,2.8252,36.4014,0.017,9.6568,1.3372
4858321.0,16.1178,1.3503,41.5346,-0.0681,9.5206,1.1893
4858331.0,15.6389,0.9673,45.0301,-0.1926,9.0523,1.1201
4858341.0,14.959,-0.6895,48.5927,0.0074,8.5207,1.0541
4858351.0,14.9973,-2.1548,49.7228,0.2496,7.8348,0.912
4858361.0,15.4665,-3.5817,50.125,0.2714,7.2761,0.6641
4858371.0,15.6102,-4.3479,49.2344,0.332,6.951,0.3523
4858381.0,15.8017,-4.7692,49.2056,0.3884,6.9137,0.0351
4858391.0,15.524,-4.3,49.4163,0.4736,7.0681,-0.3033
4858401.0,15.3133,-3.122,50.0963,0.4289,7.2266,-0.5624
4858411.0,14.9685,-2.1644,52.2415,0.3794,7.3751,-0.7599
4858421.0,14.2311,-0.9577,54.2143,0.5247,7.4214,-0.8668
4858431.0,13.1681,-0.6129,57.5566,0.4906,7.4081,-0.9621
4858441.0,12.3541,-0.3639,61.5597,0.5422,6.9962,-1.0248
4858451.0,11.8657,0.7661,64.3753,0.3634,6.181,-1.085
4858461.0,11.6262,1.1684,67.21,0.4156,5.1689,-1.1254
4858471.0,11.6933,2.0303,67.7655,0.763,4.3516,-1.1345
4858481.0,11.0899,3.3615,67.6314,1.1478,3.7243,-1.0695
4858491.0,10.2472,4.4628,66.3098,1.1196,3.1182,-0.9668
4858501.0,9.7396,5.2289,65.5628,0.3831,2.4419,-0.8226
4858511.0,9.414,4.6735,66.9515,-0.4065,1.7741,-0.6971
4858521.0,8.916,3.9265,69.1445,-0.737,1.086,-0.6401
4858531.0,8.2552,3.5626,71.3185,-0.7811,0.1394,-0.6236
4858541.0,7.9487,3.0646,71.9889,-0.6306,-1.0695,-0.5912
4858551.0,7.4795,3.5913,70.4087,-0.7199,-2.3147,-0.564
4858561.0,7.9871,3.802,67.8708,-1.1009,-3.537,-0.5305
4858571.0,8.0158,4.1946,65.2564,-1.2909,-4.5528,-0.5076
4858581.0,8.0349,5.0374,61.4065,-1.55,-5.2461,-0.4715
4858591.0,7.5178,6.0238,58.0354,-1.8544,-5.6862,-0.3704
4858601.0,7.422,7.173,55.5359,-2.1364,-5.9868,-0.2001
4858611.0,7.6806,7.6998,53.1225,-2.3743,-6.288,0.0479
4858621.0,7.671,7.5848,51.686,-2.6441,-6.4923,0.3634
4858631.0,7.9104,6.0717,51.0827,-2.7643,-6.6924,0.6412
4858641.0,8.5712,4.3862,50.3932,-2.518,-6.8988,0.8285
4858651.0,9.2225,3.2561,48.5736,-2.2072,-7.0744,0.9291
4858661.0,9.3853,2.2793,46.4762,-2.0109,-7.2032,0.9695
4858671.0,10.5058,1.9058,44.58,-1.9507,-7.3054,0.9668
4858681.0,11.0995,1.81,42.3295,-2.1029,-7.4299,0.9525
4858691.0,10.975,2.5953,41.1803,-2.2503,-7.4943,0.9541
4858701.0,11.2815,2.7485,39.8778,-2.1508,-7.4794,1.0451
4858711.0,11.9519,3.0837,38.3072,-1.9087,-7.4474,1.1478
4858721.0,12.5935,3.055,36.1046,-1.8693,-7.4262,1.3063
4858731.0,12.9,2.557,34.036,-1.9411,-7.3767,1.4457
4858741.0,13.5991,1.5993,32.2834,-1.8071,-7.2463,1.5527
4858751.0,14.5472,0.5842,30.5117,-1.6597,-7.0106,1.6176
4858761.0,15.1026,-0.7757,28.558,-1.4122,-6.7248,1.6458
4858771.0,15.7443,-2.3176,26.8629,-0.9929,-6.3359,1.6022
4858781.0,16.7211,-3.6296,24.6028,-0.5619,-5.8304,1.499
4858791.0,17.6213,-5.0278,22.065,-0.2799,-5.1572,1.3494
4858801.0,18.579,-6.426,20.389,-0.1405,-4.3266,1.1052
4858811.0,19.3739,-7.1443,20.1496,-0.099,-3.5002,0.7466
4858821.0,20.0155,-7.3358,21.0115,-0.074,-2.8766,0.3922
4858831.0,20.2166,-7.0102,22.1128,0.0628,-2.4041,0.0319
4858841.0,20.2071,-6.6176,22.7449,0.2075,-2.0508,-0.2272
4858851.0,20.2741,-5.8514,23.8654,0.4278,-1.7634,-0.4885
4858861.0,20.1783,-4.9608,24.0186,0.5928,-1.6086,-0.6875
4858871.0,20.1975,-4.3862,23.9229,0.6705,-1.5282,-0.8195
4858881.0,19.7857,-3.8595,23.2238,0.6689,-1.4351,-0.936
4858891.0,20.14,-3.7445,22.6587,0.5859,-1.3223,-1.0871
4858901.0,20.4561,-3.0837,21.2222,0.4816,-1.094,-1.2521
4858911.0,19.7282,-2.4038,20.7242,0.2655,-0.8296,-1.3931
4858921.0,19.6708,-1.4844,20.4369,0.017,-0.5949,-1.5224
4858931.0,19.4409,-0.3352,20.6763,-0.2256,-0.447,-1.6187
4858941.0,19.0578,0.7278,20.7721,-0.4693,-0.389,-1.615
4858951.0,18.7514,1.1971,20.9636,-0.5577,-0.2272,-1.5926
4858961.0,19.0962,1.494,20.2837,-0.4864,-0.0208,-1.5538
4858971.0,19.2685,2.1069,19.9293,-0.6082,0.2059,-1.5213
4858981.0,19.8336,2.375,19.0195,-0.7338,0.4358,-1.4915
4858991.0,19.6899,3.0167,18.4449,-0.8987,0.7242,-1.4825
4859001.0,19.0578,3.6966,17.6309,-1.0275,1.0914,-1.3808
4859011.0,19.1345,3.7924,18.0523,-0.9291,1.5937,-1.2787
4859021.0,19.3356,3.6966,17.7746,-0.6902,2.2205,-1.1691
4859031.0,19.4409,3.4477,17.3819,-0.5459,2.9005,-1.044
4859041.0,19.4696,2.9784,18.1672,-0.4715,3.596,-0.9929
4859051.0,19.2111,2.9018,19.6037,-0.3352,4.2074,-0.9541
4859061.0,18.7227,2.7964,20.5327,-0.249,4.7087,-0.928
4859071.0,18.1768,2.4995,21.6915,-0.2873,5.1258,-0.9057
4859081.0,17.0946,2.2027,22.5534,-0.3805,5.4446,-0.9126
4859091.0,16.836,1.8387,23.9133,-0.4198,5.7484,-0.9232
4859101.0,17.4777,1.7526,24.9859,-0.2719,6.1092,-0.9296
4859111.0,17.334,1.7047,26.0585,0.0309,6.5897,-0.8626
4859121.0,17.1425,0.7566,27.1215,0.6029,7.1186,-0.8099
4859131.0,16.8456,-0.1245,28.1941,1.1579,7.763,-0.8285
4859141.0,16.3093,-1.0247,29.4008,1.6086,8.36,-0.9434
4859151.0,15.0643,-1.3216,30.2148,1.8518,8.8698,-1.1206
4859161.0,13.9534,-1.0822,31.9482,1.9172,9.2577,-1.3399
4859171.0,13.2064,0.0958,33.5284,1.6639,9.5892,-1.5596
4859181.0,11.6837,2.0111,36.2291,1.4096,9.7717,-1.6996
4859191.0,10.8409,3.9073,38.9585,1.3877,9.8569,-1.6895
4859201.0,10.0461,5.8419,41.4388,1.616,9.9441,-1.5394
4859211.0,8.7724,6.5793,43.4212,1.8927,10.0596,-1.3473
4859221.0,8.0637,7.5274,45.9112,1.9683,9.9718,-1.1616
4859231.0,7.4986,8.3797,48.3341,1.7469,9.6435,-0.9871
4859241.0,6.1962,9.7013,50.2782,1.2803,9.1396,-0.7125
4859251.0,5.4779,9.8354,53.1513,0.9088,8.5101,-0.3661
4859261.0,5.296,8.1882,54.7985,0.8381,7.9226,-0.0314
4859271.0,6.0047,6.3303,56.2159,0.8296,7.3118,0.1479
4859281.0,5.7652,4.7118,56.3212,0.6077,6.6849,0.2102
4859291.0,5.3247,3.735,56.4553,0.2916,6.1502,0.1554
4859301.0,5.3056,3.6488,55.8615,-0.0527,5.7873,0.0718
4859311.0,4.3574,4.2329,56.733,-0.4358,5.5845,0.0154
4859321.0,4.1372,4.3766,58.4185,-0.605,5.3727,-0.0165
4859331.0,3.6392,4.9225,61.0521,-0.5667,4.9827,0.0266
4859341.0,3.2944,5.5641,62.8526,-0.3384,4.5629,0.1208
4859351.0,3.2178,5.8131,64.0688,-0.0112,4.1255,0.2586
4859361.0,2.624,5.1236,65.8118,0.4432,3.5859,0.4049
4859371.0,2.873,4.6639,66.1087,0.9104,3.1671,0.4794
4859381.0,3.2561,4.1946,65.7735,1.1903,2.8516,0.4443
4859391.0,3.0933,4.7118,66.0321,0.9876,2.3312,0.3895
4859401.0,2.6145,5.9472,66.7216,0.4289,1.5351,0.3714
4859411.0,2.2601,6.6272,67.7272,-0.0676,0.6162,0.4198
4859421.0,2.1644,7.1539,68.1869,-0.3139,-0.199,0.5252
4859431.0,1.743,7.7381,68.3401,-0.3837,-1.0392,0.6263
4859441.0,1.5036,8.4755,67.5931,-0.472,-2.0497,0.8125
4859451.0,1.743,8.9064,65.7639,-0.7082,-3.0714,1.0089
4859461.0,1.4748,8.8585,63.3027,-1.1366,-3.9446,1.2483
4859471.0,1.9632,7.4891,61.6746,-1.4559,-4.6139,1.458
4859481.0,2.5091,6.4356,59.9412,-1.6027,-5.2099,1.5788
4859491.0,2.7773,5.7365,57.5087,-1.9145,-5.7798,1.6198
4859501.0,3.1603,5.0566,55.5838,-2.2737,-6.2507,1.6778
4859511.0,3.553,4.3862,53.5535,-2.6111,-6.7126,1.7203
4859521.0,3.8307,3.6871,52.0595,-2.8617,-7.1707,1.7517
4859531.0,4.4915,2.8826,50.0963,-2.9224,-7.4884,1.7943
4859541.0,5.5258,1.4078,48.7268,-2.7803,-7.6688,1.7459
4859551.0,6.0908,0.7661,46.754,-2.7191,-7.7704,1.6937
4859561.0,6.5984,-0.3065,45.509,-2.6531,-7.8939,1.6017
4859571.0,7.2018,-0.6991,43.7181,-2.4892,-7.9961,1.4734
4859581.0,8.1403,-0.9577,41.5538,-2.3386,-8.0141,1.3798
4859591.0,8.8585,-1.2546,39.7246,-2.2471,-7.9716,1.2781
4859601.0,8.9735,-1.8196,37.838,-2.1439,-7.8396,1.1813
4859611.0,9.7683,-2.2984,36.3248,-2.154,-7.6417,1.1206
4859621.0,10.726,-3.6679,35.846,-1.9193,-7.324,1.0174
4859631.0,11.9231,-4.3383,35.5204,-1.508,-7.0335,0.8689
4859641.0,12.5743,-5.612,34.9362,-1.2164,-6.8345,0.7146
4859651.0,13.6086,-6.857,34.285,-0.994,-6.7472,0.5119
4859661.0,14.8536,-7.7668,33.5476,-0.8477,-6.6594,0.241
4859671.0,15.7443,-8.351,32.2068,-0.7428,-6.5157,-0.0745
4859681.0,15.9933,-8.6862,31.2779,-0.7407,-6.3742,-0.406
4859691.0,16.0603,-8.5042,30.4351,-0.9961,-6.2364,-0.7258
4859701.0,16.7403,-8.7532,29.3816,-1.2409,-6.0852,-1.0781
4859711.0,16.8073,-8.3127,28.7304,-1.3361,-5.8575,-1.4303
4859721.0,17.1425,-8.0637,28.9986,-1.2122,-5.5547,-1.7645
4859731.0,17.3244,-6.8091,29.5732,-0.9259,-5.3014,-2.0939
4859741.0,17.4968,-5.1523,29.0848,-0.6332,-5.1407,-2.3126
4859751.0,17.4872,-3.2944,29.3433,-0.3666,-5.2083,-2.4451
4859761.0,17.6309,-1.2833,27.7823,-0.4103,-5.3685,-2.4642
4859771.0,17.2861,0.2682,26.3937,-0.3735,-5.5318,-2.4339
4859781.0,17.4106,1.8292,23.1471,-0.5454,-5.476,-2.304
4859791.0,17.8512,2.1069,21.0211,-0.7529,-5.194,-2.1598
4859801.0,18.5311,2.1931,18.8184,-0.8285,-4.806,-2.0768
4859811.0,18.7322,2.7485,16.1369,-1.1307,-4.2085,-1.9981
4859821.0,19.1536,2.7677,15.4474,-1.3595,-3.538,-1.9427
4859831.0,19.2973,2.9784,14.4322,-1.4915,-2.8846,-1.8853
4859841.0,19.2973,3.5626,14.1258,-1.707,-2.2221,-1.8395
4859851.0,19.4122,4.0797,13.7236,-1.8448,-1.5777,-1.8416
4859861.0,19.5941,4.9991,13.5608,-2.0736,-0.895,-1.7863
4859871.0,19.3643,5.4875,14.3077,-2.0391,-0.1953,-1.6778
4859881.0,19.1153,6.1483,14.5376,-1.6793,0.4789,-1.549
4859891.0,19.259,7.0198,14.6908,-1.3196,1.1499,-1.3899
4859901.0,19.5367,8.3031,14.03,-1.0594,1.8438,-1.1366
4859911.0,19.5558,8.8873,14.0109,-0.8886,2.6813,-0.8195
4859921.0,19.2494,8.9639,15.1888,-0.6135,3.5274,-0.4299
4859931.0,18.9525,7.9871,16.6253,-0.2905,4.3224,-0.0607
4859941.0,19.4122,6.5505,18.6173,0.1011,5.0572,0.2661
4859951.0,19.4601,4.3766,19.6995,0.4661,5.676,0.5119
4859961.0,19.508,0.5459,21.9883,0.8375,6.4561,0.5295
4859971.0,19.9293,-0.5267,23.444,1.6905,6.9552,0.4087
4859981.0,19.6803,-1.5323,23.9612,1.8842,7.482,0.2235
4859991.0,18.5311,-3.802,26.2021,2.1854,7.9024,-0.0426
4860001.0,18.9429,-4.6639,26.5278,2.3301,8.3185,-0.4182
4860011.0,18.8088,-4.7597,28.8549,2.3083,8.7878,-0.9057
4860021.0,17.8224,-3.5147,30.8373,2.3929,9.2157,-1.3478
4860031.0,16.1178,-1.1492,33.7295,2.511,9.5222,-1.6655
4860041.0,15.0164,1.5323,36.4781,2.4866,9.5775,-1.8246
4860051.0,13.8098,3.6392,39.4277,2.4674,9.4498,-1.8539
4860061.0,12.8712,5.6982,41.5825,2.4679,9.1326,-1.823
4860071.0,11.2719,7.9583,42.4157,2.286,8.7064,-1.6825
4860081.0,9.596,9.098,43.2393,1.8847,8.2509,-1.425
4860091.0,8.9639,9.7109,43.7181,1.4537,7.7933,-1.1621
4860101.0,8.9926,10.477,44.7045,0.9833,7.2985,-0.8689
4860111.0,8.8681,10.0461,45.6431,0.7577,6.9095,-0.5252
4860121.0,9.1746,9.5002,45.4036,0.8913,6.6897,-0.2325
4860131.0,9.1267,9.1842,44.9727,0.9094,6.7264,0.0202
4860141.0,8.9256,8.102,45.4611,0.7519,6.7589,0.24
4860151.0,8.8585,6.924,46.7348,0.4113,6.5913,0.3299
4860161.0,7.9296,5.8035,47.7691,-0.0697,6.2683,0.4342
4860171.0,7.604,3.7445,49.8856,-0.473,5.8618,0.4608
4860181.0,8.2456,1.7334,51.4466,-0.5364,5.3967,0.3267
4860191.0,8.0062,0.6416,52.0787,-0.4784,4.929,0.1176
4860201.0,7.6423,0.4214,52.6341,-0.3677,4.5591,-0.1176
4860211.0,7.9104,0.565,53.113,0.0032,4.2457,-0.3608
4860221.0,7.7764,1.6089,52.5096,0.3092,3.9472,-0.5326
4860231.0,7.355,2.624,51.7531,0.2246,3.6141,-0.6524
4860241.0,7.1156,3.5626,51.188,0.083,3.3661,-0.7199
4860251.0,6.7421,4.0414,51.3221,0.0474,3.1171,-0.763
4860261.0,6.3494,3.9744,50.9103,0.0702,2.8516,-0.7455
4860271.0,6.4069,3.0742,50.5081,0.2368,2.651,-0.7785
4860281.0,6.541,2.6911,49.5504,0.5066,2.66,-0.878
4860291.0,6.3207,3.3327,48.5353,0.7221,2.8346,-0.9945
4860301.0,6.1675,4.1372,47.9032,0.8801,3.082,-1.0621
4860311.0,5.794,5.6024,48.4874,0.8886,3.3316,-1.0972
4860321.0,5.0278,6.8666,49.9335,0.9317,3.5268,-1.0339
4860331.0,5.2002,8.3318,51.4658,1.2957,3.6913,-0.8966
4860341.0,4.7022,9.7492,53.1992,1.7469,3.8211,-0.6944
4860351.0,3.8307,10.3046,55.0762,2.0571,3.8126,-0.4406
4860361.0,3.7254,10.3813,56.7043,2.2721,3.6572,-0.2043
4860371.0,2.7294,10.0365,57.7769,2.3189,3.3576,-0.0229
4860381.0,1.6759,9.8258,58.5143,1.9646,3.0134,0.0772
4860391.0,1.2546,10.4962,60.286,1.5032,2.6664,0.1261
4860401.0,0.4214,11.5113,63.1782,1.0009,2.0481,0.1799
4860411.0,-0.3831,13.0723,65.7352,0.3938,1.0254,0.365
4860421.0,-0.2777,14.3461,67.7176,0.042,-0.2618,0.5954
4860431.0,-0.7183,15.6389,68.0432,-0.1304,-1.5809,0.9344
4860441.0,-1.0439,16.3476,66.4056,-0.2756,-2.9261,1.3202
4860451.0,-1.0343,15.9071,63.1782,-0.4975,-4.0611,1.7219
4860461.0,-0.6512,15.2367,59.5199,-0.8237,-4.9449,2.1157
4860471.0,-0.182,13.9343,56.2446,-1.0834,-5.5526,2.436
4860481.0,0.6991,12.651,52.8161,-1.3542,-5.948,2.7058
4860491.0,1.1684,11.3677,50.192,-1.7113,-6.1986,2.8862
4860501.0,1.6376,10.1131,47.5776,-2.1742,-6.3422,3.0565
4860511.0,2.1835,8.6479,46.4475,-2.6451,-6.4285,3.1975
4860521.0,2.8922,6.8953,45.7484,-2.9064,-6.5194,3.2555
4860531.0,3.6009,5.4396,45.5952,-3.0964,-6.7057,3.214
4860541.0,4.3862,3.8882,45.0685,-3.0772,-6.9036,3.14
4860551.0,5.0853,2.4708,44.8961,-2.9532,-7.051,3.0639
4860561.0,4.616,0.0,43.9671,-2.717,-7.2575,2.891
4860571.0,5.7557,-0.5171,43.1244,-2.5861,-7.5565,2.6829
4860581.0,7.4508,-1.4748,41.6304,-2.3189,-7.663,2.3679
4860591.0,7.8721,-1.5706,40.0598,-1.9949,-7.647,2.1098
4860601.0,8.5617,-1.6568,38.901,-1.873,-7.6065,1.9092
4860611.0,9.3565,-1.743,37.3974,-1.8214,-7.6278,1.7129
4860621.0,10.161,-1.2737,35.6736,-2.1519,-7.6422,1.5559
4860631.0,10.5441,-1.7334,35.3097,-2.5898,-7.763,1.4191
4860641.0,10.8984,-2.4995,34.6585,-2.8958,-7.8731,1.2707
4860651.0,11.7029,-3.5626,33.7104,-3.0772,-7.9258,1.0924
4860661.0,12.4594,-4.6639,33.1645,-3.0974,-7.9295,0.8461
4860671.0,13.1777,-5.7365,32.9346,-2.9511,-7.9652,0.5305
4860681.0,14.0875,-6.3015,32.1876,-2.6228,-7.9514,0.1926
4860691.0,14.9207,-6.1579,30.732,-2.2594,-7.8572,-0.1437
4860701.0,15.4474,-5.9951,29.1997,-2.1332,-7.6869,-0.4629
4860711.0,16.022,-6.3398,28.5293,-2.1386,-7.6507,-0.7657
4860721.0,16.5008,-6.2824,27.6291,-2.2955,-7.6145,-1.0797
4860731.0,17.7362,-6.8187,27.4184,-2.2594,-7.4895,-1.4106
4860741.0,18.4545,-6.6846,26.499,-2.1944,-7.3894,-1.7714
4860751.0,19.01,-5.4779,25.2062,-2.4121,-7.4182,-2.17
4860761.0,19.7091,-3.6009,23.1854,-2.8872,-7.4219,-2.486
4860771.0,19.4984,-1.3408,21.3946,-3.2587,-7.3112,-2.692
4860781.0,19.9772,0.7949,20.0538,-3.4204,-6.9893,-2.7707
4860791.0,20.638,1.9058,18.7227,-3.1432,-6.5077,-2.7744
4860801.0,20.7721,3.8499,16.5775,-2.9836,-5.9676,-2.7207
4860811.0,20.8391,5.3822,14.5855,-3.0735,-5.4462,-2.5765
4860821.0,20.6093,6.292,14.4706,-2.9995,-4.88,-2.4163
4860831.0,21.0019,6.7229,13.2256,-2.543,-4.2617,-2.2471
4860841.0,21.1073,7.3167,11.7507,-1.9731,-3.6295,-2.0454
4860851.0,21.1264,7.3741,9.6247,-1.4766,-2.9287,-1.8651
4860861.0,21.5287,7.9583,6.3877,-1.0243,-1.9151,-1.6778
4860871.0,21.5382,8.6383,3.1603,-0.9126,-0.6385,-1.4862
4860881.0,21.3754,9.0692,2.9018,-0.6971,0.8482,-1.2356
4860891.0,21.2892,9.1554,3.2944,-0.1282,2.3908,-0.9514
4860901.0,21.2222,8.7436,4.1755,0.6992,3.9275,-0.6524
4860911.0,20.322,8.1594,4.4724,1.5586,5.3903,-0.4119
4860921.0,19.0387,7.8147,4.5681,2.046,6.9047,-0.2634
4860931.0,17.4872,7.604,4.4724,2.055,8.476,-0.1309
4860941.0,16.1656,7.604,6.9815,1.8145,10.0511,-0.0096
4860951.0,15.2654,7.9104,11.3868,1.648,11.442,0.1245
4860961.0,13.9821,8.5234,16.8743,1.7443,12.5845,0.3134
4860971.0,13.1202,8.9543,22.63,2.1018,13.405,0.6167
4860981.0,11.7603,8.5712,28.5389,2.7287,13.8493,0.8993
4860991.0,10.8409,7.9966,32.8293,3.2698,13.9648,1.1733
4861001.0,10.6781,7.0964,36.1716,3.5476,13.7961,1.3856
4861011.0,9.845,5.7748,38.7478,3.7243,13.4976,1.5107
4861021.0,9.1171,4.4245,40.0311,3.6418,13.1969,1.5351
4861031.0,8.2839,2.5474,42.703,3.5125,12.9798,1.4926
4861041.0,8.7532,1.0822,44.6662,3.4816,12.6643,1.2968
4861051.0,8.6957,1.0343,45.4707,3.0134,12.337,1.0648
4861061.0,7.8051,0.5459,48.2767,2.8308,12.0449,0.8626
4861071.0,7.9966,1.245,49.8281,2.7031,11.8214,0.6396
4861081.0,7.3263,2.0686,52.4617,2.2711,11.3643,0.4459
4861091.0,6.608,3.6871,54.5782,1.7017,10.5731,0.3118
4861101.0,5.3056,5.9759,56.2637,0.969,9.6887,0.3267
4861111.0,4.6064,6.3494,58.6867,0.6678,8.9794,0.5023
4861121.0,4.4628,6.4548,59.3666,0.6939,8.3494,0.68
4861131.0,4.2425,5.7844,60.7457,0.6779,7.664,0.7609
4861141.0,3.8978,5.8323,60.7265,0.6588,6.9121,0.8067
4861151.0,2.9688,6.2441,60.1328,0.0681,6.0416,0.886
4861161.0,2.7581,5.4396,61.0138,-0.6513,5.1562,0.9493
4861171.0,2.9497,4.5873,61.6268,-1.0589,4.3463,1.002
4861181.0,3.2753,3.5626,62.0194,-1.2361,3.7487,0.9748
4861191.0,3.6488,2.8826,62.1631,-0.9924,3.306,0.9025
4861201.0,3.4668,3.3615,61.5693,-1.0131,2.9096,0.8508
4861211.0,3.4093,3.0167,62.7472,-1.1196,2.5116,0.8088
4861221.0,3.7254,3.3615,63.8294,-0.9243,1.9864,0.7615
4861231.0,2.9784,3.3615,64.3466,-0.7455,1.4457,0.7955
4861241.0,3.3423,2.988,64.9499,-0.2384,0.9349,0.7811
4861251.0,3.7541,3.2944,63.5517,-0.0952,0.3246,0.7274
4861261.0,3.4668,3.5338,63.5804,-0.4422,-0.3868,0.687
4861271.0,3.6105,3.6679,62.7281,-0.6779,-1.1435,0.6391
4861281.0,3.2848,3.9456,61.7225,-0.8328,-1.7874,0.6103
4861291.0,3.371,4.2425,60.6212,-0.8147,-2.2929,0.5944
4861301.0,3.4477,5.1715,58.5718,-0.986,-2.6856,0.6353
4861311.0,3.553,5.2577,57.9397,-1.1898,-3.0527,0.6886
4861321.0,3.2657,6.2537,57.1257,-1.4064,-3.4518,0.7551
4861331.0,3.7541,6.7229,56.2829,-1.7831,-3.8568,0.8828
4861341.0,3.7062,6.9336,56.1297,-2.0689,-4.2995,1.0424
4861351.0,3.7158,6.608,56.1009,-2.1402,-4.7736,1.218
4861361.0,4.0893,5.9855,54.7027,-2.0641,-5.2589,1.3883
4861371.0,4.2808,5.0182,52.9885,-1.9635,-5.6127,1.5612
4861381.0,5.1427,3.6105,51.4658,-1.8736,-5.8117,1.6357
4861391.0,5.3917,1.9441,49.8185,-1.7602,-5.9868,1.665
4861401.0,6.4165,0.9673,48.5161,-1.6751,-6.1007,1.5798
4861411.0,6.9432,0.431,47.1083,-1.8007,-6.3007,1.4484
4861421.0,7.1922,0.2298,46.2272,-2.0162,-6.4928,1.3468
4861431.0,7.6806,-0.0862,45.4132,-2.0758,-6.7392,1.2244
4861441.0,7.4029,-0.0862,43.766,-2.1173,-6.9856,1.1584
4861451.0,8.0158,-1.1205,42.9616,-1.9513,-7.0042,1.1297
4861461.0,8.916,-2.0111,41.1228,-1.4883,-6.9845,0.9988
4861471.0,9.7875,-2.2218,39.1979,-1.4053,-6.9015,0.8652
4861481.0,10.0078,-2.5666,37.5124,-1.4995,-6.927,0.6838
4861491.0,10.8218,-2.7581,36.4685,-1.6346,-6.7956,0.5316
4861501.0,11.3868,-2.5283,34.3712,-1.6905,-6.6158,0.4097
4861511.0,11.8561,-2.8252,34.0647,-1.7028,-6.4231,0.2895
4861521.0,12.4115,-2.7677,33.3081,-1.7166,-6.2459,0.1671
4861531.0,12.8617,-3.1891,32.3217,-1.7342,-6.0501,0.0537
4861541.0,13.6086,-3.802,32.5994,-1.6591,-5.7825,-0.1006
4861551.0,14.2982,-3.8307,32.3983,-1.5165,-5.6207,-0.2538
4861561.0,14.6046,-3.9744,33.0879,-1.3569,-5.4409,-0.3496
4861571.0,15.5144,-4.4436,32.4175,-0.9892,-5.3413,-0.4965
4861581.0,16.1465,-4.0031,31.2395,-0.9434,-5.2578,-0.654
4861591.0,16.3859,-4.1755,30.8469,-0.9434,-5.1477,-0.7801
4861601.0,16.6924,-3.9552,29.6498,-0.8945,-5.0636,-0.8668
4861611.0,17.0754,-4.1755,28.8549,-0.7673,-4.9412,-0.9802
4861621.0,17.5543,-4.4819,27.8494,-0.7529,-4.7789,-1.1483
4861631.0,18.5599,-4.3862,26.4416,-0.92,-4.5959,-1.317
4861641.0,18.7322,-4.118,25.2157,-1.0217,-4.4607,-1.4952
4861651.0,18.5024,-3.4955,24.0282,-1.1712,-4.2372,-1.6506
4861661.0,19.1057,-3.2465,23.3674,-1.2462,-3.8254,-1.773
4861671.0,19.1536,-2.6719,23.2716,-1.0972,-3.3842,-1.9353
4861681.0,19.0004,-1.6855,22.3044,-0.8673,-2.9096,-2.0593
4861691.0,19.4409,-0.8236,23.3099,-0.4864,-2.5462,-2.137
4861701.0,18.397,0.2298,23.0226,-0.0415,-2.3025,-2.1928
4861711.0,18.3779,1.1109,22.2278,0.1666,-2.071,-2.237
4861721.0,18.2917,2.059,21.3371,0.29,-1.815,-2.2264
4861731.0,18.6748,2.988,19.5846,0.1378,-1.5266,-2.2519
4861741.0,18.7322,4.1468,18.0906,-0.1681,-1.0472,-2.228
4861751.0,18.6269,4.6256,18.4928,-0.2001,-0.4917,-2.1902
4861761.0,18.6556,5.6407,18.2917,0.0059,0.008,-2.1061
4861771.0,18.7705,6.9623,17.9948,0.2299,0.531,-1.9651
4861781.0,19.2398,7.8913,17.0659,0.4294,1.0828,-1.7209
4861791.0,19.2685,9.1075,15.6293,0.5491,1.7969,-1.4309
4861801.0,18.9717,9.979,14.2503,0.4784,2.7015,-1.0515
4861811.0,18.8759,9.7588,14.1258,0.3336,3.7642,-0.6875
4861821.0,17.9852,9.0405,15.3612,0.273,4.8593,-0.2969
4861831.0,17.8799,7.9009,17.267,0.199,5.9075,-0.0176
4861841.0,18.081,6.3111,20.4369,0.3799,6.7924,0.1639
4861851.0,17.7075,5.0566,23.4249,0.5438,7.4283,0.2011
4861861.0,16.8839,4.6256,26.5086,0.654,7.9035,0.2043
4861871.0,17.7362,4.7692,28.8166,0.6933,8.1536,0.224
4861881.0,16.3955,4.1851,32.6761,0.8221,8.1323,0.2299
4861891.0,15.3612,3.5913,34.917,1.2122,8.0078,0.2059
4861901.0,15.1409,2.9497,35.9226,1.2994,7.9673,0.149
4861911.0,14.3461,2.4325,37.7518,1.4202,7.8912,-0.0239
4861921.0,14.6238,3.0167,37.2538,1.2116,7.7231,-0.2756
4861931.0,12.9383,3.3806,38.968,0.8961,7.4964,-0.5007
4861941.0,12.1051,5.5641,39.9544,0.829,7.175,-0.6173
4861951.0,11.0899,7.6327,40.3088,0.6119,6.8313,-0.5449
4861961.0,10.1801,8.8873,40.4237,0.8328,6.4439,-0.3831
4861971.0,9.1267,9.8162,38.7478,1.0334,6.1688,-0.0905
4861981.0,9.1363,9.73,35.9705,1.0366,6.2848,0.2639
4861991.0,9.4236,7.9583,33.6529,0.9509,6.7616,0.4954
4862001.0,9.6726,7.1922,32.8484,0.638,7.5065,0.647
4862011.0,9.3182,6.2537,34.668,0.4166,8.2696,0.7418
4862021.0,8.3318,4.6543,38.3743,0.6173,8.8528,0.7849
4862031.0,6.857,2.624,41.4101,1.0546,9.2949,0.887
4862041.0,8.2744,0.498,45.193,1.673,9.6839,0.7726
4862051.0,6.7516,-0.8906,48.066,1.8704,9.7909,0.5529
4862061.0,6.7038,-1.0439,51.5232,1.6666,9.9255,0.2799
4862071.0,6.3686,-0.5555,55.7466,1.5687,9.7382,-0.0021
4862081.0,5.2768,0.0766,60.2285,1.4798,9.1694,-0.2315
4862091.0,4.4436,1.0343,64.1838,1.3441,8.2999,-0.39
4862101.0,3.7924,1.9632,67.4303,1.251,7.2538,-0.5193
4862111.0,3.4572,3.1891,69.7096,1.0887,6.0773,-0.5678
4862121.0,3.0358,3.9648,71.1748,0.8274,4.8177,-0.5731
4862131.0,2.7773,4.1468,72.0367,0.8248,3.6178,-0.5241
4862141.0,2.806,4.1659,70.8492,0.696,2.4477,-0.5066
4862151.0,2.2889,4.3383,69.6808,0.1878,1.268,-0.4975
4862161.0,2.1261,4.0031,68.4359,-0.2331,0.3342,-0.5119
4862171.0,1.9345,4.5586,66.6737,-0.4709,-0.3884,-0.5486
4862181.0,2.0303,4.865,66.1566,-0.7215,-1.0988,-0.5694
4862191.0,2.3272,5.5737,64.8158,-0.7588,-1.8996,-0.563
4862201.0,2.2314,6.79,62.0769,-0.9684,-2.5744,-0.4832
4862211.0,2.4421,7.3358,60.1807,-1.1871,-3.0463,-0.3581
4862221.0,2.3176,7.4029,58.2366,-1.367,-3.3816,-0.2352
4862231.0,2.806,7.0102,57.3555,-1.4702,-3.7232,-0.1027
4862241.0,3.0742,6.9432,55.8711,-1.5378,-4.1468,-0.0117
4862251.0,3.3327,6.9049,54.4058,-1.7927,-4.5804,0.0665
4862261.0,3.3998,6.7038,53.1992,-1.9358,-4.946,0.1639
4862271.0,2.7773,6.11,51.686,-1.9534,-5.3328,0.2788
4862281.0,3.7445,5.8706,49.6079,-2.0098,-5.493,0.3507
4862291.0,3.6392,5.6024,47.4722,-1.9906,-5.5521,0.39
4862301.0,4.2521,5.5833,46.4284,-2.1918,-5.3786,0.4193
4862311.0,5.2289,5.5833,45.7101,-2.4605,-5.2349,0.4432
4862321.0,5.4492,5.8993,46.4284,-2.6441,-5.178,0.531
4862331.0,6.1004,5.7269,47.1754,-2.6249,-5.2961,0.6556
4862341.0,6.2249,5.4875,47.635,-2.6015,-5.4813,0.7966
4862351.0,6.7995,4.5107,47.817,-2.4754,-5.7601,0.9158
4862361.0,7.4124,3.486,47.3956,-2.2695,-6.09,0.9876
4862371.0,7.8626,2.7198,46.572,-2.1295,-6.3231,1.028
4862381.0,8.3606,2.0207,45.6431,-1.9555,-6.5088,1.0238
4862391.0,8.6862,1.5802,44.1778,-1.9784,-6.662,1.0206
4862401.0,9.0788,0.7278,43.6415,-2.0103,-6.8579,0.9796
4862411.0,9.7205,0.4501,42.5881,-2.1167,-7.1468,0.9567
4862421.0,10.0173,-0.249,41.9368,-2.2679,-7.4533,0.9211
4862431.0,10.5728,-1.1396,41.0462,-2.2237,-7.7092,0.8615
4862441.0,11.3294,-2.4804,40.0981,-2.0258,-7.821,0.771
4862451.0,10.8314,-2.5474,37.6847,-1.5671,-8.352,0.5981
4862461.0,12.3541,-2.9688,35.7981,-1.7645,-8.119,0.481
4862471.0,13.4171,-4.0318,35.5683,-1.2015,-7.9311,0.307
4862481.0,10.6781,-3.7733,32.6569,-0.7684,-8.2307,0.1442
4862491.0,13.2735,-4.6448,31.3162,-1.0781,-8.0775,0.0341
4862501.0,15.0547,-5.2577,29.1422,-0.6726,-8.0062,-0.2139
4862511.0,18.3779,-6.3303,28.2324,-0.6816,-7.2867,-0.4762
4862521.0,21.1073,-4.2617,22.5342,-0.7279,-7.3958,-0.6651
4862531.0,20.5422,-4.7501,21.1839,-1.2579,-7.3261,-0.803
4862541.0,16.8456,-5.9185,21.4329,-0.8801,-6.6498,-1.0456
4862551.0,18.7131,-5.1811,19.0387,-1.0983,-5.8006,-1.2393
4862561.0,20.1017,-5.7269,20.4848,-1.2297,-5.2722,-1.4617
4862571.0,20.6763,-5.2385,19.6325,-1.1238,-4.7252,-1.7012
4862581.0,21.3467,-4.8842,20.2933,-0.9551,-4.1845,-1.9183
4862591.0,21.8734,-4.0414,19.7091,-0.7439,-3.6663,-2.1146
4862601.0,22.2661,-3.6392,19.9293,-0.5412,-3.2177,-2.2806
4862611.0,22.9077,-3.1316,19.7186,-0.2985,-2.8282,-2.4238
4862621.0,22.8503,-2.4995,18.8376,-0.2171,-2.4339,-2.5893
4862631.0,23.2429,-2.2505,18.8376,-0.1352,-2.0311,-2.7164
4862641.0,23.5111,-0.8811,17.3628,-0.1453,-1.6469,-2.8729
4862651.0,22.946,0.2298,16.7498,-0.6518,-1.0914,-3.0123
4862661.0,22.8311,1.1588,17.334,-0.9179,-0.5837,-3.0804
4862671.0,22.7162,2.9305,17.4585,-1.1132,-0.0931,-3.1022
4862681.0,22.5534,4.1468,17.9374,-1.2994,0.4092,-3.0288
4862691.0,22.2948,5.4684,18.5982,-1.2191,0.9482,-2.8984
4862701.0,21.7872,6.4165,19.3739,-1.0626,1.4782,-2.7265
4862711.0,21.9692,7.4316,19.4792,-0.9514,1.8943,-2.4951
4862721.0,21.3754,8.0349,19.9772,-0.9727,2.3966,-2.2429
4862731.0,20.7242,7.9775,20.6093,-0.7599,2.8931,-1.9651
4862741.0,20.4848,8.0254,21.1169,-0.4927,3.4007,-1.7118
4862751.0,20.2645,7.9966,21.4042,-0.4049,3.91,-1.4936
4862761.0,20.1975,7.92,22.4576,-0.3145,4.3628,-1.3244
4862771.0,19.4984,8.5617,23.875,-0.2602,4.8114,-1.0839
4862781.0,18.6843,8.2935,25.2636,-0.0654,5.2253,-0.8195
4862791.0,17.8799,7.9583,26.1064,0.2112,5.5324,-0.555
4862801.0,17.9086,6.8378,27.6004,0.4778,5.8202,-0.3246
4862811.0,17.9469,5.5929,28.4527,0.7189,6.0943,-0.1761
4862821.0,17.3436,4.0031,28.6634,0.8642,6.3188,-0.1479
4862831.0,16.7881,2.7007,29.8701,0.9046,6.5014,-0.2075
4862841.0,16.7977,2.0111,30.3489,0.8205,6.7488,-0.3672
4862851.0,15.9645,1.7047,31.3066,0.6103,6.9813,-0.5736
4862861.0,14.7004,2.4325,33.5954,0.4624,7.0952,-0.8136
4862871.0,13.6469,3.9552,35.2139,0.4448,6.9632,-0.9631
4862881.0,12.5169,5.2481,36.593,0.5832,6.7483,-0.9754
4862891.0,12.1434,7.0006,36.411,0.9073,6.5599,-0.9525
4862901.0,11.722,8.5712,34.668,0.9381,6.4785,-0.8168
4862911.0,10.6781,9.6151,33.5284,0.9264,6.6126,-0.6247
4862921.0,10.3238,10.2568,32.6473,0.7008,7.0425,-0.3267
4862931.0,10.0748,10.1801,33.1453,0.6018,7.6656,0.0027
4862941.0,9.8354,9.5002,34.7447,0.6135,8.4186,0.3379
4862951.0,9.3565,7.7093,37.6943,0.8727,9.163,0.5853
4862961.0,9.8833,6.4356,41.6495,1.3292,9.6871,0.7338
4862971.0,9.5002,5.43,45.1834,1.55,9.8233,0.7886
4862981.0,7.9966,3.7062,49.7802,1.7911,9.5589,0.7854
4862991.0,8.418,2.739,51.5328,1.8805,9.1981,0.7162
4863001.0,8.5904,1.7047,54.1473,1.8438,8.7905,0.5241
4863011.0,8.7532,1.3599,56.0722,1.8384,8.293,0.2458
4863021.0,8.6574,2.0494,58.6292,1.8283,7.5517,-0.0149
4863031.0,8.2839,3.8595,59.5294,1.7214,6.7392,-0.2176
4863041.0,8.2552,5.7844,59.4528,1.5043,5.9128,-0.2629
4863051.0,7.5561,7.5274,59.223,1.1792,5.1668,-0.2017
4863061.0,6.924,8.3989,58.6867,0.9073,4.5746,-0.0511
4863071.0,6.4069,8.5712,58.0067,0.6268,4.2074,0.1107
4863081.0,6.1675,8.2361,59.1655,0.4353,3.8663,0.2677
4863091.0,6.1483,7.2305,59.7784,0.306,3.4412,0.381
4863101.0,5.9472,6.9528,60.468,0.1133,2.8681,0.4273
4863111.0,5.7461,6.857,61.1383,-0.1894,2.2684,0.4768
4863121.0,5.612,6.7229,62.7377,-0.2368,1.6203,0.514
4863131.0,5.5162,6.9336,62.3642,-0.2464,0.9195,0.5587
4863141.0,5.43,7.0485,62.0769,-0.1463,0.2373,0.6353
4863151.0,5.363,6.9815,60.4105,-0.0527,-0.2528,0.7396
4863161.0,5.5641,6.541,59.3762,-0.0069,-0.6428,0.7992
4863171.0,5.3056,6.3782,57.662,-0.0745,-1.0483,0.8253
4863181.0,4.7118,6.1675,57.3555,-0.2714,-1.5405,0.8615
4863191.0,4.7309,5.3056,56.5989,-0.3565,-1.9672,0.8684
4863201.0,5.2098,4.8746,55.1145,-0.6987,-2.3801,0.7971
4863211.0,5.1906,4.7118,55.0666,-1.0658,-2.8207,0.7168
4863221.0,5.1427,5.2194,54.2526,-1.3058,-3.3672,0.6412
4863231.0,5.4492,5.9664,53.8791,-1.591,-3.8679,0.6476
4863241.0,5.5929,6.1196,53.0555,-1.6219,-4.3144,0.6619
4863251.0,5.8035,6.3494,51.3796,-1.649,-4.706,0.737
4863261.0,5.7557,6.4931,50.0101,-1.6788,-5.0311,0.8141
4863271.0,6.426,6.3015,48.0468,-1.7219,-5.2237,0.903
4863281.0,6.8283,6.0621,46.9455,-1.8816,-5.3451,0.9674
4863291.0,7.0964,5.7269,45.7101,-2.046,-5.4611,1.0493
4863301.0,7.5657,5.4205,45.2313,-2.1487,-5.5712,1.0914
4863311.0,7.7668,4.7788,44.7716,-2.1151,-5.6446,1.1717
4863321.0,7.9871,3.486,43.948,-1.9938,-5.7559,1.2435
4863331.0,9.2033,2.4134,43.1531,-1.8656,-5.791,1.2207
4863341.0,9.8354,1.494,42.5306,-1.789,-5.8032,1.1451
4863351.0,9.9982,1.1301,42.1284,-1.6139,-5.7724,1.0834
4863361.0,10.6686,0.8715,41.5921,-1.5149,-5.8192,0.9759
4863371.0,11.2432,0.8332,41.2473,-1.3441,-5.8421,0.9605
4863381.0,11.9519,0.5171,41.6591,-1.0041,-5.8687,0.903
4863391.0,12.469,0.5171,40.9025,-0.8024,-5.9655,0.8636
4863401.0,12.6893,-0.0383,40.9504,-0.7109,-6.1267,0.8588
4863411.0,13.0819,-1.0534,40.893,-0.4555,-6.1991,0.821
4863421.0,13.6469,-2.4134,40.8451,-0.1937,-6.3875,0.6939
4863431.0,14.1928,-3.2178,38.9106,-0.3374,-6.6775,0.506
4863441.0,14.1066,-4.6735,38.2498,-0.7269,-6.918,0.3081
4863451.0,14.6046,-6.5697,37.6368,-0.8833,-7.0659,0.0601
4863461.0,15.6293,-8.6766,36.5355,-0.9631,-7.0606,-0.2868
4863471.0,16.7498,-10.477,36.4781,-0.8892,-6.9238,-0.7801
4863481.0,18.1097,-10.8793,37.0335,-0.5204,-6.7658,-1.3856
4863491.0,20.6476,-10.2568,37.474,-0.0064,-6.868,-2.0412
4863501.0,21.8734,-7.5465,34.85,-0.2176,-7.373,-2.6776
4863511.0,20.4178,-4.3191,32.7718,-1.2079,-7.8737,-3.1065
4863521.0,19.1632,-2.1069,33.4997,-1.1685,-8.0988,-3.4023
4863531.0,14.4897,3.0742,28.1654,-0.8838,-8.9964,-3.4353
4863541.0,15.773,4.8554,26.0872,-1.3218,-9.0741,-3.2464
4863551.0,17.5734,5.8131,22.8407,-0.6258,-8.417,-3.1256
4863561.0,17.0659,6.8857,18.0523,-0.6976,-7.6214,-2.8974
4863571.0,17.9852,7.1443,14.9494,-0.2586,-6.8233,-2.6978
4863581.0,20.0921,8.6479,9.5193,-0.373,-5.7979,-2.4882
4863591.0,21.0307,8.5808,7.5561,-0.4832,-4.7363,-2.2764
4863601.0,21.5191,9.2512,4.7022,-0.473,-3.5205,-2.0603
4863611.0,20.9349,9.4906,3.3902,-0.845,-2.1199,-1.7522
4863621.0,20.9636,8.7628,3.984,-0.9653,-0.7934,-1.5197
4863631.0,21.3563,8.4946,4.9608,-0.9184,0.6311,-1.4191
4863641.0,21.8734,8.5521,7.0198,-0.7035,1.9129,-1.3266
4863651.0,21.9022,9.6343,9.347,-0.3533,2.958,-1.2031
4863661.0,21.7681,10.6973,11.5496,-0.1256,3.7253,-0.9966
4863671.0,21.4712,11.6358,13.398,0.0223,4.3585,-0.6423
4863681.0,20.9445,11.2432,15.0739,0.2677,4.9513,-0.2192
4863691.0,20.7912,9.3278,16.8073,0.5044,5.4781,0.1256
4863701.0,21.0307,7.3646,18.1385,0.763,5.8974,0.3022
4863711.0,20.1879,5.7174,18.1097,0.704,6.3635,0.4028
4863721.0,19.8144,3.1603,19.9772,0.5497,6.9356,0.3714
4863731.0,18.828,-2.2793,21.4329,0.5444,7.5544,0.1527
4863741.0,20.2645,-2.0782,25.0434,0.6486,7.9519,-0.3097
4863751.0,19.2973,-1.5706,28.2612,0.8487,8.1227,-0.8179
4863761.0,19.3164,-0.3256,31.4598,1.0445,8.2105,-1.2595
4863771.0,17.8799,0.9194,33.9019,1.2143,8.0785,-1.6778
4863781.0,16.6732,3.8211,35.0415,1.3079,7.7066,-1.9427
4863791.0,16.2135,5.8993,35.9609,1.1834,7.3293,-2.0438
4863801.0,16.2901,8.2073,36.1812,1.1621,6.9803,-2.0811
4863811.0,15.4474,10.659,35.1086,0.9035,6.7227,-1.9518
4863821.0,13.8385,11.7124,35.7598,0.5624,6.47,-1.7379
4863831.0,12.8521,12.469,35.1852,0.224,6.3018,-1.4713
4863841.0,12.0476,13.0149,34.3903,-0.2826,6.1858,-1.1973
4863851.0,11.0804,13.2543,34.783,-0.8003,6.1528,-0.945
4863861.0,10.8026,13.9151,35.1565,-1.1738,6.0342,-0.7072
4863871.0,10.2855,14.9111,35.4438,-1.549,5.8958,-0.3789
4863881.0,9.3374,15.4857,36.2291,-1.7842,5.7074,0.0346
4863891.0,8.983,15.0356,36.0663,-1.8539,5.5803,0.4858
4863901.0,8.3797,12.7755,36.0854,-1.8379,5.5563,0.9248
4863911.0,8.5042,9.7205,36.842,-1.4697,5.6925,1.2313
4863921.0,8.6766,7.0006,35.9609,-1.0163,5.9219,1.367
4863931.0,9.3565,4.7118,35.1373,-0.8189,6.2906,1.3537
4863941.0,9.8162,3.2944,35.099,-0.564,6.8855,1.2201
4863951.0,9.5672,2.9592,35.1852,-0.3177,7.6305,0.9663
4863961.0,8.2265,3.1603,36.7654,-0.1517,8.3329,0.7907
4863971.0,6.8378,2.9209,39.9927,0.223,8.9432,0.6662
4863981.0,6.2249,2.8635,43.1244,0.6268,9.3631,0.4624
4863991.0,5.1523,3.5817,45.6718,0.8152,9.4865,0.2426
4864001.0,3.8403,4.1372,49.8185,1.1206,9.3561,0.0495
4864011.0,3.2465,5.6886,52.2511,1.6128,9.0911,-0.0798
4864021.0,2.4708,7.7476,52.9693,1.9113,8.8506,-0.1511
4864031.0,1.4844,9.9216,54.5878,2.0923,8.6282,-0.1298
4864041.0,1.1205,12.3253,56.7234,2.3615,8.3765,-0.0186
4864051.0,0.1915,14.3269,57.5853,2.4099,7.9232,0.2203
4864061.0,-0.8906,15.4761,58.6388,2.0896,7.3086,0.5513
4864071.0,-1.4269,15.5049,59.8742,1.8267,6.5583,0.8961
4864081.0,-2.1069,15.2559,59.8359,1.3909,5.8868,1.2473
4864091.0,-2.3559,13.1681,61.2341,1.0578,5.3584,1.5208
4864101.0,-2.2697,11.0038,61.9715,0.9908,4.9226,1.6229
4864111.0,-2.1931,10.1131,62.5174,0.6279,4.4469,1.5979
4864121.0,-2.2697,10.5728,64.653,0.2554,3.7402,1.5564
4864131.0,-1.6951,11.3198,66.8174,0.0309,2.7468,1.5884
4864141.0,-1.6855,11.971,67.7751,-0.1383,1.5846,1.715
4864151.0,-1.6759,12.3732,66.9802,-0.2533,0.48,1.8933
4864161.0,-1.063,11.9806,65.5915,-0.2943,-0.4502,2.0635
4864171.0,-1.1205,11.3677,63.3123,-0.3592,-1.2563,2.2189
4864181.0,-1.1971,10.3525,61.1766,-0.5534,-1.9401,2.3413
4864191.0,-0.8332,9.2225,58.9931,-0.6917,-2.4823,2.4339
4864201.0,-0.8715,7.5944,56.9533,-0.8642,-2.9032,2.4504
4864211.0,-0.2873,6.0621,54.8847,-1.2707,-3.247,2.3647
4864221.0,0.431,4.9704,53.8983,-1.7746,-3.587,2.1689
4864231.0,0.7374,4.6831,53.6684,-2.1018,-3.9046,1.9486
4864241.0,1.2258,5.2002,54.0132,-2.2716,-4.3224,1.7581
4864251.0,1.7334,6.1004,53.3428,-2.3727,-4.8279,1.6511
4864261.0,2.0303,7.0773,52.3468,-2.5579,-5.3834,1.6017
4864271.0,2.5474,7.604,50.8912,-2.6792,-5.9166,1.6565
4864281.0,2.7485,7.7572,49.6845,-2.7186,-6.3609,1.7634
4864291.0,2.8347,7.2592,47.4243,-2.6771,-6.6791,1.8794
4864301.0,3.0837,6.1866,45.2887,-2.6132,-6.8664,2.0188
4864311.0,3.5721,4.3479,42.9616,-2.6808,-6.8797,2.0667
4864321.0,4.3766,2.2218,41.8698,-2.7249,-6.8052,2.0023
4864331.0,5.2385,1.1779,40.5674,-2.941,-6.7929,1.8283
4864341.0,6.3303,0.2969,40.213,-3.189,-6.6301,1.5931
4864351.0,6.9815,0.6033,39.6192,-3.1778,-6.5737,1.3553
4864361.0,7.039,1.0534,40.0598,-3.1985,-6.4391,1.2031
4864371.0,6.9432,0.249,40.893,-2.8058,-6.3508,1.1121
4864382.0,8.0445,-0.5363,41.7166,-2.2993,-6.2944,1.0179
4864391.0,9.2225,-1.3503,41.6974,-1.7624,-6.3284,0.8732
4864401.0,10.0365,-0.6416,39.9066,-1.566,-6.4657,0.6875
4864411.0,10.2855,-0.3448,38.5945,-1.7778,-6.5572,0.5827
4864421.0,10.2568,-0.182,37.1389,-1.8523,-6.5535,0.5146
4864431.0,10.6973,-0.6225,35.9226,-1.8363,-6.33,0.4853
4864441.0,11.9997,-1.5514,35.415,-1.6341,-6.0028,0.4252
4864451.0,13.3405,-2.9592,36.593,-1.26,-5.5095,0.2618
4864461.0,14.7674,-3.5051,37.2442,-0.8184,-5.3174,0.0569
4864471.0,15.4474,-3.802,37.5124,-0.8918,-5.303,-0.2006
4864481.0,15.0547,-4.549,39.6097,-0.7444,-5.5318,-0.4699
4864491.0,15.1026,-4.0989,39.4469,-0.7061,-5.8591,-0.704
4864501.0,15.1122,-3.7541,38.7956,-0.6327,-6.1097,-0.8993
4864511.0,15.9358,-3.9744,38.0391,-0.2086,-6.1262,-1.0711
4864521.0,16.5104,-3.7254,37.8763,0.4603,-6.0496,-1.268
4864531.0,17.1042,-2.8252,35.7981,0.7019,-6.1448,-1.4175
4864541.0,16.9605,-1.9537,33.9977,0.3799,-6.2869,-1.5506
4864551.0,17.7075,-1.7334,32.7335,0.0569,-6.404,-1.6575
4864561.0,18.8376,-0.7374,31.115,-0.2091,-6.3274,-1.8012
4864571.0,17.0084,0.0479,29.2284,-0.5481,-6.4306,-1.8831
4864581.0,17.832,-0.1532,29.2093,-0.7604,-5.9793,-1.9145
4864591.0,19.0483,0.0958,26.8629,-0.6247,-5.5941,-1.9827
4864601.0,19.9102,0.3256,26.4416,-0.5151,-5.3467,-2.0949
4864611.0,20.5997,1.5514,25.1966,-0.6731,-5.1418,-2.163
4864621.0,21.701,3.1316,23.0035,-0.9839,-5.1397,-2.1716
4864631.0,19.7665,3.9361,24.1144,-0.7466,-5.1328,-2.1136
4864641.0,19.757,5.3917,21.4999,-0.7412,-4.7262,-1.9901
4864651.0,21.0211,5.0278,20.5039,-0.6449,-4.3591,-1.8954
4864661.0,21.3946,6.1387,17.4489,-0.6151,-4.0159,-1.8331
4864671.0,21.7394,6.6272,14.9111,-0.8375,-3.5322,-1.7554
4864681.0,21.5861,7.6614,12.9766,-1.06,-3.0149,-1.6682
4864691.0,21.3084,8.6287,10.9942,-1.3436,-2.3871,-1.5165
4864701.0,21.2988,9.1267,9.0597,-1.6038,-1.6208,-1.3452
4864711.0,21.2509,9.4715,8.3222,-1.6304,-0.6364,-1.0956
4864721.0,21.385,9.8067,7.3358,-1.5596,0.4523,-0.8269
4864731.0,21.4137,9.5289,7.4508,-1.5804,1.5969,-0.5396
4864741.0,20.887,8.8585,8.1594,-1.5107,2.7154,-0.2868
