time_ms,ax,ay,az,gx,gy,gz
4828121.0,11.9997,1.0439,39.9736,0.2756,0.1261,0.1155
4828131.0,11.8082,1.1205,39.8874,0.2118,0.2692,0.1517
4828141.0,11.8082,0.8715,40.1843,0.1447,0.2623,0.1442
4828151.0,11.7699,1.0439,40.7972,0.1511,0.2081,0.1681
4828161.0,11.7412,1.1013,40.6631,0.1751,0.2357,0.19
4828171.0,11.7507,0.8428,40.5961,0.1884,0.1969,0.224
4828181.0,11.7699,0.747,40.5003,0.241,0.1479,0.2139
4828191.0,11.7603,0.8523,39.8682,0.207,0.1559,0.2112
4828201.0,12.0476,0.747,39.5426,0.1586,0.2097,0.1932
4828211.0,11.904,0.9864,38.5945,0.1639,0.2841,0.1586
4828221.0,12.038,1.3216,38.1732,0.1612,0.4145,0.1415
4828231.0,12.2104,1.9441,37.3112,0.1383,0.6055,0.1469
4828241.0,12.2009,2.3942,36.6026,0.1107,0.9519,0.2208
4828251.0,12.0955,2.5953,37.1005,0.0857,1.3393,0.3171
4828261.0,11.8944,2.0686,38.5371,-0.0857,1.6091,0.4145
4828271.0,11.4347,1.1684,41.4388,-0.1453,1.6559,0.4464
4828281.0,11.2911,0.498,43.5362,-0.0415,1.3979,0.4305
4828291.0,11.5209,-0.0192,44.0725,0.041,1.1249,0.3698
4828301.0,11.722,-0.0862,43.8713,0.1889,1.0993,0.3118
4828311.0,11.4634,0.2682,44.4268,0.2065,1.0099,0.2703
4828321.0,11.5305,-0.0575,44.8578,0.1048,0.8242,0.2293
4828331.0,11.3964,0.2394,45.2313,0.0761,0.738,0.1676
4828341.0,11.0804,0.316,46.4762,0.1219,0.6151,0.1453
4828351.0,11.0612,0.8045,46.9647,0.2575,0.3927,0.1474
4828361.0,11.157,0.8811,47.2328,0.2788,0.074,0.1602
4828371.0,11.1282,0.7949,46.8689,0.1703,-0.232,0.1442
4828381.0,10.9176,0.7566,46.4954,0.0192,-0.5901,0.141
4828391.0,11.0325,0.5746,46.0453,-0.0037,-0.8572,0.1405
4828401.0,11.4347,0.565,44.9918,0.0149,-1.0334,0.1054
4828411.0,11.5592,1.0439,43.335,-0.0059,-1.1212,0.0681
4828421.0,11.2527,1.561,42.3678,-0.133,-1.1382,0.0766
4828431.0,11.2049,1.6951,41.1324,-0.3092,-1.1478,0.1086
4828441.0,11.3485,2.1452,40.2034,-0.4193,-1.035,0.1612
4828451.0,11.406,2.2793,40.3088,-0.4406,-0.8248,0.2325
4828461.0,11.2623,2.0686,41.3431,-0.4337,-0.7556,0.3129
4828471.0,11.0516,2.2027,41.7453,-0.4581,-0.928,0.3805
4828481.0,11.3294,2.0877,40.9983,-0.4055,-1.0456,0.4571
4828491.0,11.2527,1.6664,40.0119,-0.3704,-1.0685,0.531
4828501.0,11.4443,1.1013,39.9544,-0.39,-1.0382,0.5827
4828511.0,11.7795,0.7853,39.6576,-0.2639,-1.0781,0.5741
4828521.0,11.7603,0.6416,38.1253,-0.215,-1.0435,0.5603
4828531.0,11.8752,0.68,37.1484,-0.2602,-0.8386,0.5678
4828541.0,11.722,0.4693,37.5698,-0.1458,-0.6055,0.5438
4828551.0,11.5305,0.5842,37.4549,0.074,-0.4688,0.5619
4828561.0,11.8848,0.996,37.1197,0.017,-0.415,0.5561
4828571.0,12.287,1.1684,36.6026,-0.2097,-0.3448,0.5906
4828581.0,11.9614,0.8236,36.9665,-0.423,-0.2219,0.588
4828591.0,11.7507,0.6991,37.1197,-0.6098,-0.1538,0.5449
4828601.0,12.287,1.1492,37.1867,-0.7407,-0.1362,0.4901
4828611.0,12.4211,1.6376,37.3687,-0.6891,-0.1543,0.5071
4828621.0,13.465,1.6281,37.5124,-0.5662,0.0442,0.5231
4828631.0,13.2639,1.7813,38.1636,-0.1501,0.0968,0.4778
4828641.0,12.9383,2.5283,37.9146,-0.1101,0.058,0.4837
4828651.0,12.0668,3.0837,37.8954,-0.3586,-0.0835,0.5672
4828661.0,12.0668,2.9784,38.0678,-0.4486,-0.232,0.6258
4828671.0,12.4977,3.1603,37.9816,-0.2442,-0.2714,0.7157
4828681.0,12.1625,3.2657,36.7366,-0.1314,-0.2214,0.7764
4828691.0,12.0476,3.5243,35.8556,-0.2086,-0.1681,0.8285
4828701.0,12.651,3.6488,35.0224,-0.3565,-0.1165,0.9003
4828711.0,13.0532,3.8307,34.6297,-0.5965,-0.0064,0.9727
4828721.0,13.0915,3.6296,34.1509,-0.8328,0.008,1.0355
4828731.0,13.9151,3.7254,33.1357,-1.0669,0.1463,1.0791
4828741.0,14.6525,3.7828,32.8006,-1.3042,0.3645,1.1047
4828751.0,14.2886,4.051,32.8101,-1.4112,0.6593,1.1424
4828761.0,14.0396,4.0989,33.854,-1.0999,1.0578,1.1754
4828771.0,13.2639,4.8171,33.8732,-0.7854,1.4457,1.2553
4828781.0,9.3182,6.6176,34.8404,-0.5768,1.9204,1.5607
4828791.0,7.9775,6.3398,38.6616,0.4688,2.4972,2.129
4828801.0,10.3908,4.0127,36.8132,0.8014,2.544,2.569
4828811.0,11.7316,-0.498,38.2498,-0.1101,2.3892,2.6893
4828821.0,12.9,-3.7828,40.0406,-0.3496,2.221,2.4344
4828831.0,13.7523,-4.9225,41.2569,-0.6268,2.0912,1.9997
4828841.0,14.4801,-4.7884,41.9464,-1.0041,1.7267,1.4873
4828851.0,14.9111,-4.1084,42.3199,-1.3952,1.4069,1.119
4828861.0,13.1681,-2.1261,41.956,-1.4149,1.2169,0.8918
4828871.0,13.5991,0.1915,39.7246,-1.9842,1.4692,0.9285
4828881.0,14.6334,0.0383,42.6647,-2.1258,1.8608,0.9998
4828891.0,18.148,0.5842,43.8426,-1.8331,2.2397,1.2324
4828901.0,23.9803,-15.2271,51.8776,-0.9727,3.9323,1.309
4828911.0,16.4913,-16.6828,57.4513,0.7093,3.1751,0.39
4828921.0,23.3866,-11.9423,57.7194,0.1932,3.214,0.0208
4828931.0,19.5846,-15.4378,65.965,1.2851,3.5439,-0.497
4828941.0,15.7922,-9.1171,69.9681,1.616,3.3528,-0.9684
4828951.0,14.2503,-4.9033,73.5307,0.9104,2.5988,-1.292
4828961.0,13.3692,-2.5666,78.4508,-0.1799,2.7861,-1.3654
4828971.0,12.9574,7.5369,78.4508,-0.5444,-0.4204,-1.4426
4828981.0,11.4251,11.9806,78.4508,-0.9562,-1.6437,-0.8668
4828991.0,8.6862,11.7412,78.4508,-2.0524,-2.5068,-0.2432
4829001.0,7.6423,8.9926,78.4508,-2.2157,-4.367,0.1761
4829011.0,7.6998,8.6766,78.4508,-2.1045,-6.1161,0.48
4829021.0,7.2209,8.2552,78.4508,-2.3424,-7.3698,0.796
4829031.0,6.4931,6.5505,78.4508,-1.9912,-8.7102,1.0456
4829041.0,6.1962,4.4245,74.1819,-1.8826,-10.5103,1.2435
4829051.0,6.3398,3.122,69.269,-2.3615,-11.939,1.3606
4829061.0,5.4492,3.0263,65.1893,-1.972,-12.7372,1.5181
4829071.0,4.4053,2.8635,58.6388,-2.1173,-13.4071,1.7373
4829081.0,3.7158,3.371,54.607,-2.1029,-13.9445,1.9757
4829091.0,2.7581,1.0822,47.7978,-2.3456,-14.4485,2.328
4829101.0,3.3232,-0.8715,43.2776,-2.4185,-15.0194,2.4179
4829111.0,3.4668,-0.2203,35.53,-2.4334,-15.3397,2.5068
4829121.0,3.5913,-0.7374,29.7456,-2.775,-15.311,2.5605
4829131.0,2.9401,-1.6089,23.8079,-2.9048,-15.4121,2.5084
4829141.0,3.7541,3.5626,17.9661,-3.3124,-15.0694,2.46
4829151.0,0.996,2.5953,10.8218,-4.772,-15.5457,2.7718
4829161.0,2.3846,-1.1684,2.5283,-5.6803,-15.7085,2.8676
4829171.0,7.2018,-2.0782,-10.0269,-6.7706,-14.7847,2.6973
4829181.0,6.0813,-1.7047,-16.3668,-7.4246,-13.0889,2.6345
4829191.0,4.9512,-2.4421,-19.9772,-7.6034,-11.9039,2.601
4829201.0,9.0597,-5.1427,-21.7394,-7.1713,-10.2373,2.4733
4829211.0,8.1211,-7.7285,-22.697,-5.4334,-8.9688,2.2711
4829221.0,4.9321,-7.604,-34.9553,-4.9322,-8.8522,2.1013
4829231.0,8.8011,-12.469,-37.5315,-3.8844,-6.3401,1.7193
4829241.0,4.616,-13.0723,-43.6128,-2.1535,-4.2133,1.1643
4829251.0,4.0797,-13.6278,-47.6063,-1.0488,-1.8975,0.6928
4829261.0,5.6695,-14.8919,-47.3573,0.6481,0.9589,0.0942
4829271.0,3.7254,-13.8002,-48.3629,1.5373,3.5657,-0.4337
4829281.0,4.4149,-16.9797,-49.9814,1.6394,5.6207,-1.0818
4829291.0,6.3207,-18.5215,-47.8553,2.2072,8.6772,-2.2711
4829301.0,4.7405,-13.714,-47.0413,3.0016,11.7884,-3.1464
4829311.0,3.3232,-9.3757,-43.6607,3.2943,14.6922,-3.5316
4829321.0,2.0399,-5.8419,-38.968,3.5907,17.4357,-3.497
4829331.0,0.2777,-4.4341,-29.4008,4.019,17.4357,-3.4502
4829341.0,-1.312,-4.5394,-12.7755,4.6347,17.4357,-3.4433
4829351.0,0.0192,-3.1795,5.1332,5.3525,17.4357,-3.5045
4829361.0,-1.2258,-0.2203,24.1048,5.3084,17.4357,-3.5471
4829371.0,-2.6145,1.561,42.0039,2.7441,17.4357,-3.2491
4829381.0,0.2203,-4.549,57.3842,2.7931,17.4357,-3.2219
4829391.0,1.5706,-7.6231,60.5158,2.1093,17.4357,-3.356
4829401.0,2.0494,-8.3701,67.0376,3.1469,17.4357,-3.7918
4829411.0,0.6512,-1.8196,69.1445,2.9804,17.4357,-3.9898
4829421.0,-2.9688,8.9639,78.4508,3.82,17.4357,-3.7487
4829431.0,-7.5369,19.5175,78.4508,3.9531,17.4357,-2.9867
4829441.0,-6.2345,27.7536,78.4508,4.6299,17.4357,-1.4234
4829451.0,-8.2839,27.5908,78.4508,5.6085,17.4357,-0.1027
4829461.0,-9.232,23.9133,78.4508,5.7064,15.8836,1.0254
4829471.0,-8.3222,16.1273,78.4508,5.9075,13.6689,1.5889
4829481.0,-7.9009,8.2935,78.4508,4.9173,11.1158,1.6432
4829491.0,-7.1922,0.7853,78.4508,3.3034,7.9354,1.1967
4829501.0,-5.794,-3.0167,78.4508,1.0648,3.8945,0.5044
4829511.0,-3.1699,-3.0933,78.4508,-0.8961,-0.8115,-0.1538
4829521.0,-2.9975,2.739,78.4508,-2.2631,-5.89,-0.5279
4829531.0,-8.0828,13.2926,78.4508,-3.2592,-10.4337,-0.3187
4829541.0,-13.2926,21.7394,78.4508,-3.6588,-14.3207,0.5624
4829551.0,-13.8672,23.5111,78.4508,-4.2457,-17.4363,1.7214
4829561.0,-14.212,20.4561,78.4508,-3.571,-17.4363,2.7931
4829571.0,-15.1601,17.1616,78.4508,-3.4305,-17.4363,3.7173
4829581.0,-15.9454,11.2527,78.4508,-3.6705,-17.4363,4.3862
4829591.0,-15.7155,4.0989,67.2866,-3.5327,-17.4363,4.6491
4829601.0,-15.2367,-0.6895,52.6341,-3.7455,-17.4363,4.516
4829611.0,-14.71,-5.4971,39.3224,-4.0999,-17.4363,4.1335
4829621.0,-11.5975,-6.3877,27.179,-4.4346,-17.4363,3.6013
4829631.0,-14.4706,-6.5793,14.3461,-4.9263,-17.4363,3.1075
4829641.0,-15.8209,-6.7133,4.2713,-5.9176,-17.4363,2.627
4829651.0,-16.2806,-7.3454,-8.8394,-6.9744,-17.4363,2.163
4829661.0,-13.8864,-9.2608,-23.6356,-7.9391,-17.4363,1.6267
4829671.0,-15.8209,-13.2926,-39.6767,-8.9076,-17.4363,0.8418
4829681.0,-14.0013,-15.4953,-50.2687,-9.056,-17.4363,-0.1825
4829691.0,-11.6837,-14.8153,-62.3929,-8.9214,-17.4363,-1.2425
4829701.0,-11.7029,-11.4826,-72.0176,-7.5603,-16.5742,-2.1226
4829711.0,-11.4156,-8.5138,-78.4532,-6.3646,-12.478,-2.6233
4829721.0,-9.5385,-7.106,-78.4532,-3.3465,-7.7108,-2.9224
4829731.0,-10.0748,-5.4013,-78.4532,-2.2327,-2.5611,-2.7978
4829741.0,-12.1051,-2.6432,-78.4532,-0.5555,3.4837,-3.0272
4829751.0,-13.4171,-2.2889,-78.4532,0.414,8.9821,-2.8495
4829761.0,-14.7387,-0.9385,-78.4532,1.1238,14.7496,-2.6696
4829771.0,-18.1959,-3.055,-76.624,1.3431,17.4357,-2.5791
4829781.0,-19.2111,-5.4205,-58.7154,2.2248,17.4357,-2.8574
4829791.0,-21.1935,-3.1795,-36.5642,3.8717,17.4357,-3.2172
4829801.0,-22.4576,0.1628,-16.769,5.7362,17.4357,-3.5614
4829811.0,-20.5231,4.5873,4.4724,7.7151,17.4357,-3.6897
4829821.0,-18.4066,10.5153,29.2955,6.28,17.4357,-3.2704
4829831.0,-13.0053,8.667,59.7497,5.2583,17.4357,-2.8516
4829841.0,-10.9176,2.6528,78.4508,1.6623,17.4357,-2.4169
4829851.0,-2.0303,-7.0294,78.4508,0.7253,17.4357,-2.5855
4829861.0,2.6815,-7.0102,78.4508,0.4629,17.4357,-2.9037
4829871.0,4.1755,-3.5913,78.4508,1.8422,17.4357,-3.1698
4829881.0,4.6639,8.9352,78.4508,4.1718,17.4357,-3.0724
4829891.0,2.0016,20.7051,78.4508,5.3669,17.4357,-2.2785
4829901.0,2.2601,26.3171,78.4508,6.4253,16.2486,-1.1142
4829911.0,-0.1053,34.0551,78.4508,6.4652,12.7643,0.6071
4829921.0,3.2657,22.1799,78.4508,5.948,9.3412,1.6001
4829931.0,3.0071,15.9741,78.4508,4.0425,5.1514,2.1726
4829941.0,3.5721,4.6926,78.4508,2.6047,0.1873,2.2556
4829951.0,4.5394,2.4325,78.4508,0.5268,-5.0412,2.0417
4829961.0,3.7158,2.7198,78.4508,-1.906,-10.2873,1.8166
4829971.0,1.2641,9.1746,78.4508,-3.5205,-14.7608,1.7427
4829981.0,-1.4653,15.0164,78.4508,-4.639,-17.4363,2.0976
4829991.0,-3.2274,17.2957,78.4508,-4.4666,-17.4363,2.6398
4830001.0,-4.9033,16.6828,78.4508,-3.4566,-17.4363,3.273
4830011.0,-5.5162,13.2351,65.6777,-2.5259,-17.4363,3.8578
4830021.0,-5.5545,7.5657,51.1401,-1.7682,-17.4363,4.2425
4830031.0,-4.8363,2.1452,39.6384,-1.7006,-17.4363,4.3357
4830041.0,-4.2425,-1.9058,32.0631,-1.9358,-17.4363,4.1776
4830051.0,-4.9129,-3.0742,23.7984,-2.8766,-17.4363,3.8871
4830061.0,-5.4396,-3.8116,16.8264,-4.2516,-17.4363,3.6141
4830071.0,-6.9432,-5.9759,9.1075,-5.5531,-17.4363,3.3076
4830081.0,-8.7053,-9.9695,-1.0343,-6.9659,-17.4363,2.8042
4830091.0,-10.2376,-10.9463,-17.9948,-8.5686,-17.4363,2.1093
4830101.0,-11.9997,-12.3062,-38.8052,-10.315,-17.4363,1.2835
4830111.0,-11.6071,-13.1298,-52.8544,-10.5529,-17.4363,0.3129
4830121.0,-13.7044,-9.9311,-70.0639,-10.1053,-16.7546,-0.497
4830131.0,-11.0133,-8.849,-78.4532,-8.6399,-13.1943,-1.0903
4830141.0,-13.5991,-7.7476,-78.4532,-5.4845,-8.9453,-1.4692
4830151.0,-12.4403,-6.3686,-78.4532,-3.6141,-3.9552,-1.5048
4830161.0,-12.9478,-7.422,-78.4532,-0.3916,2.4775,-1.8039
4830171.0,-15.0739,-6.5027,-78.4532,1.3984,8.6851,-1.964
4830181.0,-17.018,-5.2577,-78.4532,3.1879,15.0434,-2.1865
4830191.0,-20.2933,-4.4915,-78.4532,3.8977,17.4357,-2.3424
4830201.0,-22.7832,-3.735,-61.2437,4.831,17.4357,-2.5243
4830211.0,-25.7137,-1.7238,-44.5226,5.0955,17.4357,-2.751
4830221.0,-25.9436,-2.1548,-19.8527,5.1892,17.4357,-2.8159
4830231.0,-25.6275,-0.4501,8.6,6.338,17.4357,-3.1081
4830241.0,-23.9803,2.1452,40.2226,5.3376,17.4357,-3.2427
4830251.0,-18.579,3.8211,74.1532,5.137,17.4357,-3.5327
4830261.0,-15.1505,8.6191,78.4508,3.7785,17.4357,-3.5221
4830271.0,-8.169,12.6797,78.4508,3.3747,17.4357,-3.2177
4830281.0,-1.5993,17.7362,78.4508,2.4717,17.4357,-2.5696
4830291.0,3.8786,17.1904,78.4508,1.474,14.4942,-1.7044
4830301.0,8.7915,13.0149,78.4508,0.8822,11.9486,-1.0376
4830311.0,12.5169,7.6136,78.4508,0.3049,10.4369,-0.6843
4830321.0,13.2926,5.6982,78.4508,0.3762,9.6829,-0.48
4830331.0,16.4146,4.1084,78.4508,0.9445,9.2683,-0.3049
4830341.0,13.1585,9.2129,78.4508,1.9566,8.6756,0.3347
4830351.0,10.4962,7.671,78.4508,2.9405,7.7848,0.4087
4830361.0,7.7859,13.7331,78.4508,3.2634,6.0581,0.8556
4830371.0,4.9608,12.536,78.4508,3.3848,3.7237,1.3478
4830381.0,1.0822,14.3748,78.4508,2.4743,0.4401,1.7783
4830391.0,-2.7198,13.8385,78.4508,1.4548,-4.3878,2.2439
4830401.0,-7.4986,16.7115,78.4508,0.0963,-10.3145,2.8638
4830411.0,-11.3772,16.3476,78.4508,-1.5852,-15.999,3.5098
4830421.0,-15.6389,15.5049,78.4508,-2.7276,-17.4363,4.0802
4830431.0,-19.2302,11.0612,78.4508,-3.5034,-17.4363,4.4878
4830441.0,-20.4178,5.2002,78.4508,-3.4194,-17.4363,4.557
4830451.0,-21.1839,0.6416,70.0448,-2.9766,-17.4363,4.3772
4830461.0,-21.1743,-2.241,48.5448,-2.4286,-17.4363,4.0882
4830471.0,-20.2071,-4.4724,30.2052,-2.1567,-17.4363,3.794
4830481.0,-18.1002,-5.5067,14.212,-2.5307,-17.4363,3.5098
4830491.0,-16.5775,-6.359,2.2793,-3.4976,-17.4363,3.1384
4830501.0,-14.8153,-8.1307,-10.1131,-5.004,-17.4363,2.6824
4830511.0,-14.1258,-8.3318,-20.3603,-6.4503,-17.4363,2.1066
4830521.0,-12.402,-7.5465,-30.5883,-7.8593,-17.4363,1.441
4830531.0,-16.5966,-6.0717,-42.4923,-9.1704,-17.4363,0.862
4830541.0,-12.5169,-4.865,-58.9452,-10.6055,-17.4363,0.3555
4830561.0,-12.1434,-2.4995,-78.4532,-9.0938,-13.5263,-0.6226
4830571.0,-14.1449,-2.9305,-78.4532,-6.5019,-9.2763,-0.8062
4830581.0,-13.8098,1.1205,-78.4532,-3.9238,-4.0664,-0.8125
4830591.0,-12.3445,-1.0439,-78.4532,-0.8535,0.6976,-0.7939
4830601.0,-13.6086,1.2641,-78.4532,1.0451,5.7761,-0.7199
4830611.0,-14.3173,3.8403,-78.4532,2.6393,10.2176,-0.5193
4830621.0,-14.7483,5.3056,-70.9641,3.6641,13.9754,-0.1107
4830631.0,-16.8743,6.0047,-58.1121,4.5416,17.3133,0.365
4830641.0,-17.2861,3.7733,-47.1083,4.3681,17.4357,0.854
4830651.0,-17.7267,-2.6432,-34.668,4.2628,17.4357,0.9136
4830661.0,-17.3723,-8.5234,-22.5438,3.6125,17.4357,0.5922
4830671.0,-16.0699,-13.5991,-11.3294,3.5375,17.4357,-0.0543
4830681.0,-13.4458,-16.9701,1.4078,3.414,17.4357,-0.9716
4830691.0,-14.5376,-16.7403,19.2494,4.1404,17.4357,-2.1902
4830701.0,-12.8233,-11.2911,38.1253,5.4797,17.4357,-3.3129
4830711.0,-10.1131,-0.6512,50.8433,6.4763,17.4357,-3.8637
4830721.0,-10.4674,9.1842,63.6762,6.3178,17.4357,-3.795
4830731.0,-10.4579,15.6964,74.2969,5.4627,17.4357,-3.1969
4830741.0,-8.3797,13.7331,78.4508,3.7317,17.4357,-2.453
4830751.0,-4.9895,7.9966,78.4508,2.7808,17.4357,-2.08
4830761.0,-3.0454,5.296,78.4508,2.427,17.4357,-1.9997
4830771.0,-1.5514,6.4739,78.4508,2.7191,17.4357,-1.9066
4830781.0,-0.182,11.6933,78.4508,3.4726,15.9511,-1.6368
4830791.0,1.3408,16.3955,78.4508,3.77,13.4518,-1.144
4830801.0,1.9058,20.2549,78.4508,3.6652,10.7583,-0.5481
4830811.0,5.5545,20.0155,78.4508,3.1363,7.8274,0.1916
4830821.0,-0.9673,24.2293,78.4508,1.8757,3.0533,1.235
4830831.0,3.3998,15.6485,78.4508,0.6816,-1.9092,1.8571
4830841.0,2.8156,14.7579,78.4508,-0.1974,-7.0164,2.1582
4830851.0,-1.3024,15.2942,78.4508,-1.9582,-11.9672,2.4738
4830861.0,-4.4532,17.6979,78.4508,-3.2422,-15.7537,2.8574
4830871.0,-5.6695,17.6405,78.4508,-4.5379,-17.4363,3.3374
4830881.0,-7.422,16.3668,78.4508,-4.7315,-17.4363,3.769
4830891.0,-8.1116,13.6086,78.4508,-5.1455,-17.4363,4.1297
4830901.0,-9.5098,9.1171,77.869,-4.6512,-17.4363,4.2707
4830911.0,-10.7069,6.5601,65.7927,-4.3798,-17.4363,4.2867
4830921.0,-11.5688,4.6831,56.8479,-3.9249,-17.4363,4.2606
4830931.0,-12.6988,3.5243,47.0987,-3.6641,-17.4363,4.234
4830941.0,-13.2256,2.4229,38.1732,-3.5524,-17.4363,4.2095
4830951.0,-13.7619,1.5993,28.491,-3.9249,-17.4363,4.1845
4830961.0,-13.4554,-0.7949,19.9676,-4.4245,-17.4363,4.1175
4830971.0,-13.283,-3.6296,11.4156,-4.9625,-17.4363,3.8967
4830981.0,-13.4267,-6.2249,3.304,-5.9586,-17.4363,3.4763
4830991.0,-14.0875,-6.7804,-5.0374,-7.3416,-17.4363,2.9016
4831001.0,-15.6389,-5.2098,-15.4187,-9.0635,-17.4363,2.3424
4831011.0,-18.1959,-5.7365,-26.3362,-10.9418,-17.4363,1.6676
4831021.0,-15.6389,-6.0525,-40.28,-12.1689,-17.4363,1.0648
4831031.0,-12.6605,-8.4467,-51.4275,-11.7012,-17.4363,0.2267
4831041.0,-11.9327,-7.5178,-63.3506,-11.0967,-16.3492,-0.5241
4831051.0,-13.2926,-7.9775,-77.2944,-9.8457,-13.7211,-1.3234
4831061.0,-11.789,-8.3414,-78.4532,-8.3632,-9.3774,-2.0518
4831071.0,-10.0365,-3.9744,-78.4532,-6.2656,-4.8635,-2.519
4831081.0,-12.8904,-4.0031,-78.4532,-3.8301,0.1458,-2.6584
4831091.0,-12.3732,-2.5379,-78.4532,-1.3654,5.9559,-2.7191
4831101.0,-11.8657,-1.2546,-78.4532,1.5415,11.2994,-2.8122
4831111.0,-11.0229,1.3503,-78.4532,3.0368,16.3188,-2.7627
4831121.0,-10.5919,6.0525,-67.2675,4.3043,17.4357,-2.51
4831131.0,-13.7331,11.5209,-51.8009,4.8795,17.4357,-2.0162
4831141.0,-13.8864,13.1394,-37.1867,4.6634,17.4357,-1.2611
4831151.0,-14.5376,14.1545,-27.2364,4.7911,17.4357,-0.5795
4831161.0,-15.3037,13.0149,-15.4665,5.5106,17.4357,-0.0202
4831171.0,-15.6868,14.7674,-5.6024,6.8967,17.4357,0.3453
4831181.0,-18.9621,15.6006,7.4699,7.4421,17.4357,0.7364
4831191.0,-20.6667,15.3037,22.7736,7.216,17.4357,1.3367
4831201.0,-20.3699,10.7643,41.9464,6.5631,17.4357,1.8448
4831211.0,-23.5589,7.7189,64.3753,5.4909,17.4357,2.1928
4831221.0,-23.7026,1.9824,78.4508,4.1175,17.4357,2.4413
4831231.0,-20.3316,-4.9608,78.4508,3.7392,17.4357,2.3291
4831241.0,-16.9222,-13.4458,78.4508,4.0903,17.4357,1.8331
4831251.0,-17.6213,-15.9358,78.4508,5.6143,17.4357,0.9147
4831261.0,-18.8855,-9.2512,78.4508,5.8314,17.4357,0.1277
4831271.0,-16.3859,-1.9537,78.4508,4.8225,16.2358,-0.1804
4831281.0,-10.1227,2.4804,78.4508,2.9506,11.1036,-0.1213
4831291.0,-11.8848,9.7875,78.4508,0.8429,6.2268,0.0112
4831301.0,-5.0661,7.8338,78.4508,-0.5683,0.9833,0.5885
4831311.0,-4.2617,4.0127,78.4508,-0.8109,-4.8747,0.7109
4831321.0,-5.9855,5.4971,78.4508,-1.4564,-11.864,1.0648
4831331.0,-8.3989,7.0006,78.4508,-0.8642,-17.399,1.5064
4831341.0,-9.0405,7.4412,78.4508,-1.3452,-17.4363,1.9592
4831351.0,-9.9599,3.0837,78.4508,-1.2547,-17.4363,2.2434
4831361.0,-9.8067,1.0151,78.4508,-1.0711,-17.4363,2.262
4831371.0,-8.6479,-1.6664,70.4566,-1.7389,-17.4363,2.1322
4831381.0,-7.8817,-2.2505,56.551,-1.7565,-17.4363,1.8842
4831391.0,-7.8051,-0.565,47.75,-2.0502,-17.4363,1.7549
4831401.0,-7.3933,-0.0287,44.8961,-1.8544,-17.4363,1.7187
4831411.0,-7.7093,0.7949,41.3048,-1.997,-17.4363,1.8166
4831421.0,-8.1403,-0.1724,38.9585,-2.3408,-17.4363,1.9284
4831431.0,-8.6766,-0.8715,33.6146,-2.9085,-17.4363,1.9741
4831441.0,-8.8969,-2.4612,26.3171,-3.8195,-17.4363,1.9278
4831451.0,-10.1035,-4.1563,19.4313,-4.5272,-17.4363,1.6953
4831461.0,-12.0764,-5.7461,11.7412,-4.9588,-17.4363,1.4101
4831471.0,-14.0492,-7.671,0.9098,-5.4233,-17.4363,0.9956
4831481.0,-15.2463,-7.9775,-15.4953,-6.5487,-17.4363,0.3996
4831491.0,-15.1792,-7.9775,-34.1317,-8.0455,-17.4363,-0.2969
4831501.0,-15.1026,-6.4739,-56.1009,-9.1715,-17.4363,-0.9323
4831511.0,-15.8783,-4.0606,-73.2434,-8.6915,-17.4363,-1.4697
4831521.0,-15.3516,-2.0016,-78.4532,-7.0425,-15.9357,-1.6799
4831531.0,-12.8425,-0.1245,-78.4532,-3.2257,-10.5401,-1.8039
4831541.0,-12.1817,-1.8387,-78.4532,-0.5332,-4.441,-1.5836
4831551.0,-13.6661,0.7183,-78.4532,2.2716,2.7441,-1.4713
4831561.0,-13.9151,-1.5419,-78.4532,4.2957,8.8038,-1.4814
4831571.0,-15.2559,-1.2737,-78.4532,5.3584,14.3559,-1.5602
4831581.0,-16.3285,-2.1739,-78.4532,6.3955,17.4357,-1.872
4831591.0,-18.9238,-3.0167,-64.4232,6.9207,17.4357,-2.2918
4831601.0,-19.5846,-2.0877,-50.69,6.6668,17.4357,-2.742
4831611.0,-19.1823,-0.5938,-35.2426,5.5925,17.4357,-3.0607
4831621.0,-19.7282,1.3503,-17.4968,4.4761,17.4357,-3.2251
4831631.0,-20.0921,4.2234,-1.5323,3.2656,17.4357,-2.9846
4831641.0,-18.8088,3.1795,19.3068,2.892,17.4357,-2.8803
4831651.0,-18.148,3.0646,39.15,2.5637,17.4357,-2.7856
4831661.0,-15.5719,2.6911,57.2214,3.1916,17.4357,-2.8755
4831671.0,-13.7044,5.114,73.071,4.2063,17.4357,-2.958
4831681.0,-12.9574,7.7668,78.4508,5.9639,17.4357,-2.8707
4831691.0,-11.0133,8.8585,78.4508,7.5991,17.4357,-2.7963
4831701.0,-10.2855,11.7124,78.4508,8.8118,17.4357,-2.8936
4831711.0,-11.3581,18.2438,78.4508,8.6484,17.4357,-2.8207
4831721.0,-12.6893,24.5741,78.4508,7.9812,17.4357,-2.4387
4831731.0,-16.1465,29.2476,78.4508,6.9595,17.4357,-1.7432
4831741.0,-17.2287,29.3338,78.4508,5.1971,16.827,-0.9977
4831751.0,-16.6062,26.5086,78.4508,3.529,12.4557,-0.5183
4831761.0,-16.022,26.6139,78.4508,2.0428,7.3953,-0.2533
4831771.0,-15.7538,29.3912,78.4508,0.3358,1.6746,0.0096
4831781.0,-17.085,35.0415,78.4508,-1.1946,-4.5794,0.5587
4831791.0,-18.2438,41.3335,78.4508,-2.5967,-10.6891,1.5484
4831801.0,-20.4848,44.829,78.4508,-3.7285,-16.3949,2.9245
4831811.0,-23.5877,43.5362,78.4508,-5.0279,-17.4363,4.4777
4831821.0,-25.3498,36.3344,78.4508,-5.816,-17.4363,5.8325
4831831.0,-26.5565,27.7919,78.4508,-6.6743,-17.4363,6.8047
4831841.0,-27.7727,18.6939,78.4508,-7.7704,-17.4363,7.3086
4831851.0,-29.487,11.8369,69.9203,-8.8246,-17.4363,7.3155
4831861.0,-26.9587,6.9815,50.69,-9.5903,-17.4363,6.9765
4831871.0,-23.6643,3.3327,32.8772,-9.7893,-17.4363,6.5067
4831881.0,-23.2333,-1.4174,22.3523,-9.2322,-17.4363,5.9347
4831891.0,-21.2222,-6.292,8.4372,-8.0408,-17.4363,5.195
4831901.0,-19.5271,-11.1953,-2.2889,-7.3155,-17.4363,4.3394
4831911.0,-15.457,-13.6469,-16.0412,-6.4183,-17.4363,3.2475
4831921.0,-15.6293,-12.6414,-28.3282,-6.5503,-17.4363,2.2923
4831931.0,-15.6293,-10.2663,-41.3335,-7.482,-17.4363,1.533
4831941.0,-13.0915,-9.1746,-48.7938,-6.9664,-17.4363,0.7466
4831951.0,-10.7069,-7.1826,-60.6499,-6.9574,-17.4363,0.2485
4831961.0,-7.5944,-9.9886,-64.6434,-5.6675,-14.3638,-0.3906
4831971.0,-3.0837,-6.7995,-72.8125,-4.7177,-10.8907,-0.6194
4831981.0,-1.9249,-9.9886,-71.941,-2.8601,-7.0218,-1.0142
4831991.0,-2.6911,-10.1514,-74.6416,-1.7198,-3.521,-1.4218
4832001.0,-2.2505,-10.8218,-75.4269,-0.9168,-0.7125,-1.8049
4832011.0,-3.3998,-9.5672,-77.7637,-0.5071,2.4828,-2.0444
4832021.0,-4.1659,-8.6287,-76.6145,-0.2256,5.7165,-2.1838
4832031.0,-5.5258,-7.6136,-71.692,0.5614,9.105,-2.229
4832041.0,-7.4029,-6.2058,-65.3234,1.3957,12.0859,-2.3142
4832051.0,-8.1882,-4.798,-58.725,1.9928,14.7975,-2.3541
4832061.0,-8.7245,-3.1508,-49.4546,2.4701,17.2202,-2.3642
4832071.0,-9.5768,-1.1779,-40.7014,2.3908,17.4357,-2.2514
4832081.0,-10.5728,-0.3352,-33.1166,2.5414,17.4357,-2.1375
4832091.0,-10.343,-0.747,-24.2772,2.634,17.4357,-2.0428
4832101.0,-10.9271,-0.6129,-14.0875,3.4923,17.4357,-2.1593
4832111.0,-12.6701,0.565,-5.9185,4.093,17.4357,-2.3296
4832121.0,-11.9135,2.988,1.9632,4.6108,17.4357,-2.4749
4832131.0,-17.9469,8.0637,13.6278,4.8805,17.4357,-2.4663
4832141.0,-17.1233,12.6318,26.4799,4.9242,17.4357,-2.129
4832151.0,-19.5941,14.959,43.948,4.4261,17.4357,-1.5064
4832161.0,-21.6053,15.5815,63.0441,3.7668,17.4357,-0.7375
4832171.0,-21.4137,11.7507,78.4508,3.1836,17.4357,-0.1006
4832181.0,-21.883,7.3263,78.4508,2.3727,17.4357,0.2916
4832191.0,-18.9717,1.4365,78.4508,2.3722,17.4357,0.3432
4832201.0,-16.0316,-0.3065,78.4508,2.1849,17.4357,0.2272
4832211.0,-12.6701,-2.7773,78.4508,2.0258,17.4043,-0.0415
4832221.0,-9.1554,-1.9345,78.4508,1.4372,12.9005,-0.4326
4832231.0,-5.3247,0.2969,78.4508,0.7646,8.277,-0.7418
4832241.0,-1.9728,4.6064,78.4508,0.3193,3.911,-0.8865
4832251.0,1.3024,7.6519,78.4508,-0.2751,0.34,-0.7396
4832261.0,4.2808,8.8873,78.4508,-1.1137,-2.419,-0.3975
4832271.0,6.3398,7.1443,78.4508,-1.7789,-4.4213,-0.0798
4832281.0,7.8051,4.5298,78.4508,-2.1763,-5.7553,0.1841
4832291.0,9.414,1.3695,71.941,-2.0295,-6.2278,0.3342
4832301.0,10.9654,-0.4693,60.1807,-1.8049,-6.0852,0.3618
4832311.0,11.5975,-1.6185,51.9542,-1.4202,-5.4206,0.3028
4832321.0,11.789,-1.5897,45.6814,-0.9514,-4.4176,0.1793
4832331.0,11.7507,-0.6608,42.521,-0.5353,-3.3363,0.116
4832341.0,12.1147,-0.0958,41.9464,-0.2315,-2.3748,0.0761
4832351.0,11.904,0.5267,42.5785,-0.0649,-1.6533,0.0756
4832361.0,11.6454,0.8523,43.9192,-0.1559,-1.2835,0.149
4832371.0,11.2336,0.6895,45.2983,-0.3618,-1.1855,0.2762
4832381.0,10.7452,0.7757,45.3845,-0.6024,-1.1494,0.3517
4832391.0,10.1514,0.8428,45.1451,-0.8732,-1.2196,0.4592
4832401.0,9.8162,0.4118,44.5417,-1.086,-1.2824,0.5364
4832411.0,9.165,-0.2777,44.1778,-1.0876,-1.2616,0.5279
4832421.0,8.6574,0.1053,43.5745,-1.0892,-1.293,0.5199
4832431.0,8.6095,-0.0479,43.3255,-1.0376,-1.3617,0.5406
4832441.0,8.2265,0.182,42.5881,-0.9397,-1.4213,0.5981
4832451.0,8.0924,-0.2394,41.9273,-0.8546,-1.4394,0.6742
4832461.0,8.7628,-0.7183,41.5346,-0.7678,-1.5022,0.7226
4832471.0,8.9926,-0.8523,41.0175,-0.7184,-1.557,0.7588
4832481.0,8.6479,-0.8523,39.9449,-0.6784,-1.5985,0.7971
4832491.0,8.916,-1.3791,39.217,-0.7428,-1.6442,0.8626
4832501.0,9.3565,-2.4804,38.5658,-0.7178,-1.6607,0.8375
4832511.0,8.7724,-3.0454,37.1101,-0.7327,-1.5846,0.795
4832521.0,8.983,-4.0031,36.6313,-0.7269,-1.4649,0.7412
4832531.0,9.2512,-5.0661,36.4589,-0.5502,-1.293,0.6082
4832541.0,9.2608,-5.43,36.3153,-0.3847,-1.0956,0.4699
4832551.0,9.4427,-4.9704,36.4589,-0.2134,-0.8876,0.3219
4832561.0,9.596,-4.9033,36.6313,-0.0793,-0.7359,0.2043
4832571.0,9.7971,-4.6926,37.3591,0.1352,-0.6327,0.0846
4832581.0,9.7396,-4.4245,37.5698,0.2911,-0.5593,-0.0346
4832591.0,9.5289,-3.5147,37.6943,0.2496,-0.5422,-0.0963
4832601.0,9.5193,-3.1125,37.6656,0.132,-0.5662,-0.1405
4832611.0,9.5385,-3.3423,38.1923,-0.0154,-0.5795,-0.1612
4832621.0,9.7396,-3.6679,37.6847,-0.0543,-0.6045,-0.2118
4832631.0,10.1323,-3.5147,37.5698,-0.049,-0.5475,-0.2469
4832641.0,9.9503,-3.6488,37.474,0.0766,-0.464,-0.2756
4832651.0,10.1514,-3.869,36.9761,0.223,-0.2857,-0.2916
4832661.0,10.4866,-4.118,37.3687,0.4284,-0.0692,-0.3523
4832671.0,10.6686,-3.8307,37.34,0.5151,0.1341,-0.4119
4832681.0,11.0038,-3.5147,37.972,0.58,0.3161,-0.4768
4832691.0,11.406,-3.3806,38.9297,0.6486,0.4017,-0.5651
4832701.0,11.5784,-2.2027,40.0694,0.5523,0.3336,-0.6226
4832711.0,11.7412,-0.7853,41.1611,0.406,0.1309,-0.6252
4832721.0,11.9519,0.4118,41.1707,0.2602,-0.1107,-0.5321
4832731.0,12.1817,1.2833,40.0023,0.0942,-0.2299,-0.3815
4832741.0,12.038,0.9673,38.9776,-0.0878,-0.1554,-0.2155
4832751.0,12.4307,0.316,38.8627,-0.1032,0.0032,-0.0623
4832761.0,12.5073,-0.0862,39.0159,0.0101,0.2277,0.0325
4832771.0,11.9997,0.2107,39.1883,0.1048,0.3757,0.1006
4832781.0,11.7124,0.3639,39.3319,0.1479,0.4949,0.183
4832791.0,11.473,0.067,39.5905,0.0474,0.5614,0.2267
4832801.0,11.1666,-0.3831,39.897,-0.0463,0.5438,0.2911
4832811.0,11.4826,-1.2546,40.5195,-0.1027,0.5449,0.2857
4832821.0,11.5879,-1.8292,40.7876,-0.1016,0.6173,0.2118
4832831.0,11.5209,-2.1452,41.209,-0.1107,0.5912,0.1336
4832841.0,11.6741,-1.8387,42.023,-0.1655,0.4752,0.0883
4832851.0,11.4539,-1.8004,42.4444,-0.2219,0.257,0.0245
4832861.0,11.4156,-1.4844,41.8219,-0.282,0.0553,0.0064
4832871.0,11.4826,-1.6472,40.9121,-0.364,-0.0639,-0.0314
4832881.0,11.3581,-1.7142,40.9025,-0.3416,-0.0968,-0.0809
4832891.0,11.1282,-1.312,40.2226,-0.281,-0.1325,-0.1149
4832901.0,10.975,-0.431,39.9353,-0.2416,-0.1155,-0.0788
4832911.0,10.8984,-0.4214,39.5043,-0.1559,-0.0798,-0.033
4832921.0,11.1761,-0.6704,39.2841,-0.0713,0.0064,0.0138
4832931.0,11.1187,-1.1971,38.3743,-0.0846,0.1006,0.0548
4832941.0,11.4156,-1.7238,38.9106,-0.1054,0.215,0.0468
4832951.0,11.3294,-1.9058,38.8148,-0.1224,0.3113,-0.0176
4832961.0,11.2815,-2.1644,39.0829,-0.2139,0.3656,-0.041
4832971.0,10.9942,-2.0877,39.8012,-0.2315,0.4289,-0.0809
4832981.0,11.0229,-2.0399,40.1843,-0.2724,0.4496,-0.1011
4832991.0,10.7835,-1.6664,40.8451,-0.2788,0.4342,-0.1054
4833001.0,11.0516,-1.6281,40.778,-0.3161,0.4135,-0.075
4833011.0,10.7739,-1.7621,41.1803,-0.2841,0.3906,-0.074
4833021.0,10.9271,-1.5323,40.8355,-0.2363,0.3661,-0.0234
4833031.0,10.8697,-1.1396,40.7493,-0.1916,0.4113,0.0133
4833041.0,10.4004,-0.8619,40.9983,-0.041,0.5449,0.0649
4833051.0,10.477,-1.3024,42.0518,0.0766,0.5875,0.1272
4833061.0,11.0516,-2.0111,42.9711,0.1963,0.4816,0.1213
4833071.0,10.9463,-2.5091,43.9097,0.182,0.3283,0.0713
4833081.0,10.9367,-2.6911,44.1587,0.0857,0.0202,0.0234
4833091.0,10.9367,-2.8252,43.7947,-0.0521,-0.2714,-0.0452
4833101.0,11.1953,-2.9688,42.7413,-0.1288,-0.4294,-0.1187
4833111.0,11.1474,-2.5666,41.5059,-0.1676,-0.4379,-0.1985
4833121.0,11.0899,-2.1165,40.9983,-0.1894,-0.3996,-0.2341
4833131.0,11.0899,-1.6664,40.6727,-0.1415,-0.3012,-0.2714
4833141.0,11.0995,-0.7566,40.0311,-0.1235,-0.2283,-0.2746
4833151.0,11.0612,-0.4405,39.8778,-0.132,-0.2219,-0.2565
4833161.0,10.9176,-0.5842,39.4469,-0.1735,-0.1772,-0.2192
4833171.0,11.2623,-0.6225,38.9489,-0.1644,-0.1437,-0.2043
4833181.0,11.5209,-1.0056,38.8244,-0.1155,-0.0181,-0.1713
4833191.0,11.3964,-1.81,39.0542,0.0032,0.1383,-0.2107
4833201.0,11.5113,-2.3655,39.5139,0.1096,0.3113,-0.2916
4833211.0,11.4443,-2.2218,39.7342,0.2469,0.3895,-0.3608
4833221.0,11.473,-1.5706,40.7206,0.3065,0.373,-0.3895
4833231.0,11.4347,-1.3503,40.5961,0.3347,0.3837,-0.3916
4833241.0,11.1857,-1.0534,40.9408,0.3762,0.4214,-0.3927
4833251.0,11.406,-1.2354,41.8123,0.4369,0.4544,-0.3868
4833261.0,12.22,-1.6185,43.1435,0.6572,0.5821,-0.3943
4833271.0,13.5703,-3.3423,46.6582,1.1627,0.8673,-0.4236
4833281.0,14.2407,-5.3056,52.615,2.137,0.9344,-0.5906
4833291.0,14.6812,-4.865,55.6796,2.6669,0.481,-0.9094
4833301.0,15.0452,-3.8595,60.7744,2.7579,0.074,-1.2153
4833311.0,14.212,0.996,63.2261,2.3631,-0.8429,-1.3984
4833321.0,15.208,5.3151,65.0936,1.3792,-1.5234,-1.293
4833331.0,17.8129,8.4659,66.2907,0.8801,-1.6485,-1.0797
4833341.0,15.6677,12.9574,69.4223,0.2469,-1.2803,-0.4576
4833351.0,15.0069,13.2639,78.4508,-0.2474,-0.9413,0.3097
4833361.0,14.5089,13.0723,78.4508,-0.9397,-1.7448,0.9307
4833371.0,14.5855,11.904,78.4508,-3.2198,-3.7173,1.467
4833381.0,13.7619,9.8545,78.4508,-5.0811,-6.2949,1.7645
4833391.0,12.5648,10.0078,78.4508,-6.7876,-9.0475,1.9965
4833401.0,9.8162,9.347,78.4508,-7.8332,-12.0018,2.2886
4833411.0,10.5345,8.0445,78.4508,-7.9982,-15.1237,2.5956
4833421.0,7.9775,6.4835,78.4508,-7.5539,-17.4363,2.8846
4833431.0,5.7174,1.8292,74.6895,-5.8064,-17.4363,2.9213
4833441.0,5.2768,-3.1699,59.2134,-4.4868,-17.4363,2.7851
4833451.0,4.7884,-8.6766,46.4762,-2.7994,-17.4363,2.3493
4833461.0,4.8842,-11.2719,29.7264,-2.2322,-17.4363,1.7916
4833471.0,5.794,-13.0053,16.2806,-2.3482,-17.4363,1.1318
4833481.0,8.9926,-13.5129,1.4557,-3.1464,-17.4363,0.4991
4833491.0,3.7541,-9.3661,-9.4619,-3.0756,-17.4363,-0.1852
4833501.0,5.2577,-9.7109,-21.4042,-4.4192,-16.9403,-0.6274
4833511.0,7.3454,-4.9991,-32.8389,-5.8937,-13.6748,-0.7194
4833521.0,7.5561,-0.9194,-31.9674,-5.2802,-9.71,-0.9035
4833531.0,11.2336,2.7677,-33.7966,-3.6833,-7.3745,-0.8179
4833541.0,12.22,-0.9002,-33.6721,-1.7581,-4.5373,-0.6343
4833551.0,9.4332,2.0686,-42.023,-0.5438,-1.5921,-0.4576
4833561.0,8.0062,-2.2122,-37.091,-0.7184,0.3906,-0.3054
4833571.0,10.4579,-6.0621,-36.2003,0.0681,2.5797,-0.4443
4833581.0,9.7013,-9.5481,-30.5404,0.5385,4.3841,-0.7492
4833591.0,9.0692,-9.5385,-27.1598,1.1265,5.9198,-1.2026
4833601.0,8.1307,-7.2784,-23.4057,1.0403,6.951,-1.4702
4833611.0,6.7516,-4.3574,-19.4218,0.9195,7.5666,-1.5703
4833621.0,5.3343,-1.063,-18.4832,0.7019,7.953,-1.4314
4833631.0,4.1084,0.9098,-19.2877,0.6949,8.5191,-1.1898
4833641.0,3.2753,1.1971,-20.571,1.2563,9.6499,-0.9291
4833651.0,1.0534,-0.4597,-20.322,2.3402,11.0765,-0.7726
4833661.0,-0.4405,-3.869,-20.9828,3.5636,12.7813,-0.9094
4833671.0,-0.9002,-8.1977,-20.3603,4.3192,14.7587,-1.392
4833681.0,-1.4844,-11.5879,-17.085,4.6895,16.8882,-2.1822
4833691.0,-0.8906,-11.1282,-10.7835,4.7177,17.4357,-3.0426
4833701.0,-2.9209,-9.1363,-1.4078,4.7885,17.4357,-3.8493
4833711.0,-4.6448,-4.4436,8.2935,4.7182,17.4357,-4.3383
4833721.0,0.7757,-1.0343,21.6149,5.3131,17.4357,-4.5618
4833731.0,-2.7677,3.3806,30.6171,6.1337,17.4357,-4.6688
4833741.0,-7.8338,3.3232,58.0833,4.8779,17.4357,-4.7113
4833751.0,-3.3902,9.4715,78.4508,6.9372,17.4357,-5.0503
4833761.0,-5.1523,18.8759,78.4508,6.3497,17.4357,-4.8247
4833771.0,-9.7971,25.3402,78.4508,5.3509,17.4357,-4.1973
4833781.0,-8.1786,32.2355,78.4508,4.9508,17.4357,-3.1458
4833791.0,-6.2153,33.854,78.4508,4.8922,14.5847,-1.9529
4833801.0,-8.0445,37.9529,78.4508,5.5755,10.9211,-0.7737
4833811.0,-6.3303,39.2841,78.4508,5.3791,6.7397,0.505
4833821.0,-3.4093,35.3863,78.4508,4.2319,2.1785,1.5469
4833831.0,1.2163,27.7919,78.4508,1.4984,-3.0793,2.1519
4833841.0,1.4748,24.8518,78.4508,-1.0387,-8.3861,2.4137
4833851.0,2.5091,26.1447,78.4508,-3.7328,-13.29,2.775
4833861.0,0.1245,27.3035,78.4508,-4.8444,-17.2697,3.2592
4833871.0,-4.3574,28.9603,78.4508,-5.2094,-17.4363,4.0611
4833881.0,-6.8857,25.752,78.4508,-5.1344,-17.4363,4.83
4833891.0,-9.0309,21.2509,78.4508,-5.0306,-17.4363,5.3898
4833901.0,-11.1091,15.524,78.4508,-5.3637,-17.4363,5.7175
4833911.0,-12.1434,10.343,67.5644,-5.4653,-17.4363,5.7277
4833921.0,-12.5743,7.106,54.4154,-5.8931,-17.4363,5.5696
4833931.0,-13.149,4.118,44.3598,-5.9315,-17.4363,5.2573
4833941.0,-13.7906,2.308,34.4861,-5.8367,-17.4363,4.9141
4833951.0,-14.2407,0.2873,23.6164,-5.5877,-17.4363,4.5554
4833961.0,-14.3461,-1.9824,10.9942,-5.4637,-17.4363,4.1483
4833971.0,-13.6565,-4.8363,-1.8483,-5.4079,-17.4363,3.6067
4833981.0,-12.536,-7.2975,-13.7906,-5.1471,-17.4363,3.041
4833991.0,-13.1202,-6.7229,-23.1184,-5.212,-17.4363,2.5355
4834001.0,-13.3405,-7.1443,-37.3591,-5.7383,-17.4363,1.9933
4834011.0,-11.2144,-5.9089,-52.366,-6.256,-17.4363,1.5559
4834021.0,-10.908,-5.9951,-62.8143,-6.6972,-16.5684,1.2664
4834031.0,-8.9543,-6.9049,-71.7207,-5.7564,-13.4938,0.8892
4834041.0,-7.0006,-8.5234,-78.4532,-4.8087,-9.4258,0.5082
4834051.0,-7.2496,-9.9024,-78.4532,-2.8894,-5.0657,-0.0208
4834061.0,-7.2975,-9.8641,-78.4532,-1.5016,-1.2584,-0.5044
4834071.0,-6.8474,-7.7764,-78.4532,0.3374,2.6515,-0.903
4834081.0,-7.604,-4.8459,-73.1668,1.5788,6.1427,-0.9929
4834091.0,-7.1443,-2.8156,-66.4247,2.2349,9.1784,-0.9424
4834101.0,-7.0006,-0.814,-58.7537,2.5089,11.9486,-0.7897
4834111.0,-8.2935,0.565,-50.6422,2.5552,14.0329,-0.5795
4834121.0,-8.983,0.1628,-45.1451,1.9576,16.1188,-0.315
4834131.0,-9.7588,-3.2274,-38.3551,1.5889,17.4357,-0.1948
4834141.0,-11.224,-7.4795,-32.1015,1.6315,17.4357,-0.3528
4834151.0,-12.3158,-12.1051,-24.9859,1.814,17.4357,-0.8391
4834161.0,-12.4882,-15.3612,-14.4801,2.626,17.4357,-1.7086
4834171.0,-13.283,-14.3461,-2.2697,3.5455,17.4357,-2.6654
4834181.0,-12.6318,-7.853,9.7971,4.4522,17.4357,-3.4156
4834191.0,-13.5608,-2.49,23.3483,4.8571,17.4357,-3.8828
4834201.0,-13.7236,4.3383,35.1852,4.6512,17.4357,-3.9302
4834211.0,-12.4403,6.9528,45.3845,4.3144,17.4357,-3.6758
4834221.0,-13.1585,9.5193,50.3836,3.2411,17.4357,-3.3252
4834231.0,-14.959,9.1075,55.4497,2.2966,17.4357,-2.9107
4834241.0,-15.093,5.7844,60.219,1.5059,17.4357,-2.518
4834251.0,-13.8193,2.5091,75.9249,2.3684,17.4357,-2.5259
4834261.0,-14.7196,3.7733,78.4508,3.0112,17.4357,-2.7111
4834271.0,-14.3652,6.2728,78.4508,2.8005,17.4357,-2.7627
4834281.0,-11.7986,8.9543,78.4508,2.6164,17.4357,-2.6803
4834291.0,-8.9256,10.6303,78.4508,1.7459,15.6202,-2.4765
4834301.0,-5.5737,12.0764,78.4508,1.3957,11.8927,-2.3083
4834311.0,-6.0047,17.4106,78.4508,1.7746,9.5727,-1.905
4834321.0,-1.1875,18.6173,78.4508,2.5068,8.741,-1.234
4834331.0,-4.0797,19.9485,78.4508,4.2212,7.6305,-0.7748
4834341.0,-5.363,24.4113,78.4508,5.4126,5.9708,0.0064
4834351.0,-5.4205,22.8407,78.4508,6.1251,2.8218,0.821
4834361.0,-7.4029,23.3195,78.4508,5.8069,-1.4367,1.6586
4834371.0,-6.426,19.0387,78.4508,3.5944,-6.4737,2.0582
4834381.0,-5.861,18.2247,78.4508,0.7364,-11.7874,2.1077
4834391.0,-6.8953,19.9964,78.4508,-2.079,-16.2587,2.1604
4834401.0,-9.1554,23.1376,78.4508,-3.8903,-17.4363,2.4365
4834411.0,-11.2719,24.6411,78.4508,-4.9486,-17.4363,2.9021
4834421.0,-13.8576,25.4264,78.4508,-4.6698,-17.4363,3.5045
4834431.0,-16.8169,25.8191,78.4508,-4.4474,-17.4363,4.3319
4834441.0,-17.8991,22.8981,70.945,-4.1707,-17.4363,5.2094
4834451.0,-18.5407,17.9852,61.0617,-3.5205,-17.4363,5.9916
4834461.0,-19.4122,11.1666,51.8105,-2.9777,-17.4363,6.5679
4834471.0,-19.8527,3.7924,43.4308,-2.652,-17.4363,6.7408
4834481.0,-20.2741,-2.8252,33.8061,-2.6877,-17.4363,6.5445
4834491.0,-20.2549,-8.0924,24.1623,-2.7425,-17.4363,6.0161
4834501.0,-20.7625,-11.224,13.9055,-3.0213,-17.4363,5.2754
4834511.0,-21.0019,-12.2775,3.2657,-3.4832,-17.4363,4.4453
4834521.0,-21.1935,-11.8178,-5.794,-4.2973,-17.4363,3.5779
4834531.0,-22.6875,-10.7548,-15.3708,-5.1429,-17.4363,2.759
4834541.0,-22.9748,-10.3142,-27.8877,-6.1033,-17.4363,1.9582
4834551.0,-21.6244,-10.4004,-43.1722,-6.7403,-17.4363,1.2159
4834561.0,-20.3316,-11.2719,-56.8575,-6.9909,-17.4363,0.4422
4834571.0,-20.2741,-10.094,-73.5116,-6.7243,-17.4363,-0.2815
4834581.0,-19.5846,-9.3948,-78.4532,-5.6164,-15.8575,-0.8785
4834591.0,-17.334,-10.0365,-78.4532,-3.2033,-10.6231,-1.3526
4834601.0,-15.773,-9.663,-78.4532,-1.7789,-4.3404,-1.64
4834611.0,-19.0674,-8.3318,-78.4532,0.8961,2.0997,-2.1763
4834621.0,-18.397,-8.1882,-78.4532,2.3498,8.6756,-2.6345
4834631.0,-20.4561,-5.6312,-78.4532,3.3214,14.5879,-3.0474
4834641.0,-21.1169,-7.5082,-78.4532,3.4859,17.4357,-3.4837
4834651.0,-23.6356,-7.2113,-68.6178,3.612,17.4357,-3.9754
4834661.0,-24.622,-6.9528,-51.0731,3.5396,17.4357,-4.4916
4834671.0,-25.9244,-4.3958,-32.9442,3.9121,17.4357,-5.0833
4834681.0,-25.9148,2.2793,-14.6717,3.7732,17.4357,-5.3392
4834691.0,-24.9093,6.6655,4.1372,4.0723,17.4357,-5.2993
4834701.0,-26.4224,11.9231,24.6315,3.9717,17.4357,-4.9598
4834711.0,-23.0418,13.149,47.7883,3.1778,17.4357,-4.4341
4834721.0,-19.5654,13.8672,69.384,2.4307,17.4357,-3.8424
4834731.0,-15.5527,10.3142,78.4508,2.0603,17.4357,-3.3917
4834741.0,-10.4866,8.8298,78.4508,2.2343,17.4357,-3.189
4834751.0,-7.2305,8.6287,78.4508,2.0242,17.4357,-3.0581
4834761.0,-3.6871,11.0229,78.4508,2.1348,17.4357,-3.0165
4834771.0,-2.7294,18.0427,78.4508,2.5047,17.4357,-2.8574
4834781.0,-2.1165,27.9547,78.4508,3.1719,17.4357,-2.2514
4834791.0,-2.1452,33.9977,78.4508,3.3071,15.941,-1.2159
4834801.0,-0.6512,35.2139,78.4508,3.2352,12.4062,-0.0506
4834811.0,2.4517,29.7647,78.4508,2.4674,8.5298,0.9131
4834821.0,4.2042,22.2469,78.4508,1.4612,4.4224,1.4042
4834831.0,3.869,18.5311,78.4508,0.2778,-0.224,1.5197
4834841.0,2.6432,19.6229,78.4508,-0.7497,-4.9173,1.6043
4834851.0,1.6855,22.7353,78.4508,-1.8076,-9.1933,1.9374
4834861.0,0.9002,23.4632,78.4508,-2.9085,-12.9857,2.402
4834871.0,-2.1069,23.128,78.4508,-3.6045,-15.7814,2.8771
4834881.0,-2.7964,22.0458,78.4508,-4.3144,-17.4363,3.3731
4834891.0,-4.0223,19.8431,78.4508,-4.2697,-17.4363,3.8296
4834901.0,-4.9225,17.3532,78.4508,-3.9754,-17.4363,4.2473
4834911.0,-6.2058,14.0204,70.3991,-3.5199,-17.4363,4.5661
4834921.0,-6.8091,10.2568,59.8167,-3.0767,-17.4363,4.7661
4834931.0,-7.3454,7.0102,50.2687,-2.7601,-17.4363,4.9087
4834941.0,-7.3741,3.3232,39.3607,-2.6244,-17.4363,4.9215
4834951.0,-6.5697,0.2682,26.9396,-2.7335,-17.4363,4.9103
4834961.0,-5.2098,-2.2122,15.4665,-2.7819,-17.4363,4.7794
4834971.0,-5.0182,-3.735,6.7612,-2.8133,-17.4363,4.5889
4834981.0,-5.0949,-4.2713,-0.5459,-2.7723,-17.4363,4.341
4834991.0,-4.5586,-4.3574,-8.9926,-3.1602,-17.4363,4.1212
4835001.0,-3.7828,-6.043,-16.1848,-3.5737,-17.017,3.7775
4835011.0,-4.9129,-7.3263,-22.7066,-4.1989,-15.9325,3.3374
4835021.0,-1.8675,-11.0995,-29.6211,-4.9428,-14.6783,2.6749
4835031.0,-2.5857,-10.8601,-38.3743,-5.3626,-13.9211,2.0071
4835041.0,-2.1261,-13.034,-44.7428,-5.6276,-12.0215,1.3127
4835051.0,-3.984,-12.3924,-52.8065,-5.1195,-10.2166,0.6651
4835061.0,-5.2098,-14.1641,-55.6796,-3.7977,-8.2637,0.008
4835071.0,-4.7214,-13.8193,-64.8829,-2.2013,-6.2225,-0.6949
4835081.0,-4.9704,-12.8617,-72.8987,-0.5566,-3.3645,-1.2106
4835091.0,-5.8035,-10.5824,-78.4532,0.6971,0.4576,-1.4681
4835101.0,-6.7133,-9.0884,-78.4532,1.682,4.7305,-1.6501
4835111.0,-7.173,-8.8298,-78.4532,2.361,9.3194,-1.8358
4835121.0,-7.7955,-9.7779,-71.5675,2.6185,13.4172,-2.1737
4835131.0,-9.9599,-9.7205,-62.5078,2.6813,16.9818,-2.6584
4835141.0,-11.5688,-10.2951,-51.1401,2.6238,17.4357,-3.1772
4835151.0,-13.0819,-10.228,-38.3455,3.173,17.4357,-3.8152
4835161.0,-14.4897,-10.0652,-26.4894,3.4385,17.4357,-4.4378
4835171.0,-14.6238,-8.667,-11.5017,3.7908,17.4357,-5.1211
4835181.0,-14.4897,-5.8227,9.347,4.4474,17.4357,-5.8288
4835191.0,-12.7467,0.3448,29.5253,4.8135,17.4357,-6.2465
4835201.0,-10.3334,7.4603,52.5862,4.8167,17.4357,-6.3582
4835211.0,-9.3278,15.8688,77.2082,4.6432,17.4357,-5.9905
4835221.0,-8.4372,24.9188,78.4508,4.9492,17.4357,-5.2924
4835231.0,-8.2744,36.3344,78.4508,3.7519,17.4357,-4.1031
4835241.0,-8.3414,41.6112,78.4508,1.1089,17.4357,-2.4674
4835251.0,-7.5369,39.8682,78.4508,-0.5906,15.5377,-0.7301
4835261.0,-3.4668,27.9068,78.4508,-1.8182,11.6788,0.6008
4835271.0,1.1492,14.3269,78.4508,-1.3979,8.086,1.0839
4835281.0,4.3191,6.1196,78.4508,-1.1808,4.8704,1.0121
4835291.0,7.6614,1.0056,78.4508,-0.6572,2.2269,0.6492
4835301.0,9.5672,0.7757,78.4508,-0.4305,-0.0665,0.1857
4835311.0,10.6494,2.7007,78.4508,-0.6146,-1.9316,-0.1612
4835321.0,11.3964,5.6216,78.4508,-0.7599,-3.2661,-0.3097
4835331.0,12.0955,7.2209,75.743,-0.795,-4.1723,-0.2645
4835341.0,12.718,7.7668,65.7639,-0.7364,-4.6134,-0.1405
4835351.0,12.9287,8.102,57.5662,-0.7487,-4.7002,0.0043
4835361.0,13.0436,8.3222,50.4506,-0.6758,-4.507,0.2187
4835371.0,13.4363,8.1882,43.8235,-0.5986,-3.9594,0.4842
4835381.0,13.4937,6.675,39.1117,-0.6263,-3.2336,0.7061
4835391.0,13.1298,4.4819,36.3727,-0.597,-2.3663,0.7897
4835401.0,13.4554,2.4229,34.6872,-0.7279,-1.4064,0.7189
4835411.0,12.6797,1.4748,35.5778,-0.8072,-0.6077,0.5763
4835421.0,12.287,1.2067,37.3879,-0.7545,-0.017,0.4273
4835431.0,12.2679,1.0343,39.4756,-0.6045,0.3597,0.2889
4835441.0,12.0764,0.9577,41.5921,-0.5028,0.4454,0.1495
4835451.0,11.4826,1.5036,43.5074,-0.3501,0.3469,0.0697
4835461.0,11.0133,2.557,44.3981,-0.4198,0.0415,0.074
4835471.0,10.7643,3.371,44.5417,-0.4257,-0.3459,0.141
4835481.0,10.2663,3.9744,43.2106,-0.4895,-0.746,0.2613
4835491.0,10.3238,3.9744,41.7549,-0.6018,-1.0131,0.4395
4835501.0,10.5153,3.055,39.715,-0.7466,-1.0871,0.5539
4835511.0,10.4962,1.7238,39.1979,-0.7753,-1.0711,0.6252
4835521.0,10.1418,0.8906,38.1061,-0.6779,-1.1105,0.6524
4835531.0,9.8737,0.7949,36.5355,-0.5694,-1.0445,0.647
4835541.0,10.0748,-0.0287,35.7981,-0.4986,-0.7865,0.5949
4835551.0,10.3238,-1.1779,35.3959,-0.4001,-0.5268,0.4959
4835561.0,10.5058,-1.81,35.7119,-0.348,-0.3443,0.3539
4835571.0,10.3142,-1.5514,35.7119,-0.3033,-0.3198,0.2059
4835581.0,10.5728,-1.561,35.9609,-0.2815,-0.2873,0.1032
4835591.0,10.9942,-2.0399,35.6832,-0.1181,-0.1421,-0.0181
4835601.0,11.0899,-2.1548,35.4821,-0.0298,0.0905,-0.166
4835611.0,11.2336,-1.5802,36.2003,-0.0628,0.2389,-0.3161
4835621.0,10.6781,-0.4214,36.9186,-0.1293,0.2198,-0.3954
4835631.0,10.7356,0.1341,37.2059,-0.1724,0.2112,-0.4156
4835641.0,10.6686,-0.1341,37.9242,-0.009,0.2708,-0.4651
4835651.0,10.8697,0.0479,37.2059,0.0447,0.3826,-0.5103
4835661.0,10.8984,0.8523,37.8475,0.0937,0.5098,-0.5667
4835671.0,10.4579,1.9537,38.5275,0.0947,0.5263,-0.5092
4835681.0,10.4579,2.3367,39.6192,0.1176,0.4789,-0.4422
4835691.0,10.726,2.1261,39.0638,0.067,0.48,-0.3762
4835701.0,10.7931,2.1452,39.2745,-0.0133,0.4975,-0.3624
4835711.0,10.8793,2.7198,39.5426,-0.0506,0.5859,-0.3326
4835721.0,11.3964,3.1125,40.213,-0.1352,0.5135,-0.2655
4835731.0,11.3294,3.4764,39.8012,-0.2341,0.4039,-0.1873
4835741.0,11.1282,3.1987,39.7246,-0.3374,0.4028,-0.1149
4835751.0,11.5017,2.8922,39.4852,-0.298,0.4986,-0.0516
4835761.0,11.6262,2.4708,39.1404,-0.274,0.6646,-0.0341
4835771.0,11.8178,2.8539,40.462,-0.2932,0.729,-0.0314
4835781.0,11.4156,3.8211,40.5099,-0.3427,0.6566,0.0271
4835791.0,11.4826,3.8403,40.9504,-0.4864,0.564,0.1341
4835801.0,11.6933,2.7294,40.9408,-0.4949,0.53,0.182
4835811.0,11.8274,2.059,40.8355,-0.5151,0.5678,0.124
4835821.0,11.5784,2.1931,41.1132,-0.4981,0.6082,0.0788
4835831.0,11.5784,2.1931,41.4676,-0.4837,0.6066,0.0692
4835841.0,12.0285,1.4844,41.774,-0.3517,0.6518,0.0032
4835851.0,11.7507,2.2889,41.7836,-0.3719,0.6572,-0.0277
4835861.0,11.4634,2.7198,42.5593,-0.3661,0.6071,-0.0208
4835871.0,11.2336,3.0358,42.6359,-0.2778,0.5555,0.0351
4835881.0,11.2911,2.8347,42.4731,-0.2799,0.4874,0.0899
4835891.0,11.3581,2.739,42.7317,-0.2395,0.4587,0.0718
4835901.0,11.1282,2.8252,42.8275,-0.2309,0.4177,0.1059
4835911.0,11.0038,2.7294,43.201,-0.2059,0.3235,0.1628
4835921.0,11.0421,2.241,43.2297,-0.1825,0.2208,0.1767
4835931.0,11.1378,2.1165,43.0669,-0.1809,0.1548,0.1639
4835941.0,11.0708,2.2314,42.952,-0.1777,0.0873,0.1554
4835951.0,11.0038,2.2314,42.6743,-0.2256,0.009,0.1591
4835961.0,10.9942,2.3367,41.9368,-0.3634,-0.066,0.1543
4835971.0,11.2623,2.2122,41.3048,-0.514,-0.1229,0.1804
