time_ms,ax,ay,az,gx,gy,gz
4639131.0,-1.9824,14.1545,44.9631,-1.2074,2.0151,-0.7428
4639141.0,-1.7621,12.2296,44.8865,-0.8344,2.0843,-0.4166
4639151.0,-1.494,10.2663,44.2736,-0.5912,2.1609,-0.2341
4639161.0,-0.9098,8.916,43.5745,-0.5188,2.3471,-0.2203
4639171.0,-0.7853,9.6055,42.6934,-0.9408,2.6042,-0.2692
4639181.0,-1.2163,11.2432,43.7085,-1.5921,2.8899,-0.2666
4639191.0,-2.9305,12.8042,46.0453,-2.5504,2.8112,-0.0926
4639201.0,-4.1946,12.2487,48.2384,-3.397,2.5685,0.2575
4639211.0,-4.7309,8.3893,51.6669,-3.3927,2.7633,0.712
4639221.0,-4.3479,2.7869,55.7753,-2.6419,2.8,0.9009
4639231.0,-4.0414,-0.8523,58.3515,-1.6682,2.7617,0.7364
4639241.0,-5.0566,-1.4174,60.5158,-0.6902,2.8782,0.3916
4639251.0,-6.9815,-1.5514,63.5613,0.0575,2.7122,0.0915
4639261.0,-7.7189,-1.1588,65.5245,0.5321,1.9598,-0.2682
4639271.0,-8.9735,-0.0383,65.8405,0.0639,0.7492,-0.7247
4639281.0,-8.5138,2.1069,64.8446,-0.7987,-0.2916,-1.1941
4639291.0,-9.4619,4.6064,65.1223,-1.8581,-1.5038,-1.5522
4639301.0,-9.7588,7.2592,63.4272,-2.7292,-2.6888,-1.7288
4639311.0,-10.3525,8.3797,63.2357,-3.3592,-3.4183,-1.7214
4639321.0,-12.3828,9.6438,63.4176,-3.5625,-4.4469,-1.5655
4639331.0,-12.22,8.2744,64.4519,-3.3401,-5.4366,-1.3228
4639341.0,-11.0995,6.4643,62.5749,-2.8958,-6.5306,-1.1542
4639351.0,-10.1418,4.1755,59.6635,-2.1205,-7.5278,-1.1536
4639361.0,-9.9503,4.1276,53.9845,-1.4899,-8.128,-1.2654
4639371.0,-9.414,5.1427,48.2384,-1.1047,-8.6208,-1.359
4639381.0,-11.655,8.983,43.8905,-1.0036,-8.749,-1.4649
4639391.0,-9.6726,9.7013,33.3369,-2.5243,-9.1539,-1.3154
4639401.0,-6.3973,6.8953,30.5787,-3.9158,-8.5723,-1.5703
4639411.0,-5.1906,5.0278,32.3888,-5.1248,-7.9822,-1.9145
4639421.0,-4.118,3.3423,36.5451,-5.0604,-7.5842,-2.2594
4639431.0,-5.3726,2.6528,41.0941,-4.2271,-7.5315,-2.4855
4639441.0,-5.047,3.62,42.2912,-2.6329,-7.946,-2.5291
4639451.0,-5.8323,5.545,40.2513,-1.2542,-8.3217,-2.4727
4639461.0,-5.3056,8.9639,35.8364,-0.4597,-8.6282,-2.2971
4639471.0,-4.0318,11.0325,31.1438,-0.2623,-8.8522,-1.9763
4639481.0,-3.1699,11.7029,27.5525,-0.2267,-8.8432,-1.6144
4639491.0,-1.3791,11.8178,23.6739,-0.7072,-8.5633,-1.3037
4639501.0,0.8045,10.1514,21.8543,-1.3947,-8.1653,-1.077
4639511.0,2.0782,8.1211,22.4863,-1.7166,-7.6433,-0.9227
4639521.0,3.304,5.6695,24.2676,-1.6075,-7.1739,-0.8312
4639531.0,4.3862,3.486,26.116,-1.0749,-6.8004,-0.7806
4639541.0,6.0717,0.9481,27.3609,-0.4278,-6.9105,-0.9211
4639551.0,7.604,-0.1245,25.3881,0.182,-6.9201,-1.1866
4639561.0,9.4906,1.3408,21.2126,0.0995,-6.7493,-1.5532
4639571.0,11.0899,2.6336,18.6556,-0.1671,-6.413,-1.8773
4639581.0,12.8138,4.051,15.7347,-0.5789,-5.8559,-2.1375
4639591.0,14.4035,4.3574,13.0149,-0.7742,-5.079,-2.3067
4639601.0,16.0028,4.3958,12.0476,-0.8109,-3.9068,-2.4286
4639611.0,16.2518,3.553,11.9327,-0.5119,-2.6654,-2.4483
4639621.0,17.267,2.3655,12.2583,-0.1719,-1.541,-2.5211
4639631.0,18.263,2.5187,12.3732,0.1011,-0.2075,-2.6898
4639641.0,18.397,3.304,15.9071,0.3267,0.9956,-2.8308
4639651.0,17.8895,4.4053,20.5901,0.8769,1.8033,-2.8101
4639661.0,17.0276,5.8993,24.2006,1.8055,2.3918,-2.6515
4639671.0,15.5623,7.1635,26.1255,2.5387,2.6116,-2.3764
4639681.0,15.1697,6.9528,24.5741,2.6254,2.5605,-2.1242
4639691.0,16.1848,4.7788,21.2509,1.8927,2.7803,-2.1407
4639701.0,18.1959,2.5283,20.0634,1.1339,3.604,-2.4211
4639711.0,17.1808,2.8443,21.4616,0.5326,4.4751,-2.8005
4639721.0,16.2997,4.9129,25.2636,0.1575,5.2269,-3.1065
4639731.0,11.7507,11.7029,30.0807,0.6694,5.311,-2.7686
4639741.0,12.4882,8.667,32.6761,0.4821,5.559,-2.2737
4639751.0,14.1258,7.1251,32.8293,1.1776,5.9852,-2.1923
4639761.0,10.4004,7.7189,34.2084,1.0041,5.3009,-2.1109
4639771.0,11.2623,9.2895,29.5732,0.8812,5.5946,-1.9566
4639781.0,10.5919,8.351,28.5676,0.8046,6.4093,-1.8012
4639791.0,9.6534,6.5601,27.993,0.4459,7.2085,-1.8486
4639801.0,11.0995,5.7748,30.5404,0.3778,8.2451,-2.079
4639811.0,7.8913,8.8011,34.5148,0.281,9.0225,-2.2067
4639821.0,5.114,11.8369,38.901,-0.2006,9.2577,-2.0891
4639831.0,3.1412,15.4474,44.4555,-0.5747,8.8341,-1.7554
4639841.0,1.4653,18.263,46.7157,-1.3776,7.954,-1.2164
4639851.0,-0.0479,17.4394,47.568,-2.1263,6.8281,-0.6428
4639861.0,-0.2203,14.6334,45.509,-2.204,6.3109,-0.1399
4639871.0,0.0,11.1378,43.9097,-1.9225,6.2603,0.1788
4639881.0,0.8236,8.8969,40.5961,-1.4277,6.5514,0.2261
4639891.0,-0.4118,9.5385,39.1308,-1.3117,6.9521,0.1788
4639901.0,-2.308,11.8369,40.5099,-1.3808,7.1282,0.2405
4639911.0,-4.0797,14.7674,41.0366,-1.3234,7.1394,0.5545
4639921.0,-6.7708,16.1752,41.1994,-1.6272,6.8323,0.9966
4639931.0,-8.5521,15.7155,39.5043,-1.9103,6.4966,1.4394
4639941.0,-8.2839,14.6238,36.8707,-1.7932,6.9111,1.8289
4639951.0,-9.5864,12.9478,37.4262,-1.2063,7.8247,2.1593
4639961.0,-10.7069,11.7507,38.8818,-0.2948,8.5707,2.4105
4639971.0,-12.153,11.157,40.7493,0.5215,9.2034,2.6079
4639981.0,-13.6469,11.4156,43.0094,1.0477,9.4854,2.7351
4639991.0,-14.5759,13.0723,44.6662,1.3069,9.5413,2.9138
4640001.0,-16.6062,15.591,45.1259,0.9392,9.3513,3.132
4640011.0,-18.4928,17.9086,45.1738,-0.1846,8.7415,3.4178
4640021.0,-20.2358,19.1153,45.2887,-1.2712,8.4021,3.8115
4640031.0,-22.4193,17.2861,48.5736,-1.698,8.533,4.3601
4640041.0,-21.4042,13.1011,53.2854,-1.4548,8.3978,4.7023
4640051.0,-21.634,9.2033,57.7194,-1.4011,7.7875,4.6938
4640061.0,-22.6204,7.2688,60.6212,-1.4963,6.8781,4.491
4640071.0,-22.7736,6.1292,62.3354,-1.4484,5.6899,4.2644
4640081.0,-23.1184,6.8666,60.9947,-1.6426,4.5724,4.0313
4640091.0,-22.9652,8.102,58.792,-1.9635,3.7679,3.9094
4640101.0,-23.0993,10.4483,56.417,-2.5776,3.1437,3.8727
4640111.0,-23.3387,11.789,55.6412,-3.0841,2.7281,4.0084
4640121.0,-23.9037,12.4882,55.5838,-3.662,2.444,4.2207
4640131.0,-24.0474,11.3485,57.8248,-3.6008,2.2232,4.5873
4640141.0,-23.6356,9.098,60.4009,-3.5279,1.6698,4.9199
4640151.0,-22.5246,6.6846,62.594,-3.5162,0.7779,5.0599
4640161.0,-22.1512,5.0661,63.1112,-3.5939,-0.3555,5.1242
4640171.0,-21.7872,4.3479,60.8415,-3.9238,-1.5213,5.1306
4640181.0,-21.5191,4.0989,58.8591,-4.2947,-2.4099,5.1498
4640191.0,-21.2701,3.9744,57.3746,-4.6273,-3.0267,5.2275
4640201.0,-21.0115,3.869,55.2103,-4.6799,-3.6269,5.3786
4640211.0,-20.9636,3.4764,54.6357,-4.6118,-3.8972,5.5749
4640221.0,-21.8255,2.0494,54.4825,-4.2745,-4.0914,5.874
4640231.0,-20.4848,-1.9058,56.8383,-3.7764,-4.5448,6.0629
4640241.0,-18.9717,-6.0717,57.1927,-3.6093,-5.5957,5.9272
4640251.0,-17.1616,-8.8681,54.9996,-3.6694,-6.4843,5.5308
4640261.0,-16.2135,-10.5441,52.1553,-4.0526,-7.2495,4.9588
4640271.0,-14.9015,-11.1282,49.3206,-4.6225,-7.896,4.3043
4640281.0,-14.3652,-10.2759,48.5927,-5.054,-8.4132,3.6971
4640291.0,-14.0875,-9.2512,47.3765,-5.1008,-9.0017,3.2688
4640301.0,-13.8864,-8.0828,45.0589,-4.5687,-9.387,3.0373
4640311.0,-12.967,-7.5848,42.5593,-3.9148,-9.4195,2.9809
4640321.0,-11.8274,-8.0732,40.0119,-3.256,-9.4072,2.9197
4640331.0,-9.7396,-8.9256,37.2059,-2.8276,-9.13,2.7835
4640341.0,-8.3222,-9.8354,34.8979,-3.1325,-8.8719,2.502
4640351.0,-6.177,-10.228,35.281,-2.6861,-8.6756,2.2173
4640361.0,-5.4492,-8.4755,33.0783,-3.1554,-8.3691,1.9603
4640371.0,-4.1851,-8.0541,33.0017,-3.6354,-8.3595,1.7581
4640381.0,-3.0646,-7.7189,34.1413,-4.0627,-8.2919,1.5836
4640391.0,-2.2314,-7.4986,34.1509,-4.0888,-8.4058,1.4979
4640401.0,-1.2929,-8.0445,33.8253,-3.6428,-8.2461,1.4958
4640411.0,0.2586,-9.4236,33.9498,-2.9474,-8.003,1.5053
4640421.0,3.0071,-10.9942,32.9442,-2.5509,-7.9769,1.383
4640431.0,3.6679,-11.3868,31.7854,-2.3945,-8.0652,1.143
4640441.0,5.3534,-11.2336,29.6402,-2.6382,-8.2706,0.8908
4640451.0,5.8993,-9.9503,26.2788,-2.9617,-8.3888,0.6939
4640461.0,6.2632,-10.161,24.6315,-3.3528,-8.376,0.5236
4640471.0,7.9871,-9.8641,22.1799,-3.2219,-8.235,0.4028
4640481.0,9.7013,-9.8928,19.2877,-3.0187,-7.738,0.2996
4640491.0,11.0133,-9.9599,16.2423,-2.7116,-6.96,0.2166
4640501.0,12.6414,-10.8026,13.9343,-2.3594,-6.0118,0.067
4640511.0,14.461,-12.0285,12.9957,-2.1439,-4.9109,-0.133
4640521.0,15.7922,-12.7946,12.9,-1.7533,-3.8248,-0.4427
4640531.0,15.8975,-12.0093,13.5512,-1.3973,-2.7659,-0.7295
4640541.0,14.8536,-10.8793,14.4706,-1.2345,-1.9108,-0.9605
4640551.0,13.9438,-9.6534,15.4474,-1.2744,-1.5868,-1.0914
4640561.0,14.4035,-9.165,14.6908,-1.5703,-1.3319,-1.2026
4640571.0,16.0699,-9.3565,11.2144,-2.1391,-0.796,-1.4457
4640581.0,16.3859,-9.0884,10.2376,-2.5903,0.4832,-1.7868
4640591.0,15.8783,-9.6822,14.777,-1.7251,2.0689,-1.9406
4640601.0,15.8017,-10.6781,21.5095,-0.1426,3.239,-2.0093
4640611.0,15.84,-10.343,23.0322,1.6064,4.1249,-2.1364
4640621.0,14.8441,-9.3182,24.7752,2.9362,4.7645,-2.2982
4640631.0,14.1162,-6.7516,25.2062,3.4545,5.2136,-2.4738
4640641.0,13.3118,-3.8116,25.2828,3.347,5.4637,-2.536
4640651.0,11.2911,-1.5993,26.5948,2.6004,5.518,-2.4828
4640661.0,10.6686,-1.3408,28.0984,1.7895,5.4201,-2.3716
4640671.0,10.5153,-1.4365,29.1326,1.1419,5.542,-2.2327
4640681.0,9.8737,-1.81,31.2491,0.8157,5.6744,-2.1226
4640691.0,9.1459,-2.2793,33.0974,1.1286,5.9309,-1.9161
4640701.0,8.2456,-2.3942,34.9841,1.6916,6.1879,-1.7203
4640711.0,6.8953,-2.4804,36.8899,2.0736,6.0485,-1.541
4640721.0,5.6312,-3.3615,37.9625,2.2418,5.5042,-1.3681
4640731.0,4.4245,-4.8459,36.8516,2.1609,4.7752,-1.292
4640741.0,5.545,-7.1826,31.977,2.2365,4.5469,-1.4367
4640751.0,6.5888,-9.0692,28.5197,2.7398,5.4637,-1.7703
4640761.0,5.5067,-9.3087,26.9396,3.2033,6.744,-2.196
4640771.0,4.6352,-8.2073,29.056,3.3113,8.0243,-2.742
4640781.0,2.2984,-5.679,33.8827,3.413,8.9241,-3.1485
4640791.0,0.0,-3.6105,40.711,3.5056,9.1321,-3.3757
4640801.0,-0.5746,-1.4078,45.7005,3.8993,8.9874,-3.3927
4640811.0,-2.9401,0.4214,50.4793,4.0206,8.1488,-3.3342
4640821.0,-5.6024,0.2873,50.4889,3.9866,6.6876,-3.1645
4640831.0,-3.3232,-0.5459,45.8537,3.2858,5.4121,-3.2182
4640841.0,2.806,-1.6185,36.0758,2.1598,4.6666,-3.7631
4640851.0,-9.845,-3.2465,38.5275,3.2805,6.4253,-3.8583
4640861.0,-7.1156,3.122,37.8188,1.2451,6.7945,-4.0547
4640871.0,-6.7995,3.1987,44.829,1.55,6.6615,-3.7322
4640881.0,-7.5848,2.739,49.694,1.9188,6.6796,-3.4162
4640891.0,-7.5465,2.8922,52.1936,2.4839,6.073,-3.0996
4640901.0,-10.0652,0.5363,55.1911,2.8564,4.6533,-2.7936
4640911.0,-8.4851,-2.4229,49.5695,3.0724,3.2257,-2.7973
4640921.0,-5.2098,-4.4245,42.3678,3.1363,3.5008,-3.1874
4640931.0,-5.6503,-4.2138,39.2074,2.9442,4.2617,-3.7902
4640941.0,-6.8666,-1.6185,40.6727,2.9479,5.0604,-4.2952
4640951.0,-9.3948,1.8579,43.0765,2.7643,5.5877,-4.5246
4640961.0,-11.1187,4.4245,46.9551,2.635,5.5292,-4.5235
4640971.0,-11.5688,6.2058,49.9622,2.378,5.1562,-4.3543
4640981.0,-5.7174,3.2178,54.2239,2.0369,4.1015,-4.2899
4640991.0,-13.6182,0.7278,53.5343,1.6644,2.9756,-4.2739
4641001.0,-13.4171,0.3831,49.7515,1.8661,1.6778,-4.4027
4641011.0,-9.6438,-2.2889,50.307,1.4202,0.4198,-4.6539
4641021.0,-7.0677,-2.9113,43.4691,2.718,0.7274,-5.0428
4641031.0,-9.0884,-2.9113,41.774,3.3363,1.1435,-5.5755
4641041.0,-9.2225,0.4693,38.2115,4.0903,1.8805,-6.0049
4641051.0,-10.8409,3.1603,38.3264,4.0137,2.1354,-6.2401
4641061.0,-12.5073,5.0661,39.1691,3.9312,2.3706,-6.3838
4641071.0,-13.5991,6.6463,37.6943,3.4933,2.3977,-6.495
4641081.0,-13.5225,6.3303,37.4453,3.0964,2.9878,-6.6434
4641091.0,-13.9917,6.9911,39.3415,3.0277,3.9541,-6.8371
4641101.0,-15.6198,8.3414,43.948,2.7803,4.6496,-7.0021
4641111.0,-17.7075,10.7452,49.9718,2.5557,4.9231,-7.0963
4641121.0,-19.7761,13.532,58.2653,2.1348,4.4937,-7.0005
4641131.0,-20.7529,15.7155,65.6011,1.9784,3.4454,-6.7472
4641141.0,-20.0538,16.4817,70.2171,1.8917,1.9592,-6.413
4641151.0,-23.0418,14.8057,70.7343,1.4968,-0.0468,-6.3327
4641161.0,-25.4552,16.3285,67.143,1.6772,-1.028,-5.9852
4641171.0,-25.3307,18.148,65.3042,0.3863,-2.1402,-5.6462
4641181.0,-22.5246,16.2135,65.5245,0.6524,-3.272,-5.2397
4641191.0,-21.7202,15.2846,63.1016,0.5066,-3.7243,-5.12
4641201.0,-21.7585,15.3899,62.3259,0.5614,-4.4038,-4.9854
4641211.0,-21.8064,16.8073,61.5789,0.4933,-5.1216,-4.8183
4641221.0,-21.8351,17.8895,60.0562,0.2692,-5.941,-4.541
4641231.0,-21.2509,19.0483,56.7713,-0.3613,-6.7839,-4.2484
4641241.0,-20.6572,18.6939,54.9326,-1.0179,-7.4267,-3.9195
4641251.0,-19.8144,16.8169,53.9749,-1.5266,-7.8902,-3.6317
4641261.0,-18.5215,13.4554,55.2007,-1.2207,-8.2504,-3.4508
4641271.0,-17.3053,11.3964,55.6796,-0.3661,-8.534,-3.3651
4641281.0,-16.7307,10.5345,54.7314,0.2277,-9.2742,-3.3661
4641291.0,-15.2654,11.5592,50.7858,0.2134,-9.9803,-3.4571
4641301.0,-14.4131,14.2216,46.754,0.0702,-10.4071,-3.4875
4641311.0,-13.3309,17.5064,41.1132,-0.505,-10.7503,-3.3353
4641321.0,-11.5975,20.2645,36.411,-0.9482,-10.6822,-2.9889
4641331.0,-11.1666,20.6093,32.9729,-1.6224,-10.2921,-2.5121
4641341.0,-7.7955,18.3396,31.4885,-1.5681,-9.3551,-1.9965
4641351.0,-6.0334,15.8592,31.728,-1.4665,-8.475,-1.6219
4641361.0,-4.1659,14.9015,32.0631,-1.6559,-7.8093,-1.4026
4641371.0,-3.8595,15.1505,36.4206,-1.6495,-7.25,-1.1722
4641381.0,-3.9169,16.4051,39.3511,-1.3633,-7.4852,-0.7184
4641391.0,-3.4477,17.2478,38.6041,-0.9158,-7.6566,-0.1117
4641401.0,-3.1891,16.5775,35.7885,-1.0669,-7.9019,0.4417
4641411.0,-1.3503,13.5416,32.8006,-1.499,-8.0509,0.8503
4641421.0,0.7853,9.2799,30.3202,-2.022,-7.8508,0.9418
4641431.0,3.0454,6.5888,28.9411,-2.5882,-7.5661,0.7561
4641441.0,4.1372,5.3439,29.7551,-2.9048,-7.274,0.489
4641451.0,4.549,6.5218,30.301,-2.7973,-7.1042,0.3634
4641461.0,4.1084,8.8298,29.6689,-2.5488,-6.9861,0.4534
4641471.0,5.3534,10.0173,27.6195,-2.4999,-6.7733,0.6917
4641481.0,6.7708,10.3813,26.3554,-2.4009,-6.6179,0.9716
4641491.0,7.6231,10.2568,23.8846,-2.56,-6.2401,1.2313
4641501.0,8.4659,9.6055,23.1854,-2.5456,-5.8916,1.4633
4641511.0,9.4044,8.8585,21.3084,-2.7244,-5.65,1.6538
4641521.0,9.8641,7.9775,19.6325,-2.4105,-5.071,1.8491
4641531.0,10.094,7.8626,18.397,-2.22,-4.4905,2.013
4641541.0,12.287,8.5425,14.6046,-2.1625,-3.9089,2.2652
4641551.0,13.2064,6.9336,15.1888,-1.8156,-2.9766,2.4967
4641561.0,13.8289,6.2537,12.8617,-1.5814,-2.3418,2.7111
4641571.0,14.8345,3.5721,11.8752,-1.4867,-1.5458,2.775
4641581.0,15.1888,3.2657,9.663,-1.2377,-0.2602,2.7766
4641591.0,15.1792,2.557,11.8082,-1.1158,0.6641,2.775
4641601.0,14.7962,2.6815,12.9191,-0.7114,1.6022,2.7872
4641611.0,14.5089,3.3423,13.4363,-0.257,2.4275,2.8723
4641621.0,13.6182,5.2481,13.9151,0.1256,3.2581,3.0501
4641631.0,12.2296,7.3837,14.0875,0.4172,4.1058,3.3587
4641641.0,11.7412,6.5888,15.1314,0.6779,5.004,3.7312
4641651.0,11.1953,3.8786,17.3436,0.8865,5.8554,3.9435
4641661.0,11.3485,1.245,19.4122,1.0307,6.7589,3.9387
4641671.0,11.0229,-1.5514,23.9324,1.3287,7.4927,3.7557
4641681.0,10.1514,-2.6145,28.3857,1.8406,8.1999,3.4481
4641691.0,8.4946,-0.249,31.4311,2.2381,8.443,3.173
4641701.0,7.1251,2.7007,34.0551,2.2535,8.5723,3.065
4641711.0,5.6216,5.7652,35.5874,1.8337,8.4324,3.1187
4641721.0,4.1276,7.2209,36.7462,1.184,8.2382,3.3225
4641731.0,1.6951,6.359,37.9337,0.3634,7.7359,3.5545
4641741.0,2.5379,2.988,37.7709,0.0112,7.431,3.6918
4641751.0,2.308,0.6895,37.6656,0.2788,7.8274,3.7099
4641761.0,1.5993,-0.3831,38.5754,0.6784,8.2142,3.6492
4641771.0,0.0,-0.3831,39.1308,1.0264,8.3403,3.5439
4641781.0,-0.7853,1.2354,38.4892,1.0871,8.4797,3.4774
4641791.0,-2.988,3.2753,38.0295,0.8003,8.4515,3.505
4641801.0,-5.047,4.8076,37.6656,0.2006,8.2121,3.6019
4641811.0,-6.8187,4.0606,37.2634,-0.0841,7.954,3.7945
4641821.0,-6.3303,3.0071,36.2195,0.6912,8.7415,3.9616
4641831.0,-7.7764,2.2601,37.34,1.3494,9.7254,4.0653
4641841.0,-9.1746,2.1165,41.209,2.0625,10.2049,4.0137
4641851.0,-11.5113,2.9975,46.1219,3.007,10.5768,4.0488
4641861.0,-12.6127,4.5777,49.2535,3.8062,10.4549,4.0994
4641871.0,-14.1641,6.4835,49.1577,3.7429,9.7526,4.1154
4641881.0,-15.4857,8.0732,46.256,2.3525,8.724,4.0254
4641891.0,-14.5951,9.165,42.6647,0.9259,8.1727,3.8685
4641901.0,-15.591,12.3062,40.2992,-0.0005,8.4957,3.8695
4641911.0,-19.2781,15.0356,41.7357,-0.4262,9.3444,4.2
4641921.0,-21.0019,14.0588,46.8497,-0.083,9.8015,4.7582
4641931.0,-21.7872,10.8026,53.2183,0.2969,9.9564,5.1588
4641941.0,-22.0745,7.6327,59.472,1.0621,9.5067,5.2663
4641951.0,-22.4193,5.8802,64.8541,1.6336,8.376,5.1812
4641961.0,-22.7832,6.11,65.4287,2.2556,7.1239,5.0189
4641971.0,-22.4672,7.3358,64.088,2.5807,5.8931,4.7981
4641981.0,-22.7736,10.8601,58.5143,2.5297,4.8284,4.6395
4641991.0,-22.6779,14.5951,51.619,1.3388,4.1308,4.5389
4642001.0,-22.5151,17.516,46.8306,0.1219,3.9786,4.5841
4642011.0,-23.9707,20.4656,44.8769,-1.1307,4.3282,4.8252
4642021.0,-26.748,19.9293,47.9702,-1.5713,4.7315,5.4041
4642031.0,-26.8725,15.4378,53.0076,-1.6522,4.6608,5.9331
4642041.0,-26.3171,10.6207,56.8096,-1.7315,3.9972,6.0916
4642051.0,-25.6275,7.6327,59.6252,-1.6341,3.1879,5.9613
4642061.0,-25.4456,6.3973,61.0426,-1.2553,2.4211,5.799
4642071.0,-25.254,6.8091,60.5063,-1.0461,1.5868,5.5547
4642081.0,-25.0912,7.9583,59.223,-1.1861,0.6518,5.3733
4642091.0,-25.2445,9.596,57.4991,-1.5155,-0.2879,5.2839
4642101.0,-25.0529,10.6686,53.9078,-2.1205,-0.9871,5.3147
4642111.0,-24.756,10.1227,52.0308,-2.8298,-1.4708,5.344
4642121.0,-24.1623,8.2935,51.5232,-3.5497,-1.7953,5.3578
4642131.0,-22.9077,5.6216,51.9063,-4.0159,-2.0534,5.2567
4642141.0,-22.6108,3.5434,54.8081,-3.9951,-2.4153,5.1157
4642151.0,-22.3618,3.1412,55.3252,-3.7471,-2.9245,5.0051
4642161.0,-22.1512,2.7869,54.9613,-3.5338,-3.5327,4.9322
4642171.0,-21.4137,2.7198,54.0228,-3.5848,-4.2415,4.8789
4642181.0,-20.8679,1.5706,52.2894,-3.7498,-4.8768,4.7959
4642191.0,-19.9964,0.4788,50.9582,-3.7482,-5.4467,4.6916
4642201.0,-18.8472,-0.8906,49.7036,-3.7333,-5.833,4.599
4642211.0,-18.148,-2.0111,48.5353,-3.5279,-6.1581,4.449
4642221.0,-17.832,-2.8443,47.6638,-3.5566,-6.5147,4.3202
4642231.0,-17.0659,-3.3327,46.8306,-3.5721,-7.0313,4.1872
4642241.0,-16.6732,-4.5777,45.4611,-3.6327,-7.5874,4.0664
4642251.0,-15.7634,-5.5737,42.9616,-3.5385,-8.1403,3.9148
4642261.0,-14.2982,-6.3686,40.0694,-3.4912,-8.4718,3.711
4642271.0,-12.9287,-6.7612,36.9952,-3.3661,-8.5282,3.5162
4642281.0,-11.7795,-8.0158,35.3001,-3.1161,-8.3201,3.33
4642291.0,-9.4332,-9.7396,34.5627,-2.8654,-8.012,3.0884
4642301.0,-7.5178,-11.9806,35.032,-2.6973,-7.8806,2.6824
4642311.0,-6.3877,-12.1817,33.7678,-2.4908,-7.9875,2.1976
4642321.0,-5.5929,-13.465,35.1086,-2.3163,-8.0535,1.7299
4642331.0,-4.051,-12.8808,32.1206,-1.947,-8.0354,1.2547
4642341.0,-3.3902,-13.0245,30.732,-1.7219,-8.0152,0.8014
4642351.0,-1.7334,-12.0189,27.926,-1.6442,-7.7077,0.3065
4642361.0,-0.2873,-11.3868,27.3992,-1.4979,-7.4129,-0.1357
4642371.0,1.8866,-10.0365,25.3785,-1.135,-6.8962,-0.5364
4642381.0,2.7869,-9.1554,24.4687,-0.6465,-6.2986,-0.8381
4642391.0,4.0031,-8.1403,22.8886,-0.2235,-5.5957,-1.0759
4642401.0,5.3056,-7.7381,22.6396,-0.0011,-4.9774,-1.3292
4642411.0,6.3015,-7.0964,22.1895,0.0394,-4.4314,-1.5681
4642421.0,6.8091,-6.4835,22.7066,0.1309,-3.9185,-1.7831
4642431.0,6.608,-6.0142,22.4385,0.1224,-3.6567,-1.9364
4642441.0,7.355,-6.3015,21.4137,0.0112,-3.5098,-2.1338
4642451.0,8.8585,-6.3015,19.9293,-0.1277,-2.9612,-2.3982
4642461.0,10.1035,-7.4795,19.01,0.0144,-2.3051,-2.7207
4642471.0,10.41,-7.7381,17.1521,0.0809,-1.3175,-3.0666
4642481.0,10.6398,-8.8777,19.575,0.8072,-0.4145,-3.4577
4642491.0,11.1474,-7.9583,18.828,1.1031,0.505,-3.9068
4642501.0,10.0556,-6.9049,20.0443,1.5027,1.1488,-4.3208
4642511.0,8.6095,-4.9895,19.7378,1.4846,1.9252,-4.6368
4642521.0,7.4891,-3.735,20.6859,1.4442,2.5488,-4.9029
4642531.0,7.2975,-2.4421,20.8008,1.2739,3.231,-5.1689
4642541.0,6.8091,-0.7278,21.2414,1.0626,4.2468,-5.4409
4642551.0,5.2385,1.1301,24.3155,1.1233,5.1072,-5.5872
4642561.0,3.8978,3.3998,27.926,1.4447,5.7803,-5.5542
4642571.0,1.3599,5.2194,31.8429,1.9161,6.2896,-5.3839
4642581.0,0.6033,6.6367,35.2522,2.4408,6.4763,-5.0881
4642591.0,-0.1245,7.3741,38.7861,2.7968,6.2087,-4.7949
4642601.0,-1.0343,7.2688,39.5235,2.7542,5.6963,-4.6512
4642611.0,-1.1971,6.79,37.9433,2.3934,5.3983,-4.6209
4642621.0,-0.9577,6.5314,38.154,2.0949,5.5366,-4.6682
4642631.0,-1.6185,7.2401,40.146,1.9928,5.6228,-4.7172
4642641.0,-2.873,7.853,42.7126,2.337,5.6931,-4.6235
4642651.0,-3.3423,8.3414,46.3901,2.8229,5.526,-4.4868
4642661.0,-3.8595,9.1554,47.8745,3.0607,4.8933,-4.2808
4642671.0,-5.2577,6.8761,50.7571,3.281,3.7929,-4.0989
4642681.0,-4.2234,4.3574,47.9128,3.2235,2.6967,-4.2244
4642691.0,-2.9975,1.9632,44.0246,2.8676,1.9385,-4.6182
4642701.0,-2.2314,2.1835,40.2609,2.5749,1.88,-5.1317
4642711.0,-3.3902,3.9361,39.0829,2.3269,1.9832,-5.5313
4642721.0,-4.1851,6.3398,38.8627,2.1561,2.0694,-5.7729
4642731.0,-6.292,8.3127,39.4469,2.1588,1.8475,-5.8107
4642741.0,-7.5465,8.8777,38.3072,2.3243,1.7916,-5.7324
4642751.0,-7.4891,9.4044,34.9075,2.6952,2.2253,-5.6973
4642761.0,-8.0254,9.7492,33.6816,2.9367,2.9798,-5.6856
4642771.0,-8.7819,9.9982,34.3329,2.9969,3.8019,-5.7649
4642781.0,-10.4004,10.4196,36.9665,3.1592,4.523,-5.8607
4642791.0,-11.6358,10.908,41.8123,3.3709,5.0013,-5.9235
4642801.0,-12.9957,11.5688,46.1698,3.563,4.8891,-5.9895
4642811.0,-14.3461,12.8808,49.4259,3.5763,4.5198,-6.0576
4642821.0,-15.6389,14.2311,51.2646,3.4151,3.8179,-6.1001
4642831.0,-16.2901,15.208,51.7435,2.9644,3.1129,-6.1283
4642841.0,-16.8264,16.0699,51.3796,2.3674,2.4977,-6.2262
4642851.0,-17.0659,16.7786,50.5655,1.4899,2.0077,-6.3125
4642861.0,-17.4968,17.2383,52.4234,1.0802,1.6969,-6.3454
4642871.0,-17.9374,17.6979,54.8081,1.2654,1.4186,-6.2662
4642881.0,-18.33,17.5543,56.302,1.7996,0.9977,-6.1331
4642891.0,-19.3739,17.4202,56.9437,2.3482,0.3959,-6.0384
4642901.0,-20.0538,19.1632,55.2677,2.6483,-0.0883,-5.9171
4642911.0,-20.9349,21.6532,53.7355,2.3392,-0.5055,-5.7309
4642921.0,-21.2797,23.5589,53.6205,1.9055,-1.0052,-5.4738
4642931.0,-21.5765,25.4552,53.18,1.2499,-1.3744,-5.1828
4642941.0,-21.6053,26.2213,54.0132,0.2953,-1.9209,-4.8284
4642951.0,-20.7529,25.7329,55.421,-0.4177,-2.5627,-4.4942
4642961.0,-20.6284,25.6467,55.1624,-1.1988,-3.2544,-4.1499
4642971.0,-20.4848,24.191,55.9669,-1.9938,-4.0488,-3.8855
4642981.0,-20.7817,23.0322,56.3404,-2.4232,-4.797,-3.62
4642991.0,-20.1209,21.567,57.5566,-2.3402,-5.5824,-3.2932
4643001.0,-19.6995,20.8296,56.3787,-1.8257,-6.3289,-2.9543
4643011.0,-18.8567,20.1975,52.4905,-1.6698,-6.8802,-2.6542
4643021.0,-17.7171,19.4792,49.7324,-1.533,-7.224,-2.4238
4643031.0,-16.3476,19.8048,47.1849,-1.5325,-7.3277,-2.2088
4643041.0,-15.8975,20.2358,46.7731,-1.3824,-7.4395,-1.8757
4643051.0,-14.6238,19.9868,45.8729,-1.0972,-7.5826,-1.5
4643061.0,-13.6565,19.1057,44.5417,-0.8477,-7.6688,-1.1212
4643071.0,-12.0764,17.267,43.6319,-0.7066,-7.7949,-0.8056
4643081.0,-10.1227,15.0739,42.7126,-0.7785,-8.0083,-0.6742
4643091.0,-8.734,13.7236,41.5825,-1.1685,-8.4239,-0.6822
4643101.0,-7.355,12.718,39.9257,-1.7671,-8.8677,-0.779
4643111.0,-5.7557,12.0093,39.1308,-2.1269,-9.106,-0.8955
4643121.0,-4.4436,11.9997,36.7271,-2.3562,-9.3838,-1.002
4643131.0,-2.9209,11.8178,34.6776,-2.2668,-9.3492,-1.0201
4643141.0,-1.4365,11.8369,31.9099,-2.054,-9.0225,-1.036
4643151.0,0.0479,11.7699,29.8509,-1.9119,-8.6942,-1.0355
4643161.0,1.3982,12.0572,27.6482,-1.8762,-8.1642,-1.0259
4643171.0,2.2314,12.651,26.0106,-1.9678,-7.5842,-1.0073
4643181.0,2.9592,13.3501,24.9955,-2.1785,-6.9068,-0.9232
4643191.0,3.3232,14.2599,24.7848,-2.4174,-6.3087,-0.8168
4643201.0,3.9552,14.0683,26.0776,-2.4397,-5.6441,-0.6024
4643211.0,5.1332,13.6661,27.7536,-1.8496,-4.9556,-0.3374
4643221.0,5.6695,12.9478,28.7879,-1.1776,-4.416,-0.0809
4643231.0,6.3494,12.6127,28.7591,-0.5827,-3.8626,0.1346
4643241.0,7.0964,12.3828,29.1039,-0.1437,-3.3763,0.3251
4643251.0,7.3837,13.0149,28.8549,-0.0325,-3.1091,0.4422
4643261.0,8.0062,14.212,27.7632,-0.1921,-2.8239,0.5694
4643271.0,7.6136,15.6198,27.3418,-0.7928,-2.6771,0.7524
4643281.0,7.6136,16.5679,26.8917,-1.3207,-2.5148,0.9775
4643291.0,7.3071,17.0946,26.2883,-1.7081,-2.2439,1.3282
4643301.0,6.9623,16.0795,26.6139,-1.8523,-1.8688,1.7469
4643311.0,7.7764,13.2735,26.8151,-1.7235,-1.4277,2.0843
4643321.0,8.6,10.1323,28.1175,-1.591,-1.0711,2.2162
4643331.0,9.4619,8.2648,28.8836,-1.5059,-0.9248,2.188
4643341.0,9.3087,7.5465,29.2955,-1.5463,-0.9333,2.0758
4643351.0,9.2703,7.5178,28.6538,-1.7405,-1.0233,1.9672
4643361.0,9.2895,8.3127,26.2213,-2.0939,-1.0786,1.897
4643371.0,9.3374,9.7109,23.5589,-2.7569,-1.0743,1.8911
4643381.0,9.1554,10.41,22.2086,-3.5242,-0.9232,1.9587
4643391.0,9.2225,10.659,21.4616,-3.6663,-0.596,2.1481
4643401.0,9.1554,11.0229,20.4465,-3.0432,0.2107,2.5472
4643411.0,9.6726,9.8162,20.0347,-1.7916,1.2723,3.0091
4643421.0,9.9407,9.2416,18.7418,-0.5656,2.5031,3.4103
4643431.0,9.4427,8.9735,17.8033,0.3501,3.8137,3.7487
4643441.0,8.6766,9.0884,18.1959,0.6353,4.9343,3.9978
4643451.0,7.6998,9.098,20.2358,0.6657,5.8761,4.2356
4643461.0,6.1483,9.0884,22.9748,0.522,6.6583,4.4995
4643471.0,4.6926,7.288,27.1407,0.3129,7.0984,4.7012
4643481.0,4.8746,5.2289,31.297,0.3347,7.1734,4.8305
4643491.0,4.4245,2.8252,34.9075,0.5906,7.0696,4.8364
4643501.0,4.798,1.0726,36.7271,1.1941,6.9856,4.7544
4643511.0,5.2098,-0.316,37.1484,1.8464,6.8829,4.5352
4643521.0,5.1811,-0.4405,36.0471,2.1641,6.8408,4.2346
4643531.0,4.8459,0.5842,34.9745,2.0598,6.8121,3.8653
4643541.0,3.7062,1.8579,34.2945,1.5048,6.7445,3.5417
4643551.0,2.7869,3.237,33.4231,1.0642,6.8435,3.2943
4643561.0,1.312,4.8363,32.5133,0.6886,7.1723,3.1639
4643571.0,0.0479,6.0047,32.6952,0.5624,7.7694,3.14
4643581.0,-1.0726,6.5697,34.0264,0.6263,8.5165,3.1884
4643591.0,-2.8347,6.6655,37.5028,0.7652,9.1449,3.2603
4643601.0,-4.0606,6.8761,41.9368,1.2398,9.4631,3.3475
4643611.0,-5.1523,7.3071,45.3749,1.8299,9.5488,3.4545
4643621.0,-6.3782,8.2073,47.1562,2.2721,9.3221,3.563
4643631.0,-7.8434,8.8873,47.9511,2.3743,8.7916,3.645
4643641.0,-8.7149,9.9695,46.2656,2.1662,8.2584,3.6694
4643651.0,-9.4715,11.2527,43.5362,1.7991,8.1211,3.7008
4643661.0,-10.9559,12.7467,41.2473,1.2175,8.2616,3.8062
4643671.0,-12.5265,12.9861,41.6591,0.6066,8.7591,3.9174
4643681.0,-13.9821,11.7507,44.9823,0.1602,9.0619,4.0366
4643691.0,-14.7579,10.1323,48.8992,-0.1128,8.9661,4.0749
4643701.0,-15.524,9.1746,52.5001,-0.3794,8.4792,4.0238
4643711.0,-16.4625,8.7628,54.3005,-0.4363,7.8971,3.9467
4643721.0,-16.7977,8.9064,54.9996,-0.5475,7.2021,3.8328
4643731.0,-17.3628,9.9982,54.0898,-0.8493,6.5748,3.7104
4643741.0,-17.9757,12.3637,52.3851,-1.3713,6.1065,3.6301
4643751.0,-19.4218,15.1026,51.8584,-1.7246,5.7021,3.7509
4643761.0,-20.82,16.8264,50.6996,-1.996,5.5994,4.0813
4643771.0,-22.1895,16.4721,51.7626,-2.0955,5.7266,4.5054
4643781.0,-22.4385,13.7331,55.0571,-2.0683,5.675,4.8672
4643791.0,-22.314,11.2911,58.3611,-2.1402,5.0998,4.9721
4643801.0,-22.1224,9.4906,60.1519,-2.4722,4.2335,4.9327
4643811.0,-22.4385,8.4851,61.4831,-2.842,3.2283,4.8401
4643821.0,-22.2852,8.0445,61.2916,-3.3433,2.1029,4.7209
4643831.0,-21.8543,8.1499,60.4009,-3.8259,0.9567,4.6155
4643841.0,-21.6149,8.3606,58.1408,-4.3303,-0.0665,4.5331
4643851.0,-21.9022,7.9679,56.1967,-4.4942,-0.8285,4.5442
4643861.0,-21.1935,7.3263,53.362,-4.5538,-1.2797,4.6065
4643871.0,-20.7529,6.2728,52.2798,-4.4969,-1.5974,4.6246
4643881.0,-19.7282,5.1332,50.9678,-4.3404,-1.8528,4.6288
4643891.0,-19.3451,4.1659,50.2687,-4.1946,-2.0827,4.6022
4643901.0,-18.7322,3.5721,49.7036,-4.1164,-2.2923,4.6384
4643911.0,-18.2821,2.557,49.0811,-4.1068,-2.5424,4.6155
4643921.0,-17.6692,1.3695,47.9606,-4.2888,-2.7909,4.5395
4643931.0,-17.6788,-0.1053,48.2096,-4.3947,-3.0501,4.4043
4643941.0,-16.9318,-1.5323,48.8704,-4.4346,-3.2741,4.2234
4643951.0,-16.7115,-3.371,50.1633,-4.184,-3.6024,3.994
4643961.0,-15.9645,-4.3958,50.1633,-3.7072,-3.8754,3.7455
4643971.0,-15.3325,-4.8746,50.3549,-3.1347,-4.1845,3.4513
4643981.0,-14.8345,-4.5107,49.4451,-2.8532,-4.7289,3.1576
4643991.0,-14.279,-3.3136,47.003,-2.9261,-5.2621,2.8814
4644001.0,-13.3596,-2.5857,45.2696,-3.1884,-5.5845,2.6632
4644011.0,-12.7276,-2.3846,43.1914,-3.5769,-5.9501,2.4898
4644021.0,-11.7795,-2.4995,41.6783,-3.9653,-6.0703,2.2865
4644031.0,-10.7164,-2.8826,41.4197,-4.0717,-6.0858,2.1205
4644041.0,-10.1514,-3.5243,42.4348,-3.9222,-6.2374,1.9837
4644051.0,-9.5289,-3.8307,41.8506,-3.4465,-6.4258,1.8943
4644061.0,-8.8107,-3.8211,41.5346,-2.9788,-6.5216,1.8619
4644071.0,-8.1977,-4.3,39.8682,-2.5791,-6.8073,1.839
4644081.0,-6.6942,-4.9895,37.5698,-2.3493,-6.9047,1.7522
4644091.0,-5.363,-5.2864,34.3903,-2.2615,-6.8094,1.6384
4644101.0,-3.371,-5.4588,32.3888,-2.4051,-6.5572,1.433
4644111.0,-2.0494,-5.8897,31.4407,-2.4977,-6.2076,1.2233
4644121.0,-0.8428,-5.861,31.1534,-2.6286,-5.9203,1.0057
4644131.0,-0.7087,-5.9376,31.3066,-2.6223,-5.6627,0.8381
4644141.0,-0.1053,-6.043,31.3736,-2.4477,-5.386,0.7567
4644151.0,0.68,-6.5218,31.5364,-2.2647,-5.228,0.6513
4644161.0,1.7142,-6.7325,30.55,-2.1226,-5.0348,0.4975
4644171.0,2.3942,-7.1156,30.2819,-1.9231,-4.8757,0.3709
4644181.0,3.304,-7.4029,29.1231,-1.7597,-4.6783,0.2144
4644191.0,4.2808,-7.7764,28.1558,-1.5181,-4.3442,0.0325
4644201.0,5.3822,-7.7572,26.5373,-1.3149,-3.9062,-0.1559
4644211.0,5.7844,-7.3358,25.3594,-1.1547,-3.364,-0.3507
4644221.0,6.0621,-6.6463,25.187,-0.9764,-2.7989,-0.4864
4644231.0,6.177,-6.8283,25.3977,-0.7184,-2.2173,-0.5438
4644241.0,6.7804,-7.422,25.1008,-0.5481,-1.8214,-0.6295
4644251.0,7.422,-8.2935,25.2349,-0.6236,-1.524,-0.8088
4644261.0,8.1307,-9.1746,24.6699,-0.8226,-1.2675,-1.0722
4644271.0,9.1937,-10.2376,24.6507,-0.8886,-0.7897,-1.4426
4644281.0,8.9256,-9.9886,24.1431,-0.8147,-0.1495,-1.7517
4644291.0,8.8011,-9.8737,26.2309,-0.2969,0.3805,-2.0252
4644301.0,8.3222,-8.2265,25.9053,0.0644,0.8461,-2.2194
4644311.0,7.422,-7.3646,26.2021,0.4613,1.1605,-2.3232
4644321.0,6.7133,-6.6559,25.8382,0.6854,1.4899,-2.3322
4644331.0,6.5027,-7.5369,24.7656,0.8812,1.9353,-2.3674
4644341.0,7.4603,-8.7724,23.5302,0.9562,2.6834,-2.5584
4644351.0,7.4124,-9.6726,24.0761,0.8902,3.5875,-2.9357
4644361.0,6.3494,-9.4906,26.25,0.8285,4.2819,-3.3528
4644371.0,5.2002,-8.3606,29.0177,0.8019,4.8428,-3.7104
4644381.0,4.0893,-7.106,32.2834,0.9817,5.2323,-3.9733
4644391.0,2.3176,-5.3439,36.2195,1.2196,5.344,-4.0919
4644401.0,0.5746,-4.2234,38.2498,1.491,5.0615,-4.0989
4644411.0,0.0287,-3.8116,38.0582,1.6341,4.7012,-4.0834
4644421.0,0.3639,-3.4285,36.66,1.6639,4.8225,-4.1547
4644431.0,0.1245,-3.4189,37.1484,1.7975,5.2269,-4.2479
4644441.0,-0.6129,-2.9592,38.8914,2.1359,5.6111,-4.3452
4644451.0,-1.3216,-1.7621,41.5059,2.3945,5.8181,-4.3867
4644461.0,-2.8252,0.4405,44.7237,2.6281,5.6164,-4.349
4644471.0,-3.1029,2.2889,47.5393,2.6036,4.8752,-4.159
4644481.0,-3.6775,2.7869,47.7117,2.2514,3.7796,-3.9371
4644491.0,-2.7581,2.3846,45.0685,1.7155,2.6733,-3.82
4644501.0,-1.2833,1.1109,42.3582,1.301,2.163,-3.7876
4644511.0,-0.6033,-0.1628,40.3279,1.3383,2.0923,-3.8131
4644521.0,-0.2777,-0.8332,38.8244,1.4335,2.121,-3.9169
4644531.0,-1.4269,-0.4693,37.5219,1.5836,1.9768,-3.9861
4644541.0,-2.4229,-0.7661,34.9841,1.6261,1.8858,-4.0494
4644551.0,-2.1452,-1.4365,31.5173,1.8113,2.2141,-4.134
4644561.0,-2.0877,-1.7621,29.1135,2.0438,3.1187,-4.3468
4644571.0,-2.5666,-1.4844,27.9068,2.3429,4.4282,-4.5905
4644581.0,-4.6448,-0.8811,30.6458,2.8308,5.8857,-4.7821
4644591.0,-6.9719,1.063,35.0703,3.3523,6.9223,-4.8922
4644601.0,-9.1267,2.4612,40.4524,3.629,7.4363,-4.9407
4644611.0,-10.9942,4.0701,46.323,3.6625,7.2692,-4.9322
4644621.0,-12.8617,5.3439,50.9103,3.3731,6.6296,-4.888
4644631.0,-14.4035,5.5067,53.86,2.859,5.4419,-4.8412
4644641.0,-13.4841,4.7405,54.3292,2.5211,4.4602,-4.8789
4644651.0,-13.7044,4.6448,54.1377,2.5057,3.9036,-4.955
4644661.0,-14.5376,5.2289,54.7123,2.7537,3.5066,-4.9976
4644671.0,-14.8919,6.8666,54.243,2.9048,3.0942,-4.9513
4644681.0,-15.9741,8.0637,53.0555,2.7191,2.5078,-4.8672
4644691.0,-16.5679,8.7628,51.303,2.2365,1.9747,-4.7448
4644701.0,-16.8743,8.2456,49.5121,1.6432,1.4293,-4.623
4644711.0,-16.2135,7.2975,46.6582,1.1435,1.251,-4.5921
4644721.0,-15.9167,6.5505,45.2887,0.9104,1.6676,-4.574
4644731.0,-15.8209,5.5737,46.5337,0.8663,2.0417,-4.6044
4644741.0,-16.2614,5.1619,48.8704,1.0797,2.4041,-4.6459
4644751.0,-17.267,5.9089,52.0787,1.3329,2.4206,-4.6709
4644761.0,-17.7746,6.3782,54.8655,1.4873,1.9044,-4.6464
4644771.0,-17.4202,6.0047,55.3539,1.6011,1.3303,-4.6283
4644781.0,-17.3436,6.8187,55.2103,1.5469,0.7811,-4.6512
4644791.0,-17.334,8.102,54.7602,1.408,0.3214,-4.6331
4644801.0,-17.8416,8.8298,53.8983,0.9493,-0.1064,-4.5384
4644811.0,-17.5639,8.849,54.2335,0.7301,-0.5651,-4.4415
4644821.0,-17.5639,8.9926,54.4058,0.3815,-0.8828,-4.3623
4644831.0,-17.9661,8.1594,56.1967,0.5305,-1.2377,-4.2388
4644841.0,-17.4777,7.1539,57.5279,0.8179,-1.7544,-4.1686
4644851.0,-17.5639,6.8666,56.5415,0.9264,-2.5057,-4.1845
4644861.0,-17.1521,7.2688,55.5934,0.8056,-3.1948,-4.2452
4644871.0,-17.4394,7.8051,54.4441,0.7045,-3.8152,-4.3351
4644881.0,-17.0371,8.4372,51.7148,0.5651,-4.259,-4.4192
4644891.0,-16.8264,10.0365,49.9335,0.4028,-4.5192,-4.4703
4644901.0,-16.9509,11.8561,48.248,-0.0335,-4.8284,-4.4495
4644911.0,-16.6828,13.9055,46.9072,-0.5614,-5.1328,-4.3463
4644921.0,-16.0507,15.4091,46.3517,-0.9445,-5.2461,-4.0861
4644931.0,-15.8496,16.4338,46.2272,-1.0052,-5.3445,-3.6843
4644941.0,-15.0739,15.9645,46.2656,-0.8274,-5.3328,-3.1496
4644951.0,-14.3365,14.2599,45.9112,-0.6774,-5.4244,-2.7441
4644961.0,-12.7467,12.153,46.2272,-0.6071,-5.6729,-2.4679
4644971.0,-11.4826,11.0229,44.3406,-0.6609,-5.8139,-2.3424
4644981.0,-10.6877,11.0804,42.6551,-0.9269,-5.8208,-2.2381
4644991.0,-9.7779,10.726,41.5729,-1.4101,-5.7489,-2.1269
4645001.0,-8.7053,10.5632,40.96,-2.2439,-5.8181,-2.0917
4645011.0,-7.7859,10.3238,41.1994,-3.0932,-5.7846,-2.0545
4645021.0,-7.5561,10.0556,41.889,-3.8286,-5.8165,-1.963
4645031.0,-6.9623,8.8298,44.2736,-4.1436,-5.8149,-1.9071
4645041.0,-7.3167,7.355,46.3709,-4.1499,-6.0459,-1.822
4645051.0,-7.2113,4.9416,48.6598,-3.5609,-6.2443,-1.7677
4645061.0,-6.9528,3.3902,50.6613,-2.4536,-6.6615,-1.69
4645071.0,-6.2824,2.1835,49.5025,-1.3446,-7.2899,-1.7272
4645081.0,-5.4492,2.2027,45.7388,-0.3704,-7.7082,-1.8315
4645091.0,-4.3287,3.2082,41.1611,0.3379,-7.8146,-1.93
4645101.0,-3.0263,5.3822,36.2482,0.5768,-7.5805,-1.9944
4645111.0,-2.3942,7.4891,33.2315,0.249,-7.1867,-1.9954
4645121.0,-1.0247,9.0405,31.1246,-0.4539,-6.9068,-2.0103
4645131.0,0.0958,10.2759,30.2244,-1.4149,-6.4636,-1.9715
4645141.0,0.2203,10.726,30.7894,-2.5488,-6.2534,-1.9321
4645151.0,0.9577,10.6398,34.0072,-3.3433,-6.1198,-1.8118
4645161.0,1.1013,10.2951,37.1676,-3.2576,-6.2316,-1.5868
4645171.0,1.4557,10.2568,38.585,-2.5483,-6.5311,-1.242
4645181.0,1.9058,10.6781,36.8516,-1.5708,-6.7972,-0.8248
4645191.0,3.1891,10.7931,33.8253,-0.5598,-6.8238,-0.3954
4645201.0,4.1372,10.9463,30.0137,0.1761,-6.686,0.0335
4645211.0,5.3917,10.6973,26.1351,0.3565,-6.4481,0.398
4645221.0,6.3973,10.9654,21.3275,0.009,-6.0076,0.6306
4645231.0,7.3837,10.7452,17.9948,-0.7854,-5.5185,0.821
4645241.0,8.7532,9.9886,15.0835,-1.732,-4.7927,0.953
4645251.0,9.481,8.8202,14.7483,-2.5956,-3.9493,1.0254
4645261.0,10.5728,8.0732,15.591,-3.0958,-3.1985,1.0616
4645271.0,11.655,7.7285,17.3723,-3.3731,-2.5137,1.1334
4645281.0,12.0189,8.1882,18.9908,-3.2172,-2.0486,1.2776
4645291.0,12.4594,8.4659,20.2741,-2.7686,-1.6288,1.5298
4645301.0,12.9287,8.5712,20.2071,-2.1045,-1.1233,1.9241
4645311.0,13.5608,7.8243,19.7474,-1.4394,-0.4353,2.2828
4645321.0,13.9151,6.8953,19.5175,-0.9232,0.1133,2.5909
4645331.0,13.781,6.3015,19.3164,-0.6838,0.5326,2.8324
4645341.0,13.3788,5.6216,18.4066,-0.6949,0.9498,3.0197
4645351.0,13.4554,4.798,17.9086,-0.795,1.3409,3.1554
4645361.0,13.6757,4.1755,16.6253,-0.8508,2.0103,3.3023
4645371.0,13.6182,3.4381,15.4282,-0.9062,2.9197,3.4348
4645381.0,13.5416,2.8156,15.7634,-0.9956,3.9786,3.5471
4645391.0,12.8904,2.4421,16.9893,-0.9472,5.1184,3.6716
4645401.0,10.975,1.7621,20.5997,-0.6077,6.1757,3.852
4645411.0,9.6726,0.9385,24.3155,-0.2724,6.9691,4.0057
4645421.0,8.6574,-0.2011,28.06,0.0766,7.4341,4.1122
4645431.0,7.5753,-1.3024,31.479,0.2932,7.5023,4.1175
4645441.0,6.541,-1.7717,33.289,0.3576,7.3879,4.0302
4645451.0,6.0717,-1.9537,33.5859,0.4949,7.5576,3.9233
4645461.0,5.1044,-1.8292,34.6776,0.7434,8.0631,3.836
4645471.0,3.8786,-1.2067,36.2961,0.903,8.658,3.7354
4645481.0,1.4269,-0.5938,40.529,1.2739,9.0619,3.7046
4645491.0,0.3448,-0.2586,45.0397,1.7219,9.1789,3.7759
4645501.0,-0.7566,0.067,47.8266,1.9816,8.8341,3.7658
4645511.0,-1.9058,0.7949,50.1346,1.6602,7.9503,3.7008
4645521.0,-2.557,1.1588,49.9143,0.87,6.7695,3.5891
4645531.0,-2.6145,1.9345,47.3669,0.1229,6.0437,3.5151
4645541.0,-2.9688,2.6145,45.5856,-0.5273,5.791,3.4518
4645551.0,-3.9744,3.4381,43.6607,-1.0903,5.8857,3.4577
4645561.0,-5.9472,4.1372,45.4803,-0.8514,6.1565,3.6205
4645571.0,-7.7189,5.5258,48.248,-0.0495,6.4322,3.9978
4645581.0,-9.0501,5.5354,50.556,1.1871,6.5572,4.5272
4645591.0,-9.8737,4.5011,51.7243,2.0412,6.2481,4.9492
4645601.0,-9.4332,3.8595,49.8569,2.2647,5.7351,5.2062
4645611.0,-9.0309,2.8156,47.5393,2.1902,5.6638,5.2903
4645621.0,-9.1075,2.3463,46.007,1.7783,5.8947,5.2679
4645631.0,-9.8545,1.9441,46.7348,0.9514,6.0725,5.1615
4645641.0,-11.4539,1.9824,48.6598,0.041,5.9064,5.0104
4645651.0,-12.4115,2.0016,51.7818,-0.6369,5.5936,4.9497
4645661.0,-13.714,2.2122,54.7889,-0.7886,4.9173,4.9902
4645671.0,-14.5663,1.0439,56.5415,-0.4443,4.1686,5.1418
4645681.0,-14.5951,-0.2394,55.1433,0.2272,3.5604,5.2067
4645691.0,-13.7044,-1.5419,53.2949,0.7934,3.2459,5.1333
4645701.0,-13.8002,-1.2163,50.4985,0.9738,3.1091,4.9433
4645711.0,-14.0588,-0.3448,48.3054,0.7114,3.1522,4.7204
4645721.0,-14.9398,1.1109,48.7076,0.4252,3.1618,4.6012
4645731.0,-15.3804,2.2218,49.9335,0.0484,2.9947,4.5634
4645741.0,-16.3093,2.9497,50.4793,-0.2448,2.8106,4.5703
4645751.0,-16.6253,2.7677,50.623,-0.3469,2.6308,4.6448
4645761.0,-16.9222,2.0877,51.7626,-0.3193,2.5382,4.6943
4645771.0,-17.1521,1.1684,53.1513,-0.1208,2.4605,4.7097
4645781.0,-17.4489,1.0343,54.1281,-0.0809,2.1519,4.6624
4645791.0,-17.2478,0.3352,55.172,-0.2746,1.6692,4.5315
4645801.0,-17.4106,0.9002,54.5112,-1.0004,1.0679,4.3383
4645811.0,-17.7554,0.5746,54.2718,-1.9529,0.2405,4.1377
4645821.0,-18.1672,0.1437,54.5016,-3.0224,-0.4624,3.8786
4645831.0,-18.5215,-0.0096,54.5878,-3.5683,-1.1228,3.6418
4645841.0,-18.4449,0.5363,53.4577,-3.952,-1.5671,3.4875
4645851.0,-18.4545,1.1492,54.4825,-4.0802,-1.9321,3.4183
4645861.0,-18.8663,1.5419,56.4457,-3.7615,-2.5105,3.5226
4645871.0,-18.6652,1.5706,56.6851,-3.0932,-3.0761,3.7567
4645881.0,-18.1672,1.4078,55.5934,-2.4126,-3.6173,4.0153
4645891.0,-17.2095,0.996,53.429,-1.9991,-4.1313,4.2308
4645901.0,-16.2423,0.2873,50.872,-1.8597,-4.483,4.3926
4645911.0,-14.9494,-0.2586,48.564,-2.0093,-4.781,4.474
4645921.0,-13.8481,-1.1779,46.754,-2.262,-5.1104,4.5081
4645931.0,-12.5839,-2.3272,45.1259,-2.6914,-5.3765,4.4708
4645941.0,-11.7603,-3.237,43.5553,-2.9724,-5.5042,4.3952
4645951.0,-11.2336,-4.616,42.952,-3.0543,-5.6457,4.3463
4645961.0,-9.7205,-6.1004,42.454,-2.9937,-5.6936,4.251
4645971.0,-8.5712,-7.1443,41.3048,-2.7766,-5.6899,4.0829
4645981.0,-7.2113,-8.0828,41.5346,-2.4988,-5.6196,3.8967
4645991.0,-6.426,-8.4946,41.1803,-2.0433,-5.618,3.7487
4646001.0,-5.5545,-8.6,40.6152,-1.5213,-5.5313,3.6279
4646011.0,-4.7214,-9.0309,39.5618,-1.061,-5.3722,3.5343
4646021.0,-3.5434,-9.9024,38.2689,-0.9663,-5.3568,3.3927
4646031.0,-2.2027,-11.5305,37.0239,-1.2329,-5.3781,3.098
4646041.0,-1.1684,-12.8233,35.415,-1.8225,-5.4643,2.6669
4646051.0,0.316,-14.0971,33.9881,-2.7265,-5.5888,2.1151
4646061.0,1.7142,-15.5623,33.2794,-3.7876,-5.6734,1.4442
4646071.0,2.8443,-16.769,32.8772,-4.6432,-5.6244,0.6955
4646081.0,3.2657,-17.0371,34.5435,-4.7587,-5.5398,-0.0059
4646091.0,3.9744,-16.3093,34.8596,-4.3415,-5.4409,-0.505
4646101.0,4.0223,-15.5432,34.7063,-3.505,-5.2429,-0.87
4646111.0,4.4245,-14.8441,33.8157,-2.6297,-5.0077,-1.118
4646121.0,4.9416,-14.1258,33.5859,-1.7671,-4.755,-1.2712
4646131.0,5.6599,-13.4841,32.7048,-0.8088,-4.5666,-1.3755
4646141.0,6.7038,-13.0819,31.1917,-0.1224,-4.3516,-1.4622
4646151.0,7.2113,-12.5552,28.7208,0.2363,-4.0621,-1.59
4646161.0,8.1786,-12.1434,27.0449,0.3086,-3.7732,-1.7304
4646171.0,8.916,-11.3102,25.5222,0.1511,-3.4486,-1.9124
4646181.0,9.3087,-10.6111,24.2293,-0.2315,-3.1304,-2.0556
4646191.0,9.5577,-10.228,24.2006,-0.5342,-2.8245,-2.1668
4646201.0,9.8833,-10.3046,24.622,-0.5571,-2.5547,-2.2301
4646211.0,10.1035,-10.41,24.3442,-0.4055,-2.3652,-2.2663
4646221.0,10.3813,-11.0899,23.4536,-0.1346,-2.1875,-2.3253
4646231.0,10.8601,-11.9519,20.7817,0.1016,-1.814,-2.461
4646241.0,11.3868,-13.149,17.9948,0.5044,-1.0371,-2.7138
4646251.0,12.1721,-13.7619,16.1465,1.0749,0.2123,-3.0118
4646261.0,12.4307,-13.5512,14.4514,1.748,1.806,-3.4151
4646271.0,11.1666,-12.2679,15.2175,2.1056,3.3523,-3.8227
4646281.0,9.347,-10.228,17.0754,2.1061,4.715,-4.1984
4646291.0,7.5369,-8.169,20.1496,1.7475,5.6335,-4.4868
4646301.0,5.3343,-6.3686,22.3235,1.0376,6.2183,-4.7092
4646311.0,2.9497,-5.0278,24.689,0.0623,6.6035,-4.8784
4646321.0,1.2641,-5.3056,26.9108,-0.9913,6.9803,-5.0114
4646331.0,0.5555,-6.3973,32.7527,-1.1664,7.4783,-5.1599
4646341.0,-0.0287,-6.5697,38.5275,-0.6109,7.7939,-5.2637
4646351.0,-0.9864,-5.5929,43.8618,0.8195,7.9615,-5.2823
4646361.0,-2.8826,-2.873,47.4818,2.2253,8.0115,-5.1865
4646371.0,-4.051,0.5746,49.7898,3.2092,7.5959,-4.9455
4646381.0,-5.2289,3.3615,52.1266,3.5843,6.7413,-4.6283
4646391.0,-5.3343,5.1427,52.2415,3.2076,5.4765,-4.2675
4646401.0,-5.5833,6.1387,49.4738,2.3754,4.1909,-3.9355
4646411.0,-4.7692,5.4779,46.2656,1.2015,3.4263,-3.6694
4646421.0,-4.0318,3.8786,44.3023,0.522,3.3316,-3.4433
4646431.0,-3.3423,2.1931,44.3598,0.3251,3.5598,-3.2704
4646441.0,-3.9935,1.312,44.1778,0.0192,3.5811,-3.1421
4646451.0,-4.0893,0.6512,44.9631,-0.0639,3.3917,-3.0368
4646461.0,-4.0318,0.2969,45.4707,-0.2192,3.1049,-2.8846
4646471.0,-4.8267,-1.5897,45.0876,-0.1341,2.676,-2.7324
4646481.0,-4.2425,-4.1084,43.2297,0.2841,2.6345,-2.6568
4646491.0,-2.8539,-7.0198,41.525,0.9051,3.033,-2.7659
4646501.0,-2.4421,-9.6151,41.9751,1.6011,3.7354,-3.0831
4646511.0,-3.0263,-10.726,43.766,2.0971,4.1499,-3.5875
4646521.0,-3.3615,-10.4483,45.5377,2.138,4.1984,-4.2181
4646531.0,-4.5011,-8.7532,47.2711,1.7911,3.9052,-4.8007
4646541.0,-6.3494,-6.9432,49.4738,1.2616,3.2044,-5.2839
4646551.0,-7.7093,-5.1715,48.4012,0.3666,2.3035,-5.6638
4646561.0,-8.2456,-3.8499,46.6007,-0.4608,1.8943,-5.9134
4646571.0,-8.6574,-3.4093,46.1794,-1.1254,1.84,-6.1337
4646581.0,-8.7628,-3.2657,47.5776,-1.5681,1.9662,-6.2869
4646591.0,-10.3142,-2.375,51.2646,-1.2829,2.096,-6.3295
4646601.0,-11.5784,-0.4788,54.99,-0.2655,1.9922,-6.0911
4646611.0,-12.2009,0.9098,57.298,1.259,1.7554,-5.6228
4646621.0,-12.4403,1.6759,56.3212,2.2945,1.1275,-5.1237
4646631.0,-11.4539,1.3216,53.9174,2.6898,0.4496,-4.7842
4646641.0,-10.0269,0.316,50.1633,2.5903,0.0436,-4.6459
4646651.0,-8.5617,-0.4884,47.1562,2.1567,0.0154,-4.7172
4646661.0,-8.8681,-1.3408,45.9782,1.5655,0.1458,-4.9162
4646671.0,-8.8394,-2.5666,46.5145,0.969,0.3246,-5.1732
4646681.0,-8.4563,-3.5051,47.8457,0.1373,0.2575,-5.592
4646691.0,-8.6287,-4.3191,50.2208,-0.605,0.1266,-6.1017
4646701.0,-9.1459,-4.118,53.6493,-0.9817,-0.1596,-6.5833
4646711.0,-9.9024,-3.2944,56.6755,-1.1121,-0.6311,-6.9952
4646721.0,-10.6494,-1.8962,57.8535,-1.1196,-1.2898,-7.2953
4646731.0,-10.8314,0.0287,58.1599,-1.1802,-1.9874,-7.4879
4646741.0,-11.1474,2.4612,56.6372,-1.4314,-2.7122,-7.5906
4646751.0,-11.1282,4.4532,54.5016,-1.7884,-3.2081,-7.6012
4646761.0,-10.7739,6.177,51.9542,-2.4067,-3.5034,-7.5267
4646771.0,-10.477,6.0238,50.5847,-3.289,-3.7854,-7.5161
4646781.0,-10.0748,6.2345,49.7707,-4.2181,-3.9632,-7.5299
4646791.0,-9.9695,6.608,50.5943,-5.1642,-4.1643,-7.515
4646801.0,-9.7875,6.6367,51.8488,-5.8282,-4.5432,-7.4331
4646811.0,-9.481,6.6463,52.1457,-6.2784,-4.797,-7.2825
4646821.0,-8.9352,6.0717,52.0978,-6.6291,-5.1524,-7.1229
4646831.0,-7.9775,5.3917,51.0635,-7.0303,-5.4983,-7.009
4646841.0,-7.6902,4.4724,50.1825,-7.3293,-5.6015,-6.8834
4646851.0,-7.1156,3.8116,50.0388,-7.2261,-5.626,-6.7701
4646861.0,-6.4931,3.6775,50.3644,-6.8142,-5.559,-6.586
4646871.0,-5.794,3.8116,50.2112,-6.1385,-5.5584,-6.3582
4646881.0,-5.6312,4.6831,50.3165,-5.3397,-5.6047,-6.0773
4646891.0,-5.3247,5.3439,49.5217,-4.4378,-5.6585,-5.6532
4646901.0,-4.8842,6.2441,48.8417,-3.4492,-5.7287,-5.1508
4646911.0,-4.3479,7.106,46.9742,-2.4435,-5.6686,-4.5756
4646921.0,-3.5721,7.5082,44.9152,-1.4947,-5.4797,-3.927
4646931.0,-2.806,7.7668,44.2161,-0.779,-5.2434,-3.2619
4646941.0,-1.9345,7.0485,44.0342,-0.0569,-5.1136,-2.6409
4646951.0,-1.2163,6.5793,43.4883,0.224,-5.1737,-2.0747
4646961.0,-0.1149,5.7557,43.2297,0.4055,-5.27,-1.624
4646971.0,0.747,5.5067,42.205,0.1846,-5.5052,-1.2696
4646981.0,1.8866,4.9225,41.2952,-0.1724,-5.8176,-0.9477
4646991.0,3.1125,4.9129,39.4564,-0.6811,-6.0347,-0.6731
4647001.0,4.3766,4.2521,38.6137,-1.3984,-6.2401,-0.4124
4647011.0,5.4779,3.237,37.8475,-2.1146,-6.5045,-0.1894
4647021.0,6.5793,1.8579,37.0814,-2.7377,-6.7461,-0.0697
4647031.0,7.5274,0.2011,36.2961,-3.0873,-6.8669,0.0239
4647041.0,8.4563,-0.8332,36.2195,-3.1756,-7.0611,0.1027
4647051.0,9.1937,-1.2258,36.0567,-2.8676,-7.2016,0.2246
4647061.0,9.8067,-1.1205,35.913,-1.8065,-7.1479,0.4933
4647071.0,9.9024,-0.5363,35.4916,-0.1878,-7.1101,0.9658
4647081.0,11.1474,-0.0287,33.7295,1.8816,-6.8813,1.59
4647091.0,12.1147,0.4405,29.305,3.6125,-6.6525,2.2604
4647101.0,13.4937,0.0766,24.1814,4.6762,-6.14,2.8553
4647111.0,14.6812,-0.7949,19.1632,4.8082,-5.4377,3.2416
4647121.0,16.2423,-1.494,15.6964,4.1255,-4.8028,3.4401
4647131.0,17.7458,-2.1739,13.3022,2.9484,-4.0568,3.4103
4647141.0,18.5311,-2.49,12.1147,1.3862,-3.4907,3.3151
4647151.0,19.3451,-2.9113,11.6454,-0.2315,-2.8723,3.1464
4647161.0,19.7761,-2.9497,11.8657,-1.6543,-2.1668,3.0612
4647171.0,19.6708,-3.7062,14.6429,-2.4365,-1.3729,3.0554
4647181.0,18.9812,-4.3766,17.8799,-2.369,-0.654,3.1235
4647191.0,18.4641,-4.5681,20.9349,-1.6868,-0.1101,3.3353
4647201.0,17.6979,-4.798,22.5055,-0.7971,0.2714,3.5971
4647211.0,17.1808,-4.9895,22.8981,0.1128,0.5731,3.861
4647221.0,17.1808,-5.3726,21.4904,0.8551,0.9365,4.1063
4647231.0,17.3436,-5.5354,20.6572,1.4553,1.4117,4.2926
4647241.0,17.267,-5.6599,19.326,1.7246,1.972,4.4192
4647251.0,17.0467,-5.9376,18.2342,1.8789,2.6638,4.5033
4647261.0,16.5679,-5.047,17.8895,1.8246,3.4662,4.5873
4647271.0,15.4953,-4.3383,18.6652,1.7256,4.2356,4.6837
4647281.0,14.461,-3.6871,19.2398,1.583,5.0503,4.8805
4647291.0,12.9957,-4.0606,22.1512,1.4521,5.8639,5.0891
4647301.0,11.7124,-4.5107,25.1678,1.1526,6.2278,5.2621
4647311.0,10.8505,-5.43,27.3514,0.5007,6.2353,5.3371
4647321.0,9.8354,-6.3303,29.554,-0.1399,6.0975,5.3504
4647331.0,9.5768,-7.0773,30.9235,-0.5577,6.0805,5.4228
4647341.0,8.8298,-7.9679,32.044,-0.9131,6.1283,5.485
4647351.0,7.9487,-9.0118,32.9538,-1.1632,6.2273,5.518
4647361.0,6.7133,-10.1035,34.9458,-1.2691,6.2321,5.4813
4647371.0,5.4013,-11.4347,38.8818,-0.9088,6.0991,5.435
4647381.0,4.3766,-12.1817,39.8874,-0.2767,5.6574,5.3844
4647391.0,4.2904,-11.9806,38.5371,0.5342,5.3717,5.3115
4647401.0,4.7788,-10.5441,35.2043,1.376,5.7665,5.3227
4647411.0,3.802,-8.418,32.5133,1.7437,6.4795,5.3956
4647421.0,2.624,-6.857,31.9961,1.7538,7.3879,5.5872
4647431.0,0.9385,-6.5793,34.7638,1.4857,8.1701,5.7734
4647441.0,-0.8619,-7.039,38.7286,1.1648,8.5388,5.9708
4647451.0,-3.4285,-8.4276,43.517,0.9897,8.3563,6.1448
4647461.0,-3.9169,-10.0173,46.8402,1.2148,8.385,6.2864
4647471.0,-4.5298,-12.0476,50.7379,1.8901,8.4989,6.3827
4647481.0,-5.43,-13.2447,54.6261,2.6994,8.3472,6.321
4647491.0,-6.7708,-13.283,58.2366,3.4864,7.9987,6.206
4647501.0,-8.5138,-11.3868,60.0466,3.9855,7.3288,6.0858
4647511.0,-9.1554,-9.0692,61.2533,4.1489,6.3417,6.032
4647521.0,-9.7109,-7.0294,59.8455,3.7972,5.2381,6.0017
4647531.0,-10.7931,-5.5354,57.2885,3.1171,4.1223,5.9788
4647541.0,-11.0899,-5.2385,53.4194,2.4099,3.4231,6.0123
4647551.0,-10.7739,-6.3686,50.7762,1.9385,3.2331,5.9857
4647561.0,-10.7164,-7.6998,49.2535,1.6027,3.3076,5.8564
4647571.0,-11.4347,-8.3127,48.9566,1.4708,3.4816,5.6681
4647581.0,-12.5265,-7.8338,50.2974,1.6033,3.6684,5.4818
4647591.0,-14.1737,-6.5218,52.6629,2.129,3.7338,5.435
4647601.0,-15.2271,-5.0661,53.3141,2.8165,3.4742,5.5153
4647611.0,-15.9358,-3.8211,52.1744,3.2118,3.2709,5.6585
4647621.0,-16.8264,-3.2274,51.1593,3.0847,3.2416,5.7803
4647631.0,-16.6828,-3.5626,50.7858,2.3748,2.9995,5.799
4647641.0,-16.6349,-4.4532,51.5136,1.5096,2.8457,5.7048
4647651.0,-17.085,-4.9608,53.5152,0.7152,2.5584,5.5797
4647661.0,-16.9318,-5.3726,55.8711,0.0713,2.0066,5.4893
4647671.0,-17.334,-5.5737,58.0259,-0.1181,1.3734,5.4302
4647681.0,-17.3628,-5.9664,58.2653,-0.0383,0.6359,5.4488
4647691.0,-16.8456,-6.4548,56.8192,0.0415,-0.1405,5.4446
4647701.0,-16.2135,-7.3167,54.8943,-0.1378,-0.7875,5.3546
4647711.0,-15.1505,-8.5425,52.6341,-0.2889,-1.2712,5.2035
4647721.0,-13.8768,-9.6822,51.1593,-0.4752,-1.5942,4.9268
4647731.0,-13.1011,-9.5864,49.4834,-0.4603,-1.8182,4.6507
4647741.0,-12.7084,-9.3182,48.9758,-0.4778,-1.9805,4.4133
4647751.0,-12.287,-8.8011,48.1809,-0.4055,-2.1258,4.2436
4647761.0,-12.153,-8.2456,47.7212,-0.364,-2.2817,4.1398
4647771.0,-12.3445,-8.0541,47.7404,-0.2496,-2.5068,4.1058
4647781.0,-11.9231,-8.1977,46.4667,-0.2315,-2.6238,4.0701
4647791.0,-11.3389,-9.0788,46.5145,-0.1032,-2.7936,4.0233
4647801.0,-10.4674,-10.3813,45.5569,-0.0431,-2.9021,3.8722
4647811.0,-9.7013,-11.5209,44.8195,-0.1293,-2.9883,3.6152
4647821.0,-8.8873,-12.2009,44.331,-0.3634,-3.1799,3.2704
4647831.0,-8.0062,-12.4786,42.9616,-0.9631,-3.3443,2.8644
4647841.0,-7.4508,-12.9766,41.5346,-1.9161,-3.5279,2.3881
4647851.0,-6.5697,-13.8672,41.1228,-3.1948,-3.7796,1.8182
4647861.0,-6.2728,-15.1314,41.5442,-4.4559,-4.0962,1.1829
4647871.0,-5.679,-15.9262,42.1092,-5.3993,-4.3958,0.5241
4647881.0,-5.5641,-16.0316,43.9958,-5.7883,-4.6108,-0.0649
4647891.0,-6.2441,-15.6772,49.1482,-4.9795,-4.805,-0.3597
4647901.0,-6.924,-13.9534,49.9909,-3.1783,-5.1184,-0.3634
4647911.0,-6.608,-12.3158,48.3054,-1.2851,-5.477,-0.1314
4647921.0,-5.9089,-11.1953,43.8426,0.017,-5.6383,0.1171
4647931.0,-4.2617,-10.6494,39.6288,0.3352,-5.6872,0.2682
4647941.0,-2.9688,-10.8409,36.3057,0.0133,-5.6957,0.2661
4647951.0,-1.4653,-12.1721,34.7925,-0.8322,-5.7505,0.1362
4647961.0,0.2777,-14.0492,33.5284,-1.6501,-5.7511,-0.1628
4647971.0,1.5036,-14.9877,33.4805,-2.0774,-5.6058,-0.5752
4647981.0,2.3942,-15.3612,33.5188,-1.8964,-5.3025,-0.9078
4647991.0,2.9784,-15.1888,33.5284,-1.1472,-4.88,-1.1691
4648001.0,3.1125,-14.4131,33.0879,-0.3496,-4.5006,-1.3787
4648011.0,3.3615,-13.4458,31.9865,0.3704,-4.1856,-1.5245
4648021.0,4.3574,-12.6701,30.3872,0.7444,-3.853,-1.7075
4648031.0,5.2864,-12.038,28.8262,0.803,-3.6216,-1.897
4648041.0,6.6559,-11.5209,27.5142,0.58,-3.3619,-2.1513
4648051.0,7.1347,-10.3717,26.5948,0.2198,-3.0309,-2.4131
4648061.0,7.0485,-9.481,26.4224,0.0862,-2.7452,-2.5616
4648071.0,7.1251,-8.7628,26.0393,0.0144,-2.502,-2.6494
4648081.0,7.7093,-8.0637,25.0817,-0.1107,-2.2599,-2.7031
4648091.0,7.9296,-7.7285,24.2389,-0.1117,-1.8831,-2.7494
4648101.0,8.1977,-7.0198,23.4728,0.0468,-1.4431,-2.7223
4648111.0,8.5138,-7.2688,21.8351,0.3693,-0.8386,-2.6659
4648121.0,8.9447,-7.0964,20.6763,0.6508,-0.0287,-2.6659
4648131.0,9.1746,-6.8666,19.7186,0.7753,0.8551,-2.7047
4648141.0,8.4946,-6.7612,20.2071,0.8796,1.8438,-2.7446
4648151.0,8.0254,-6.5793,21.6053,1.0318,2.7601,-2.7739
4648161.0,7.4508,-6.541,23.9707,1.036,3.4327,-2.8197
4648171.0,6.292,-6.2824,25.8095,0.8759,3.903,-2.8718
4648181.0,5.6886,-6.2058,27.4567,0.5545,4.134,-2.9351
4648191.0,5.2289,-6.8187,28.673,0.1453,4.4187,-3.0171
4648201.0,4.8842,-7.7285,30.5596,-0.0133,4.9896,-3.1416
4648211.0,4.4819,-8.6766,33.787,0.1559,5.3919,-3.2916
4648221.0,3.3806,-9.1363,38.7382,0.7817,5.6484,-3.4497
4648231.0,1.9537,-8.0924,41.9847,1.6692,5.5686,-3.5173
4648241.0,0.9098,-7.2305,45.0014,2.6372,5.187,-3.5013
4648251.0,-0.0862,-6.426,44.3119,3.1427,4.5054,-3.5072
4648261.0,-0.1245,-5.3439,41.2473,3.1469,4.2223,-3.5641
4648271.0,-0.249,-5.0374,38.8627,2.8543,4.2425,-3.6843
4648281.0,-0.2586,-4.6064,37.9242,2.3381,4.5208,-3.8541
4648291.0,-1.1109,-3.5913,38.2019,1.6485,4.7582,-4.0073
4648301.0,-2.3272,-2.5953,39.5618,0.7992,4.814,-4.1382
4648311.0,-3.62,-1.8483,42.4348,-0.0037,4.7278,-4.1707
4648321.0,-4.8746,-2.5474,46.8306,-0.165,4.234,-4.0797
4648331.0,-5.1523,-4.3383,49.1961,0.1453,3.646,-4.043
4648341.0,-4.2138,-5.3439,48.0277,0.771,3.3097,-4.084
4648351.0,-3.8499,-5.2194,46.1123,1.3047,3.2895,-4.1856
4648361.0,-4.0318,-4.3958,44.7907,1.5293,3.3763,-4.3165
4648371.0,-4.3191,-3.1508,43.5649,1.2052,3.3433,-4.4426
4648381.0,-4.6448,-1.5131,42.4444,0.1644,3.0314,-4.6017
4648391.0,-5.7844,-0.6991,41.3718,-1.3446,2.5893,-4.7613
4648401.0,-6.3015,-0.7853,38.5754,-3.0192,2.179,-4.9162
4648411.0,-6.1292,-2.1165,36.9952,-4.3926,2.461,-5.0694
4648421.0,-5.8035,-3.8211,36.5642,-5.4105,3.1043,-5.261
4648431.0,-6.1866,-5.1236,40.2034,-5.9171,3.96,-5.4643
4648441.0,-8.2552,-5.1427,47.8745,-4.9396,4.6257,-5.4536
4648451.0,-9.9886,-3.9935,55.2486,-2.8761,4.6895,-5.1285
4648461.0,-10.7931,-2.375,58.6292,-0.3448,4.5102,-4.6038
4648471.0,-11.6646,-1.1492,59.1368,1.483,3.9775,-4.0621
4648481.0,-11.8561,-0.5076,57.3459,2.511,3.1969,-3.6093
4648491.0,-10.161,-0.8523,54.3292,2.4914,2.5089,-3.3661
4648501.0,-9.1842,-1.7047,51.0635,1.6464,1.9188,-3.3475
4648511.0,-8.3989,-2.2314,47.884,0.2559,1.5362,-3.4997
4648521.0,-8.0349,-3.371,45.6048,-1.665,1.3026,-3.7785
4648531.0,-7.8721,-4.8842,44.9823,-3.6929,1.152,-4.118
4648541.0,-7.9009,-7.5944,47.6159,-5.4792,1.2781,-4.5581
4648551.0,-9.2512,-10.1323,53.8887,-5.7016,1.0898,-4.8678
4648561.0,-9.9982,-11.2719,59.5965,-4.7172,0.7492,-5.0258
4648571.0,-10.2376,-11.3772,62.6036,-2.6148,0.4523,-5.0237
4648581.0,-11.0038,-9.845,64.3274,-0.0665,-0.0782,-4.8885
4648591.0,-10.9367,-7.3837,62.1535,2.1183,-0.7114,-4.6246
4648601.0,-10.8409,-4.4915,57.2214,3.3731,-1.2909,-4.3729
4648611.0,-10.1897,-2.5666,51.9542,3.4736,-1.6974,-4.1686
4648621.0,-9.5672,-1.3408,48.7172,2.8622,-1.9465,-4.0552
4648631.0,-9.0022,-1.0822,46.4284,1.8305,-2.212,-3.9823
4648641.0,-8.9064,-1.5036,46.4379,0.919,-2.3589,-3.9834
4648651.0,-8.4563,-2.6336,46.8019,0.3102,-2.5323,-3.9924
4648661.0,-7.853,-3.6679,47.9606,0.0585,-2.6744,-4.0717
4648671.0,-7.2975,-4.4341,48.4874,0.132,-2.7835,-4.1468
4648681.0,-6.8761,-4.7214,49.694,0.5491,-2.9974,-4.2016
4648691.0,-6.5697,-4.2713,49.876,1.0674,-3.2666,-4.2548
4648701.0,-6.1962,-3.6966,49.627,1.6368,-3.579,-4.2361
4648711.0,-5.9759,-2.9018,48.5544,2.0587,-3.8397,-4.2335
4648721.0,-5.6312,-2.0782,46.0836,2.3482,-4.0451,-4.2415
4648731.0,-5.5162,-1.1396,44.695,2.4355,-4.1489,-4.2356
4648741.0,-5.2002,-0.067,43.0861,2.3168,-4.1957,-4.2223
4648751.0,-4.3096,0.4693,43.0669,2.1082,-4.1542,-4.2053
4648761.0,-3.237,0.5555,43.2776,1.7911,-4.2984,-4.2351
4648771.0,-2.6336,1.1588,43.2297,1.4426,-4.4916,-4.2894
4648781.0,-2.3272,2.3655,43.268,1.1036,-4.7049,-4.3085
4648791.0,-2.1261,3.2753,42.8754,0.7811,-4.9721,-4.2915
4648801.0,-1.6664,4.0893,42.3199,0.5763,-5.1354,-4.1915
4648811.0,-1.0726,4.6543,40.8163,0.4911,-5.2706,-4.0382
4648821.0,-0.3735,4.798,39.5139,0.3235,-5.3291,-3.9046
4648831.0,0.2682,4.9321,37.4453,0.0777,-5.352,-3.7775
4648841.0,1.0822,4.8363,37.2059,-0.0628,-5.1817,-3.6572
4648851.0,2.1452,4.8554,36.7749,-0.1096,-5.0279,-3.5465
4648861.0,2.5666,5.3822,36.2578,-0.0431,-4.8598,-3.4273
4648871.0,2.7773,6.5601,35.7023,-0.0069,-4.6342,-3.2235
4648881.0,3.1029,7.7764,35.3097,0.0059,-4.4628,-2.958
4648891.0,3.8211,8.7915,35.0511,-0.1038,-4.3947,-2.6217
4648901.0,4.4724,9.6438,34.3616,-0.2421,-4.3452,-2.2881
4648911.0,5.0949,10.1514,33.7582,-0.5092,-4.308,-1.9262
4648921.0,5.8227,10.5441,32.6569,-0.7263,-4.3011,-1.5713
4648931.0,5.3343,9.8833,32.5707,-0.854,-4.3287,-1.218
4648941.0,5.612,10.4962,30.981,-0.6657,-4.1957,-0.8519
4648951.0,6.1866,10.4387,30.1957,-0.4432,-4.085,-0.4369
4648961.0,6.4835,10.4196,28.2612,-0.2166,-3.8312,-0.0404
4648971.0,7.0485,10.2472,26.2213,0.0607,-3.5513,0.3251
4648981.0,7.6806,9.912,25.005,0.0654,-3.2698,0.6588
4648991.0,8.0158,9.4523,23.2142,0.0117,-2.999,0.9099
4649001.0,8.0924,9.165,21.1169,-0.1447,-2.5903,1.1882
4649011.0,9.3182,8.0732,20.4944,-0.2134,-2.0007,1.4016
4649021.0,10.3813,8.8394,17.6979,-0.0303,-1.0158,1.6187
4649031.0,10.2089,9.3757,17.1521,0.0644,0.0202,1.8917
4649041.0,10.1323,10.6015,16.6158,0.0915,1.2776,2.2817
4649051.0,9.5002,12.1434,17.9182,0.1399,2.4993,2.7654
4649061.0,8.4372,12.7946,20.8583,0.0117,3.5417,3.3981
4649071.0,7.8338,12.7084,23.9229,-0.1453,4.2463,4.1143
4649081.0,7.1443,11.1187,28.0122,-0.3352,4.5469,4.7885
4649091.0,6.857,9.8354,30.9331,-0.4124,4.6203,5.3956
4649101.0,6.2058,8.3127,33.2603,-0.1341,4.6719,5.99
4649111.0,5.43,6.8857,34.7351,0.5082,4.7699,6.6195
4649121.0,4.6639,5.5545,35.9705,1.5782,4.9976,7.2554
4649131.0,3.3232,4.2808,37.9146,2.8005,5.2637,7.8561
4649141.0,2.9113,1.9632,39.6863,4.0776,5.3829,8.3882
4649151.0,2.7485,-0.498,39.6671,5.0742,5.2126,8.7054
4649161.0,2.9209,-2.7869,38.2785,5.2759,4.8162,8.7719
4649171.0,4.4245,-5.1715,34.6872,5.0482,4.7981,8.5319
4649181.0,5.114,-6.541,31.1342,4.3314,5.1727,8.0759
4649191.0,5.296,-8.102,29.9563,3.2927,5.7378,7.415
4649201.0,4.6831,-7.853,29.2859,2.0912,6.3571,6.6594
4649211.0,3.0646,-7.3263,31.115,0.7482,6.7616,5.9448
4649221.0,0.8619,-6.7708,33.787,-0.24,7.133,5.4174
4649231.0,-0.4214,-7.604,37.5219,-0.7056,7.4528,4.971
4649241.0,-0.6608,-8.3031,41.6878,-0.4012,7.8088,4.5591
4649251.0,-1.1492,-7.3071,44.944,0.4395,8.2355,4.1303
4649261.0,-3.1699,-5.4492,49.2056,1.5586,8.3366,3.7769
4649271.0,-4.8171,-2.0399,51.3604,2.4525,8.1621,3.6157
4649281.0,-6.9528,1.992,53.0747,3.0612,7.5906,3.6375
4649291.0,-8.0158,5.0853,52.5575,3.0277,6.8371,3.7817
4649301.0,-8.8585,7.0102,50.7954,2.6398,6.1087,4.0265
4649311.0,-9.3087,7.1539,48.5065,2.1269,5.8538,4.2622
4649321.0,-9.5577,6.5888,47.2328,1.7326,5.9666,4.4415
4649331.0,-10.1706,5.928,48.1809,1.0786,5.974,4.5341
4649341.0,-10.9176,5.3726,50.3357,0.4321,5.8341,4.5081
4649351.0,-11.6358,5.3056,53.0172,0.0208,5.4967,4.54
4649361.0,-12.7946,5.2194,55.3923,0.0857,4.8864,4.6698
4649371.0,-13.5225,5.3917,55.0188,0.116,4.1883,4.8172
4649381.0,-13.5799,5.1523,53.247,0.157,3.6801,4.9407
4649391.0,-13.5416,4.8171,50.8624,0.0484,3.5636,5.0317
4649401.0,-13.8002,4.2425,49.9814,-0.1256,3.5668,5.0556
4649411.0,-14.4035,3.7062,51.3796,-0.2341,3.671,5.0615
4649421.0,-14.9973,3.7541,52.7778,-0.2735,3.5284,5.038
4649431.0,-15.8975,3.4285,55.1049,-0.2325,3.2257,5.0678
4649441.0,-15.6772,3.4764,56.3691,-0.1266,2.7265,5.1195
4649451.0,-15.4953,3.304,56.4553,-0.1229,2.1524,5.1338
4649461.0,-15.9071,3.486,55.0954,-0.4236,1.6139,5.0875
4649471.0,-15.8688,3.8595,53.6397,-0.9312,1.184,5.054
4649481.0,-16.2423,3.4955,53.994,-1.433,0.8982,5.0237
4649491.0,-16.0795,2.0877,55.3348,-1.69,0.6093,5.0184
4649501.0,-15.7538,0.9002,56.9724,-1.7985,0.1788,4.9428
4649511.0,-15.7251,0.2777,57.5949,-1.9518,-0.4496,4.8044
4649521.0,-15.5144,0.0,59.3187,-2.0337,-1.1675,4.7007
4649531.0,-15.3995,-0.0862,59.1368,-2.0891,-1.988,4.6406
4649541.0,-14.1737,-0.8523,58.5718,-1.9741,-2.7212,4.6145
4649551.0,-13.9534,-1.2546,56.4649,-1.9779,-3.3257,4.5469
4649561.0,-13.1873,-1.4748,54.6931,-2.121,-3.8243,4.4229
4649571.0,-12.5552,-2.059,53.1992,-2.2221,-4.3282,4.3048
4649581.0,-12.0189,-2.6336,51.0252,-2.4105,-4.7544,4.2058
4649591.0,-10.8409,-3.7924,49.5887,-2.5499,-5.0051,4.0254
4649601.0,-9.8354,-5.047,47.6829,-2.5611,-5.1764,3.8147
4649611.0,-8.5138,-5.9664,46.4379,-2.7005,-5.3642,3.5242
4649621.0,-7.1826,-6.8953,45.8921,-2.8399,-5.6021,3.1847
4649631.0,-5.9472,-7.5082,43.699,-3.1203,-5.9182,2.7728
4649641.0,-5.2768,-8.1882,41.6016,-3.5322,-6.0656,2.3168
4649651.0,-4.1659,-8.7149,40.1939,-3.7924,-6.1965,1.8571
4649661.0,-3.3519,-9.165,39.2074,-3.8365,-6.2901,1.4293
4649671.0,-2.0494,-9.7205,38.2306,-3.5002,-6.1667,1.0195
4649681.0,-1.0726,-10.4196,37.091,-2.859,-6.0549,0.6337
4649691.0,-0.4501,-10.2759,35.4629,-2.0806,-5.8724,0.2788
4649701.0,0.4597,-9.3948,32.7335,-1.3026,-5.4371,-0.0176
4649711.0,1.1301,-7.9392,29.8796,-0.9897,-4.8284,-0.2794
4649721.0,1.6089,-6.6176,28.0888,-1.0568,-4.2165,-0.4672
4649731.0,2.3463,-6.177,29.0177,-1.1536,-3.4869,-0.5811
4649741.0,2.5187,-6.5314,30.7032,-1.3824,-2.9112,-0.6902
4649751.0,3.055,-7.0677,33.4039,-1.4426,-2.6286,-0.8397
4649761.0,2.9209,-6.6846,35.9801,-1.5586,-2.6595,-0.9706
4649771.0,3.2657,-7.0581,37.1676,-1.3643,-2.7845,-1.0413
4649781.0,3.9744,-8.1882,38.0295,-0.9844,-2.8191,-1.1297
4649791.0,5.114,-8.916,38.221,-0.6162,-2.8143,-1.3441
4649801.0,5.4109,-8.8107,37.5602,-0.4715,-2.9351,-1.5708
4649811.0,5.6695,-7.9966,36.6026,-0.4033,-3.0666,-1.815
4649821.0,5.8802,-6.9432,35.2043,-0.3613,-3.1964,-1.9438
4649831.0,6.1866,-5.8035,33.356,-0.4342,-3.2507,-1.9896
4649841.0,5.8323,-5.6695,31.9099,-0.5332,-3.2943,-2.022
4649851.0,6.7421,-5.7269,29.2476,-0.729,-3.1682,-2.0337
4649861.0,7.5465,-6.2345,27.4759,-0.804,-2.9415,-2.0822
4649871.0,8.3701,-6.5793,25.6754,-0.9179,-2.5494,-2.1811
4649881.0,8.8873,-6.6559,24.689,-0.6002,-1.9672,-2.2594
4649891.0,9.2991,-6.5314,23.5015,-0.2001,-1.3175,-2.3189
4649901.0,9.5864,-5.8035,21.7681,0.2389,-0.5151,-2.3466
4649911.0,9.4332,-5.4396,20.8104,0.5688,0.3677,-2.3801
4649921.0,9.6534,-5.4109,20.073,0.6635,1.2414,-2.4642
4649931.0,9.1746,-5.1332,20.4178,0.5518,2.0369,-2.5983
4649941.0,8.6,-5.2002,21.7585,0.6561,2.9915,-2.7356
4649951.0,7.9583,-4.8171,23.061,0.8689,3.9281,-2.8713
4649961.0,6.8474,-4.9512,25.2062,1.1765,4.7603,-2.9969
4649971.0,5.6982,-5.2194,28.7879,1.5751,5.5382,-3.1283
4649981.0,5.3534,-4.9895,31.9387,1.9012,6.0826,-3.3135
4649991.0,4.4532,-4.8937,34.6393,2.1928,6.3103,-3.5316
4650001.0,2.9401,-3.7637,37.6943,2.3684,6.3391,-3.7221
4650011.0,1.2546,-2.4038,40.2896,2.4669,6.1821,-3.8328
4650021.0,0.3448,-0.6416,41.3239,2.4546,5.9687,-3.902
4650031.0,-0.6321,0.5076,42.4061,2.3322,5.7591,-3.8866
4650041.0,-1.4748,1.1396,43.3159,2.2594,5.6372,-3.8583
4650051.0,-1.494,1.6759,44.762,2.0907,5.4824,-3.8552
4650061.0,-2.1452,1.9345,46.0549,1.8427,5.2323,-3.8855
4650071.0,-2.624,2.3559,47.9319,1.5969,4.9151,-3.8791
4650081.0,-3.7158,2.5953,49.2439,1.2377,4.3724,-3.8754
4650091.0,-3.869,2.7294,49.8281,0.9014,3.736,-3.886
4650101.0,-4.367,3.2178,48.5257,0.5656,3.3028,-3.8881
4650111.0,-4.616,3.7445,47.9319,0.3368,3.0341,-3.8413
4650121.0,-4.8459,3.9169,46.8785,0.1979,2.9367,-3.7647
4650131.0,-4.9321,3.8786,46.6199,0.1634,2.9718,-3.6545
4650141.0,-5.679,3.6871,47.4435,0.1399,2.9394,-3.6035
4650151.0,-5.5354,3.0167,49.2344,0.215,2.7856,-3.5343
4650161.0,-5.4205,1.81,50.6709,0.3608,2.3466,-3.5545
4650171.0,-4.9129,1.3216,51.0156,0.6534,1.8592,-3.6205
4650181.0,-4.865,1.2929,50.1059,1.0839,1.5171,-3.6992
4650191.0,-5.1811,1.992,49.1003,1.608,1.2728,-3.7743
4650201.0,-5.8323,3.2944,47.0796,1.9225,1.0876,-3.828
4650211.0,-5.8802,4.8171,45.1546,1.9619,0.9727,-3.8381
4650221.0,-6.0525,6.0813,43.3255,1.8204,0.9339,-3.795
4650231.0,-6.5218,7.0581,42.5498,1.6458,0.9881,-3.7125
4650241.0,-6.2345,7.4699,41.7932,1.3909,1.0733,-3.5694
4650251.0,-6.9336,8.0732,41.8602,1.16,1.1903,-3.4609
4650261.0,-6.6655,8.3797,42.2337,0.9855,1.3601,-3.2911
4650271.0,-7.0294,7.7764,43.7564,1.0339,1.4963,-3.0958
4650281.0,-7.2688,7.2496,45.3941,1.2686,1.5245,-2.9107
4650291.0,-6.7038,6.4835,46.6774,1.4394,1.5745,-2.7723
4650301.0,-6.8474,5.6599,48.1522,1.3643,1.2553,-2.7297
4650311.0,-6.5793,5.0853,49.0716,1.2584,0.8386,-2.751
4650321.0,-6.9623,4.7597,48.6023,1.0988,0.415,-2.7505
4650331.0,-6.8666,4.4436,47.817,0.8695,0.0628,-2.7723
4650341.0,-6.6559,3.8978,46.8402,0.6284,-0.1687,-2.8537
4650351.0,-6.4835,3.7062,46.1698,0.5044,-0.2501,-2.949
4650361.0,-6.2345,3.9552,45.1163,0.3964,-0.2246,-3.0506
4650371.0,-6.541,4.2904,44.9152,0.3539,-0.1224,-3.1214
4650381.0,-6.5888,4.4915,45.3079,0.4326,0.0612,-3.1384
4650391.0,-6.6272,4.0606,46.5624,0.5337,0.0968,-3.1214
4650401.0,-6.9623,3.122,47.501,0.5507,-0.0431,-3.2278
4650411.0,-7.288,2.739,48.2575,0.622,-0.1325,-3.3417
4650421.0,-7.0773,2.7677,49.3684,0.6997,-0.3182,-3.4726
4650431.0,-7.3358,3.0646,50.125,0.7865,-0.5412,-3.5838
4650441.0,-7.8817,3.7924,50.5943,0.8939,-0.6678,-3.6636
4650451.0,-7.8913,4.2904,51.7914,0.9472,-0.9248,-3.737
4650461.0,-8.0349,4.865,52.7778,1.0201,-1.292,-3.7902
4650471.0,-8.0732,5.8706,53.0076,1.052,-1.6836,-3.8206
4650481.0,-8.1594,6.3782,52.9406,1.0711,-2.1194,-3.8232
4650491.0,-8.3031,7.2592,52.5384,1.1568,-2.5541,-3.7966
4650501.0,-8.5329,8.1307,51.5903,1.1275,-3.0054,-3.7333
4650511.0,-8.2552,8.3701,50.556,1.1776,-3.2347,-3.662
4650521.0,-8.6479,8.3893,50.0963,1.2542,-3.4508,-3.5976
4650531.0,-8.2361,8.2265,49.9526,1.4069,-3.6375,-3.562
4650541.0,-8.0254,8.2648,50.0771,1.3037,-4.0206,-3.5811
4650551.0,-7.6423,8.8969,49.4259,1.3228,-4.3426,-3.6311
4650561.0,-7.8147,9.7588,48.4203,1.259,-4.69,-3.6412
4650571.0,-7.5753,10.9654,47.1849,1.1776,-4.9731,-3.5854
4650581.0,-7.1635,11.2144,46.6103,1.1142,-5.1578,-3.5109
4650591.0,-6.9815,11.9423,45.1068,1.0477,-5.4031,-3.421
4650601.0,-6.3494,12.6318,44.4077,0.9371,-5.5122,-3.3278
4650611.0,-6.1196,12.7467,43.2584,0.9019,-5.6005,-3.189
4650621.0,-5.4875,13.1681,42.9137,0.9924,-5.6069,-3.0586
4650631.0,-4.7597,13.963,42.0901,0.9078,-5.6611,-2.9431
4650641.0,-4.2138,14.2982,41.3718,0.6646,-5.7835,-2.7968
4650651.0,-3.6392,14.7483,40.7014,0.3469,-6.0347,-2.6696
4650661.0,-2.5953,15.4187,38.7095,0.0474,-6.123,-2.5222
4650671.0,-1.81,15.7634,37.1772,-0.3294,-6.0512,-2.344
4650681.0,-0.9673,16.0699,36.7845,-0.6194,-5.9974,-2.1689
4650691.0,-0.4214,16.3763,35.8651,-0.8929,-5.9309,-1.963
4650701.0,-0.1628,16.4338,36.1333,-1.0499,-5.8032,-1.7086
4650711.0,0.7183,15.7347,36.5164,-1.0552,-5.7862,-1.4665
4650721.0,1.5514,14.8345,36.9282,-0.9998,-5.8665,-1.2638
4650731.0,2.806,15.2559,34.9937,-1.0009,-5.8277,-1.11
4650741.0,3.7924,15.4378,33.8444,-1.1451,-5.8245,-0.9594
4650751.0,4.5873,15.9837,32.4845,-1.3015,-5.7367,-0.7476
4650761.0,5.5354,16.8073,30.7128,-1.4591,-5.5792,-0.5316
4650771.0,6.11,17.2957,29.5444,-1.5389,-5.261,-0.2251
4650781.0,6.4069,17.5256,28.3761,-1.7161,-4.9082,0.1266
4650791.0,6.7038,17.1521,27.677,-1.7075,-4.4543,0.4986
4650801.0,7.6902,16.5008,27.3226,-1.7203,-4.0036,0.8737
4650811.0,8.3797,15.9071,26.8246,-1.847,-3.6913,1.1951
4650821.0,9.0214,15.6581,26.25,-2.0614,-3.3007,1.5
4650831.0,9.098,15.026,26.3171,-2.2732,-3.0149,1.823
4650841.0,9.5672,14.5759,26.3266,-2.4291,-2.7824,2.1535
4650851.0,9.9024,13.5799,25.4839,-2.652,-2.5302,2.4334
4650861.0,9.979,12.2966,25.618,-2.8899,-2.3918,2.6696
4650871.0,10.6303,10.8601,25.0146,-3.0644,-2.1306,2.8388
4650881.0,11.2432,9.9695,24.3059,-3.1597,-1.8959,2.9894
4650891.0,11.3198,9.0214,23.8367,-3.3044,-1.6788,3.0767
4650901.0,11.7029,8.7628,22.6587,-3.421,-1.4058,3.1581
4650911.0,11.5017,8.5904,22.2469,-3.4715,-1.143,3.2954
4650921.0,12.0859,8.5712,20.6955,-3.4646,-0.7599,3.4641
4650931.0,12.5265,8.351,19.9389,-3.1943,-0.2277,3.6721
4650941.0,12.4786,7.92,18.6556,-2.7457,0.5518,3.9233
4650951.0,12.22,7.5848,18.3396,-2.005,1.5351,4.2101
4650961.0,11.5209,6.9528,18.3109,-1.242,2.634,4.5309
4650971.0,11.3485,6.177,19.0674,-0.5545,3.6918,4.8092
4650981.0,10.7452,5.2098,19.9102,-0.1224,4.6586,5.0114
4650991.0,10.0844,4.3766,21.8064,0.0889,5.4025,5.095
4651001.0,9.5768,3.5243,23.9516,0.0681,5.8335,5.1099
4651011.0,9.165,2.7677,25.5605,0.0426,6.1496,5.0838
4651021.0,8.351,2.8826,27.1119,0.2123,6.5343,5.0503
4651031.0,7.4508,3.0646,28.1462,0.5571,7.1096,5.104
4651041.0,5.7748,3.4477,29.3816,1.0818,7.714,5.2104
4651051.0,4.616,3.3519,31.5747,1.491,8.2318,5.3201
4651061.0,3.802,3.0933,33.6146,1.6283,8.4734,5.3621
4651071.0,2.1261,2.6432,35.913,1.5777,8.4047,5.3589
4651081.0,1.5323,2.3942,37.7805,1.6517,8.3371,5.3392
4651091.0,1.1109,2.3272,38.6424,2.0337,8.4829,5.3115
4651101.0,0.2394,2.5762,39.648,2.5765,8.8022,5.3105
4651111.0,-0.7087,3.8307,40.2896,2.9527,9.0768,5.2935
4651121.0,-2.0973,5.0661,41.458,2.9373,9.1534,5.2993
4651131.0,-3.802,6.541,42.3199,2.4142,8.9634,5.3366
4651141.0,-5.7078,7.4508,43.3063,1.6623,8.5159,5.4084
4651151.0,-7.7381,6.6463,44.3023,0.986,8.2488,5.5563
4651161.0,-7.1539,4.1659,46.0549,0.9275,8.0365,5.6494
4651171.0,-6.7995,2.0111,47.75,1.0993,7.9354,5.5558
4651181.0,-7.2688,1.3408,48.4586,1.4112,7.9966,5.3169
4651191.0,-7.9296,2.4421,49.5504,1.5064,7.8215,5.0897
4651201.0,-9.3661,3.8116,50.3261,1.5442,7.6081,4.9476
4651211.0,-10.3142,5.8227,50.0005,1.2521,7.2431,4.8561
4651221.0,-11.2527,7.1922,49.8569,0.7146,6.9669,4.8624
4651231.0,-12.651,7.7859,49.5791,0.2081,6.7062,4.905
4651241.0,-13.8959,7.7668,50.4985,0.0357,6.8031,5.0428
4651251.0,-14.7004,6.6942,53.8695,0.3693,6.9904,5.1626
4651261.0,-15.3612,5.6024,57.1831,0.8849,6.8802,5.2222
4651271.0,-15.955,5.3822,60.1807,1.2792,6.4673,5.1775
4651281.0,-16.7498,6.1292,62.1247,1.4096,5.8053,5.137
4651291.0,-17.1233,7.3263,62.661,1.3984,4.9721,5.1083
4651301.0,-17.2766,8.3318,61.5214,1.0546,4.1308,5.1248
4651311.0,-17.1712,8.734,59.9029,0.4055,3.3342,5.112
4651321.0,-17.5064,8.916,58.1408,-0.5667,2.6733,5.0588
4651331.0,-17.5543,8.7915,57.2501,-1.5878,2.1199,5.0104
4651341.0,-17.6213,7.7859,57.6428,-2.502,1.4899,4.9534
4651351.0,-17.4777,6.5793,57.5853,-3.1783,0.9445,4.888
4651361.0,-16.7403,5.6312,58.1791,-3.6024,0.3251,4.8257
4651371.0,-16.5775,4.7788,58.9452,-3.82,-0.4119,4.781
4651381.0,-16.3476,5.047,57.9684,-3.8371,-1.1611,4.7768
4651391.0,-15.8592,5.3151,55.8807,-3.8626,-1.8411,4.8459
4651401.0,-15.4187,4.7501,53.2662,-3.985,-2.345,4.9545
4651411.0,-14.9207,3.7733,50.9486,-4.1659,-2.6856,5.0545
4651421.0,-14.3748,2.1644,48.8321,-4.4266,-2.9165,5.0716
4651431.0,-13.5512,0.1245,48.0564,-4.5868,-3.0511,5.0322
4651441.0,-12.4786,-2.1356,48.6119,-4.5331,-3.2065,4.9242
4651451.0,-11.3964,-4.2329,48.7843,-4.4426,-3.5098,4.6868
4651461.0,-10.3046,-5.5737,47.7978,-4.3096,-3.8025,4.3713
4651531.0,-5.8227,-9.0405,42.2624,-3.7429,-4.4176,2.5382
4651541.0,-4.8554,-9.9599,42.3965,-3.4662,-4.4703,2.2774
4651551.0,-3.7828,-10.7069,41.7836,-3.1347,-4.5645,2.0103
4651561.0,-2.8347,-11.2432,40.8259,-2.8803,-4.5187,1.7161
4651571.0,-1.9824,-11.789,40.4141,-2.7728,-4.5528,1.3659
4651581.0,-0.9481,-12.0189,40.1077,-2.7324,-4.507,0.9637
4651591.0,-0.5746,-12.0189,39.6671,-2.8378,-4.6746,0.5922
4651601.0,-0.2586,-11.8657,39.5235,-2.7547,-4.7081,0.2501
4651611.0,0.0766,-11.6167,38.9872,-2.5387,-4.7613,0.016
4651621.0,1.063,-11.6454,37.9816,-2.2519,-4.7337,-0.2293
4651631.0,1.81,-11.1282,36.7271,-2.03,-4.6134,-0.4608
4651641.0,2.1069,-10.6781,35.9322,-1.7953,-4.5022,-0.6167
4651651.0,2.6624,-10.9367,35.3384,-1.5463,-4.2005,-0.7657
4651661.0,3.486,-12.1434,34.9266,-1.3,-3.9334,-0.945
4651671.0,4.3958,-13.2926,35.2426,-1.1254,-3.7663,-1.2542
4651681.0,5.0757,-13.2064,35.3097,-1.052,-3.6498,-1.6027
4651691.0,5.2385,-13.3213,35.0798,-1.0068,-3.5811,-1.9662
4651701.0,5.679,-12.7755,34.9745,-1.0089,-3.5513,-2.3184
4651711.0,6.1483,-12.1051,34.285,-1.0057,-3.4672,-2.6414
4651721.0,6.359,-11.1474,33.8732,-0.8876,-3.3284,-2.8766
4651731.0,7.1347,-9.8162,32.4654,-0.7418,-3.1012,-3.0341
4651741.0,7.4412,-8.7819,31.5268,-0.6066,-2.8388,-3.1192
4651751.0,7.3167,-7.7668,30.5787,-0.4464,-2.4722,-3.1192
4651761.0,7.7285,-7.2784,30.2052,-0.2554,-2.2141,-3.0857
4651771.0,8.1116,-7.2975,30.3776,-0.1501,-2.0093,-3.0495
4651781.0,8.4946,-7.6136,29.5444,-0.0713,-1.9076,-3.0676
4651791.0,9.0309,-8.2265,28.424,-0.033,-1.8118,-3.1384
4651801.0,9.73,-8.4084,26.3745,-0.1282,-1.6384,-3.2959
4651811.0,10.3813,-8.3606,23.8175,-0.3076,-1.2819,-3.5183
4651821.0,10.726,-7.671,21.452,-0.4555,-0.6013,-3.7477
4651831.0,10.0461,-6.7421,21.069,-0.4417,0.3235,-3.8967
4651841.0,9.0405,-6.0047,21.8926,-0.1155,1.3127,-3.9605
4651851.0,8.4946,-5.7557,23.7505,0.4667,2.2508,-3.8988
4651861.0,8.1211,-6.0142,25.8478,1.0727,2.9825,-3.8583
4651871.0,7.6519,-6.4356,27.4854,1.4761,3.3007,-3.9142
4651881.0,7.0677,-6.6655,28.3473,1.5607,3.389,-4.0685
4651891.0,7.2113,-6.3398,27.2269,1.5,3.7136,-4.2926
4651901.0,6.4165,-5.3056,27.6387,1.3904,4.1989,-4.5081
4651911.0,5.5258,-4.2904,27.9834,1.1675,4.6001,-4.673
4651921.0,4.4053,-3.304,29.0273,0.8221,5.0242,-4.8321
4651931.0,2.8922,-1.8675,30.4351,0.3267,5.2812,-4.9013
4651941.0,1.1109,-1.4174,32.9155,0.0686,5.402,-4.9034
4651951.0,-0.4693,-1.7142,35.7694,0.0756,5.4435,-4.8193
4651961.0,-0.8045,-2.624,36.4876,0.4411,5.5718,-4.7613
4651971.0,-0.6991,-3.1125,37.1389,1.0962,6.0884,-4.7315
4651981.0,-1.3216,-2.8922,38.2785,1.6756,6.6376,-4.7528
4651991.0,-2.2984,-2.1452,40.6631,2.0364,6.9717,-4.7927
4652001.0,-3.2465,-1.5227,43.517,2.1391,7.0739,-4.8678
4652011.0,-4.7214,-0.0383,46.3039,2.0188,6.7796,-4.9066
4652021.0,-6.0813,0.6512,48.5448,1.4883,6.0959,-4.9274
4652031.0,-7.2113,0.7661,49.4834,0.961,5.2477,-4.9545
4652041.0,-6.9528,0.6991,49.1961,0.7971,4.7736,-4.9678
4652051.0,-7.1635,0.7661,48.6119,0.9285,4.78,-4.9635
4652061.0,-7.4412,1.1013,49.6174,1.3638,4.9753,-4.9566
4652071.0,-8.1786,1.8771,52.0308,1.8134,4.9784,-4.9215
4652081.0,-9.2225,3.1987,54.0323,2.0598,4.6081,-4.8454
4652091.0,-10.1514,4.7118,54.6357,2.0811,3.9318,-4.7055
4652101.0,-10.3813,6.0908,54.1664,1.8033,3.2805,-4.4921
4652111.0,-10.7069,6.6367,52.6341,1.3957,2.5882,-4.2612
4652121.0,-10.4004,7.7476,50.4027,0.9551,2.254,-4.0201
4652131.0,-10.975,8.2265,48.7459,0.6119,2.1955,-3.7253
4652141.0,-11.2336,6.9719,49.3589,0.5396,2.3658,-3.3614
4652151.0,-10.0461,3.9361,51.1785,0.6204,2.4844,-3.1299
4652161.0,-9.6822,1.1205,53.745,0.5928,2.1338,-3.1767
4652171.0,-9.6247,-0.9577,54.8464,0.4741,1.5341,-3.3576
4652181.0,-8.8873,-1.9824,54.923,0.3225,0.9094,-3.6966
4652191.0,-9.2512,-2.2027,53.9174,0.0734,0.3288,-4.0579
4652201.0,-8.9352,-1.5227,52.366,-0.1751,-0.0548,-4.4054
4652211.0,-9.2703,-0.1437,51.1976,-0.4028,-0.2171,-4.6837
4652221.0,-9.6343,1.0439,50.6805,-0.6141,-0.3597,-4.8619
4652231.0,-10.1131,2.1069,50.5464,-0.7375,-0.4103,-4.9566
4652241.0,-10.1323,2.2601,52.0021,-0.6673,-0.5002,-4.9455
4652251.0,-10.2568,2.1644,52.8161,-0.5374,-0.7982,-4.9529
4652261.0,-10.1323,2.7677,52.8257,-0.5417,-1.2936,-4.979
4652271.0,-10.1418,3.371,51.2263,-0.8753,-1.724,-5.0066
4652281.0,-9.7683,3.9073,50.192,-1.0844,-1.9161,-4.9747
4652291.0,-9.6055,4.4915,49.7994,-1.1898,-1.9161,-4.9029
4652301.0,-9.3182,4.1084,51.6477,-1.0456,-1.8331,-4.7911
4652311.0,-9.6343,3.4668,54.8368,-0.8732,-2.0407,-4.6906
4652321.0,-9.596,2.0494,58.725,-0.3272,-2.5579,-4.6475
4652331.0,-9.9982,1.8579,59.8359,0.3581,-3.314,-4.6219
4652341.0,-9.7971,2.3942,60.5733,1.0541,-4.0669,-4.6113
4652351.0,-10.094,3.7733,58.8591,1.5735,-4.8864,-4.5661
4652361.0,-9.6343,5.2289,55.8328,1.6091,-5.7356,-4.5107
4652371.0,-8.9256,6.5793,51.7722,1.383,-6.3327,-4.4873
4652381.0,-8.3318,7.5274,48.1043,0.8636,-6.7786,-4.4368
4652391.0,-7.6231,8.5617,45.6239,0.248,-7.001,-4.3665
4652401.0,-7.0581,9.232,43.268,-0.2022,-6.926,-4.2521
4652411.0,-6.0142,9.3278,42.138,-0.5156,-6.7988,-4.0765
4652421.0,-4.9991,9.3661,41.9273,-0.6923,-6.6472,-3.9291
4652431.0,-4.3479,9.0692,42.5689,-0.8163,-6.6354,-3.7934
4652441.0,-3.2753,9.0597,42.8945,-0.9057,-6.802,-3.662
4652451.0,-2.5474,9.3087,41.9943,-0.9674,-7.0047,-3.5758
4652461.0,-1.8196,9.5193,40.6919,-0.9684,-7.1686,-3.4406
4652471.0,-1.1971,10.0652,39.4373,-0.9195,-7.2543,-3.2943
4652481.0,-0.5267,10.6303,37.2921,-0.8237,-7.1457,-3.099
4652491.0,0.2298,11.1666,35.7502,-0.6327,-6.9297,-2.8441
4652501.0,1.2163,12.5073,33.6721,-0.5209,-6.6918,-2.576
4652511.0,1.8387,13.3309,32.4462,-0.4981,-6.2901,-2.2067
4652521.0,2.6336,13.4841,31.977,-0.3278,-5.8506,-1.7507
4652531.0,4.0893,13.1202,31.5268,-0.1389,-5.5249,-1.3335
4652541.0,4.9799,12.7372,30.8756,-0.1229,-5.1487,-0.9732
4652551.0,5.7365,12.1817,30.8086,-0.2421,-4.9263,-0.6439
4652561.0,6.675,11.904,30.1095,-0.3789,-4.6927,-0.3586
4652571.0,7.0294,11.4922,29.9179,-0.531,-4.4761,-0.067
4652581.0,7.8626,11.3772,28.6538,-0.6726,-4.2159,0.2155
4652591.0,8.2648,11.4156,28.2803,-0.8285,-3.944,0.5146
4652601.0,9.0597,11.3868,27.2077,-0.9583,-3.6184,0.8439
4652611.0,9.6247,11.4156,26.6139,-1.2063,-3.2911,1.1515
4652621.0,9.8067,10.7643,26.3266,-1.5782,-2.9687,1.474
4652631.0,10.4004,9.8162,25.752,-1.9933,-2.7436,1.7592
4652641.0,10.5441,8.5425,26.4033,-2.4584,-2.5286,1.9624
4652651.0,11.2049,7.2305,26.5469,-2.7899,-2.3972,2.1332
4652661.0,11.9902,6.0813,26.8821,-3.0884,-2.2987,2.2498
4652671.0,12.4498,5.4396,26.7097,-3.272,-2.0933,2.3722
4652681.0,13.0436,5.4396,25.9915,-3.414,-1.8432,2.5015
4652691.0,13.1202,5.43,25.2253,-3.5173,-1.5697,2.6909
4652701.0,13.2447,5.4588,23.7696,-3.7668,-1.3255,2.8745
4652711.0,13.4363,5.4013,22.7641,-4.1611,-1.06,3.0639
4652721.0,13.1106,5.1332,21.816,-4.5921,-0.745,3.2677
4652731.0,13.5225,5.0566,20.6667,-5.0428,-0.3959,3.4944
4652741.0,13.2543,5.2864,20.1017,-5.4387,0.0245,3.737
4652751.0,12.9191,6.0238,18.9429,-5.9602,0.4874,4.0568
4652761.0,12.0668,6.8378,17.9757,-6.8616,0.8264,4.4527
4652771.0,11.5975,6.2441,17.6309,-7.6379,1.2042,4.9236
4652781.0,11.224,4.9799,18.8472,-7.8311,1.964,5.4946
4652791.0,9.9599,2.1356,23.1759,-6.5391,3.04,6.23
4652801.0,9.7971,-1.063,26.9204,-4.4266,4.1111,6.9563
4652811.0,9.5577,-4.5011,30.3776,-1.9007,4.9604,7.5331
4652821.0,8.8873,-7.5274,31.795,-0.1868,5.4643,7.829
4652831.0,9.3374,-9.9311,32.2164,0.9828,5.7601,7.78
4652841.0,9.5289,-10.8409,32.0823,1.2861,5.8543,7.5507
4652851.0,8.2265,-11.3389,33.4135,1.7634,6.2545,7.2995
4652861.0,7.0773,-10.6494,33.8061,1.997,6.727,7.0984
4652871.0,6.1196,-10.5919,35.6832,2.568,7.2649,6.9489
4652881.0,3.8211,-10.8601,39.3224,3.2182,7.9104,6.827
4652891.0,2.8635,-10.9654,43.3638,4.01,8.2382,6.7115
4652901.0,1.8579,-10.9463,47.9128,4.8124,8.2584,6.5285
4652911.0,0.8332,-9.8641,50.939,5.3233,7.9013,6.3247
4652921.0,-0.4118,-7.7955,51.5519,5.6925,7.3309,6.197
4652931.0,-1.2546,-5.4684,50.9199,5.6218,6.8408,6.1204
4652941.0,-1.8292,-3.4381,48.9471,5.2924,6.6072,6.1299
4652951.0,-3.1987,-1.9537,48.248,4.6932,6.6754,6.1879
4652961.0,-4.2042,-2.2601,50.6326,4.1787,6.7951,6.2678
4652971.0,-5.3439,-2.7485,53.4769,3.8397,6.5993,6.3327
4652981.0,-6.5122,-3.6966,56.5702,3.6471,6.1299,6.3242
4652991.0,-7.1156,-4.1084,59.1081,3.555,5.3829,6.2699
4653001.0,-7.2592,-4.4245,59.6444,3.5056,4.3559,6.1975
4653011.0,-7.4986,-4.4628,57.6045,3.339,3.5699,6.0725
4653021.0,-7.0868,-4.4915,54.3484,3.1671,3.1017,5.8921
4653031.0,-7.3646,-4.4915,51.7148,2.7132,2.9479,5.6505
4653041.0,-7.8817,-3.9169,50.8912,2.56,2.9548,5.4621
4653051.0,-8.5138,-3.6105,51.2072,2.312,3.1006,5.3046
4653061.0,-8.7436,-3.2944,52.2127,2.2945,3.0916,5.1535
4653071.0,-9.232,-3.1603,54.1856,2.2498,2.8569,5.0125
4653081.0,-9.2991,-2.6145,54.2143,2.1311,2.4323,4.8497
4653091.0,-9.4236,-1.4748,53.4003,1.7874,1.9811,4.6938
4653101.0,-9.2129,-0.4118,51.121,1.0025,1.6533,4.5581
4653111.0,-9.7971,0.0575,50.3836,0.1336,1.4793,4.4543
4653121.0,-10.0173,-0.2777,50.939,-0.812,1.3149,4.3883
4653131.0,-10.6781,-1.3312,52.9119,-1.4825,1.0094,4.3511
4653141.0,-10.8505,-2.6815,55.1433,-1.7342,0.5736,4.3537
4653151.0,-11.1091,-3.8786,56.6564,-1.7028,0.0447,4.3351
4653161.0,-10.3813,-5.3822,57.5183,-1.2425,-0.4417,4.3202
4653171.0,-9.663,-6.5793,56.235,-0.8902,-1.1126,4.2191
4653181.0,-8.7819,-7.355,54.0515,-0.7295,-1.6283,4.0185
4653191.0,-7.4603,-7.4412,51.437,-0.9716,-2.0385,3.7264
4653201.0,-6.8761,-7.6327,48.4108,-1.5836,-2.4711,3.3837
4653211.0,-6.6846,-7.1635,46.2943,-2.1705,-2.7053,3.0213
4653221.0,-6.5984,-7.2113,45.5856,-2.7079,-2.8255,2.7255
4653231.0,-6.2441,-7.2784,44.6758,-2.9319,-2.9154,2.5201
4653241.0,-5.8706,-7.8721,44.6375,-3.0378,-2.9059,2.2897
4653251.0,-5.612,-7.9775,45.8442,-2.5685,-2.9245,2.1082
4653261.0,-5.612,-7.0485,46.3422,-1.7969,-2.9718,2.0885
4653271.0,-5.4875,-6.1387,45.576,-0.7907,-2.9287,2.1716
4653281.0,-5.0374,-5.3439,44.1108,0.0032,-2.9149,2.3179
4653291.0,-4.4915,-4.8076,42.1667,0.4225,-2.8633,2.4078
4653301.0,-4.2425,-4.865,41.4101,0.5268,-2.6808,2.4568
4653311.0,-3.7158,-5.4109,40.8355,0.4752,-2.5978,2.4514
4653321.0,-3.1795,-5.9855,40.7014,0.1171,-2.7127,2.3216
4653331.0,-2.5762,-6.1962,40.0598,-0.4645,-2.7425,2.1151
4653341.0,-2.5666,-6.2441,39.8204,-1.0605,-2.9128,1.8991
4653351.0,-1.6185,-6.6655,39.2553,-1.7895,-2.9272,1.6416
4653361.0,-1.494,-7.6902,40.3279,-2.4855,-2.8606,1.359
4653371.0,-0.7949,-8.4467,42.1954,-2.8324,-3.0416,1.0674
4653381.0,-0.4214,-9.165,44.331,-2.7872,-3.1921,0.8205
4653391.0,-0.929,-9.1459,45.9112,-2.2625,-3.4295,0.646
4653401.0,-0.5459,-9.0501,45.7771,-1.4175,-3.6716,0.571
4653411.0,-0.3926,-8.5329,44.2927,-0.5577,-3.8807,0.5752
4653421.0,0.4214,-8.3893,41.2952,-0.0511,-3.9382,0.5662
4653431.0,1.5514,-8.4276,39.1021,0.0676,-3.8796,0.4725
4653441.0,2.3942,-8.7628,37.0239,-0.1979,-3.8078,0.2964
4653451.0,3.3327,-9.0788,36.2003,-0.5146,-3.6439,0.125
4653461.0,4.0606,-9.3182,35.664,-0.8721,-3.4726,-0.1389
4653471.0,4.7597,-9.481,35.4533,-1.1009,-3.2587,-0.3735
4653481.0,5.2481,-9.8641,35.5778,-1.2829,-3.0112,-0.6082
4653491.0,5.5067,-9.6247,35.9992,-1.3686,-2.9506,-0.812
4653501.0,5.5833,-10.094,36.8037,-1.1855,-2.9005,-0.9791
4653511.0,5.9185,-9.8162,37.656,-0.829,-2.8229,-1.0935
4653521.0,6.5793,-9.7109,36.7941,-0.3076,-2.7984,-1.1765
4653531.0,7.3454,-9.7013,35.7789,0.009,-2.7798,-1.2829
4653541.0,8.2169,-8.7915,33.2028,-0.0378,-2.7888,-1.4245
4653551.0,8.3797,-8.5617,32.0536,-0.3139,-2.7361,-1.5969
4653561.0,8.8681,-8.0349,29.7743,-0.7524,-2.6797,-1.7645
4653571.0,9.3278,-7.9296,28.5676,-1.1089,-2.4568,-1.9396
4653581.0,9.6534,-7.4891,27.3226,-1.2723,-2.0673,-2.038
4653591.0,10.0269,-7.0198,26.7672,-1.2803,-1.616,-2.0997
4653601.0,9.8641,-7.7955,27.3226,-1.0217,-1.0844,-2.1151
4653611.0,10.3334,-8.4467,27.495,-0.5114,-0.5539,-2.105
4653621.0,10.7739,-9.3948,27.8302,0.1352,-0.0899,-2.1726
4653631.0,11.0516,-9.8354,27.5812,0.7455,0.3996,-2.3259
4653641.0,11.0516,-9.6822,26.6714,1.0935,0.8727,-2.527
4653651.0,10.6015,-9.1842,26.3458,1.0701,1.2483,-2.8186
4653661.0,10.4962,-8.0254,26.1638,0.713,1.6581,-3.0937
4653671.0,9.5577,-6.7038,26.2117,0.257,1.8837,-3.33
4653681.0,9.0788,-5.6599,26.4894,-0.2208,2.1689,-3.4688
4653691.0,8.734,-5.2002,26.681,-0.5007,2.634,-3.5609
4653701.0,7.7572,-5.2577,28.7017,-0.5444,3.2017,-3.5939
4653711.0,7.1539,-5.545,31.7471,0.0724,3.8099,-3.546
4653721.0,6.4452,-5.9376,35.0032,0.9748,4.233,-3.4656
4653731.0,6.1387,-6.0525,37.0718,1.8528,4.3388,-3.48
4653741.0,5.612,-5.4971,37.656,2.3695,4.2537,-3.5338
4653751.0,5.4779,-4.4436,36.8228,2.4025,4.06,-3.6152
4653761.0,5.2577,-3.0263,35.4821,1.9502,4.1111,-3.7849
4653771.0,4.4053,-1.7238,35.6257,1.2255,4.1766,-3.9376
4653781.0,2.873,-0.6416,37.9625,0.5603,4.1973,-3.9818
4653791.0,1.5036,-0.6991,40.5482,0.3805,4.2532,-3.935
4653801.0,0.565,-1.0918,43.1339,0.5438,4.1372,-3.8403
4653811.0,0.0,-2.0973,45.0014,0.9418,3.9046,-3.7753
4653821.0,-0.3735,-2.0494,45.2121,1.3548,3.6705,-3.7599
4653831.0,-0.68,-2.3655,45.4898,1.7496,3.3922,-3.762
4653841.0,-0.5076,-1.9058,43.8809,1.9364,3.2592,-3.8089
4653851.0,-0.2011,-0.9673,41.4293,1.6735,3.2321,-3.8764
4653861.0,-0.6991,-0.9673,42.2146,1.3085,3.4172,-3.9807
4653871.0,-1.1971,-0.498,43.0861,1.1419,3.7248,-4.0084
4653881.0,-2.4612,-0.747,46.9072,1.4798,3.7988,-3.943
4653891.0,-2.49,-1.312,49.4834,1.9002,3.5785,-3.8818
4653901.0,-2.4612,-1.3695,50.8337,2.188,3.1054,-3.8834
4653911.0,-2.5474,-1.2641,50.3932,2.4004,2.6308,-3.919
4653921.0,-2.0686,-1.1875,48.7843,2.3062,2.2727,-4.0254
4653931.0,-2.059,-1.3599,47.4148,2.1487,2.112,-4.1547
4653941.0,-2.1356,-0.3448,46.256,1.6735,2.0055,-4.3415
4653951.0,-2.624,0.067,46.1506,1.2946,2.0087,-4.4368
4653961.0,-3.2848,0.2873,47.2137,1.2382,1.9811,-4.4969
4653971.0,-3.6392,0.3543,47.7978,1.2829,1.8118,-4.4953
4653981.0,-3.8786,0.0862,47.9223,1.516,1.6559,-4.524
4653991.0,-3.5817,0.1532,47.1179,1.7288,1.5735,-4.565
4654001.0,-3.553,0.6321,45.8729,1.8565,1.6123,-4.6331
4654011.0,-3.7158,0.9481,45.4707,1.7288,1.7081,-4.7411
4654021.0,-3.9552,1.7142,45.7101,1.492,1.698,-4.8087
4654031.0,-4.1468,2.1069,46.2272,1.2654,1.6038,-4.8688
4654041.0,-4.3096,2.4804,47.2711,1.0972,1.5314,-4.8715
4654051.0,-4.6543,2.7294,48.0277,1.0972,1.3617,-4.8662
4654061.0,-4.9895,2.624,48.5927,1.1515,1.2457,-4.831
4654071.0,-4.3,1.7334,48.9949,1.1893,1.0722,-4.8843
4654081.0,-3.984,1.3695,48.7843,1.0499,0.7253,-5.0827
4654091.0,-3.7828,1.9058,48.3246,0.7726,0.5002,-5.2722
4654101.0,-4.1851,2.7007,47.0604,0.4385,0.2794,-5.4568
4654111.0,-4.0223,3.9935,45.6526,-0.1495,0.1628,-5.6117
4654121.0,-4.3958,5.5067,44.2544,-0.9301,0.1144,-5.7346
