time_ms,ax,ay,az,gx,gy,gz
2927171.0,0.6871,3.0119,10.003,-0.0314,0.1463,-0.0005
2927181.0,0.6823,2.8587,10.1251,-0.0367,0.1415,-0.0064
2927191.0,0.6895,2.7916,10.1682,-0.0266,0.1346,-0.0202
2927201.0,0.6297,2.9042,10.1466,-0.0043,0.1293,-0.0383
2927211.0,0.6704,3.122,10.0963,0.0096,0.1219,-0.0537
2927221.0,0.6297,3.3615,9.9503,0.0027,0.1128,-0.0569
2927231.0,0.6728,3.3567,10.0197,-0.0202,0.1139,-0.0458
2927241.0,0.6967,3.2896,9.9695,-0.0362,0.1144,-0.0325
2927251.0,0.6584,3.1627,10.0772,-0.0553,0.1181,-0.0234
2927261.0,0.6273,3.0694,10.1323,-0.0527,0.1139,-0.0202
2927271.0,0.5722,2.9664,10.1682,-0.0399,0.1022,-0.0213
2927281.0,0.6273,2.9401,10.058,-0.0133,0.0963,-0.0303
2927291.0,0.6345,2.9856,10.058,-0.0101,0.091,-0.0442
2927301.0,0.6273,3.1125,9.9982,-0.0085,0.091,-0.0569
2927311.0,0.6177,3.3303,9.9527,-0.0154,0.0851,-0.0639
2927321.0,0.5459,3.4788,9.9359,-0.042,0.0734,-0.0575
2927331.0,0.5004,3.4931,9.8952,-0.0479,0.0708,-0.0351
2927341.0,0.4884,3.383,9.8474,-0.0394,0.075,-0.008
2927351.0,0.5363,3.1795,9.809,-0.0303,0.0851,0.0096
2927361.0,0.5171,3.0119,9.8402,-0.008,0.1064,0.0144
2927371.0,0.5004,2.8922,9.9096,0.0181,0.1314,0.0085
2927381.0,0.5195,2.8395,9.9575,0.0378,0.1463,-0.0048
2927391.0,0.5746,2.9066,10.0293,0.0394,0.1463,-0.0277
2927401.0,0.5219,3.0406,10.0868,0.0245,0.132,-0.0468
2927411.0,0.4573,3.201,10.1059,0.0037,0.1006,-0.0543
2927421.0,0.4884,3.2465,9.9383,-0.0106,0.066,-0.0516
2927431.0,0.5291,3.2346,9.7659,-0.0357,0.0431,-0.0458
2927441.0,0.5578,3.1747,9.663,-0.0527,0.0511,-0.042
2927451.0,0.5866,3.0981,9.6941,-0.0484,0.0772,-0.042
2927461.0,0.5578,3.0622,9.7588,-0.0303,0.1027,-0.0452
2927471.0,0.5339,3.0119,9.8474,-0.0106,0.1245,-0.0495
2927481.0,0.5531,3.0311,9.9264,0.0085,0.1346,-0.0559
2927491.0,0.5315,3.0765,9.9623,0.0192,0.1304,-0.0654
2927501.0,0.5076,3.158,9.9359,0.0197,0.1155,-0.0697
2927511.0,0.5626,3.1699,9.9072,0.0181,0.1011,-0.0729
2927521.0,0.4741,3.2872,9.6654,0.0085,0.0952,-0.0766
2927531.0,0.4501,3.3016,9.7755,-0.0069,0.1112,-0.0766
2927541.0,0.4669,3.2825,9.7851,0.0101,0.1394,-0.0702
2927551.0,0.4262,3.1915,9.9575,0.0197,0.1596,-0.0676
2927561.0,0.4693,3.1915,10.0437,0.0271,0.1596,-0.0713
2927571.0,0.4334,3.2274,10.149,0.0229,0.1469,-0.0782
2927581.0,0.3879,3.2657,10.2017,0.0133,0.1123,-0.0841
2927591.0,0.4501,3.3423,10.058,-0.0043,0.0734,-0.0883
2927601.0,0.4525,3.3854,9.8881,-0.0277,0.0532,-0.0937
2927611.0,0.4381,3.3998,9.8043,-0.0325,0.0623,-0.0926
2927621.0,0.4525,3.4285,9.8043,-0.0202,0.0899,-0.0899
2927631.0,0.3926,3.4812,9.8641,0.0021,0.1208,-0.0835
2927641.0,0.3831,3.4261,10.0102,0.0208,0.1485,-0.0724
2927651.0,0.3903,3.3806,10.0868,0.0293,0.1485,-0.066
2927661.0,0.3974,3.3208,10.161,0.0074,0.1219,-0.0729
2927671.0,0.3472,3.3184,10.149,-0.025,0.083,-0.0825
2927681.0,0.3974,3.3423,10.0437,-0.0436,0.0458,-0.0905
2927691.0,0.4788,3.3902,9.8019,-0.0527,0.017,-0.0984
2927701.0,0.5148,3.4213,9.5936,-0.0543,0.0176,-0.1027
2927711.0,0.4717,3.4884,9.4523,-0.0388,0.05,-0.0995
2927721.0,0.4405,3.5027,9.3374,-0.0202,0.0921,-0.091
2927731.0,0.4286,3.4668,9.3637,-0.0149,0.1298,-0.0793
2927741.0,0.4908,3.3806,9.4379,-0.0223,0.1639,-0.0729
2927751.0,0.4764,3.2585,9.6606,-0.0527,0.1772,-0.075
2927761.0,0.4597,3.2202,9.8067,-0.0782,0.1607,-0.0862
2927771.0,0.4334,3.2705,9.8186,-0.0899,0.1357,-0.0984
2927781.0,0.419,3.3471,9.6702,-0.0788,0.1171,-0.107
2927791.0,0.3998,3.4644,9.5816,-0.058,0.1181,-0.1112
2927801.0,0.3591,3.5913,9.4427,-0.0362,0.1453,-0.108
2927811.0,0.3208,3.6488,9.5026,-0.0186,0.1846,-0.0963
2927821.0,0.2969,3.5602,9.7037,-0.0064,0.2198,-0.083
2927831.0,0.2466,3.4931,9.8833,0.0,0.2325,-0.0793
2927841.0,0.1915,3.4788,10.0844,0.0101,0.2256,-0.0772
2927851.0,0.1748,3.553,10.1251,0.0234,0.2038,-0.0772
2927861.0,0.1413,3.6727,10.1035,0.0192,0.1666,-0.0766
2927871.0,0.1149,3.7326,10.0149,0.0,0.1304,-0.0692
2927881.0,0.1676,3.7613,9.9623,-0.017,0.1059,-0.0601
2927891.0,0.1556,3.8379,9.8186,-0.0112,0.1059,-0.0506
2927901.0,0.146,3.881,9.7803,0.0016,0.124,-0.033
2927911.0,0.1317,3.881,9.7899,0.0032,0.1394,-0.016
2927921.0,0.103,3.7781,9.8976,-0.0069,0.1543,0.0032
2927931.0,0.0766,3.6464,10.0102,-0.0255,0.1527,0.017
2927941.0,0.0599,3.5171,10.173,-0.0548,0.1261,0.0213
2927951.0,0.1125,3.4644,10.149,-0.0639,0.0873,0.0202
2927961.0,0.1149,3.474,10.07,-0.0633,0.0511,0.0133
2927971.0,0.182,3.565,9.8857,-0.0591,0.0303,0.0101
2927981.0,0.1987,3.6799,9.7612,-0.058,0.0287,0.0106
2927991.0,0.1269,3.723,9.6343,-0.0612,0.0415,0.0213
2928001.0,0.1221,3.6488,9.6558,-0.0654,0.0623,0.0383
2928011.0,0.1437,3.4381,9.6845,-0.0585,0.0819,0.0527
2928021.0,0.1365,3.3064,9.7205,-0.0479,0.0926,0.0564
2928031.0,0.1676,3.225,9.7516,-0.025,0.1022,0.0527
2928041.0,0.1748,3.213,9.6893,-0.0112,0.1112,0.0404
2928051.0,0.1891,3.2202,9.6534,-0.0144,0.1155,0.0234
2928061.0,0.1939,3.2585,9.6774,-0.0261,0.1235,0.0106
2928071.0,0.1508,3.2801,9.6606,-0.0372,0.1341,-0.0005
2928081.0,0.1317,3.3088,9.7899,-0.0479,0.1378,-0.009
2928091.0,0.1317,3.2777,9.8689,-0.0463,0.1389,-0.0128
2928101.0,0.1389,3.2465,9.7899,-0.0394,0.1309,-0.0154
2928111.0,0.1987,3.1412,9.8521,-0.0436,0.1266,-0.0197
2928121.0,0.2011,3.1747,9.7803,-0.0335,0.1346,-0.0303
2928131.0,0.1963,3.237,9.8713,-0.0186,0.1522,-0.0442
2928141.0,0.1676,3.2825,9.9599,0.0059,0.1644,-0.0516
2928151.0,0.1676,3.4261,9.9742,0.0255,0.1618,-0.058
2928161.0,0.067,3.5314,10.0221,0.017,0.1548,-0.0633
2928171.0,0.0,3.6176,10.1131,0.0154,0.1479,-0.0575
2928181.0,-0.0287,3.6105,10.1299,0.0144,0.133,-0.0484
2928191.0,-0.0144,3.5865,10.1107,0.0165,0.1101,-0.0415
2928201.0,-0.0359,3.5123,10.058,-0.0069,0.0819,-0.0426
2928211.0,-0.0527,3.5458,9.9623,-0.0351,0.0495,-0.0474
2928221.0,-0.0359,3.5793,9.7827,-0.0569,0.0266,-0.0527
2928231.0,-0.0646,3.6057,9.6989,-0.0686,0.0218,-0.0537
2928241.0,-0.0622,3.7038,9.6007,-0.0825,0.0319,-0.0532
2928251.0,-0.1149,3.7206,9.651,-0.0788,0.0601,-0.0452
2928261.0,-0.1437,3.6488,9.7923,-0.0628,0.0894,-0.0335
2928271.0,-0.1652,3.5626,9.8497,-0.0548,0.0984,-0.0271
2928281.0,-0.1437,3.4764,9.9599,-0.0612,0.0798,-0.0271
2928291.0,-0.1173,3.4524,9.9311,-0.0777,0.0474,-0.0367
2928301.0,-0.146,3.4836,9.8904,-0.0984,0.0154,-0.0479
2928311.0,-0.0814,3.5051,9.7707,-0.099,-0.0027,-0.0516
2928321.0,-0.0527,3.5075,9.7037,-0.0931,-0.0011,-0.0511
2928331.0,-0.0287,3.5506,9.651,-0.0841,0.0101,-0.0516
2928341.0,-0.0024,3.5889,9.6678,-0.0623,0.0309,-0.0474
2928351.0,0.012,3.5817,9.6534,-0.0287,0.0569,-0.0367
2928361.0,0.012,3.5889,9.7444,-0.0192,0.0676,-0.0282
2928371.0,0.0431,3.565,9.675,-0.0255,0.0607,-0.025
2928381.0,0.0503,3.5003,9.7324,-0.0516,0.0484,-0.0266
2928391.0,0.0814,3.3998,9.7971,-0.0692,0.0399,-0.0287
2928401.0,0.0694,3.3926,9.7324,-0.0601,0.0367,-0.0362
2928411.0,0.1245,3.4261,9.7636,-0.0484,0.0388,-0.0431
2928421.0,0.1365,3.4907,9.7396,-0.0357,0.0404,-0.0458
2928431.0,0.1532,3.4237,9.6606,-0.0357,0.0362,-0.0452
2928441.0,0.2298,3.3471,9.6414,-0.0271,0.0388,-0.0463
2928451.0,0.2538,3.3279,9.6007,-0.0255,0.0447,-0.0585
2928461.0,0.2586,3.3734,9.5888,-0.0261,0.0564,-0.074
2928471.0,0.2011,3.4429,9.5361,-0.0218,0.0745,-0.0862
2928481.0,0.1748,3.5027,9.6941,-0.0277,0.0857,-0.0931
2928491.0,0.2131,3.5889,9.7252,-0.0266,0.0921,-0.0958
2928501.0,0.1796,3.7445,9.8114,-0.0202,0.0947,-0.0952
2928511.0,0.1413,3.8714,9.821,-0.0271,0.0894,-0.0873
2928521.0,0.1724,3.8762,9.7995,-0.0346,0.0777,-0.0724
2928531.0,0.1748,3.8355,9.7899,-0.0516,0.0644,-0.0575
2928541.0,0.2394,3.8283,9.6845,-0.0745,0.0484,-0.0506
2928551.0,0.2705,3.814,9.5529,-0.1208,0.025,-0.0484
2928561.0,0.2538,3.7613,9.5696,-0.166,0.0059,-0.0447
2928571.0,0.3711,3.6895,9.4475,-0.1942,-0.0032,-0.0367
2928581.0,0.3903,3.5865,9.2703,-0.2139,0.0011,-0.0303
2928591.0,0.6177,3.6751,9.165,-0.2618,0.0037,-0.0293
2928601.0,0.6632,3.6416,9.3278,-0.3076,0.0266,-0.0192
2928611.0,0.9457,3.8164,9.0573,-0.3283,0.0357,0.0048
2928621.0,1.3336,3.7637,8.8921,-0.3852,0.0782,0.05
2928631.0,1.5347,3.304,9.2751,-0.4417,0.1862,0.1107
2928641.0,1.8387,2.6193,9.6319,-0.4954,0.2474,0.1554
2928651.0,1.9537,1.9609,9.9048,-0.6066,0.2097,0.1554
2928661.0,1.731,1.3072,10.0628,-0.7263,0.1304,0.125
2928671.0,1.7861,0.5459,9.9168,-0.7806,0.0506,0.0761
2928681.0,1.9225,-0.1389,9.6726,-0.729,0.0266,-0.0128
2928691.0,2.0255,-0.3543,8.9447,-0.4959,0.1117,-0.1362
2928701.0,1.8364,0.0024,8.0421,-0.1862,0.3549,-0.2884
2928711.0,1.4557,0.8116,7.8697,0.0474,0.7072,-0.4486
2928721.0,0.8835,1.8842,8.4372,0.1394,1.0578,-0.5949
2928731.0,0.1077,2.8922,9.7564,0.1325,1.3282,-0.7035
2928741.0,-0.6369,4.0007,11.2001,0.108,1.4654,-0.7625
2928751.0,-1.3288,5.138,12.5313,0.0633,1.4654,-0.7657
2928761.0,-1.8962,6.0454,13.5248,0.0404,1.3755,-0.7035
2928771.0,-2.296,6.5697,14.2096,0.0213,1.2404,-0.5928
2928781.0,-2.715,6.7109,14.5448,-0.0319,1.0834,-0.4645
2928791.0,-2.8635,6.3422,14.9877,-0.1261,0.9216,-0.3448
2928801.0,-3.0837,5.9879,15.2989,-0.2208,0.7466,-0.2645
2928811.0,-3.2872,5.636,15.5432,-0.3028,0.564,-0.216
2928821.0,-3.4931,5.6599,15.5958,-0.3688,0.3922,-0.1953
2928831.0,-3.7972,5.873,15.8903,-0.4464,0.2251,-0.1788
2928841.0,-4.1731,6.2249,16.0124,-0.4997,0.0511,-0.1383
2928851.0,-4.3886,6.3782,16.2375,-0.6002,-0.1687,-0.0777
2928861.0,-4.5011,6.4596,16.3572,-0.704,-0.4299,0.0011
2928871.0,-4.7285,6.2177,16.6493,-0.7646,-0.6848,0.0979
2928881.0,-4.6615,5.9472,16.5511,-0.7285,-0.9498,0.2075
2928891.0,-4.6232,5.7221,16.1704,-0.7152,-1.2366,0.3033
2928901.0,-4.628,5.3941,15.8137,-0.7609,-1.5367,0.3847
2928911.0,-4.604,5.0063,15.2989,-0.8439,-1.8581,0.4512
2928921.0,-4.4269,4.6519,14.3915,-0.944,-2.2029,0.5076
2928931.0,-4.1372,4.1922,13.4387,-1.0105,-2.4786,0.5624
2928941.0,-3.8283,3.7206,12.3565,-1.0014,-2.6632,0.6167
2928951.0,-3.4333,3.2681,11.2527,-0.9945,-2.7712,0.6566
2928961.0,-3.1603,2.7102,10.6973,-1.0509,-2.8383,0.679
2928971.0,-2.6719,2.1284,10.3094,-1.0722,-2.8974,0.6971
2928981.0,-2.2769,1.6281,10.1993,-1.0025,-2.924,0.7104
2928991.0,-2.0806,1.2426,9.7923,-0.8716,-2.9814,0.7269
2929001.0,-1.4341,0.814,8.7795,-0.7641,-3.1145,0.737
2929011.0,-0.7398,0.2705,7.1587,-0.7423,-3.2134,0.7258
2929021.0,0.1532,-0.5914,5.5091,-0.8221,-3.2161,0.6763
2929031.0,1.0606,-1.9609,4.719,-0.9514,-3.0772,0.5741
2929041.0,1.9393,-2.9736,4.1444,-0.994,-2.8543,0.4055
2929051.0,2.7198,-3.5961,4.3167,-1.0525,-2.6249,0.1708
2929061.0,3.9696,-3.6679,4.6495,-1.0786,-2.4488,-0.0825
2929071.0,3.067,-3.4453,5.3199,-1.1675,-2.3945,-0.3368
2929081.0,3.2346,-1.3312,5.8658,-0.7593,-2.2796,-0.5656
2929091.0,3.4907,0.7278,3.972,-0.3262,-2.1822,-0.5741
2929101.0,4.2689,1.1205,4.2593,-0.3746,-2.2024,-0.539
2929111.0,4.5681,3.1101,1.9441,-0.1761,-2.0508,-0.4555
2929121.0,4.9177,3.4453,2.7102,-0.2975,-1.7682,-0.3155
2929131.0,4.7549,4.5131,2.6121,-0.1463,-1.4521,-0.1027
2929141.0,5.2409,4.5825,3.3806,-0.0053,-1.2047,0.1724
2929151.0,5.1619,4.1587,3.1651,0.2512,-0.9647,0.4842
2929161.0,4.8937,2.332,3.2441,0.2948,-0.8296,0.754
2929171.0,5.0949,-0.0551,2.2098,0.1373,-0.8785,0.9003
2929181.0,5.4636,-2.5187,0.6033,-0.3629,-1.0158,0.8487
2929191.0,5.8466,-4.2042,-1.9609,-1.1994,-1.2574,0.5938
2929201.0,6.3829,-5.0374,-5.1571,-2.3344,-1.5921,0.1921
2929211.0,6.517,-4.197,-10.2951,-3.4843,-1.872,-0.2501
2929221.0,6.1866,-2.8323,-16.4027,-4.5235,-1.9433,-0.6055
2929231.0,7.6447,-1.2258,-23.4632,-4.8816,-1.4335,-0.7774
2929241.0,3.3327,1.3216,-30.4471,-4.5863,-0.0128,-0.713
2929251.0,2.9497,3.1532,-33.8373,-3.8908,1.8321,-0.4997
2929261.0,-1.0942,4.2665,-34.522,-2.8303,4.2638,-0.0686
2929271.0,-6.6655,3.4357,-28.5461,-1.6059,6.8408,0.4587
2929281.0,-12.8401,1.4198,-20.1664,0.3805,9.2055,0.9679
2929291.0,-19.5846,-1.0223,-11.0349,2.8596,11.4175,1.2946
2929301.0,-25.4073,-4.3694,0.9122,5.0859,13.2017,1.2638
2929311.0,-28.2755,-4.4077,12.2846,7.1585,14.3511,0.7625
2929321.0,-30.6745,1.1827,24.2078,8.0807,14.4777,-0.1181
2929331.0,-30.1574,8.7197,35.5347,7.2144,13.0043,-0.9456
2929341.0,-27.6339,15.2056,42.7341,5.3892,10.5199,-1.3899
2929351.0,-25.5246,18.0164,48.3341,3.2496,7.9939,-1.4202
2929361.0,-23.2309,17.7769,50.6685,1.2568,5.3685,-1.1935
2929371.0,-20.6931,15.6988,50.453,-0.3225,2.7297,-0.8599
2929381.0,-18.0379,13.6996,44.7189,-0.878,0.5124,-0.4145
2929391.0,-16.2375,11.0971,37.1556,-0.8647,-0.9541,0.0426
2929401.0,-14.0827,7.264,30.2483,-0.5837,-1.7171,0.4172
2929411.0,-12.3493,4.3335,25.3666,-0.125,-1.8315,0.5837
2929421.0,-11.6143,3.7086,22.1703,0.3767,-1.5862,0.538
2929431.0,-10.7093,4.9871,21.6005,0.5715,-1.359,0.3922
2929441.0,-10.5417,7.1563,21.95,0.4906,-1.3659,0.2948
2929451.0,-10.4363,9.0764,23.4943,0.223,-1.5788,0.3225
2929461.0,-12.7755,10.4459,25.582,0.0069,-2.0151,0.5066
2929471.0,-11.6574,10.7931,23.4009,-0.0681,-2.95,0.8727
2929481.0,-11.3246,8.691,21.6723,-0.3491,-3.8323,1.2483
2929491.0,-10.2831,6.6343,17.4825,-0.4363,-4.4469,1.5426
2929501.0,-9.9072,3.6823,14.7603,-0.8551,-4.9215,1.6442
2929511.0,-8.9974,1.4365,11.2911,-1.3356,-5.3802,1.5628
2929521.0,-7.8266,-0.3496,8.9376,-1.8337,-5.6744,1.3303
2929531.0,-6.5386,-0.9481,6.6894,-1.9997,-5.7255,1.028
2929541.0,-5.5091,-0.5052,4.9536,-1.8656,-5.5297,0.7476
2929551.0,-4.5442,0.5459,3.3782,-1.6389,-5.2594,0.5502
2929561.0,-3.5171,1.4988,2.5259,-1.4479,-4.9662,0.4544
2929571.0,-2.806,2.1691,2.1213,-1.1504,-4.6038,0.4762
2929581.0,-2.0542,2.0997,2.2482,-0.7386,-4.2175,0.6008
2929591.0,-1.1779,1.6496,1.9776,-0.2629,-3.8892,0.7732
2929601.0,-0.419,0.9697,1.5275,0.0532,-3.6487,0.9216
2929611.0,0.4166,0.2945,0.3232,0.0761,-3.5598,1.002
2929621.0,1.6879,-0.7781,-0.3974,-0.2038,-3.5173,0.9892
2929631.0,2.9281,-1.4916,-1.166,-0.4528,-3.3491,0.8993
2929641.0,3.6631,-2.1931,-1.0415,-0.6891,-3.1129,0.7439
2929651.0,4.2545,-2.5714,-0.1149,-0.6768,-2.7989,0.5768
2929661.0,4.142,-2.6552,1.652,-0.3432,-2.4036,0.4347
2929671.0,4.2856,-2.138,2.4014,0.2043,-2.1673,0.3421
2929681.0,4.7764,-1.6951,1.968,0.5726,-2.1716,0.2794
2929691.0,5.3199,-1.3168,0.237,0.6662,-2.2391,0.2187
2929701.0,5.7293,-0.8188,-2.0446,0.3533,-2.278,0.1112
2929711.0,5.5426,-0.2346,-3.7206,-0.357,-2.3147,-0.0468
2929721.0,5.4827,0.3926,-4.8052,-1.0664,-2.2498,-0.1926
2929731.0,5.4468,0.8021,-5.0781,-1.4591,-2.0332,-0.2756
2929741.0,5.8395,1.336,-5.9616,-1.4197,-1.7618,-0.2841
2929751.0,5.5474,1.9034,-8.0278,-1.201,-1.474,-0.2416
2929761.0,5.7964,2.5163,-11.1091,-1.0238,-1.1297,-0.1841
2929771.0,6.6966,3.5937,-15.5144,-1.0147,-0.6008,-0.1341
2929781.0,4.604,5.5115,-18.6484,-1.3489,0.2474,-0.0681
2929791.0,4.1156,6.9408,-20.7386,-1.7804,1.1914,0.1256
2929801.0,2.2625,7.5465,-22.9724,-1.9135,2.3892,0.5044
2929811.0,0.5411,5.6192,-22.472,-1.7272,3.9009,0.9945
2929821.0,-2.4014,2.8276,-18.9118,-0.8977,5.7761,1.4457
2929831.0,-6.5146,0.0383,-11.9016,0.58,7.7587,1.7427
2929841.0,-9.845,-3.1388,-4.0462,2.4216,9.4051,1.8427
2929851.0,-13.0197,-5.4372,2.545,4.1452,10.5412,1.6416
2929861.0,-15.7922,-6.9216,10.0437,5.0199,11.0807,1.11
2929871.0,-16.8384,-7.3382,18.5168,5.2424,11.118,0.3565
2929881.0,-17.7027,-5.8826,27.0832,4.9428,10.5396,-0.5215
2929891.0,-18.1026,-2.4804,35.1636,4.3298,9.3875,-1.3361
2929901.0,-17.6453,2.1572,40.9193,3.6391,7.6656,-1.9002
2929911.0,-16.5391,6.5912,43.4356,2.9639,5.6526,-2.129
2929921.0,-15.2104,9.5936,41.9823,2.2737,3.6248,-2.0444
2929931.0,-13.3836,9.481,39.0111,1.4495,1.7815,-1.7868
2929941.0,-11.8369,8.3414,34.4933,0.9434,0.4081,-1.5202
2929951.0,-10.4962,7.3047,29.566,0.7391,-0.5023,-1.3308
2929961.0,-9.6319,7.3023,23.9875,0.7758,-0.961,-1.2169
2929971.0,-8.6981,7.7788,20.0299,0.687,-1.0621,-1.1627
2929981.0,-7.92,8.1355,17.164,0.522,-0.9275,-1.1041
2929991.0,-7.7117,8.2289,17.2335,0.2581,-0.646,-1.0589
2930001.0,-7.9416,8.3893,18.6125,0.124,-0.4534,-0.978
2930011.0,-8.3438,8.6335,20.1831,0.0958,-0.5933,-0.854
2930021.0,-8.1547,9.1554,20.9086,0.1612,-1.0578,-0.6912
2930031.0,-7.8578,9.8952,20.1376,0.3416,-1.5538,-0.4667
2930041.0,-7.6638,9.6726,19.168,0.3368,-2.0678,-0.2038
2930051.0,-7.2927,8.5641,17.7051,0.1235,-2.6584,0.0202
2930061.0,-6.8857,7.2233,15.8137,-0.2128,-3.2358,0.1458
2930071.0,-6.462,6.2297,13.5392,-0.5316,-3.6859,0.1777
2930081.0,-5.8466,5.6072,11.248,-0.804,-3.9536,0.1522
2930091.0,-5.0757,5.3151,9.3134,-1.019,-4.0286,0.1054
2930101.0,-4.3742,5.1834,8.2432,-1.1398,-3.8951,0.0692
2930111.0,-3.8762,5.1715,8.1355,-1.1797,-3.6859,0.0665
2930121.0,-3.5602,5.0063,8.497,-1.143,-3.5753,0.1086
2930131.0,-3.0885,4.6064,8.3438,-0.9482,-3.5497,0.2081
2930141.0,-2.4253,3.9409,7.8219,-0.6721,-3.5205,0.3267
2930151.0,-1.7549,3.4572,6.8833,-0.4581,-3.4821,0.414
2930161.0,-1.2115,2.964,5.928,-0.4778,-3.4912,0.4491
2930171.0,-0.4334,2.3535,5.2361,-0.6997,-3.5417,0.4294
2930181.0,0.5435,2.0231,4.4365,-0.9488,-3.5476,0.364
2930191.0,1.0223,1.7909,4.3335,-1.2302,-3.505,0.2682
2930201.0,1.312,1.6017,4.9488,-1.3452,-3.4023,0.1958
2930211.0,1.4964,1.6065,5.6767,-1.1988,-3.2837,0.1756
2930221.0,1.6807,1.6448,5.5905,-0.9945,-3.323,0.1905
2930231.0,2.2338,1.6113,4.1396,-0.8785,-3.4965,0.2128
2930241.0,2.8012,1.4964,2.4517,-0.977,-3.6168,0.2033
2930251.0,3.0287,1.8196,0.5818,-1.2584,-3.6577,0.1485
2930261.0,3.6607,2.0255,-0.7757,-1.706,-3.687,0.0782
2930271.0,4.2473,2.32,-2.387,-2.0502,-3.6205,0.0357
2930281.0,4.8626,2.1021,-3.7685,-2.1535,-3.3337,0.0527
2930291.0,6.0549,1.6376,-4.549,-1.9353,-2.8096,0.1128
2930301.0,6.2465,1.0942,-4.8435,-1.4798,-2.1721,0.1868
2930311.0,6.7684,0.7781,-5.5809,-0.8588,-1.4931,0.2602
2930321.0,6.6583,0.4094,-5.7078,-0.3097,-0.7737,0.3139
2930331.0,6.2944,0.2298,-5.5162,0.0702,-0.1101,0.3331
2930341.0,6.2369,0.1389,-5.138,0.2762,0.447,0.323
2930351.0,6.4596,-0.2011,-4.9368,0.2895,0.8594,0.29
2930361.0,6.5553,-0.5818,-4.4748,0.3257,1.3345,0.2214
2930371.0,5.9041,-0.419,-3.7948,0.5518,1.9433,0.1336
2930381.0,5.2313,-0.1389,-2.6647,0.8125,2.519,0.05
2930391.0,4.5203,0.4741,-1.3862,1.0419,2.9921,-0.0309
2930401.0,3.4046,1.391,-0.4094,1.1233,3.2948,-0.0995
2930411.0,2.0782,2.2817,0.486,0.9706,3.3874,-0.1341
2930421.0,1.0271,3.1005,0.9218,0.7082,3.3449,-0.1086
2930431.0,0.3041,3.6464,0.4334,0.373,3.2028,-0.0208
2930441.0,0.3232,3.9193,-1.8962,-0.0617,3.0016,0.1107
2930451.0,0.2945,3.3232,-5.2241,-0.6093,3.0261,0.2645
2930461.0,-1.0104,2.0159,-6.8163,-0.8838,3.7211,0.423
2930471.0,-2.9736,0.5914,-5.6575,-0.589,5.0168,0.5646
2930481.0,-5.3415,-0.3112,-2.7988,0.0585,6.354,0.6337
2930491.0,-8.3294,-0.8116,0.6752,0.7652,7.4336,0.6369
2930501.0,-11.7771,-1.1372,3.7493,1.3558,8.1977,0.6013
2930511.0,-15.0045,-2.4541,7.6399,1.8369,8.8368,0.5257
2930521.0,-17.674,-4.4484,13.7236,2.5371,9.5727,0.3421
2930531.0,-20.3675,-4.6424,21.2916,3.6157,10.2645,-0.0426
2930541.0,-21.9979,-2.3942,30.2436,4.3543,10.1649,-0.6433
2930551.0,-21.5765,2.2817,37.917,4.4756,9.0406,-1.2638
2930561.0,-19.6684,7.1347,42.7461,3.6498,6.8999,-1.7012
2930571.0,-17.9781,9.9862,44.3622,2.0694,4.1499,-1.8842
2930581.0,-15.931,11.5161,40.6535,0.4981,1.4559,-1.8544
2930591.0,-13.884,11.3796,35.8173,-0.8322,-0.6061,-1.7161
2930601.0,-12.5432,11.7555,29.0656,-1.5931,-1.9066,-1.4936
2930611.0,-11.1402,10.7595,24.2509,-2.1976,-2.6425,-1.193
2930621.0,-9.809,9.0836,20.3292,-2.3376,-2.8835,-0.8248
2930631.0,-8.8657,7.1706,18.0499,-2.1662,-2.8388,-0.4805
2930641.0,-7.999,5.3367,15.8688,-1.7028,-2.7303,-0.1799
2930651.0,-6.7852,3.3399,13.1466,-1.1871,-2.6153,0.0468
2930661.0,-5.5761,1.1803,11.2982,-0.828,-2.4126,0.1219
2930671.0,-4.5705,0.2394,9.9934,-0.4975,-2.0694,0.0223
2930681.0,-3.869,0.5124,9.833,-0.3092,-1.7347,-0.1873
2930691.0,-3.7302,1.6065,9.8809,-0.2512,-1.5218,-0.3762
2930701.0,-3.7709,2.2314,10.5991,-0.3852,-1.4841,-0.4768
2930711.0,-3.6655,2.1261,11.3749,-0.4895,-1.6054,-0.4885
2930721.0,-3.3902,1.7478,11.2432,-0.4315,-1.7964,-0.4635
2930731.0,-2.9066,1.6664,10.2783,-0.3171,-1.98,-0.4597
2930741.0,-2.5809,1.8986,9.0788,-0.2267,-2.0518,-0.4635
2930751.0,-2.1045,2.2482,7.9128,-0.199,-2.0109,-0.4555
2930761.0,-1.6975,2.6647,7.3263,-0.2565,-1.8858,-0.4438
2930771.0,-1.7023,2.8659,7.6016,-0.3118,-1.6756,-0.4017
2930781.0,-1.6376,2.9161,8.2337,-0.2841,-1.4894,-0.3315
2930791.0,-1.7717,2.8228,8.7245,-0.2065,-1.3856,-0.2485
2930801.0,-1.6927,2.387,9.2033,-0.1091,-1.3218,-0.1602
2930811.0,-1.5467,2.0135,9.6247,0.0144,-1.2632,-0.1016
2930821.0,-1.5131,2.0135,9.8258,0.0543,-1.2616,-0.0942
2930831.0,-1.5251,2.2649,9.9311,-0.041,-1.3415,-0.108
2930841.0,-1.4365,2.6863,10.1394,-0.1793,-1.4442,-0.116
2930851.0,-1.3958,3.1388,10.477,-0.2448,-1.5117,-0.0825
2930861.0,-1.4341,3.474,10.8912,-0.1591,-1.5373,0.0043
2930871.0,-1.3815,3.5099,11.3653,0.0293,-1.5538,0.1341
2930881.0,-1.2809,3.0861,12.2368,0.273,-1.5527,0.2762
2930891.0,-1.1325,3.067,12.4139,0.4794,-1.6517,0.3826
2930901.0,-1.0558,3.2058,12.1937,0.3757,-1.9614,0.4331
2930911.0,-0.8691,3.4261,11.3605,0.0905,-2.3408,0.4645
2930921.0,-0.5076,3.146,10.2496,-0.2112,-2.6212,0.5167
2930931.0,0.0958,2.5618,9.1363,-0.4124,-2.7617,0.5699
2930941.0,0.4525,2.0231,8.6383,-0.4624,-2.7367,0.6103
2930951.0,0.7111,1.6903,8.6814,-0.3299,-2.6116,0.6545
2930961.0,0.8835,1.4533,8.8705,-0.0734,-2.502,0.7088
2930971.0,1.1564,1.4222,8.5162,0.1474,-2.5063,0.7641
2930981.0,1.3168,1.2186,7.7668,0.1793,-2.6308,0.8046
2930991.0,1.901,1.0511,6.4572,0.0899,-2.7984,0.8242
2931001.0,2.4157,0.917,5.047,-0.067,-2.8814,0.8242
2931011.0,2.9497,0.7829,3.8259,-0.2081,-2.8553,0.8248
2931021.0,3.237,0.5555,2.7246,-0.3214,-2.7617,0.8365
2931031.0,3.4955,0.17,1.8579,-0.439,-2.6787,0.8455
2931041.0,3.7014,-0.2705,0.668,-0.505,-2.6036,0.8397
2931051.0,4.1156,-0.4573,-1.4988,-0.63,-2.5637,0.8051
2931061.0,4.5346,-0.8452,-4.0654,-1.0536,-2.594,0.7178
2931071.0,4.9536,-0.5411,-8.3199,-1.7166,-2.6579,0.5715
2931081.0,5.2648,-0.2155,-12.2009,-2.594,-2.5807,0.4092
2931091.0,5.7461,0.5411,-16.3069,-3.2124,-2.2013,0.3102
2931101.0,5.5258,1.4844,-20.0706,-3.381,-1.4016,0.3225
2931111.0,4.6687,2.8898,-23.8175,-2.8888,-0.1219,0.4832
2931121.0,3.2753,3.4644,-25.448,-2.1668,1.4399,0.7609
2931131.0,1.3838,2.7222,-24.9548,-1.2031,3.2007,1.127
2931141.0,-1.6831,1.1061,-21.0426,0.2054,5.3424,1.4745
2931151.0,-5.7676,-0.9984,-14.7603,1.8251,7.4443,1.7028
2931161.0,-9.821,-3.7158,-6.5314,3.1804,9.2029,1.7177
2931171.0,-13.9534,-5.9975,3.7326,4.1638,10.531,1.4202
2931181.0,-16.5487,-5.5976,13.6685,4.8688,11.1579,0.853
2931191.0,-18.5024,-3.0454,23.0322,4.8444,10.8461,0.1644
2931201.0,-18.9908,0.2322,31.6992,4.3612,9.8047,-0.4182
2931211.0,-18.5311,3.2633,38.2833,4.0723,8.5617,-0.7333
2931221.0,-17.4681,5.8299,43.1627,3.6556,7.0069,-0.8971
2931231.0,-16.2925,7.8937,45.0182,2.8096,4.8997,-0.9903
2931241.0,-14.4538,8.7484,43.4811,1.839,2.6712,-0.9775
2931251.0,-12.9766,9.1315,39.4852,1.1318,0.8642,-0.8817
2931261.0,-11.473,9.335,34.5411,0.6933,-0.4257,-0.7359
2931271.0,-10.5177,9.2392,30.076,0.4401,-1.2127,-0.5507
2931281.0,-9.7229,8.667,26.5158,0.3177,-1.7017,-0.3464
2931291.0,-8.7939,7.9655,23.6164,0.3187,-1.9827,-0.1596
2931301.0,-8.1786,7.6614,21.1887,0.3837,-2.1231,-0.0064
2931311.0,-7.6399,7.3263,19.8168,0.3682,-2.2668,0.1192
2931321.0,-7.0797,7.2065,18.251,0.3049,-2.4701,0.2288
2931331.0,-6.7852,6.7373,17.3532,0.107,-2.7244,0.3246
2931341.0,-6.3446,6.3494,15.8041,-0.058,-3.0346,0.414
2931351.0,-5.679,6.1148,13.8936,-0.2746,-3.3454,0.4757
2931361.0,-5.1427,5.8897,12.2799,-0.5273,-3.5625,0.522
2931371.0,-4.549,5.6671,10.8649,-0.6609,-3.6466,0.5928
2931381.0,-4.1348,5.1068,9.8785,-0.6971,-3.6482,0.6886
2931391.0,-3.4788,4.3048,8.9088,-0.6077,-3.6232,0.803
2931401.0,-2.6049,3.4907,7.7835,-0.3964,-3.5162,0.9051
2931411.0,-1.7861,2.8922,6.2393,-0.2357,-3.3715,0.9663
2931421.0,-0.972,2.2338,4.9584,-0.3581,-3.2555,0.9653
2931431.0,-0.2897,1.5514,4.5657,-0.6258,-3.1059,0.9067
2931441.0,0.2298,1.1372,4.707,-0.7737,-2.8803,0.8306
2931451.0,0.7901,0.9002,5.023,-0.7779,-2.6632,0.7636
2931461.0,1.2833,0.7614,5.3893,-0.7162,-2.4882,0.712
2931471.0,1.4293,0.7949,5.7413,-0.6141,-2.3743,0.6832
2931481.0,1.6089,0.5267,6.098,-0.4518,-2.2998,0.6923
2931491.0,1.9489,0.3663,5.6671,-0.2155,-2.2476,0.7136
2931501.0,1.9824,0.1987,5.2553,-0.1719,-2.246,0.7072
2931511.0,2.2242,0.1245,4.5155,-0.2341,-2.2594,0.6806
2931521.0,2.3918,0.2083,3.462,-0.4252,-2.27,0.6311
2931531.0,2.6145,0.3519,2.3679,-0.8109,-2.2881,0.5539
2931541.0,2.6719,0.565,2.5881,-1.2175,-2.1785,0.4789
2931551.0,2.5738,0.9098,3.3375,-1.4138,-2.0614,0.4656
2931561.0,2.2386,0.8906,3.7924,-1.4362,-2.112,0.5215
2931571.0,2.6863,0.8859,2.3224,-1.4287,-2.3487,0.6008
2931581.0,2.8036,0.7398,-0.9697,-1.7512,-2.6946,0.6513
2931591.0,3.7421,-0.2849,-5.4612,-2.5962,-3.0942,0.6423
2931601.0,4.9823,-1.5467,-9.9072,-3.6189,-3.1879,0.5412
2931611.0,5.4253,-2.32,-13.3549,-4.2415,-2.6638,0.3922
2931621.0,5.8466,-2.4445,-14.8919,-4.2255,-1.6405,0.2485
2931631.0,6.6463,-1.8818,-15.287,-3.4619,-0.3262,0.1793
2931641.0,5.9951,-0.5698,-15.9909,-2.1753,1.1068,0.2176
2931651.0,4.3383,0.7614,-16.6636,-0.7849,2.5818,0.3549
2931661.0,2.624,1.0582,-15.8999,0.5321,4.1377,0.5545
2931671.0,0.4453,0.735,-13.6565,1.9486,5.9767,0.7476
2931681.0,-3.1987,-0.1341,-8.8801,3.098,7.7832,0.8168
2931691.0,-4.6926,-2.5115,-1.7933,3.7626,9.213,0.6864
2931701.0,-12.2152,-1.4844,4.8698,3.8876,10.0394,0.3044
2931711.0,-12.8305,-2.8922,14.1809,3.1224,9.884,-0.1341
2931721.0,-14.5879,-1.4916,23.1639,2.8771,9.4998,-0.6119
2931731.0,-15.3085,1.1325,30.2268,3.5487,8.9475,-0.9333
2931741.0,-14.7124,5.4564,32.2667,4.0919,7.8588,-1.1318
2931751.0,-13.9055,7.8937,34.3376,3.3837,6.2773,-1.2483
2931761.0,-12.5983,8.5401,35.9777,2.2599,4.6613,-1.251
2931771.0,-11.7579,9.2129,35.9657,1.4665,3.3433,-1.201
2931781.0,-11.1378,9.5026,34.9841,0.6401,1.9901,-1.1361
2931791.0,-10.1203,9.0357,32.6737,-0.1064,0.6726,-1.0243
2931801.0,-9.3254,8.2217,29.7288,-0.5108,-0.2804,-0.8689
2931811.0,-8.5784,7.6567,27.0904,-0.5449,-0.8429,-0.6949
2931821.0,-8.3175,7.3622,24.4927,-0.3991,-1.2239,-0.5007
2931831.0,-7.3789,6.505,22.9101,-0.3097,-1.5868,-0.3161
2931841.0,-6.9767,5.9687,21.1791,-0.0926,-1.8411,-0.1532
2931851.0,-6.6295,5.7461,19.8024,0.0266,-2.1386,-0.0399
2931861.0,-6.0501,5.6216,17.7913,0.0447,-2.535,0.0628
2931871.0,-5.5186,5.363,15.1792,-0.0639,-2.866,0.1591
2931881.0,-4.7357,4.6639,13.3956,-0.2895,-3.0394,0.2325
2931891.0,-4.2329,4.0342,12.3517,-0.4475,-3.0485,0.2857
2931901.0,-3.9265,3.5291,11.971,-0.5284,-3.0192,0.323
2931911.0,-3.6105,3.146,11.746,-0.5039,-3.0549,0.3656
2931921.0,-3.0909,2.5833,11.0301,-0.4049,-3.1501,0.4204
2931931.0,-2.5426,1.8316,10.5129,-0.2756,-3.1948,0.4619
2931941.0,-2.1811,1.5203,9.6678,-0.0968,-3.1921,0.4715
2931951.0,-1.6616,1.3767,9.0884,-0.0043,-3.206,0.4486
2931961.0,-1.1732,1.6999,7.9057,0.0447,-3.2246,0.4204
2931971.0,-0.8021,1.901,7.3813,-0.0303,-3.1996,0.4039
2931981.0,-0.2993,2.0686,6.8594,-0.091,-3.1283,0.4129
2931991.0,-0.0862,2.1261,7.3215,-0.1336,-3.0181,0.4406
2932001.0,0.1293,2.2314,7.0533,-0.0883,-2.9687,0.5071
2932011.0,0.4956,1.889,6.6056,-0.1862,-3.0591,0.5741
2932021.0,1.1756,1.4198,5.272,-0.3714,-3.1991,0.6119
2932031.0,1.7861,0.8954,4.039,-0.5864,-3.2108,0.6082
2932041.0,2.7078,0.2131,3.1436,-0.6949,-3.057,0.5816
2932051.0,2.7078,0.2131,3.1436,-0.6949,-3.057,0.5816
2932061.0,3.3639,-0.0766,2.3942,-0.6848,-2.7851,0.5204
2932071.0,3.7804,-0.2059,2.2386,-0.6625,-2.4775,0.4395
2932081.0,4.0151,-0.0527,2.6624,-0.5188,-2.1125,0.3719
2932091.0,4.1372,0.3352,3.0023,-0.299,-1.7815,0.3443
2932101.0,4.1515,0.498,3.043,-0.2006,-1.5985,0.3363
2932111.0,4.5945,0.6967,2.7174,-0.2208,-1.5059,0.3374
2932121.0,4.774,0.6919,2.5402,-0.3352,-1.4069,0.3379
2932131.0,5.0326,0.7805,2.3056,-0.423,-1.2925,0.3406
2932141.0,5.284,0.8954,1.7358,-0.4597,-1.1563,0.3586
2932151.0,5.2625,1.0391,1.1516,-0.5124,-1.0041,0.3858
2932161.0,5.3151,0.9601,1.4078,-0.5342,-0.7668,0.4305
2932171.0,5.3463,0.9577,2.0734,-0.3725,-0.4512,0.4991
2932181.0,5.3079,1.008,2.3583,-0.1921,-0.2794,0.5726
2932191.0,5.3319,1.0846,1.4078,-0.1905,-0.3219,0.6231
2932201.0,5.636,1.1253,-1.0343,-0.4518,-0.4326,0.6518
2932211.0,6.0071,0.5986,-3.5674,-1.0206,-0.4534,0.6524
2932221.0,6.3662,-0.0239,-6.4835,-1.6187,-0.2602,0.6236
2932231.0,6.1842,-0.4214,-8.8298,-2.2013,0.149,0.5422
2932241.0,5.5522,-0.2227,-10.2113,-2.5259,0.7742,0.4534
2932251.0,4.695,1.1827,-10.8864,-2.245,1.7075,0.4459
2932261.0,2.9473,3.2753,-11.2336,-1.5383,2.7404,0.5827
2932271.0,1.0918,5.1595,-12.1003,-0.6971,3.646,0.8833
2932281.0,-1.4964,5.5641,-12.9622,0.3182,4.7433,1.326
2932291.0,-4.1156,3.9361,-12.5624,1.591,6.3635,1.7911
2932301.0,-7.6806,1.1444,-9.6271,2.5951,8.0732,2.0124
2932311.0,-11.4826,-1.7166,-5.2218,3.0783,9.5184,1.8885
2932321.0,-14.8273,-5.3534,2.9736,3.0235,10.7162,1.4372
2932331.0,-17.6477,-7.6998,14.3963,2.7835,11.3856,0.6987
2932341.0,-19.065,-7.9535,26.7097,2.5488,11.0669,-0.2112
2932351.0,-19.1752,-4.6064,35.7143,2.6648,9.8457,-1.0834
2932361.0,-18.2893,1.3431,40.2992,2.7569,8.0216,-1.7326
2932371.0,-17.3508,7.8458,41.2401,2.3158,5.8889,-2.0481
2932381.0,-16.441,12.4475,40.4883,1.3345,3.7711,-1.9709
2932391.0,-15.5432,14.5951,38.5012,0.3767,2.0391,-1.5181
2932401.0,-14.5137,13.4865,36.4781,-0.3022,0.654,-0.8375
2932411.0,-13.5727,10.908,33.696,-0.4257,-0.4262,-0.1293
2932421.0,-12.4139,8.0804,29.5349,-0.1644,-1.2377,0.472
2932431.0,-10.738,4.9009,25.2708,0.049,-1.8416,0.8748
2932441.0,-9.3781,2.2434,22.0099,0.1772,-2.1167,1.0318
2932451.0,-8.5784,0.3591,20.298,0.2277,-2.2242,0.9727
2932461.0,-7.8721,-0.5555,19.2254,0.2166,-2.3833,0.7678
2932471.0,-7.4124,-0.4956,18.4976,0.1298,-2.6606,0.4858
2932481.0,-7.0725,0.3232,17.2478,0.075,-3.0096,0.2336
2932491.0,-6.6128,1.4198,15.5096,-0.0011,-3.3715,0.0612
2932501.0,-6.031,2.4253,13.8529,-0.0931,-3.6232,-0.0266
2932511.0,-5.6168,3.1101,12.153,-0.1623,-3.7705,-0.0245
2932521.0,-5.0015,3.0119,10.8433,-0.2677,-3.8977,0.0357
2932531.0,-4.2808,2.6863,9.4954,-0.307,-3.9509,0.1043
2932541.0,-3.553,2.1165,8.3845,-0.2677,-3.9073,0.1676
2932551.0,-3.0765,1.5706,7.1658,-0.1788,-3.8099,0.2134
2932561.0,-2.1428,1.3838,5.8155,-0.1687,-3.7173,0.2086
2932571.0,-1.3934,1.3743,4.8914,-0.2661,-3.5534,0.1692
2932581.0,-0.9218,1.4222,4.6663,-0.3895,-3.3177,0.1293
2932591.0,-0.419,1.3024,5.0182,-0.4762,-3.0937,0.1032
2932601.0,-0.0239,1.1923,5.284,-0.456,-2.8995,0.091
2932611.0,0.5219,1.0367,5.5737,-0.3879,-2.7563,0.0873
2932621.0,1.0199,0.9313,5.387,-0.2895,-2.6675,0.0867
2932631.0,1.4222,0.8547,4.9009,-0.2543,-2.6105,0.0777
2932641.0,1.8268,0.838,4.2114,-0.3182,-2.5706,0.0521
2932651.0,2.2386,0.7278,3.6152,-0.4305,-2.4945,0.0208
2932661.0,2.7797,0.5746,3.3088,-0.4667,-2.3163,-0.0021
2932671.0,3.0981,0.5339,3.4261,-0.3964,-2.0364,-0.0223
2932681.0,3.2633,0.8045,3.4189,-0.3139,-1.7969,-0.0426
2932691.0,3.4836,1.0319,3.5745,-0.3209,-1.6421,-0.0495
2932701.0,3.5817,1.3551,3.3112,-0.3491,-1.5218,-0.0298
2932711.0,3.7397,1.494,3.7134,-0.3906,-1.4011,0.0149
2932721.0,4.0294,1.6927,3.6248,-0.3012,-1.2898,0.1038
2932731.0,4.0989,1.7717,3.5937,-0.2134,-1.2239,0.2128
2932741.0,4.4077,1.8364,3.146,-0.1266,-1.2132,0.3363
2932751.0,4.4484,1.6281,2.5235,-0.0229,-1.1701,0.4635
2932761.0,4.47,1.6496,0.8356,0.0548,-1.1366,0.5811
2932771.0,5.0159,1.4341,-1.6352,-0.0894,-1.0903,0.6784
2932781.0,5.4492,0.6129,-3.8331,-0.5523,-0.9913,0.7279
2932791.0,5.4277,-0.091,-5.7652,-1.135,-0.7886,0.7082
2932801.0,5.4229,-0.3472,-7.1299,-1.6618,-0.5087,0.6321
2932811.0,5.0254,0.2729,-9.2033,-1.9885,-0.1995,0.5662
2932821.0,4.6448,1.2929,-12.0692,-2.1598,0.157,0.5821
2932831.0,4.6448,1.4868,-15.3612,-2.1327,0.6923,0.7194
2932841.0,4.1827,0.5698,-17.7267,-1.4016,1.8853,0.9573
2932851.0,2.5809,-0.6464,-18.8208,0.1304,3.877,1.1792
2932861.0,-0.9218,-2.0446,-16.7857,1.4165,5.9682,1.2148
2932871.0,-5.047,-3.9002,-10.2975,2.2455,7.8753,1.0424
2932881.0,-9.1004,-5.4468,-1.3719,3.0889,9.5238,0.7184
2932891.0,-12.9024,-6.7924,10.3118,3.8009,10.6029,0.216
2932901.0,-15.1122,-5.466,21.385,4.2159,10.6976,-0.4816
2932911.0,-15.9406,-2.2386,31.5771,4.01,9.7371,-1.2228
2932921.0,-16.0531,2.4588,38.0989,3.4859,7.9812,-1.7815
2932931.0,-15.7898,7.1994,40.3303,2.6723,5.7867,-2.0657
2932941.0,-14.9015,10.8386,39.8012,1.7879,3.7163,-2.055
2932951.0,-14.0899,12.9766,37.8811,1.1222,2.1162,-1.7624
2932961.0,-13.3644,13.0364,35.8125,0.8003,0.969,-1.2866
2932971.0,-12.2368,11.8681,33.4231,0.8594,0.1463,-0.7822
2932981.0,-11.4682,10.9319,30.8756,1.1403,-0.4028,-0.3677
2932991.0,-10.6039,10.24,28.2228,1.2957,-0.878,-0.0702
2933001.0,-9.56,9.505,25.6946,1.1238,-1.3846,0.1086
2933011.0,-9.0716,8.8897,23.9684,0.6848,-1.8544,0.1767
2933021.0,-8.5712,8.3677,22.1799,0.1602,-2.3966,0.1958
2933031.0,-8.0278,8.0445,19.7426,-0.4209,-3.0389,0.1873
2933041.0,-7.367,7.8266,17.3843,-0.9642,-3.6024,0.191
2933051.0,-6.7229,7.5441,15.275,-1.2829,-3.9999,0.2559
2933061.0,-6.0214,6.9192,13.1849,-1.2755,-4.2404,0.3996
2933071.0,-4.8985,6.0406,10.343,-1.0259,-4.3559,0.5933
2933081.0,-3.5267,4.9632,7.2377,-0.821,-4.3484,0.7604
2933091.0,-2.2003,3.7757,4.695,-0.7641,-4.1877,0.8626
2933101.0,-1.0918,2.7533,2.739,-0.7801,-3.8695,0.8918
2933111.0,-0.0766,1.8483,1.5706,-0.8902,-3.4944,0.8477
2933121.0,0.6321,1.0247,1.0846,-1.0153,-3.0841,0.7588
2933131.0,1.4269,0.1556,1.5634,-1.0334,-2.6111,0.6444
2933141.0,1.9824,-0.17,2.3104,-0.8503,-2.1189,0.5151
2933151.0,2.3296,-0.0766,3.1388,-0.6353,-1.7139,0.3837
2933161.0,2.6624,-0.0239,4.2018,-0.4933,-1.4277,0.2756
2933171.0,2.7222,0.2059,4.956,-0.3948,-1.251,0.1815
2933181.0,2.5833,0.6895,5.6072,-0.3725,-1.1797,0.0984
2933191.0,2.6504,1.1468,6.2225,-0.3709,-1.151,0.0468
2933201.0,2.6671,1.7406,6.5122,-0.3523,-1.1318,0.0293
2933211.0,2.7318,2.1069,6.6295,-0.4252,-1.1728,0.0372
2933221.0,3.0358,2.3463,6.3279,-0.5662,-1.2329,0.066
2933231.0,3.2298,2.4493,6.2465,-0.8099,-1.2584,0.0937
2933241.0,3.2058,2.2984,7.3885,-1.0339,-1.2324,0.1346
2933251.0,3.0191,2.138,7.932,-0.9844,-1.2563,0.2315
2933261.0,3.1867,1.4269,7.8721,-0.7923,-1.3548,0.3613
2933271.0,3.3974,0.8739,6.8235,-0.5523,-1.4426,0.4661
2933281.0,3.5745,0.4597,5.782,-0.4507,-1.5075,0.522
2933291.0,3.9385,0.3328,4.1707,-0.4528,-1.541,0.5406
2933301.0,4.0294,0.0982,2.5307,-0.6252,-1.5128,0.5374
2933311.0,4.3191,-0.5052,0.9864,-0.9573,-1.4606,0.5161
2933321.0,4.9057,-1.2881,-1.1732,-1.3574,-1.3952,0.4613
2933331.0,5.5378,-2.4852,-3.2441,-1.881,-1.2739,0.3533
2933341.0,6.043,-3.5482,-4.2162,-2.2136,-0.9062,0.1921
2933351.0,5.7964,-3.6296,-4.6328,-2.0571,-0.2927,0.0176
2933361.0,5.1499,-3.134,-4.7429,-1.6251,0.2975,-0.1224
2933371.0,4.6711,-2.1045,-5.5162,-0.9972,0.8306,-0.1921
2933381.0,4.5346,-0.7877,-7.8027,-0.4635,1.293,-0.1958
2933391.0,4.3838,-0.0958,-10.0006,-0.2756,1.7826,-0.1575
2933401.0,3.395,0.7638,-12.0021,-0.0511,2.6483,-0.0952
2933411.0,1.3815,1.1061,-11.655,0.1894,3.8046,-0.0202
2933421.0,-0.7207,0.4405,-8.8897,0.6864,5.1125,0.0713
2933431.0,-3.8954,-0.0886,-4.774,1.5144,6.4418,0.0968
2933441.0,-6.9671,-0.6177,0.5626,2.3184,7.4203,0.0053
2933451.0,-9.2991,-0.3615,5.3678,3.0522,7.9966,-0.2065
2933461.0,-11.0301,0.7901,10.5536,3.5423,8.3324,-0.53
2933471.0,-13.3429,3.2681,16.1585,3.6317,8.3866,-0.9041
2933481.0,-14.7914,6.5434,23.1136,3.3656,8.12,-1.2153
2933491.0,-15.6389,9.8713,29.9778,2.8457,7.3458,-1.358
2933501.0,-15.5168,12.6246,35.2067,2.0949,6.0453,-1.3047
2933511.0,-15.3444,14.3149,38.9441,1.3212,4.5192,-1.0717
2933521.0,-14.686,14.698,40.0789,0.7066,2.883,-0.6832
2933531.0,-13.5799,13.6877,38.7933,0.2315,1.26,-0.2336
2933541.0,-12.4546,12.038,35.7215,-0.1123,-0.1548,0.1745
2933551.0,-11.4012,10.0437,31.5532,-0.39,-1.3095,0.4938
2933561.0,-10.137,7.9272,26.8725,-0.671,-2.2136,0.7035
2933571.0,-8.904,6.3015,22.4648,-0.9269,-2.7888,0.7891
2933581.0,-7.9775,5.1308,19.1369,-1.1419,-3.0607,0.7939
2933591.0,-6.9767,4.13,16.6229,-1.3063,-3.2092,0.7646
2933601.0,-6.043,3.2896,14.6262,-1.4314,-3.2911,0.704
2933611.0,-5.0709,2.8515,13.2232,-1.4708,-3.2698,0.6332
2933621.0,-4.47,2.7078,12.5432,-1.3925,-3.1772,0.5848
2933631.0,-3.9552,2.375,12.536,-1.2127,-3.1182,0.5933
2933641.0,-3.3615,2.0949,11.6382,-0.9317,-3.149,0.647
2933651.0,-2.6312,1.6305,10.7188,-0.7455,-3.2283,0.6902
2933661.0,-1.7909,1.3886,9.2895,-0.597,-3.2517,0.705
2933671.0,-1.2163,1.2761,8.0732,-0.6034,-3.2294,0.6859
2933681.0,-0.5986,1.0439,7.3526,-0.7066,-3.1645,0.6518
2933691.0,-0.0622,0.8523,6.9839,-0.7508,-2.9974,0.6226
2933701.0,0.2873,0.4597,7.3837,-0.804,-2.8165,0.596
2933711.0,0.5842,-0.0838,8.4443,-0.7732,-2.6771,0.5816
2933721.0,0.7638,-0.5363,9.754,-0.6077,-2.6201,0.5603
2933731.0,0.8164,-0.4238,10.1634,-0.4055,-2.7441,0.5252
2933741.0,1.1157,-0.2993,10.0197,-0.3634,-3.0719,0.4789
2933751.0,1.7573,-0.1245,8.5258,-0.4033,-3.4561,0.4273
2933761.0,2.047,0.1724,6.2848,-0.5805,-3.7546,0.3597
2933771.0,2.4086,0.6081,4.0127,-0.9003,-3.9201,0.2889
2933781.0,2.8252,1.0678,1.9944,-1.2153,-3.9057,0.2395
2933791.0,3.3136,1.4581,0.2729,-1.4202,-3.6961,0.2485
2933801.0,3.8379,1.3168,-0.6369,-1.4665,-3.3183,0.315
2933811.0,4.1803,0.9936,-1.1684,-1.3468,-2.8543,0.4135
2933821.0,4.774,0.4142,-1.2139,-1.1265,-2.3988,0.5076
2933831.0,5.0015,-0.1437,-1.4413,-0.8157,-1.9768,0.588
2933841.0,5.43,-0.747,-2.1045,-0.497,-1.5814,0.6433
2933851.0,5.8442,-1.2641,-3.0215,-0.3507,-1.2217,0.6428
2933861.0,6.3111,-1.4653,-4.1779,-0.3884,-0.8727,0.5949
2933871.0,6.2991,-1.7478,-4.8171,-0.5859,-0.4848,0.5215
2933881.0,6.1555,-1.8268,-5.4061,-0.8423,-0.1219,0.4337
2933891.0,5.8586,-1.798,-5.4684,-1.0525,0.2357,0.3555
2933901.0,5.1308,-1.3551,-5.545,-1.0174,0.622,0.3193
2933911.0,4.2976,-0.7661,-5.9711,-0.7024,1.0387,0.3539
2933921.0,3.2202,-0.0934,-6.9983,-0.232,1.4745,0.4496
2933931.0,2.7533,0.5938,-9.1913,0.1724,1.8938,0.5715
2933941.0,2.5905,1.154,-12.2032,0.2192,2.287,0.6779
2933951.0,1.5826,1.6975,-14.7794,-0.008,2.8378,0.7705
2933961.0,-1.063,2.4948,-16.836,0.0873,3.8802,0.9227
2933971.0,-4.1659,1.2833,-16.3979,0.6455,5.4749,1.1802
2933981.0,-7.7692,-1.0702,-13.0364,1.6602,7.514,1.3744
2933991.0,-12.6127,-3.1196,-5.3774,2.7398,9.5387,1.309
2934001.0,-17.1018,-4.8507,6.8187,4.2516,11.4612,1.0403
2934011.0,-22.0147,-3.8068,19.4888,6.0107,12.7143,0.5225
2934021.0,-22.7449,-0.8068,31.9219,6.7754,12.4371,-0.2863
2934031.0,-21.6867,5.6671,42.4229,6.4822,10.8487,-1.1105
2934041.0,-19.7737,11.8178,49.627,5.161,8.0924,-1.6006
2934051.0,-15.1768,14.4921,49.797,3.3246,4.6714,-1.7177
2934061.0,-18.3132,17.2023,44.2137,1.4841,1.7012,-1.6235
2934071.0,-14.6621,17.7051,39.1428,-0.1458,-0.4911,-1.3015
2934081.0,-13.2902,15.2966,35.2019,-1.3973,-2.1237,-0.8344
2934091.0,-11.7627,12.9478,28.7256,-1.7347,-3.3379,-0.3368
2934101.0,-10.2592,10.8122,22.448,-1.4676,-3.761,0.1373
2934111.0,-8.7149,8.6598,17.4968,-1.0307,-3.6673,0.5577
2934121.0,-6.9192,6.6631,13.7355,-0.7338,-3.3885,0.8498
2934131.0,-5.4372,4.8076,11.5353,-0.6087,-2.924,0.9913
2934141.0,-4.7573,3.3184,11.1737,-0.5885,-2.3248,1.0238
2934151.0,-4.4748,1.719,12.1458,-0.7035,-1.9135,0.9764
2934161.0,-4.1875,0.0215,13.0867,-0.8971,-1.8576,0.8514
2934171.0,-3.8068,-1.5179,13.5679,-1.0366,-1.9773,0.6609
2934181.0,-3.5243,-2.6647,14.1833,-0.9982,-2.0992,0.415
2934191.0,-3.3686,-2.8276,14.0037,-0.7726,-2.2588,0.133
2934201.0,-3.3662,-2.1883,13.1011,-0.6055,-2.5313,-0.1511
2934211.0,-3.0909,-1.1875,11.8657,-0.5209,-2.8074,-0.3815
2934221.0,-2.7461,-0.2322,10.7571,-0.373,-2.8851,-0.5199
2934231.0,-2.4612,0.68,9.6941,-0.216,-2.8388,-0.58
2934241.0,-2.1883,1.2474,8.8657,-0.2458,-2.834,-0.5965
2934251.0,-1.549,1.1325,8.521,-0.423,-2.8292,-0.5885
2934261.0,-1.1779,0.8236,8.1618,-0.663,-2.7994,-0.5986
2934271.0,-1.0606,0.328,8.6072,-1.0174,-2.8239,-0.6577
2934281.0,-0.589,0.1413,9.1985,-1.2457,-2.8553,-0.7466
2934291.0,-0.7949,0.577,9.9575,-1.4175,-2.9734,-0.8508
2934301.0,-0.6393,1.336,9.9264,-1.4995,-3.2948,-0.9062
2934311.0,-0.0934,2.0159,8.6359,-1.3808,-3.6013,-0.878
2934321.0,0.6464,2.6935,6.1603,-1.2233,-3.7801,-0.7897
2934331.0,1.4365,2.9832,3.8499,-1.2217,-3.8014,-0.6848
2934341.0,2.1763,3.0813,1.7406,-1.3409,-3.6567,-0.5795
2934351.0,2.8467,2.8922,0.1125,-1.5761,-3.364,-0.497
2934361.0,3.1891,2.5594,-0.2945,-1.9683,-3.0091,-0.473
2934371.0,3.4381,2.3703,0.8452,-2.3578,-2.6792,-0.481
2934381.0,3.5362,2.3559,1.8244,-2.5994,-2.5744,-0.4741
2934391.0,3.9193,2.2146,1.9249,-2.5935,-2.6398,-0.4172
2934401.0,4.5083,1.9154,0.9768,-2.2115,-2.5829,-0.2948
2934411.0,5.2529,1.3551,-0.8021,-1.5921,-2.3269,-0.1469
2934421.0,6.2034,1.0774,-3.2801,-1.1142,-2.0119,-0.0559
2934431.0,6.6032,0.8835,-5.9041,-0.9775,-1.624,-0.0415
2934441.0,6.8378,1.2857,-9.0118,-1.2462,-1.1999,-0.0915
2934451.0,6.6463,1.652,-11.734,-2.0396,-0.7897,-0.1676
2934461.0,6.3973,1.8866,-13.1418,-2.9123,-0.2384,-0.2022
2934471.0,5.8897,2.7198,-13.7643,-3.2794,0.5656,-0.1256
2934481.0,5.5569,3.7637,-13.9414,-3.0107,1.4681,0.1293
2934491.0,4.2856,4.3072,-14.1856,-1.9215,2.6026,0.6087
2934501.0,1.8627,3.7373,-14.7483,0.0713,4.2638,1.2579
2934511.0,-0.8499,1.1372,-13.3381,2.0231,6.1294,1.8315
2934521.0,-4.1228,-2.1859,-9.0788,3.4476,7.8997,2.0822
2934531.0,-7.9272,-4.8483,-2.1117,4.5671,9.4966,1.9683
2934541.0,-11.3461,-6.3638,7.5705,5.5127,10.6768,1.5426
2934551.0,-14.1545,-4.9297,16.9533,6.2779,11.0254,0.8838
2934561.0,-16.0962,-1.9034,25.0122,6.4944,10.4283,0.1602
2934571.0,-14.4035,1.6688,31.1988,6.3061,9.28,-0.4156
2934581.0,-14.1402,5.5378,37.3639,5.5122,7.8119,-0.837
2934591.0,-13.3549,8.3366,41.1084,4.1893,5.6351,-1.0578
2934601.0,-11.9734,9.675,40.5817,2.7899,3.198,-1.1025
2934611.0,-10.8074,9.9383,36.8516,1.6155,1.0983,-1.0456
2934621.0,-9.8809,10.1299,31.5221,0.7854,-0.4156,-0.9583
2934631.0,-8.8705,10.5273,26.1902,0.1878,-1.3271,-0.8439
2934641.0,-8.0637,10.726,21.9261,-0.281,-1.7608,-0.6753
2934651.0,-7.4627,10.319,19.223,-0.5683,-1.8592,-0.439
2934661.0,-6.9264,9.2775,17.8679,-0.6029,-1.7379,-0.1612
2934671.0,-6.3949,7.8865,17.6046,-0.4081,-1.5463,0.1032
2934681.0,-6.1627,6.8139,17.3987,-0.1091,-1.4782,0.3113
2934691.0,-5.94,6.0406,17.0443,0.1054,-1.6144,0.4518
2934701.0,-5.5043,5.4253,16.2471,0.2528,-1.8475,0.5475
2934711.0,-5.0733,5.0039,15.0476,0.3336,-2.0614,0.6146
2934721.0,-4.5705,4.3934,14.0085,0.2416,-2.2801,0.6455
2934731.0,-3.9313,3.8188,12.6869,-0.0287,-2.5483,0.621
2934741.0,-3.4141,3.3591,11.4563,-0.4534,-2.8191,0.5337
2934751.0,-2.8228,2.9856,10.7524,-0.7838,-2.9591,0.4342
2934761.0,-2.411,2.9401,10.1227,-0.8716,-2.9559,0.364
2934771.0,-1.9824,2.8611,10.0461,-0.8179,-2.9027,0.3272
2934781.0,-1.64,3.1125,9.5433,-0.6582,-2.8505,0.3304
2934791.0,-1.2785,3.2058,9.3182,-0.5401,-2.8149,0.3677
2934801.0,-0.9457,3.4644,8.6072,-0.447,-2.8074,0.4331
2934811.0,-0.7614,3.4764,8.4156,-0.5135,-2.8335,0.5098
2934821.0,-0.3783,3.2777,7.8937,-0.5917,-2.9011,0.6055
2934831.0,0.0311,2.7797,7.2137,-0.6965,-2.9841,0.6917
2934841.0,0.5626,2.0997,6.1076,-0.8328,-3.0596,0.7513
2934851.0,1.2474,1.2306,5.0206,-0.9903,-3.0793,0.7684
2934861.0,2.15,0.4764,3.8595,-1.1126,-3.0022,0.729
2934871.0,2.7557,0.0862,3.1723,-1.2116,-2.8197,0.6433
2934881.0,3.2681,0.0072,3.2154,-1.2068,-2.552,0.5566
2934891.0,3.6823,0.0599,3.7948,-0.9935,-2.2317,0.5119
2934901.0,3.9768,0.2729,4.0773,-0.6726,-1.9842,0.5044
2934911.0,3.9528,0.3448,3.9863,-0.423,-1.8667,0.5188
2934921.0,4.4317,0.4932,3.122,-0.3278,-1.8448,0.5364
2934931.0,4.9297,0.0958,2.1548,-0.4805,-1.8459,0.5396
2934941.0,5.3367,-0.328,1.2115,-0.721,-1.7789,0.5044
2934951.0,5.5522,-0.668,0.5626,-0.9371,-1.608,0.4353
2934961.0,5.7844,-0.8092,0.2801,-1.0456,-1.3782,0.3565
2934971.0,5.7988,-0.7829,0.2586,-1.027,-1.1137,0.2916
2934981.0,5.8538,-0.644,0.5842,-0.8636,-0.8258,0.2533
2934991.0,5.7628,-0.2969,0.8212,-0.5608,-0.5369,0.248
2935001.0,5.6431,-0.0766,0.9984,-0.282,-0.3576,0.2661
2935011.0,5.0996,0.4477,0.2155,-0.0873,-0.2873,0.2932
2935021.0,4.8459,0.7997,-1.1732,-0.1501,-0.3001,0.3124
2935031.0,4.7214,1.1851,-3.2082,-0.472,-0.3257,0.3124
2935041.0,4.6208,1.549,-5.6407,-1.0217,-0.3001,0.2985
2935051.0,4.7549,1.9393,-9.1722,-1.7129,-0.2033,0.2959
2935061.0,4.9057,2.1117,-13.1466,-2.5329,0.0537,0.3155
2935071.0,4.5418,2.0423,-16.3787,-3.1469,0.696,0.3895
2935081.0,3.7278,1.8124,-17.7051,-3.1469,1.8587,0.5295
2935091.0,1.0319,2.1021,-17.7458,-2.2061,3.4917,0.7886
2935101.0,-1.5371,1.9034,-15.8496,-0.3964,5.4941,1.1504
2935111.0,-6.3566,1.2929,-13.3046,1.7863,7.6741,1.4873
2935121.0,-11.4443,-1.0415,-7.2353,3.6439,9.7137,1.6251
2935131.0,-16.3021,-2.6384,-0.7302,5.3153,11.425,1.441
2935141.0,-20.48,-3.2777,8.7293,6.429,12.676,0.8913
2935151.0,-23.6739,-1.1708,19.6468,6.7823,13.0016,0.0596
2935161.0,-23.1783,3.2154,32.1446,6.3135,12.1971,-0.7934
2935171.0,-22.7713,9.9383,41.9273,5.5643,10.4906,-1.3415
2935181.0,-20.729,14.8297,47.5656,4.0026,7.6023,-1.4936
2935191.0,-18.1935,16.3548,47.9247,2.2131,4.4155,-1.2643
2935201.0,-16.4003,15.1721,44.2209,0.8195,1.7288,-0.8205
2935211.0,-14.6525,12.4235,38.1205,-0.0607,-0.3336,-0.3805
2935221.0,-13.2208,10.0652,30.8206,-0.5007,-1.6613,-0.0506
2935231.0,-11.5736,7.8195,24.4663,-0.7769,-2.3631,0.1538
2935241.0,-10.0006,6.122,19.4026,-0.8301,-2.4775,0.2554
2935251.0,-8.6766,4.7908,16.7163,-0.8322,-2.2152,0.2565
2935261.0,-7.9847,4.1013,15.9214,-0.7604,-1.8299,0.1953
2935271.0,-7.5393,3.6679,16.362,-0.696,-1.5798,0.1075
2935281.0,-7.2784,3.5458,17.3029,-0.5949,-1.5011,0.0335
2935291.0,-7.3502,3.6631,18.3563,-0.4363,-1.5905,-0.0032
2935301.0,-7.2089,3.9241,18.6173,-0.3102,-1.9332,0.0074
2935311.0,-6.9121,3.9337,18.1217,-0.2831,-2.4472,0.0484
2935321.0,-6.4021,4.0773,16.2518,-0.2932,-2.9798,0.1048
2935331.0,-5.7557,3.7637,14.3628,-0.4624,-3.4444,0.1527
2935341.0,-5.0566,3.3064,12.0596,-0.6534,-3.7918,0.1815
2935351.0,-4.2569,2.7869,9.8593,-0.8375,-3.9642,0.174
2935361.0,-3.5698,2.4804,7.8266,-0.9972,-3.977,0.1399
2935371.0,-2.7533,2.2266,6.3782,-1.1307,-3.8424,0.0995
2935381.0,-2.2051,2.0423,5.6503,-1.1637,-3.5572,0.0734
2935391.0,-1.7047,2.047,5.5569,-1.1009,-3.2241,0.0676
2935401.0,-1.2258,1.8723,6.2656,-0.944,-2.9,0.1006
2935411.0,-0.929,1.5299,6.9192,-0.6396,-2.6148,0.1745
2935421.0,-0.6871,0.972,7.2042,-0.4289,-2.5132,0.2331
2935431.0,-0.0622,0.2394,7.0797,-0.3576,-2.5541,0.2421
2935441.0,0.4693,-0.0407,6.3327,-0.3081,-2.5637,0.1878
2935451.0,0.8164,0.0,5.9137,-0.3209,-2.4892,0.0974
2935461.0,1.257,0.3328,5.7174,-0.3485,-2.3711,0.0101
2935471.0,1.7837,0.8021,5.4109,-0.4459,-2.3072,-0.0612
2935481.0,2.2434,1.1229,5.5306,-0.5763,-2.2434,-0.1048
2935491.0,2.4924,1.3264,5.6958,-0.5736,-2.0992,-0.099
2935501.0,2.6935,1.506,5.9328,-0.547,-2.0029,-0.0697
2935511.0,2.7964,1.5107,6.1866,-0.547,-2.0151,-0.0287
2935521.0,3.0502,1.3479,5.8514,-0.4534,-2.054,0.0383
2935531.0,3.3926,1.1468,4.9512,-0.2857,-2.0779,0.1101
2935541.0,3.8571,0.9984,3.5482,-0.1213,-2.0428,0.1639
2935551.0,4.221,1.1037,2.0662,-0.0591,-1.9278,0.1926
2935561.0,4.5633,1.2546,0.7997,-0.1761,-1.7804,0.2006
2935571.0,4.8171,1.1851,-0.3759,-0.4379,-1.6458,0.1953
2935581.0,5.3391,0.8595,-1.6712,-0.7396,-1.4825,0.1868
2935591.0,5.7748,0.3974,-3.5003,-1.069,-1.2648,0.1628
2935601.0,6.3398,-0.2825,-5.9233,-1.5335,-1.0121,0.1096
2935611.0,6.9097,-1.0487,-8.0972,-2.0907,-0.629,0.0154
2935621.0,6.5745,-1.4557,-9.3518,-2.477,-0.008,-0.0952
2935631.0,5.7892,-1.3288,-9.7755,-2.4658,0.8093,-0.1607
2935641.0,4.6304,-0.7063,-9.9383,-2.0614,1.6937,-0.1426
2935651.0,3.4405,0.1891,-11.1163,-1.5224,2.4791,-0.0314
2935661.0,2.478,0.498,-12.9622,-1.2074,3.1427,0.141
2935671.0,0.8667,0.7973,-14.4203,-0.8785,4.0377,0.3294
2935681.0,-2.5618,1.9824,-15.105,-0.2565,5.327,0.5193
2935691.0,-7.7668,3.3758,-13.9199,0.5688,6.8749,0.7482
2935701.0,-12.2344,2.4014,-9.1746,1.6453,8.6926,1.0552
2935711.0,-16.5152,-0.4022,-1.6568,2.8463,10.431,1.268
2935721.0,-19.9724,-3.4405,9.4978,3.886,11.6575,1.1579
2935731.0,-22.0171,-4.6424,21.8806,4.747,12.0768,0.6896
2935741.0,-20.7673,-2.648,34.1581,5.1067,11.383,-0.0623
2935751.0,-20.1903,2.9042,43.177,4.7358,9.5301,-0.8216
2935761.0,-18.7442,7.6207,47.8649,3.3645,6.5317,-1.3537
2935771.0,-17.3125,11.224,47.3741,1.6703,3.3454,-1.6064
2935781.0,-16.7187,13.2232,43.5936,0.2969,0.679,-1.558
2935791.0,-15.7515,13.6829,36.8707,-0.4965,-1.3399,-1.2505
2935801.0,-14.4275,12.1242,30.2364,-0.8668,-2.6084,-0.8051
2935811.0,-12.785,9.9934,23.9851,-0.746,-3.1634,-0.3475
2935821.0,-11.2719,7.9176,19.0052,-0.3437,-3.1485,0.0341
2935831.0,-9.8928,5.9759,16.0459,0.075,-2.801,0.298
2935841.0,-8.7676,4.221,15.2247,0.4268,-2.3392,0.4363
2935851.0,-7.8219,3.0071,15.4234,0.6779,-1.9991,0.4523
2935861.0,-7.3215,2.4804,16.4146,0.7194,-1.9204,0.3618
2935871.0,-6.9552,2.4277,17.5591,0.6593,-2.0673,0.2379
2935881.0,-6.7421,3.055,17.4753,0.4837,-2.4892,0.1165
2935891.0,-6.2896,3.474,16.86,0.1187,-3.1086,0.0149
2935901.0,-5.8107,3.7158,14.947,-0.1453,-3.6604,-0.0293
2935911.0,-5.205,3.644,12.6869,-0.3336,-4.0393,-0.0415
2935921.0,-4.5131,3.565,10.2975,-0.4768,-4.2468,-0.0484
2935931.0,-3.8188,3.4069,8.272,-0.5821,-4.2691,-0.0468
2935941.0,-3.0191,3.1556,6.7971,-0.5811,-4.1042,-0.0202
2935951.0,-2.4421,2.8012,6.0693,-0.4901,-3.7897,0.0218
2935961.0,-1.5945,2.1261,6.5745,-0.3022,-3.3544,0.0697
2935971.0,-1.4054,2.1739,7.0102,-0.1346,-3.0378,0.0825
2935981.0,-1.0271,2.1739,7.5058,-0.2251,-3.008,0.0628
2935991.0,-0.4118,2.2242,7.2496,-0.3698,-3.0581,0.0468
2936001.0,-0.1221,2.15,7.0198,-0.5316,-3.0703,0.0335
2936011.0,0.1867,2.0063,6.6966,-0.6795,-3.09,0.0208
2936021.0,0.6057,1.98,6.2824,-0.7678,-3.0996,0.0096
2936031.0,0.8619,2.0973,5.77,-0.779,-3.0777,0.0133
2936041.0,1.3312,2.1907,4.9608,-0.7237,-3.0128,0.0474
2936051.0,1.8579,2.3511,3.79,-0.7205,-2.9463,0.0915
2936061.0,2.2865,2.4852,2.7797,-0.8487,-2.8793,0.1336
2936071.0,2.8323,2.3966,1.6281,-1.035,-2.7798,0.1878
2936081.0,3.122,2.2194,0.6943,-1.2568,-2.6505,0.2405
2936091.0,3.5458,1.9944,-0.2418,-1.4399,-2.4903,0.2943
2936101.0,3.8355,1.7238,-0.8021,-1.5761,-2.2961,0.3448
2936111.0,4.2713,1.5179,-1.743,-1.6448,-2.1391,0.3996
2936121.0,4.6902,0.9912,-3.1412,-1.7235,-2.0311,0.4581
2936131.0,5.8442,0.4477,-5.2625,-1.7326,-1.8512,0.5071
2936141.0,6.0885,-0.3831,-7.4124,-1.7395,-1.4947,0.5252
2936151.0,6.2872,-1.1253,-10.2496,-1.7847,-0.9881,0.5034
2936161.0,6.7277,-1.9465,-11.5855,-1.8927,-0.315,0.4129
2936171.0,6.4572,-2.0039,-12.311,-1.7256,0.5614,0.2985
2936181.0,5.5881,-1.4413,-12.3708,-1.2898,1.5538,0.2043
2936191.0,5.2577,-0.6416,-12.4953,-0.7391,2.4828,0.1511
2936201.0,2.885,0.7781,-13.307,-0.2969,3.3204,0.1618
2936211.0,1.3671,0.9481,-12.8736,0.1064,4.2984,0.2687
2936221.0,-0.929,0.723,-11.2336,0.8386,5.5989,0.4092
2936231.0,-3.8906,0.3567,-8.6455,1.6623,6.9042,0.4816
2936241.0,-7.683,0.407,-4.8435,2.3615,8.0519,0.4566
2936251.0,-11.1881,0.3711,0.9505,2.9985,9.0401,0.3783
2936261.0,-13.939,0.3591,8.2696,3.8589,9.8632,0.2565
2936271.0,-16.4027,1.3096,14.9422,4.698,10.2815,0.0223
2936281.0,-17.4011,3.2465,21.1025,4.8087,10.0037,-0.3618
2936291.0,-18.1696,6.0334,28.0744,4.1037,9.1885,-0.7913
2936301.0,-18.4354,8.9184,34.8428,3.0086,7.8683,-1.1031
2936311.0,-18.3252,11.6837,40.0813,1.9438,6.2358,-1.2329
2936321.0,-18.2366,14.0779,43.7421,0.9658,4.3835,-1.1696
2936331.0,-17.607,15.7922,44.1634,0.2107,2.3253,-0.9041
2936341.0,-16.4793,15.931,40.7421,-0.4997,0.2123,-0.5007
2936351.0,-15.1074,14.4155,35.6616,-1.0946,-1.5085,-0.0468
2936361.0,-13.4554,12.1554,29.6139,-1.4032,-2.6664,0.3837
2936371.0,-11.9423,9.4571,24.1288,-1.6597,-3.3853,0.7061
2936381.0,-10.2639,6.778,19.8479,-1.8667,-3.7812,0.9057
2936391.0,-8.7987,4.5466,16.4434,-1.9433,-3.927,0.9972
2936401.0,-7.4795,2.6336,13.939,-1.9087,-3.9312,1.0014
2936411.0,-6.2656,1.1971,11.9997,-1.8081,-3.8839,0.936
2936421.0,-5.1188,0.2466,10.2999,-1.6421,-3.795,0.8221
2936431.0,-4.0342,-0.3496,8.8466,-1.4399,-3.6599,0.6848
2936441.0,-2.9497,-0.5435,7.8673,-1.1903,-3.4284,0.5385
2936451.0,-2.2769,-0.3711,7.5968,-0.903,-3.1091,0.4092
2936461.0,-1.6568,0.0144,8.0565,-0.5672,-2.7994,0.3161
2936471.0,-1.3431,0.8236,8.1283,-0.2565,-2.6004,0.2666
2936481.0,-1.0918,1.3431,8.2265,-0.1575,-2.5456,0.2554
2936491.0,-0.759,1.7837,7.8841,-0.1979,-2.5893,0.2671
2936501.0,-0.5267,2.1117,7.2065,-0.3251,-2.6659,0.2895
2936511.0,0.0718,2.4038,5.6503,-0.4502,-2.6872,0.332
2936521.0,0.5794,2.2673,5.1332,-0.6125,-2.5174,0.3826
2936531.0,0.7015,2.1332,5.7964,-0.5811,-2.1306,0.4528
2936541.0,0.6369,1.9489,7.3095,-0.4007,-1.7687,0.5374
2936551.0,0.6608,1.6879,8.6239,-0.1985,-1.6384,0.622
2936561.0,0.7829,1.4581,9.2847,-0.0585,-1.698,0.6896
2936571.0,1.0343,1.3838,9.232,-0.0532,-1.9034,0.7221
2936581.0,1.1301,1.5897,8.1427,-0.1506,-2.1726,0.7263
2936591.0,1.4988,1.6999,6.9336,-0.3054,-2.3626,0.7301
2936601.0,1.98,1.8507,5.6862,-0.3496,-2.3466,0.7545
2936611.0,2.3176,1.9776,5.1739,-0.2953,-2.1439,0.7939
2936621.0,2.5115,2.1979,4.7621,-0.1756,-1.88,0.8615
2936631.0,2.909,1.8579,4.9297,-0.1399,-1.6437,0.9456
2936641.0,3.2968,1.1995,5.5091,-0.1383,-1.4527,1.0153
2936651.0,3.4117,0.6991,5.8227,-0.141,-1.3548,1.0488
2936661.0,3.5099,0.1772,5.7964,-0.2102,-1.3995,1.0477
2936671.0,3.6871,-0.1341,5.6024,-0.2437,-1.4521,1.0227
2936681.0,3.7924,-0.1077,5.2241,-0.1799,-1.4516,0.9972
2936691.0,3.9792,0.1077,4.3718,-0.1032,-1.5016,0.9865
2936701.0,4.4963,0.0311,2.9808,-0.0569,-1.5628,0.9993
2936711.0,5.1882,-0.2035,1.2809,0.0399,-1.4724,1.0238
2936721.0,5.5905,-0.5363,-0.1293,0.1543,-1.1946,1.0382
2936731.0,5.6982,-0.747,-1.1827,0.1799,-0.8572,1.0211
2936741.0,5.6934,-0.9864,-1.8028,0.0915,-0.547,0.9812
2936751.0,5.679,-1.2641,-2.0662,-0.0309,-0.2735,0.9275
2936761.0,5.3271,-1.257,-2.7198,-0.0851,-0.0261,0.8759
2936771.0,4.6687,-0.7685,-4.6735,-0.2501,0.1149,0.8338
2936781.0,4.549,-0.2586,-7.944,-0.7354,0.1607,0.8093
2936791.0,4.5107,-0.3663,-10.8338,-1.4686,0.3384,0.8221
2936801.0,4.4125,-1.075,-13.1178,-1.9779,0.8477,0.8881
2936811.0,3.3758,-1.9752,-14.4035,-1.823,1.8305,0.9951
2936821.0,0.8356,-2.9928,-14.3101,-0.7439,3.414,1.1212
2936831.0,-2.4086,-3.9816,-13.2974,1.0371,5.3866,1.201
2936841.0,-6.4284,-5.0494,-9.7588,2.8745,7.4331,1.1095
2936851.0,-10.6686,-6.0118,-4.8722,4.6597,9.4439,0.8008
2936861.0,-15.4378,-5.7868,3.1412,6.0405,11.0882,0.215
2936871.0,-19.3451,-3.6152,12.7108,6.8717,11.9752,-0.5811
2936881.0,-20.9205,1.3024,23.1471,6.8025,11.873,-1.4484
2936891.0,-22.369,7.3598,34.7375,5.6915,10.6699,-2.1221
2936901.0,-21.4664,12.2128,41.9129,3.8823,8.0269,-2.402
2936911.0,-18.8017,14.449,44.0485,2.0045,5.013,-2.3195
2936921.0,-17.2143,15.3971,43.5242,0.7066,2.6068,-1.9885
2936931.0,-15.8376,15.5958,39.9975,-0.0016,0.6258,-1.508
2936941.0,-14.5831,14.4083,34.5723,-0.5438,-1.0408,-0.9786
2936951.0,-13.149,11.6765,29.0848,-0.9301,-2.2599,-0.4943
2936961.0,-11.2001,9.1339,23.1902,-0.8673,-2.8505,-0.1064
2936971.0,-9.4667,6.9384,18.4737,-0.6545,-2.8569,0.1373
2936981.0,-8.0397,5.2505,15.3205,-0.5843,-2.5946,0.2267
2936991.0,-7.039,3.8954,14.3939,-0.7269,-2.2993,0.1852
2937001.0,-6.6104,2.8802,14.8752,-0.8386,-2.055,0.0782
2937011.0,-6.45,2.5091,15.4402,-0.8163,-2.0066,-0.042
2937021.0,-6.2297,2.4157,15.6293,-0.7678,-2.1731,-0.1458
2937031.0,-5.7964,2.4732,15.536,-0.6572,-2.411,-0.2102
2937041.0,-5.5186,2.8084,14.279,-0.5353,-2.7196,-0.2448
2937051.0,-4.956,2.9329,13.0197,-0.5608,-3.0543,-0.2698
2937061.0,-4.2521,3.1963,11.248,-0.5768,-3.2778,-0.2708
2937071.0,-3.5769,3.2178,9.7157,-0.6524,-3.3959,-0.2549
2937081.0,-2.8132,3.0191,8.588,-0.7327,-3.4236,-0.2299
2937091.0,-2.2841,2.8754,7.774,-0.6949,-3.2964,-0.1862
2937101.0,-1.8435,2.806,6.9408,-0.6513,-3.149,-0.1368
2937111.0,-1.4245,2.5857,6.3853,-0.7056,-3.0479,-0.0915
2937121.0,-0.6919,1.9106,6.3279,-0.7136,-2.8686,-0.0404
2937131.0,-0.2274,1.3575,6.4189,-0.6337,-2.6302,-0.0101
2937141.0,0.1053,0.8188,7.015,-0.5837,-2.461,-0.0192
2937151.0,0.3903,0.6321,7.58,-0.5209,-2.3823,-0.0532
2937161.0,0.6488,0.6105,7.944,-0.4076,-2.3557,-0.0809
2937171.0,0.8739,0.7111,7.8937,-0.2735,-2.3945,-0.091
2937181.0,1.2067,0.838,7.4436,-0.1639,-2.4626,-0.0857
2937191.0,1.4892,1.142,6.3398,-0.1479,-2.5483,-0.0788
2937201.0,1.9393,1.3791,4.9057,-0.3427,-2.6776,-0.0819
2937211.0,2.4995,1.312,3.4069,-0.6433,-2.7505,-0.0867
2937221.0,2.9688,0.9792,2.2841,-0.9195,-2.6813,-0.0905
2937231.0,3.644,0.6201,1.0367,-1.0855,-2.5185,-0.099
2937241.0,4.1803,0.2203,0.3472,-1.1616,-2.2609,-0.1197
2937251.0,4.7238,0.0048,-0.182,-1.0797,-1.9257,-0.1368
2937261.0,4.7166,0.0359,-0.9673,-0.9605,-1.615,-0.149
2937271.0,4.9943,0.0048,-2.2482,-0.9961,-1.441,-0.1671
2937281.0,5.3654,0.0622,-4.0558,-1.1323,-1.2638,-0.2038
2937291.0,5.3774,0.5531,-7.1658,-1.3478,-0.9956,-0.2341
2937301.0,5.7389,0.5986,-10.1323,-1.9268,-0.7178,-0.273
2937311.0,5.5043,0.589,-13.0125,-2.5839,-0.2618,-0.3001
2937321.0,4.7477,0.5052,-15.536,-3.1123,0.4049,-0.282
2937331.0,3.8571,0.1724,-17.7793,-3.3608,1.2499,-0.1937
2937341.0,2.2194,-0.2897,-19.2733,-2.9569,2.5307,-0.0176
2937351.0,0.0551,-0.7709,-19.7857,-1.8321,4.275,0.2033
2937361.0,-3.8092,-1.2354,-16.7307,-0.3331,6.3774,0.373
2937371.0,-8.928,-0.996,-10.9152,1.2968,8.3659,0.4417
2937381.0,-13.939,-0.6704,-3.4477,2.8612,9.9016,0.4129
2937391.0,-17.6309,-0.2466,4.2497,4.4485,11.0871,0.299
2937401.0,-20.2478,1.549,13.623,5.6074,11.8326,0.0202
2937411.0,-21.4401,5.691,23.0011,5.8293,11.6921,-0.4097
2937421.0,-21.0762,10.7715,33.5332,4.7959,10.6226,-0.7982
2937431.0,-20.7338,14.1378,42.8155,2.9138,8.5207,-0.9099
2937441.0,-18.6293,13.872,47.7643,0.9184,5.5483,-0.7519
2937451.0,-16.8743,12.4858,45.9016,-0.3102,2.6999,-0.4268
2937461.0,-15.196,10.0987,39.739,-0.9839,0.2767,-0.0681
2937471.0,-13.3333,7.6207,30.9475,-1.1994,-1.4096,0.2474
2937481.0,-11.4658,5.0518,23.8462,-1.1377,-2.0971,0.4629
2937491.0,-9.7181,2.8156,18.9166,-0.7508,-1.9901,0.5726
2937501.0,-8.6407,1.2689,16.3428,-0.3789,-1.566,0.538
2937511.0,-7.9487,0.589,15.6126,-0.2139,-1.2137,0.3666
2937521.0,-7.3789,0.8499,15.8903,-0.1586,-0.9924,0.1304
2937531.0,-7.3358,1.81,17.03,-0.132,-0.886,-0.0772
2937541.0,-7.434,3.0574,17.8703,-0.1181,-1.0158,-0.1916
2937551.0,-7.331,3.9935,18.3348,-0.191,-1.376,-0.2107
2937561.0,-7.2137,4.5298,18.33,-0.2379,-1.7953,-0.1405
2937571.0,-7.1371,4.47,17.9206,-0.2219,-2.2083,-0.0011
2937581.0,-6.8642,3.9169,17.0443,-0.1564,-2.6377,0.157
2937591.0,-6.426,3.2657,15.694,-0.0431,-3.0171,0.2937
2937601.0,-6.031,2.7629,13.951,0.0644,-3.3092,0.3895
2937611.0,-5.4851,2.2529,12.1147,0.1038,-3.521,0.4438
2937621.0,-4.6759,1.9944,10.0509,0.0144,-3.6567,0.4422
2937631.0,-4.0414,1.8531,8.5904,-0.2602,-3.7035,0.3842
2937641.0,-3.5554,1.8004,8.1092,-0.514,-3.6003,0.3214
2937651.0,-3.2154,1.7741,8.4348,-0.6375,-3.4268,0.2831
2937661.0,-2.9999,1.7214,9.1722,-0.6263,-3.314,0.2841
2937671.0,-2.8012,1.6544,9.4451,-0.5199,-3.3395,0.3225
2937681.0,-2.2266,1.1732,9.4786,-0.4017,-3.4619,0.3842
2937691.0,-1.5275,0.7398,8.3246,-0.306,-3.6258,0.422
2937701.0,-0.8643,0.5387,6.7229,-0.4592,-3.8568,0.3911
2937711.0,0.0,0.5555,4.7453,-0.7785,-4.0441,0.3092
2937721.0,0.8547,0.6895,3.0311,-1.1302,-4.0563,0.215
2937731.0,1.5036,0.7039,1.8938,-1.4255,-3.8972,0.1511
2937741.0,2.2482,0.4764,1.6376,-1.5841,-3.6402,0.1229
2937751.0,2.8826,0.0862,1.324,-1.5123,-3.3512,0.1309
2937761.0,3.6895,-0.3352,0.7877,-1.2664,-3.0698,0.1554
2937771.0,3.9313,-0.5291,-0.3998,-0.9727,-2.7808,0.1777
2937781.0,4.4939,-0.6033,-2.1883,-0.8439,-2.5281,0.1836
2937791.0,5.2337,-0.6033,-4.4173,-1.0248,-2.2945,0.1495
2937801.0,5.8371,-0.6776,-6.7397,-1.5516,-2.0673,0.0766
2937811.0,6.4787,-1.0415,-8.4922,-2.2162,-1.756,-0.0144
2937821.0,6.7181,-1.4389,-9.0501,-2.6095,-1.2031,-0.099
2937831.0,6.4931,-1.4724,-8.8681,-2.4701,-0.4613,-0.1474
2937841.0,5.703,-1.0989,-8.6742,-1.9326,0.2671,-0.1495
2937851.0,4.7453,-0.407,-9.4068,-1.2563,0.8359,-0.099
2937861.0,4.0199,0.2921,-11.5736,-0.6896,1.301,-0.0149
2937871.0,3.4931,0.8021,-14.303,-0.3086,1.8427,0.0819
2937881.0,2.3008,1.324,-16.8073,0.0974,2.7404,0.191
2937891.0,-0.0622,2.0638,-18.0259,0.7434,4.1473,0.3219
2937901.0,-3.5793,2.8419,-17.3699,1.4229,5.7686,0.4661
2937911.0,-7.7907,3.1125,-14.37,2.0236,7.4278,0.6135
2937921.0,-12.5648,2.6001,-8.4204,2.7755,9.1156,0.7583
2937931.0,-17.7339,1.2378,-0.431,3.7998,10.621,0.8551
2937941.0,-20.9157,-0.3974,8.9328,5.0476,11.807,0.7859
2937951.0,-23.456,-0.2059,19.0052,5.9506,12.3503,0.3927
2937961.0,-23.5302,2.4349,29.9443,5.8341,11.8581,-0.274
2937971.0,-23.5877,6.5721,41.3,4.8465,10.3049,-0.9227
2937981.0,-22.4792,10.7811,47.252,3.4625,7.6576,-1.3255
2937991.0,-20.6931,13.6374,49.1027,1.8597,4.7842,-1.4803
2938001.0,-20.3555,15.1601,47.896,0.3911,2.1348,-1.3947
2938011.0,-18.9501,14.3269,43.9958,-0.6678,-0.2714,-1.1025
2938021.0,-17.5016,12.8162,37.1532,-1.1504,-2.1279,-0.7386
2938031.0,-15.5192,11.3222,29.7934,-1.3425,-3.3571,-0.4097
2938041.0,-13.5751,10.2424,23.3195,-1.3425,-3.9312,-0.125
2938051.0,-11.9399,9.244,18.4449,-1.2478,-4.0089,0.1399
2938061.0,-10.5512,8.0732,15.3827,-1.1435,-3.8568,0.3826
2938071.0,-9.2057,6.6846,13.3716,-1.0451,-3.67,0.5885
2938081.0,-8.0732,5.2337,12.05,-0.9881,-3.5322,0.7343
2938091.0,-7.0677,3.7613,11.0828,-0.953,-3.4369,0.8083
2938101.0,-6.0573,2.5355,10.0724,-0.9073,-3.3816,0.8147
2938111.0,-5.0182,1.3599,9.402,-0.87,-3.3406,0.763
2938121.0,-4.2497,0.7757,8.5138,-0.7886,-3.281,0.6651
2938131.0,-3.5291,0.4717,7.9966,-0.7423,-3.2177,0.539
2938141.0,-2.9329,0.3998,7.4244,-0.6657,-3.132,0.4225
2938151.0,-2.2913,0.589,6.7445,-0.5401,-3.0107,0.3246
2938161.0,-1.7286,0.8906,5.9352,-0.4672,-2.8841,0.2538
2938171.0,-1.0726,0.8978,5.6479,-0.4475,-2.6909,0.2166
2938181.0,-0.5842,0.8859,5.6743,-0.3778,-2.403,0.207
2938191.0,-0.5411,0.7949,6.2393,-0.3443,-2.1173,0.2134
2938201.0,-0.3232,0.5818,7.0485,-0.3586,-1.9262,0.2325
2938211.0,-0.1628,0.2562,7.9009,-0.4289,-1.8512,0.2395
2938221.0,-0.1006,-0.0287,8.9759,-0.4417,-1.84,0.2347
2938231.0,-0.0479,-0.1173,9.5792,-0.3054,-1.847,0.24
2938241.0,0.1293,-0.4046,9.9144,-0.1352,-1.8933,0.2485
2938251.0,0.5243,-0.5004,9.8737,-0.0234,-2.0007,0.2272
2938261.0,1.0151,-0.4118,9.7229,-0.0351,-2.1497,0.1719
2938271.0,1.166,-0.0766,8.7412,-0.1815,-2.3456,0.1006
2938281.0,1.4461,0.0646,7.9871,-0.5241,-2.5776,0.0202
2938291.0,1.6735,0.2251,7.1539,-0.8024,-2.7249,-0.0383
2938301.0,2.0518,0.3184,6.3303,-0.9014,-2.7414,-0.0628
2938311.0,2.4445,0.4166,5.5617,-0.8838,-2.6685,-0.0596
2938321.0,2.6767,0.7207,4.7214,-0.8721,-2.6063,-0.0468
2938331.0,2.9904,0.8404,4.2186,-0.9147,-2.5754,-0.0138
2938341.0,3.0478,0.893,3.4333,-0.8556,-2.5078,0.0596
2938351.0,3.8068,0.6129,2.5067,-0.7588,-2.4658,0.1623
2938361.0,4.0821,0.2274,0.5124,-0.6981,-2.4318,0.2559
2938371.0,4.7429,-0.3112,-1.9273,-0.795,-2.3605,0.3001
2938381.0,5.351,-0.68,-4.9009,-1.0919,-2.2157,0.2799
2938391.0,5.9687,-1.3048,-7.0701,-1.5399,-1.9119,0.2033
2938401.0,6.2369,-1.6352,-8.7676,-1.8491,-1.3846,0.1027
2938411.0,5.9209,-1.8244,-9.7133,-1.9736,-0.7615,0.0011
2938421.0,5.7916,-1.5945,-10.7428,-1.8427,-0.1144,-0.0814
2938431.0,5.0374,-0.8092,-12.4427,-1.5357,0.5773,-0.1213
2938441.0,4.8602,-0.2298,-14.3293,-1.2457,1.2696,-0.1155
2938451.0,3.6943,0.6991,-15.4665,-0.5875,2.3668,-0.0623
2938461.0,1.0247,2.1284,-15.7467,0.564,3.9302,0.0649
2938471.0,-1.4868,2.4612,-14.5352,1.7315,5.5994,0.2395
2938481.0,-4.7764,2.1284,-11.6095,2.6377,7.2559,0.3533
2938491.0,-8.4946,1.0175,-5.5857,3.1118,8.7426,0.3549
2938501.0,-11.7364,-0.5794,3.4572,3.4156,9.926,0.2341
2938511.0,-14.9614,-1.6185,13.7667,3.6668,10.4879,-0.0575
2938521.0,-16.2327,-0.5267,23.4177,3.7163,10.2112,-0.5247
2938531.0,-16.6158,2.2889,31.3569,3.497,9.1587,-1.0062
2938541.0,-16.1848,5.6096,36.241,3.0187,7.4469,-1.3388
2938551.0,-15.2966,8.6287,37.0455,2.3264,5.4829,-1.4846
2938561.0,-14.1785,10.5943,35.9896,1.4463,3.7131,-1.4729
2938571.0,-13.4339,11.7914,34.6273,0.6274,2.3541,-1.3282
2938581.0,-13.1561,12.1362,32.5109,-0.1096,1.151,-1.1031
2938591.0,-12.4403,11.3461,30.0855,-0.6588,0.1527,-0.8109
2938601.0,-11.8705,10.4004,27.8972,-0.7662,-0.4502,-0.4784
2938611.0,-11.1115,9.1698,25.5629,-0.5465,-0.8083,-0.1336
2938621.0,-10.0197,7.5872,23.2812,-0.3065,-1.052,0.1639
2938631.0,-9.0429,5.7581,21.8351,-0.2703,-1.2372,0.3437
2938641.0,-8.3486,4.1611,21.1456,-0.39,-1.4889,0.3884
2938651.0,-7.8003,3.0335,20.3531,-0.5507,-1.8587,0.3352
2938661.0,-7.3837,2.4325,19.2781,-0.7231,-2.2918,0.2251
2938671.0,-6.8738,2.2122,18.0283,-0.8508,-2.6957,0.0968
2938681.0,-6.5386,2.5115,16.4434,-0.9025,-3.0357,-0.0117
2938691.0,-6.0597,3.1508,14.5041,-1.0126,-3.3614,-0.0899
2938701.0,-5.4827,3.5889,12.8712,-1.1579,-3.5848,-0.107
2938711.0,-5.0996,3.6919,11.7483,-1.2052,-3.6519,-0.0495
2938721.0,-4.5993,3.3926,10.8912,-1.1041,-3.6434,0.0681
2938731.0,-4.0845,2.8132,10.0628,-0.9104,-3.6189,0.2123
2938741.0,-3.5769,1.9776,9.1818,-0.6923,-3.5593,0.3448
2938751.0,-2.8922,1.0008,8.8059,-0.5028,-3.4476,0.4385
2938761.0,-2.3463,0.2203,8.5186,-0.3698,-3.3614,0.4725
2938771.0,-1.8675,-0.577,8.4491,-0.4001,-3.3704,0.4395
2938781.0,-1.4365,-1.0056,8.078,-0.5321,-3.471,0.3475
2938791.0,-1.008,-1.2115,7.6806,-0.7545,-3.6221,0.2091
2938801.0,-0.5339,-1.0582,7.0006,-0.911,-3.7498,0.0665
2938811.0,-0.0527,-0.6728,6.3207,-0.9578,-3.794,-0.0404
2938821.0,0.4405,-0.2155,5.3486,-0.9035,-3.7839,-0.0952
2938831.0,0.9912,0.1748,4.0342,-0.8461,-3.7626,-0.1101
2938841.0,1.7166,0.4046,2.727,-0.8322,-3.6902,-0.0979
2938851.0,2.3894,0.3472,1.6448,-0.8322,-3.5061,-0.0676
2938861.0,3.0335,0.0335,0.9888,-0.8365,-3.248,-0.0378
2938871.0,3.6176,-0.1652,0.5483,-0.8056,-2.9527,-0.0234
2938881.0,4.051,-0.5339,0.5555,-0.7274,-2.6329,-0.016
2938891.0,4.5059,-0.7207,0.4525,-0.5374,-2.3062,-0.0101
2938901.0,4.8315,-0.8452,0.3448,-0.3262,-2.0087,-0.0128
2938911.0,5.0135,-0.7829,0.1341,-0.1266,-1.7368,-0.0261
2938921.0,5.1356,-0.4381,-0.1987,0.0223,-1.4958,-0.0367
2938931.0,5.1284,-0.2346,-0.5602,-0.0021,-1.3521,-0.0468
2938941.0,5.3534,-0.0886,-1.1516,-0.141,-1.2877,-0.0564
2938951.0,5.4253,0.0503,-2.1213,-0.3257,-1.2228,-0.0686
2938961.0,5.4492,0.2921,-3.7852,-0.564,-1.1552,-0.0793
2938971.0,5.8227,0.4956,-6.541,-0.9222,-1.0743,-0.0803
2938981.0,6.1794,0.3783,-9.323,-1.4011,-0.8402,-0.0798
2938991.0,6.2273,0.1628,-11.2863,-1.6932,-0.2618,-0.0729
2939001.0,5.6312,0.5195,-12.572,-1.6001,0.6173,-0.0553
2939011.0,4.8195,1.3623,-13.611,-1.2861,1.5495,-0.0053
2939021.0,4.1276,2.6193,-15.7155,-0.9355,2.4387,0.1054
2939031.0,2.9521,3.4381,-16.6708,-0.5922,3.5268,0.2879
2939041.0,0.0287,4.6735,-16.7235,0.2373,5.0774,0.5741
2939051.0,-4.5274,4.525,-14.1545,1.3633,6.8951,0.9418
2939061.0,-8.6526,2.9521,-9.9479,2.6159,8.716,1.2643
2939071.0,-13.113,0.9936,-4.4269,3.6716,10.3842,1.3744
2939081.0,-17.3987,-2.0686,5.77,4.3585,11.8113,1.2196
2939091.0,-20.0586,-3.3543,17.6405,4.7709,12.494,0.7428
2939101.0,-19.3715,-2.7605,30.574,4.466,11.9034,-0.0128
2939111.0,-19.338,0.7518,40.4476,3.8456,10.19,-0.7466
2939121.0,-17.5782,4.3598,44.6351,2.825,7.3916,-1.2707
2939131.0,-15.2559,8.2265,42.6575,1.7507,4.5996,-1.5591
2939141.0,-14.619,11.6334,39.8563,0.7263,2.6196,-1.59
2939151.0,-14.133,13.0628,37.0503,-0.165,1.1084,-1.3367
2939161.0,-13.5536,12.3277,33.7463,-0.8705,-0.2331,-0.9248
2939171.0,-12.4882,10.4507,29.9993,-1.1504,-1.2547,-0.4762
2939181.0,-11.2982,8.7173,25.9388,-0.8445,-1.7352,-0.0543
2939191.0,-10.0748,7.1682,22.46,-0.3421,-1.8581,0.2879
2939201.0,-8.8514,5.8969,19.508,0.0106,-1.8826,0.5146
2939211.0,-7.8482,4.6759,18.0403,0.0979,-1.848,0.6188
2939221.0,-7.0964,3.7302,17.2885,0.1006,-1.7975,0.6343
2939231.0,-6.6702,2.9928,17.0731,-0.0239,-1.8661,0.5821
2939241.0,-6.2082,2.3008,16.7977,-0.2623,-2.1205,0.4826
2939251.0,-5.5498,1.6305,16.3668,-0.5018,-2.4589,0.3602
2939261.0,-4.9847,1.3551,15.4953,-0.6561,-2.7936,0.2251
2939271.0,-4.5466,1.3958,14.3341,-0.7982,-3.1288,0.0873
2939281.0,-4.0534,1.7119,13.1418,-0.8743,-3.4039,-0.0213
2939291.0,-3.6009,2.296,11.3796,-0.8179,-3.5763,-0.067
2939301.0,-2.9209,2.5522,9.7683,-0.7732,-3.6631,-0.0601
2939311.0,-2.1548,2.6049,8.078,-0.6848,-3.62,-0.0117
2939321.0,-1.4724,2.3631,6.8043,-0.6311,-3.4539,0.0537
2939331.0,-0.8212,1.8531,5.9592,-0.6455,-3.24,0.1032
2939341.0,-0.4477,1.2019,6.1986,-0.6577,-2.9708,0.1224
2939351.0,-0.1676,0.5578,7.0581,-0.5257,-2.6643,0.1298
2939361.0,-0.0958,0.1891,8.1618,-0.248,-2.4153,0.125
2939371.0,0.0383,0.2682,8.9639,0.0005,-2.3743,0.1022
2939381.0,0.4118,0.7398,8.825,0.1697,-2.5047,0.0798
2939391.0,0.68,1.3479,7.8027,0.1453,-2.7297,0.066
2939401.0,1.2091,1.6855,6.3997,-0.1091,-2.9889,0.0617
2939411.0,1.81,1.8699,4.8985,-0.4385,-3.1506,0.0617
2939421.0,2.4181,1.9154,3.5003,-0.7306,-3.1911,0.0708
2939431.0,2.8946,1.9058,2.3894,-0.9498,-3.1187,0.0921
2939441.0,3.3184,1.8603,1.4389,-1.019,-2.9303,0.1399
2939451.0,3.8116,1.7406,0.9218,-0.9099,-2.6111,0.2224
2939461.0,4.0438,1.5419,0.5674,-0.6742,-2.2375,0.3283
2939471.0,4.2928,1.4126,0.3352,-0.4145,-1.9018,0.4395
2939481.0,4.537,1.1827,-0.1748,-0.2277,-1.6527,0.5428
2939491.0,4.7669,1.0151,-1.3719,-0.2128,-1.4963,0.6178
2939501.0,5.2098,0.5411,-2.6695,-0.4156,-1.3574,0.6593
2939511.0,5.6336,-0.0192,-4.5705,-0.762,-1.1882,0.6646
2939521.0,5.9376,-0.8116,-6.2082,-1.218,-0.9211,0.6226
2939531.0,6.1962,-1.6592,-7.6064,-1.5995,-0.4927,0.5438
2939541.0,6.1244,-2.4301,-8.1642,-1.7459,0.1463,0.4401
2939551.0,5.7221,-2.897,-8.078,-1.5719,0.9232,0.3241
2939561.0,4.9297,-2.7198,-7.9799,-1.1659,1.7134,0.2027
2939571.0,3.5865,-2.0135,-7.7452,-0.7221,2.4312,0.1
2939581.0,2.162,-1.1947,-7.92,-0.3241,3.0575,0.0442
2939591.0,1.5682,-0.2801,-9.1195,-0.0772,3.5503,0.0239
2939601.0,0.2251,0.2921,-9.6247,0.1618,4.2191,0.041
2939611.0,-2.6217,1.8651,-10.2759,0.8514,5.3249,0.1096
2939621.0,-6.4979,2.9904,-9.4092,1.6644,6.6386,0.2357
2939631.0,-10.3022,3.3016,-6.766,2.6606,8.136,0.4049
2939641.0,-14.3892,3.2298,-2.7485,3.6684,9.5844,0.5039
2939651.0,-17.7434,2.8706,3.5195,4.3628,10.7508,0.456
2939661.0,-20.6356,2.4708,12.2344,4.6884,11.5005,0.257
2939671.0,-22.0267,2.7246,22.1775,4.4894,11.4447,-0.108
2939681.0,-21.9261,4.2449,31.886,3.9206,10.5071,-0.564
2939691.0,-21.318,6.8043,39.6528,3.0001,8.7086,-0.9865
2939701.0,-20.2238,9.6462,43.5984,1.8709,6.3518,-1.2611
2939711.0,-19.3787,12.1003,44.2544,0.7019,3.9174,-1.3441
2939721.0,-18.6652,13.5584,42.114,-0.3757,1.6623,-1.2122
2939731.0,-17.7841,13.0747,38.6688,-1.2494,-0.273,-0.9088
2939741.0,-16.7283,11.7053,33.6337,-1.7075,-1.8007,-0.5247
2939751.0,-15.433,10.2256,28.2899,-1.7608,-2.7877,-0.1453
2939761.0,-13.9151,8.7963,23.5278,-1.5139,-3.2507,0.2112
2939771.0,-12.3373,7.2257,19.9437,-1.1621,-3.3204,0.5252
2939781.0,-10.9654,5.6,17.8464,-0.8269,-3.2129,0.7662
2939791.0,-9.7875,4.2449,16.9557,-0.5768,-3.1129,0.9094
2939801.0,-8.6886,3.3016,16.5032,-0.415,-3.1379,0.9711
2939811.0,-7.7069,2.4397,16.1824,-0.3954,-3.314,0.9748
2939821.0,-6.845,1.6664,16.0819,-0.4848,-3.5965,0.9253
2939831.0,-6.2489,1.1444,15.2798,-0.6247,-3.9887,0.8338
2939841.0,-5.9256,0.7518,13.7571,-0.9365,-4.5437,0.688
2939851.0,-5.2457,0.6895,11.3509,-1.2914,-5.0795,0.5087
2939861.0,-4.4484,0.8882,8.8538,-1.5218,-5.3392,0.3421
2939871.0,-3.7876,1.0223,6.9719,-1.5942,-5.3264,0.2293
2939881.0,-2.8922,1.0965,5.4324,-1.4644,-5.1296,0.1745
2939891.0,-2.0207,1.1732,4.1037,-1.2084,-4.8071,0.166
2939901.0,-1.0846,1.2043,3.0167,-0.9839,-4.4591,0.183
2939911.0,-0.1772,0.9505,2.4732,-0.8487,-4.0978,0.2086
2939921.0,0.5986,0.7063,2.3415,-0.7391,-3.7221,0.2246
2939931.0,1.3527,0.3759,2.411,-0.6614,-3.4103,0.2187
2939941.0,2.2553,0.0359,2.3583,-0.5736,-3.1538,0.1889
2939951.0,2.7366,0.1891,2.0375,-0.4502,-2.8793,0.1405
2939961.0,3.201,0.4118,1.8986,-0.3672,-2.6063,0.0958
2939971.0,3.6799,0.6488,1.8196,-0.2384,-2.3056,0.0814
2939981.0,4.0725,1.0439,2.4493,0.0266,-1.905,0.1064
2939991.0,4.1611,1.719,2.8012,0.356,-1.5325,0.1777
2940001.0,4.0677,2.2577,3.2441,0.4518,-1.3654,0.2661
2940011.0,4.2569,2.4565,3.3686,0.3624,-1.3516,0.3698
2940021.0,4.5226,2.2529,3.2394,0.2182,-1.3436,0.4805
2940031.0,4.7621,1.8555,2.8371,0.0575,-1.3452,0.5646
2940041.0,5.0781,1.5299,2.2122,-0.0697,-1.3228,0.6098
2940051.0,5.2553,1.5179,1.5586,-0.0819,-1.1765,0.6407
2940061.0,5.1284,1.5251,1.5275,0.0096,-0.9296,0.6902
2940071.0,4.7669,1.6496,1.3527,0.1809,-0.705,0.7705
2940081.0,4.6424,1.5778,0.893,0.3198,-0.5656,0.8663
2940091.0,4.6064,1.6305,-0.6369,0.3182,-0.5087,0.9551
2940101.0,4.5969,1.4054,-3.0718,-0.0362,-0.5263,1.011
2940111.0,4.7597,1.1827,-6.9384,-0.837,-0.5901,1.0248
2940121.0,4.5777,0.1149,-10.0461,-2.1114,-0.5561,0.9833
2940131.0,4.1084,-0.8284,-12.3852,-3.2485,-0.248,0.9211
2940141.0,2.9688,-1.2402,-13.5368,-3.8019,0.3895,0.8897
2940151.0,1.9561,-1.3192,-14.1378,-3.4726,1.3266,0.9509
2940161.0,-0.4214,0.0096,-15.3133,-2.0864,2.7202,1.126
2940171.0,-4.0534,0.6895,-15.4618,-0.2879,4.3937,1.416
2940181.0,-6.8618,-0.0311,-14.777,1.6187,6.2635,1.7283
2940191.0,-10.2759,-2.4229,-12.6701,3.2102,8.2797,1.8672
2940201.0,-14.765,-5.6695,-7.0629,4.0297,10.1458,1.6219
2940211.0,-19.4361,-7.6806,1.2833,4.5655,11.7554,1.0078
2940221.0,-23.3291,-7.9057,14.4107,4.8507,12.7207,0.107
2940231.0,-24.7513,-4.3024,26.7145,5.0519,12.6414,-0.8572
2940241.0,-25.1487,1.0247,39.3846,4.6124,11.3393,-1.6815
2940251.0,-23.1519,7.5393,47.0772,3.8094,8.7942,-2.1433
2940261.0,-20.8032,12.6988,49.9,2.759,5.8687,-2.1449
2940271.0,-18.9477,15.0595,49.0021,1.5618,3.0123,-1.757
2940281.0,-17.1209,14.2718,44.7237,0.4566,0.323,-1.1728
2940291.0,-15.5647,11.631,37.8882,-0.1532,-1.7645,-0.5816
2940301.0,-13.8912,8.7939,30.2364,-0.1399,-2.9554,-0.0899
2940311.0,-11.8944,6.4093,22.9388,0.1878,-3.4045,0.249
2940321.0,-9.6678,4.5753,17.176,0.4188,-3.3252,0.4055
2940331.0,-8.0062,3.1795,14.1138,0.3874,-2.9021,0.3847
2940341.0,-7.0126,2.4588,13.5033,0.1463,-2.4254,0.2347
2940351.0,-6.5266,2.0303,14.4322,-0.1713,-2.1141,0.0319
2940361.0,-6.3614,2.0758,15.9789,-0.4347,-2.0513,-0.1666
2940371.0,-6.3949,2.5905,16.9533,-0.5768,-2.2631,-0.3108
2940381.0,-6.0262,3.0526,17.1832,-0.6204,-2.6627,-0.3704
2940391.0,-5.6312,3.5195,16.2566,-0.5561,-3.0852,-0.3565
2940401.0,-5.1978,3.8188,14.552,-0.5337,-3.4997,-0.2985
2940411.0,-4.4843,3.7397,12.287,-0.6247,-3.8706,-0.2219
2940421.0,-3.6607,3.4979,9.754,-0.8014,-4.1159,-0.1623
2940431.0,-2.794,3.201,7.6662,-0.9908,-4.1526,-0.1219
2940441.0,-2.2051,2.9497,6.3638,-1.0488,-3.9584,-0.0761
2940451.0,-1.4772,2.6767,5.3175,-0.9748,-3.6535,-0.008
2940461.0,-0.6464,2.1883,5.0254,-0.8902,-3.2954,0.0665
2940471.0,-0.0527,1.5131,5.4396,-0.8077,-2.9373,0.1272
2940481.0,0.2059,0.8547,6.0908,-0.754,-2.7154,0.1527
2940491.0,0.5531,0.158,6.4069,-0.7189,-2.6483,0.1463
2940501.0,1.0032,-0.486,6.1555,-0.6423,-2.6169,0.1091
2940511.0,1.4126,-0.9313,5.4253,-0.5465,-2.5488,0.0388
2940521.0,1.8555,-1.0032,4.6208,-0.5497,-2.4536,-0.0734
2940531.0,2.3463,-0.6823,4.0318,-0.6401,-2.3413,-0.2107
2940541.0,2.5809,-0.237,3.8786,-0.6694,-2.1311,-0.315
2940551.0,2.7892,0.1365,4.3694,-0.5199,-1.8071,-0.3512
2940561.0,2.9113,0.51,4.9656,-0.2357,-1.4931,-0.3235
2940571.0,2.9305,0.7207,5.2098,-0.058,-1.3478,-0.2703
2940581.0,3.1939,0.577,5.351,-0.0106,-1.3212,-0.2155
2940591.0,3.4333,0.3855,5.0829,0.0968,-1.2451,-0.1575
2940601.0,3.4884,0.34,4.7956,0.1969,-1.1297,-0.1176
2940611.0,3.699,0.4717,4.5394,0.2597,-1.0131,-0.0968
2940621.0,3.7373,0.7901,4.1061,0.2873,-0.8865,-0.0729
2940631.0,3.8164,0.7015,3.9097,0.2171,-0.7748,-0.0335
2940641.0,4.0606,0.3615,3.4716,0.0798,-0.7189,0.0027
2940651.0,4.2425,-0.0311,2.6528,-0.249,-0.7822,-0.0059
2940661.0,4.3024,-0.5052,1.2186,-0.7476,-0.9381,-0.0575
2940671.0,4.4939,-0.9098,-1.3886,-1.3239,-1.1031,-0.1378
2940681.0,4.7669,-1.336,-4.6256,-1.9656,-1.144,-0.2368
2940691.0,4.8937,-1.6233,-7.8961,-2.5382,-0.9003,-0.34
2940701.0,4.8746,-1.822,-9.8785,-2.8729,-0.3315,-0.4278
2940711.0,4.5825,-1.4916,-11.3916,-2.6696,0.5236,-0.4507
2940721.0,3.7134,-0.7638,-12.5504,-1.9326,1.6836,-0.389
2940731.0,1.6783,0.2179,-13.0963,-0.9243,3.0357,-0.2559
2940741.0,-0.9984,0.4357,-12.2751,0.2027,4.5591,-0.0543
2940751.0,-3.8211,-0.4118,-9.754,1.2962,6.1645,0.133
2940761.0,-6.8378,-2.2098,-4.288,2.1966,7.681,0.1751
2940771.0,-10.1059,-3.7254,3.7397,3.0772,8.9257,0.0133
2940781.0,-12.7443,-3.7254,12.8377,4.0228,9.6429,-0.3501
2940791.0,-13.4315,-1.2737,21.1145,4.722,9.6142,-0.8556
2940801.0,-14.0731,3.2226,28.7328,4.7539,8.8634,-1.3537
2940811.0,-14.0228,8.102,34.6656,3.9589,7.2139,-1.6942
2940821.0,-12.9646,11.9926,37.2298,2.6872,5.045,-1.7852
2940831.0,-12.6318,14.5017,37.589,1.4463,3.0719,-1.608
2940841.0,-12.3134,14.868,36.5906,0.4507,1.3069,-1.2207
2940851.0,-11.6071,13.4051,33.7942,-0.0798,-0.1979,-0.7253
2940861.0,-10.6542,11.6119,29.4559,-0.1314,-1.2914,-0.2565
2940871.0,-9.5744,10.0437,24.5501,0.067,-1.9433,0.1261
2940881.0,-8.2193,8.4898,20.1472,0.2661,-2.1822,0.4124
2940891.0,-7.1227,7.1299,17.1161,0.3012,-2.1157,0.5773
2940901.0,-6.4236,5.9927,15.7586,0.1421,-1.9481,0.6236
2940911.0,-5.9017,5.035,15.9047,-0.1197,-1.8427,0.5922
2940921.0,-5.5689,4.4724,16.3979,-0.3294,-1.8975,0.53
2940931.0,-5.3558,4.1324,16.702,-0.4544,-2.1167,0.4746
2940941.0,-4.9344,4.0749,16.2255,-0.4794,-2.4483,0.4491
2940951.0,-4.4819,4.0534,15.0811,-0.489,-2.8074,0.4464
2940961.0,-4.0318,4.1396,13.1202,-0.5603,-3.1549,0.455
2940971.0,-3.3327,4.027,11.1642,-0.7705,-3.4513,0.4624
2940981.0,-2.5426,3.7781,9.1794,-0.9754,-3.6008,0.4757
2940991.0,-1.9465,3.4237,7.7357,-1.1025,-3.5588,0.4943
2941001.0,-1.4054,2.9281,6.9911,-1.0903,-3.3731,0.5289
2941011.0,-0.9313,2.4972,6.4955,-0.9317,-3.1176,0.5736
2941021.0,-0.4549,1.9441,6.4787,-0.7402,-2.85,0.6173
2941031.0,-0.0383,1.3408,7.1012,-0.5279,-2.5818,0.6476
2941041.0,0.2131,1.0582,7.2042,-0.3581,-2.4387,0.654
2941051.0,0.7254,0.6273,7.2305,-0.3826,-2.4685,0.6236
2941061.0,1.0463,0.486,6.8091,-0.4331,-2.5142,0.5752
2941071.0,1.3001,0.2849,6.5434,-0.4874,-2.5068,0.5231
2941081.0,1.7382,0.2227,6.2417,-0.497,-2.4871,0.472
2941091.0,2.0806,0.2777,5.6743,-0.4895,-2.4749,0.423
2941101.0,2.4612,0.2562,5.1308,-0.4853,-2.4493,0.3842
2941112.0,3.1196,0.2011,4.4149,-0.4496,-2.3716,0.3523
2941121.0,3.4405,0.1772,3.644,-0.4454,-2.2732,0.3108
2941131.0,3.7469,0.2083,2.9449,-0.4581,-2.1582,0.2666
2941141.0,4.1228,0.2993,2.1332,-0.4443,-1.9944,0.2347
2941151.0,4.4317,0.3807,1.3982,-0.4071,-1.7714,0.2208
2941161.0,4.7381,0.5866,0.7302,-0.3629,-1.5123,0.2224
2941171.0,5.1308,0.7542,0.2969,-0.3453,-1.2537,0.241
2941181.0,5.3702,0.9457,-0.1844,-0.3528,-1.0126,0.2778
2941191.0,5.5282,0.9242,-1.0391,-0.4597,-0.8264,0.3225
2941201.0,5.6671,0.656,-2.2529,-0.6832,-0.6768,0.3613
2941211.0,5.8778,0.2059,-4.1994,-0.9823,-0.4805,0.3837
2941221.0,5.9711,-0.5626,-6.0956,-1.3867,-0.183,0.3704
2941231.0,5.6623,-1.2522,-7.2257,-1.7262,0.2996,0.3086
2941241.0,5.1643,-1.5778,-7.3358,-1.7624,0.986,0.2203
2941251.0,4.197,-1.0989,-7.0318,-1.4175,1.7586,0.1405
2941261.0,2.9616,0.0048,-7.2616,-0.9248,2.4376,0.1059
2941271.0,2.059,1.0989,-8.4707,-0.5832,2.9655,0.132
2941281.0,0.7135,1.9297,-9.6295,-0.3496,3.6019,0.2091
2941291.0,-1.3384,2.3224,-9.9503,0.1043,4.6453,0.3592
2941301.0,-4.1683,1.7406,-8.3007,0.7503,6.0129,0.5337
2941311.0,-7.2209,0.3711,-4.6807,1.416,7.3666,0.6391
2941321.0,-9.5744,-1.1779,0.5722,2.0135,8.4936,0.596
2941331.0,-12.9574,-2.3391,7.118,2.568,9.3386,0.373
2941341.0,-14.9949,-2.2889,13.963,3.0181,9.6749,-0.0101
2941351.0,-15.7347,-1.2426,21.2222,3.2932,9.5514,-0.4805
2941361.0,-16.6541,1.5969,27.6865,3.3896,9.0129,-0.9291
2941371.0,-16.496,5.1068,33.5547,2.9181,7.8205,-1.2973
2941381.0,-16.0052,8.4443,38.2378,2.0492,6.1757,-1.4825
2941391.0,-15.7108,10.8433,41.051,1.0413,4.25,-1.4479
2941401.0,-15.038,12.2918,40.9121,0.1623,2.1992,-1.2159
2941411.0,-14.6477,12.4211,38.324,-0.4379,0.3421,-0.821
2941421.0,-13.8098,11.1259,33.8349,-0.7295,-1.1978,-0.3437
2941431.0,-12.5624,9.232,28.2827,-0.7125,-2.2583,0.1112
2941441.0,-11.1091,7.1898,23.0729,-0.547,-2.7803,0.4683
2941451.0,-9.742,5.2481,19.1392,-0.3911,-2.8766,0.6955
2941461.0,-8.6263,3.4357,17.3125,-0.2746,-2.7196,0.7982
2941471.0,-7.8745,2.1237,16.678,-0.1676,-2.5568,0.7854
2941481.0,-7.2281,1.3934,16.5583,-0.1107,-2.5579,0.6875
2941491.0,-6.9504,1.1061,16.6541,-0.0841,-2.6914,0.5577
2941501.0,-6.5003,1.1325,16.259,-0.0713,-2.9415,0.4315
2941511.0,-6.0238,1.3479,15.2846,-0.1868,-3.3071,0.2975
2941521.0,-5.5186,1.6783,13.8385,-0.4406,-3.729,0.1644
2941531.0,-5.035,1.8651,12.299,-0.7098,-4.0813,0.0617
2941541.0,-4.4221,1.9082,10.5608,-0.8668,-4.291,-0.0005
2941551.0,-3.7972,1.8579,9.0668,-0.9152,-4.3463,-0.0319
2941561.0,-3.1747,1.6472,8.2863,-0.8104,-4.2489,-0.0271
2941571.0,-2.5953,1.549,7.4771,-0.5475,-4.0733,0.0096
2941581.0,-2.2505,1.5203,6.5098,-0.3326,-3.9355,0.0543
2941591.0,-1.5203,1.7238,5.2026,-0.3139,-3.8919,0.075
2941601.0,-0.4573,1.7549,4.1108,-0.4049,-3.7807,0.0921
2941611.0,0.2322,1.6999,3.1675,-0.4965,-3.5423,0.1208
2941621.0,0.8236,1.4796,2.6432,-0.6455,-3.2757,0.1341
2941631.0,1.3623,1.233,2.4181,-0.7646,-2.9889,0.1463
2941641.0,1.9058,0.7159,2.8898,-0.7998,-2.6547,0.1639
2941651.0,2.3942,0.1963,3.881,-0.6348,-2.2918,0.1878
2941661.0,2.7126,-0.0431,4.5921,-0.3102,-2.0119,0.2091
2941671.0,3.0263,0.0718,4.5107,-0.0346,-1.8938,0.2139
2941681.0,3.6559,0.3352,3.644,0.0516,-1.8837,0.2043
2941691.0,4.1444,0.4669,2.7892,-0.0745,-1.8624,0.1788
2941701.0,4.7262,0.6464,1.9417,-0.2506,-1.7581,0.1495
2941711.0,4.8267,0.7685,1.5969,-0.4135,-1.5649,0.1325
2941721.0,4.8507,0.814,1.6568,-0.4709,-1.3292,0.1415
2941731.0,4.8363,0.6847,1.6855,-0.3954,-1.0871,0.1889
2941741.0,4.8866,0.2849,1.5658,-0.3288,-0.9275,0.2384
2941751.0,5.0063,-0.2203,1.1564,-0.2948,-0.8253,0.2597
2941761.0,5.1715,-0.5004,0.4717,-0.2927,-0.7343,0.2389
2941771.0,5.4013,-0.6297,-0.7446,-0.3416,-0.6407,0.1836
2941781.0,5.5378,-0.4932,-2.5786,-0.4597,-0.5199,0.1059
2941791.0,5.6336,-0.3136,-4.8866,-0.7333,-0.3257,0.0154
2941801.0,5.703,-0.2131,-6.9312,-1.1212,0.0144,-0.0734
2941811.0,5.351,0.0024,-8.6,-1.5059,0.5225,-0.149
2941821.0,4.9249,0.2801,-9.7612,-1.7996,1.1361,-0.1852
2941831.0,4.0917,0.5746,-10.3046,-1.8853,1.8826,-0.1623
2941841.0,2.7629,1.4078,-10.3837,-1.5878,2.8298,-0.074
2941851.0,0.4142,2.6887,-9.8569,-0.9802,3.9078,0.0915
2941861.0,-2.4804,3.8188,-8.4156,-0.1256,5.0599,0.364
2941871.0,-5.6958,3.8618,-6.2728,0.9583,6.3146,0.7274
2941881.0,-8.0685,2.1739,-3.201,1.989,7.5166,1.0509
2941891.0,-10.7356,-0.067,0.3615,2.6771,8.4776,1.1547
2941901.0,-13.3884,-2.1979,5.9113,3.0474,9.23,0.9653
2941911.0,-15.4163,-3.1747,13.0005,3.3619,9.7456,0.5241
2941921.0,-16.4937,-2.2434,20.6021,3.7519,9.8867,-0.0612
2941931.0,-17.4537,1.0942,28.1127,3.9648,9.5328,-0.6763
2941941.0,-17.8416,5.5857,35.0104,3.5189,8.4026,-1.185
2941951.0,-17.6213,9.7013,40.6416,2.3998,6.5189,-1.4692
2941961.0,-16.7666,12.2439,43.6583,1.0621,4.2159,-1.4644
2941971.0,-16.192,13.0891,43.6487,-0.0846,1.9012,-1.2313
2941981.0,-15.4833,12.6462,40.6559,-0.7976,-0.2081,-0.8455
2941991.0,-14.8704,11.3725,35.1876,-1.0568,-1.8949,-0.3938
2942001.0,-13.7092,9.6798,29.1566,-0.9881,-3.008,0.0367
2942011.0,-12.0787,8.0206,23.116,-0.7173,-3.554,0.3986
2942021.0,-10.4172,6.5003,18.1265,-0.4949,-3.6434,0.6529
2942031.0,-8.9567,4.9919,15.3804,-0.422,-3.4428,0.7987
2942041.0,-7.8554,3.5985,14.2623,-0.3959,-3.1693,0.8578
2942051.0,-7.0605,2.4828,14.0444,-0.3884,-2.9889,0.837
2942061.0,-6.2704,1.7957,14.109,-0.373,-2.9511,0.7572
2942071.0,-5.77,1.5323,13.9893,-0.3932,-3.0602,0.6455
2942081.0,-5.3606,1.312,13.6685,-0.4938,-3.3172,0.5236
2942091.0,-4.7932,1.2881,12.5001,-0.5869,-3.653,0.4065
2942101.0,-4.0677,1.415,10.6255,-0.6827,-3.9557,0.298
2942111.0,-3.2465,1.549,8.6239,-0.7609,-4.0978,0.2118
2942121.0,-2.5187,1.6783,6.8594,-0.7817,-4.0435,0.1602
2942131.0,-1.731,1.6903,5.7365,-0.7678,-3.8488,0.1362
2942141.0,-0.8906,1.743,4.9009,-0.705,-3.5721,0.133
2942151.0,-0.2442,1.6975,4.7285,-0.6428,-3.2544,0.1453
2942161.0,0.2251,1.7334,4.561,-0.6066,-2.983,0.1618
2942171.0,0.644,1.6089,4.7142,-0.6923,-2.8154,0.1719
2942181.0,1.1253,1.3001,4.6878,-0.7806,-2.6978,0.183
2942191.0,1.5921,0.8906,4.6304,-0.7407,-2.5371,0.1958
2942201.0,1.9513,0.5794,4.561,-0.5763,-2.304,0.2038
2942211.0,2.3798,0.3136,4.7716,-0.3432,-2.0183,0.2059
2942221.0,2.5019,0.2897,5.0398,-0.1426,-1.7927,0.1958
2942231.0,2.7533,0.3232,5.3989,-0.0059,-1.641,0.1788
2942241.0,2.9951,0.644,5.4875,0.091,-1.5383,0.158
2942251.0,3.1603,0.9792,5.454,0.0921,-1.4867,0.1447
2942261.0,3.4141,1.3479,5.035,0.0101,-1.4771,0.1463
2942271.0,3.7373,1.4868,4.5873,-0.1415,-1.467,0.1634
2942281.0,3.9504,1.5251,4.1779,-0.2634,-1.3915,0.1985
2942291.0,4.0199,1.3144,4.221,-0.2905,-1.2329,0.2538
2942301.0,4.2401,0.9625,4.209,-0.1852,-1.0477,0.3203
2942311.0,4.1132,0.4022,4.3503,-0.0803,-0.8971,0.3714
2942321.0,4.4436,0.0694,4.1372,-0.0223,-0.8349,0.3831
2942331.0,4.4436,-0.1197,3.6703,-0.1054,-0.8828,0.3549
2942341.0,4.7166,-0.1437,2.1308,-0.2932,-1.003,0.3076
2942351.0,5.1475,-0.2059,-0.5148,-0.68,-1.1228,0.2464
2942361.0,5.7724,-0.6967,-3.4046,-1.3617,-1.1786,0.1596
2942371.0,6.3734,-1.312,-5.9975,-2.1088,-1.0275,0.05
2942381.0,6.2584,-1.8244,-7.6375,-2.652,-0.5933,-0.0686
2942391.0,5.8155,-1.8196,-7.999,-2.6781,0.1256,-0.1564
2942401.0,4.7429,-1.2067,-8.0661,-2.0641,1.0286,-0.1602
2942411.0,3.8906,-0.3376,-8.9759,-1.0914,1.9396,-0.0766
2942421.0,2.9784,-0.1053,-9.9479,-0.1304,2.9043,0.0633
2942431.0,1.5802,-0.577,-10.228,0.7072,4.0568,0.1932
2942441.0,-0.7901,-1.3886,-8.576,1.3085,5.3163,0.2293
2942451.0,-3.4213,-2.3631,-4.9943,1.7384,6.4934,0.1538
2942461.0,-6.2728,-3.146,0.0335,2.0955,7.4427,-0.0319
2942471.0,-8.7939,-3.6057,5.6168,2.419,8.029,-0.3139
2942481.0,-10.7356,-3.1532,11.3509,2.8016,8.3153,-0.6747
2942491.0,-12.1769,-1.3743,17.0946,3.2001,8.2866,-1.0738
2942501.0,-13.0987,1.8387,22.2182,3.6088,7.9822,-1.4165
2942511.0,-13.544,5.6264,26.3458,3.6961,7.3192,-1.6267
2942521.0,-13.6469,9.0573,29.8868,3.132,6.2364,-1.6831
2942531.0,-13.9558,11.2216,33.2076,2.1274,4.8683,-1.5639
2942541.0,-13.4674,11.6909,35.1924,1.1611,3.33,-1.2914
2942551.0,-12.7922,11.4299,34.9889,0.53,1.8693,-0.9562
2942561.0,-12.1889,10.5919,33.5476,0.1437,0.5933,-0.6284
2942571.0,-11.6286,9.7181,30.9451,-0.0601,-0.513,-0.3358
2942581.0,-10.7787,8.655,27.6482,-0.1368,-1.3803,-0.0862
2942591.0,-9.7851,7.6591,24.0498,-0.166,-1.9736,0.1075
2942601.0,-8.9064,6.7971,21.1935,-0.2794,-2.3456,0.2139
2942611.0,-8.1235,6.0885,18.9597,-0.4385,-2.5839,0.2586
2942621.0,-7.4699,5.6407,17.1114,-0.5869,-2.7553,0.2639
2942631.0,-6.7014,5.4612,15.5958,-0.7402,-2.8931,0.249
2942641.0,-6.1076,5.466,14.4059,-0.8886,-2.9985,0.2379
2942651.0,-5.6288,5.2601,13.7379,-1.0169,-3.0921,0.2575
2942661.0,-5.0949,4.9847,12.9957,-1.0068,-3.1714,0.315
2942671.0,-4.4843,4.3479,12.572,-0.8727,-3.1959,0.4028
2942681.0,-3.8116,3.6966,11.9878,-0.6284,-3.1943,0.4911
2942691.0,-3.1819,3.225,11.1139,-0.4268,-3.2336,0.5513
2942701.0,-2.4253,2.6719,10.2256,-0.3666,-3.3034,0.5768
2942711.0,-1.8483,2.2793,9.2703,-0.4028,-3.3379,0.5694
2942721.0,-1.6688,1.9393,8.6862,-0.5672,-3.3731,0.5236
2942731.0,-1.1971,1.7645,7.8745,-0.7615,-3.4481,0.4597
2942741.0,-0.6919,1.6616,7.1539,-0.9525,-3.496,0.3911
2942751.0,-0.182,1.5874,6.2489,-1.0525,-3.4444,0.3374
2942761.0,0.2586,1.3886,5.782,-1.1031,-3.3097,0.2969
2942771.0,0.747,1.0343,5.9089,-1.069,-3.1081,0.273
2942781.0,1.0415,0.8691,6.1052,-0.9456,-2.9335,0.2586
2942791.0,1.4174,0.6369,6.5242,-0.7684,-2.8266,0.2581
2942801.0,1.5969,0.6895,6.3015,-0.4624,-2.7404,0.2841
2942811.0,2.0063,0.7111,5.7461,-0.2203,-2.6978,0.3134
2942821.0,2.4205,0.9888,4.5179,-0.1687,-2.7244,0.3214
2942831.0,2.8922,1.3144,3.3351,-0.3299,-2.7414,0.3108
2942841.0,3.5075,1.6855,2.2146,-0.5385,-2.6616,0.3124
2942851.0,3.7038,1.9537,1.6305,-0.7359,-2.4839,0.34
2942861.0,4.039,2.0255,1.2402,-0.8471,-2.2881,0.406
2942871.0,4.3431,1.9537,0.8811,-0.8301,-2.0838,0.5071
2942881.0,4.4796,1.8196,0.4286,-0.6747,-1.8406,0.6306
2942891.0,4.6017,1.7095,-0.3424,-0.4704,-1.5926,0.7625
2942901.0,4.8004,1.5036,-1.5371,-0.3586,-1.3984,0.8769
2942911.0,5.3151,1.245,-3.5099,-0.4001,-1.2047,0.9615
2942921.0,5.6958,0.6153,-5.8059,-0.6981,-0.9647,1.0057
2942931.0,6.0214,-0.2658,-7.8865,-1.2079,-0.613,0.9903
2942941.0,6.0286,-1.2809,-8.6383,-1.7655,-0.0931,0.9009
2942951.0,5.3846,-1.7023,-8.4324,-2.1104,0.5199,0.7764
2942961.0,4.5873,-1.6807,-7.7285,-2.1359,1.102,0.6715
2942971.0,4.5035,-1.1325,-8.2384,-1.8209,1.6091,0.6359
2942981.0,4.0821,-0.8021,-9.2584,-1.3431,2.1849,0.6864
2942991.0,2.8084,-0.431,-10.3214,-0.5364,3.082,0.8019
2943001.0,0.656,-0.486,-10.8864,0.5002,4.284,0.9445
2943011.0,-1.6831,-1.7214,-9.7947,1.5564,5.7011,1.0589
2943021.0,-4.5155,-3.1699,-6.8307,2.5467,7.2405,1.0296
2943031.0,-7.4484,-4.2952,-1.221,3.2608,8.5904,0.7971
2943041.0,-10.5919,-5.0111,6.5649,3.7567,9.5216,0.406
2943051.0,-12.7826,-4.4197,14.8895,4.1441,9.8302,-0.0958
2943061.0,-13.7116,-2.7509,22.8598,4.4485,9.5488,-0.6135
2943071.0,-13.8888,0.5842,28.7113,4.5038,8.649,-1.0823
2943081.0,-13.6709,4.1348,33.1166,3.9467,7.133,-1.4457
2943091.0,-13.0747,7.8937,34.8979,3.0511,5.3126,-1.6272
2943101.0,-12.3517,10.7763,34.9601,2.0683,3.5816,-1.5719
2943111.0,-11.7364,12.1147,33.4781,1.1893,2.0204,-1.3058
2943121.0,-10.9702,11.983,30.6171,0.505,0.7141,-0.9301
2943131.0,-10.0916,10.7404,27.6435,0.0654,-0.2043,-0.5422
2943141.0,-9.1722,9.2344,24.6028,-0.0532,-0.7444,-0.2027
2943151.0,-8.3677,7.7859,22.1033,-0.0346,-1.0296,0.0506
2943161.0,-7.6399,6.45,20.2765,-0.0011,-1.193,0.215
2943171.0,-6.9384,5.1739,19.1321,0.0282,-1.2946,0.2996
2943181.0,-6.5649,4.3072,18.3372,0.0458,-1.3771,0.3113
2943191.0,-6.2824,3.8954,18.0427,0.0144,-1.5261,0.2661
2943201.0,-5.8514,4.0414,17.3364,-0.0873,-1.8076,0.1963
2943211.0,-5.5378,4.2329,16.5751,-0.2533,-2.1418,0.1426
2943221.0,-5.3079,4.3862,15.4809,-0.3634,-2.4445,0.1362
2943231.0,-4.7262,4.4436,14.3461,-0.4326,-2.7037,0.1634
2943241.0,-4.197,4.6017,12.8473,-0.5108,-2.9208,0.2043
2943251.0,-3.5961,4.4412,11.8082,-0.6284,-3.0873,0.2618
2943261.0,-2.8012,4.0701,10.5728,-0.6194,-3.149,0.3416
2943271.0,-2.3487,3.6679,9.1913,-0.5688,-3.1203,0.4177
2943281.0,-1.7071,3.1125,7.8386,-0.6423,-3.1049,0.4613
2943291.0,-0.9984,2.5355,6.7924,-0.7817,-3.0453,0.4629
2943301.0,-0.3112,2.0494,6.1316,-0.8333,-2.8436,0.4459
2943311.0,0.0048,1.5897,6.0525,-0.7785,-2.536,0.4246
2943321.0,0.2969,1.3336,6.3614,-0.6604,-2.2567,0.3991
2943331.0,0.6033,1.1708,7.094,-0.4848,-2.0172,0.3741
2943341.0,0.6991,1.2306,7.8219,-0.2123,-1.7927,0.3709
2943351.0,0.7661,1.1372,8.6383,0.0335,-1.6607,0.389
2943361.0,0.9601,1.1756,8.9495,0.158,-1.7017,0.3964
2943371.0,1.257,1.1899,8.6311,0.0692,-1.8938,0.3746
2943381.0,1.549,1.142,7.9392,-0.1868,-2.146,0.3374
2943391.0,1.822,1.1229,6.9264,-0.4587,-2.3418,0.2905
2943401.0,2.1021,1.0942,6.0501,-0.6263,-2.3929,0.2538
2943411.0,2.4325,1.1995,5.2601,-0.613,-2.3019,0.2432
2943421.0,2.624,1.403,4.7453,-0.5044,-2.1327,0.2613
2943431.0,2.988,1.4485,4.4149,-0.331,-1.9257,0.3182
2943441.0,3.3016,1.415,4.0845,-0.1708,-1.7177,0.3895
2943451.0,3.5147,1.3958,3.7876,-0.1666,-1.6059,0.4454
2943461.0,3.644,1.2809,3.4165,-0.3246,-1.5958,0.4816
2943471.0,3.7804,1.063,2.5019,-0.588,-1.6597,0.5119
2943481.0,4.2497,0.5435,0.9577,-0.9668,-1.7852,0.5241
2943491.0,4.8195,-0.2921,-1.0367,-1.3771,-1.8416,0.5028
2943501.0,5.7197,-0.9361,-2.8802,-1.6464,-1.6623,0.4417
2943511.0,6.1435,-1.3934,-4.1731,-1.7177,-1.2377,0.3523
2943521.0,6.2321,-1.5897,-5.1978,-1.5697,-0.6811,0.2528
2943531.0,6.0669,-1.3647,-6.2704,-1.2803,-0.0484,0.1596
2943541.0,5.8131,-1.0127,-7.1563,-1.0025,0.6258,0.0921
2943551.0,5.1068,-0.7542,-7.3071,-0.7971,1.3319,0.0537
