time_ms,ax,ay,az,gx,gy,gz
432601.0,-1.2378,2.5115,9.6726,0.1277,0.017,-0.3443
432611.0,-1.2043,2.6121,9.5002,0.1383,0.0027,-0.3437
432621.0,-1.2953,2.7461,9.1818,0.1309,0.0154,-0.339
432631.0,-1.3695,2.9018,9.0549,0.0889,0.0357,-0.3294
432641.0,-1.3527,2.9664,9.1028,0.0442,0.0867,-0.3161
432651.0,-1.3815,2.8467,9.5433,0.0117,0.1495,-0.2921
432661.0,-1.4629,2.6288,9.8617,0.0043,0.1692,-0.2687
432671.0,-1.5036,2.4038,10.1921,0.0122,0.1554,-0.2538
432681.0,-1.4509,2.3104,10.3693,0.0559,0.1373,-0.2448
432691.0,-1.4964,2.3439,10.4555,0.0851,0.1,-0.2416
432701.0,-1.4916,2.5115,10.4339,0.1064,0.0559,-0.2331
432711.0,-1.5275,2.7102,10.2592,0.116,0.0234,-0.2134
432721.0,-1.5179,2.7869,10.0604,0.0958,-0.0053,-0.1825
432731.0,-1.4796,2.7031,9.9311,0.0511,-0.0197,-0.1511
432741.0,-1.4581,2.5163,9.845,0.0043,-0.0112,-0.125
432751.0,-1.4988,2.2769,9.7827,-0.049,-0.0032,-0.1155
432761.0,-1.4437,2.0303,9.9216,-0.099,0.0016,-0.124
432771.0,-1.415,1.8459,10.1203,-0.1075,0.0154,-0.1447
432781.0,-1.391,1.8699,10.1801,-0.0761,0.0144,-0.1697
432791.0,-1.312,2.0039,10.1562,-0.0341,0.0043,-0.1916
432801.0,-1.3551,2.2122,10.1275,0.0096,0.0059,-0.2022
432811.0,-1.3767,2.4086,10.0126,0.0319,0.0005,-0.2011
432821.0,-1.2953,2.5331,9.9599,0.0415,-0.0096,-0.1878
432831.0,-1.3168,2.6145,9.9551,0.0293,-0.0144,-0.1719
432841.0,-1.2761,2.7007,9.8928,0.0011,-0.0165,-0.1532
432851.0,-1.2929,2.7102,9.9144,-0.0388,-0.0197,-0.1298
432861.0,-1.3312,2.5953,9.979,-0.0607,-0.025,-0.1006
432871.0,-1.2689,2.557,9.991,-0.0458,-0.0261,-0.0713
432881.0,-1.2546,2.5283,9.8785,-0.0223,-0.0192,-0.0474
432891.0,-1.2163,2.4541,9.7827,-0.0144,-0.0101,-0.0277
432901.0,-1.2785,2.3343,9.7875,-0.0287,-0.0069,-0.0165
432911.0,-1.257,2.2027,9.8665,-0.0245,-0.0021,-0.0106
432921.0,-1.2115,2.1308,9.7348,0.017,0.0122,-0.0133
432931.0,-1.1779,2.1811,9.6103,0.0394,0.0261,-0.0277
432941.0,-1.1899,2.2865,9.4834,0.0346,0.0474,-0.041
432951.0,-1.1708,2.3248,9.5409,0.0064,0.0702,-0.0527
432961.0,-1.1803,2.4469,9.6271,-0.0053,0.1,-0.058
432971.0,-1.3048,2.5498,9.742,-0.0133,0.1224,-0.0532
432981.0,-1.3958,2.5666,9.9048,-0.0213,0.1224,-0.0383
432991.0,-1.3479,2.5091,9.8306,-0.0037,0.1235,-0.0186
433001.0,-1.3695,2.4852,9.8019,-0.009,0.1304,-0.0043
433011.0,-1.4174,2.3607,9.8713,-0.0362,0.1314,0.0005
433021.0,-1.3838,2.2218,9.9862,-0.0527,0.1288,0.0021
433031.0,-1.3288,2.0925,10.0293,-0.0426,0.1245,-0.0005
433041.0,-1.336,2.0806,9.9982,-0.0117,0.1277,-0.0037
433051.0,-1.3408,2.1021,9.9838,0.0197,0.1325,-0.008
433061.0,-1.3551,2.2362,9.8593,0.0436,0.132,-0.0096
433071.0,-1.4724,2.3032,9.8593,0.05,0.1389,-0.0021
433081.0,-1.4581,2.241,9.7851,0.0511,0.141,0.0069
433091.0,-1.4796,2.2075,9.7588,0.0287,0.1442,0.009
433101.0,-1.5514,2.1428,9.912,0.0059,0.165,0.0069
433111.0,-1.5443,1.9609,10.2161,-0.0053,0.1761,0.0037
433121.0,-1.5921,1.8172,10.3884,0.017,0.1676,-0.0064
433131.0,-1.5586,1.7142,10.4531,0.0532,0.1463,-0.0245
433141.0,-1.494,1.6831,10.4363,0.1006,0.1266,-0.0474
433151.0,-1.5467,1.8148,10.2592,0.1378,0.1043,-0.0756
433161.0,-1.5826,2.0207,10.0892,0.1357,0.0883,-0.1043
433171.0,-1.6089,2.2577,9.9407,0.1022,0.0819,-0.1229
433181.0,-1.6831,2.3463,10.0293,0.042,0.0782,-0.1314
433191.0,-1.7238,2.4277,10.0221,0.0005,0.0708,-0.1336
433201.0,-1.7813,2.3942,10.2352,-0.0234,0.0697,-0.1288
433211.0,-1.8292,2.2769,10.3956,-0.0176,0.066,-0.1208
433221.0,-1.81,2.1045,10.5082,0.0133,0.0415,-0.1165
433231.0,-1.7238,1.9225,10.4914,0.0601,0.0197,-0.1181
433241.0,-1.7119,1.8364,10.4387,0.0963,0.0027,-0.133
433251.0,-1.7095,1.8794,10.3717,0.1203,-0.0154,-0.1538
433261.0,-1.7957,2.0423,10.1706,0.1383,-0.0239,-0.1697
433271.0,-1.9058,2.1069,10.0987,0.1394,-0.025,-0.1745
433281.0,-1.9441,2.0423,10.1083,0.1463,-0.0096,-0.1719
433291.0,-1.9273,1.8842,10.0461,0.1538,0.0106,-0.1703
433301.0,-1.9824,1.6616,10.2544,0.149,0.0511,-0.1745
433311.0,-1.9824,1.3408,10.6853,0.1639,0.1,-0.1857
433321.0,-1.9249,1.0894,11.0014,0.2027,0.1171,-0.2123
433331.0,-2.0111,1.0463,11.2288,0.232,0.1011,-0.2538
433341.0,-2.1332,1.1468,11.2934,0.2389,0.0692,-0.298
433351.0,-2.2434,1.2617,11.1187,0.1969,0.0138,-0.3384
433361.0,-2.2314,1.3144,10.7763,0.1043,-0.0537,-0.3778
433371.0,-2.1021,1.1349,10.568,-0.0261,-0.0883,-0.4161
433381.0,-1.9561,0.7183,10.4435,-0.1596,-0.0825,-0.4715
433391.0,-1.7502,0.3998,10.5489,-0.2623,-0.0548,-0.5513
433401.0,-1.6903,0.2729,10.671,-0.3358,-0.0144,-0.6577
433411.0,-1.719,0.4118,10.8721,-0.3863,0.0229,-0.77
433421.0,-1.7621,0.7542,11.1905,-0.431,0.041,-0.8775
433431.0,-1.7861,1.2091,11.5353,-0.4661,0.0309,-0.97
433441.0,-1.901,1.834,11.7723,-0.4832,-0.0021,-1.0371
433451.0,-1.9968,2.4588,11.9207,-0.4954,-0.0745,-1.0733
433461.0,-2.0231,3.043,11.8705,-0.5071,-0.1777,-1.0711
433471.0,-2.0542,3.4117,11.6981,-0.539,-0.2911,-1.0419
433481.0,-2.0494,3.6823,11.4802,-0.5603,-0.3954,-0.994
433491.0,-2.0542,3.9097,11.1618,-0.5635,-0.4954,-0.9317
433501.0,-2.0758,4.063,10.9295,-0.5417,-0.5704,-0.8551
433511.0,-2.0806,4.0654,10.6039,-0.4693,-0.6178,-0.762
433521.0,-2.0111,3.9217,10.3813,-0.356,-0.6561,-0.6641
433531.0,-1.8962,3.7493,9.8809,-0.1841,-0.6795,-0.5683
433541.0,-1.6975,3.5817,9.2009,-0.0192,-0.6912,-0.4874
433551.0,-1.494,3.5195,8.2887,0.0878,-0.6705,-0.4331
433561.0,-1.391,3.4931,7.5705,0.0915,-0.6087,-0.4039
433571.0,-1.4102,3.4165,7.3023,0.0149,-0.5087,-0.39
433581.0,-1.3599,3.2657,7.4891,-0.0463,-0.3677,-0.3799
433591.0,-1.2737,3.122,7.9344,-0.0383,-0.216,-0.3688
433601.0,-1.3001,3.1316,8.521,-0.0043,-0.107,-0.356
433611.0,-1.2354,3.1316,9.1578,0.0202,-0.0649,-0.3374
433621.0,-1.2665,3.2202,9.5529,0.0468,-0.0841,-0.3054
433631.0,-1.2761,3.3136,9.6965,0.0665,-0.1453,-0.2639
433641.0,-1.1827,3.4189,9.5122,0.0883,-0.2134,-0.2086
433651.0,-1.0918,3.4309,9.2177,0.0729,-0.2698,-0.149
433661.0,-0.9649,3.3255,8.8442,0.0357,-0.3006,-0.0899
433671.0,-0.7805,3.0765,8.5138,0.0021,-0.2873,-0.0341
433681.0,-0.644,2.8491,8.3845,-0.0229,-0.2352,0.0117
433691.0,-0.5602,2.624,8.3199,-0.0378,-0.1639,0.0463
433701.0,-0.419,2.2673,8.4922,-0.042,-0.0889,0.0734
433711.0,-0.2777,1.8938,8.7149,-0.0122,-0.0165,0.0873
433721.0,-0.1604,1.6472,8.8083,0.0447,0.0484,0.0846
433731.0,-0.0694,1.5155,8.995,0.1027,0.1048,0.0676
433741.0,-0.0072,1.5706,9.1147,0.1564,0.1596,0.041
433751.0,0.0575,1.7478,9.1913,0.1873,0.2038,0.0128
433761.0,0.0407,2.0087,9.2392,0.1969,0.2341,-0.0069
433771.0,0.0503,2.2601,9.2943,0.1761,0.2618,-0.016
433781.0,0.0048,2.4325,9.4403,0.132,0.2788,-0.017
433791.0,-0.1197,2.4684,9.6031,0.0862,0.298,-0.0117
433801.0,-0.2322,2.3511,9.8881,0.0745,0.3257,-0.0016
433811.0,-0.249,2.2745,10.0533,0.0846,0.3368,-0.0059
433821.0,-0.2873,2.332,10.0892,0.0835,0.3257,-0.0282
433831.0,-0.3831,2.5067,10.161,0.0702,0.3198,-0.0511
433841.0,-0.419,2.6695,10.2185,0.0601,0.3092,-0.0676
433851.0,-0.4788,2.9473,10.0628,0.0521,0.2889,-0.0777
433861.0,-0.5962,3.2226,9.9886,0.0309,0.2841,-0.074
433871.0,-0.6919,3.4596,9.9072,0.0037,0.2943,-0.0521
433881.0,-0.8164,3.5721,9.8426,-0.0154,0.3145,-0.0112
433891.0,-0.9457,3.5195,9.8881,-0.0261,0.3517,0.0357
433901.0,-1.0319,3.3255,10.0102,-0.0202,0.4001,0.0788
433911.0,-1.1109,3.1388,10.1849,-0.0011,0.4369,0.107
433921.0,-1.2258,3.1005,10.2975,0.0192,0.4544,0.1224
433931.0,-1.3384,3.1484,10.3765,0.0383,0.4672,0.1304
433941.0,-1.4605,3.2058,10.3645,0.0351,0.4629,0.1368
433951.0,-1.549,3.2848,10.3789,0.0261,0.455,0.1437
433961.0,-1.6759,3.3399,10.422,0.0106,0.4624,0.1586
433971.0,-1.719,3.3208,10.4148,-0.0149,0.4619,0.1783
433981.0,-1.8316,3.316,10.4866,-0.0463,0.4651,0.2027
433991.0,-1.8818,3.2058,10.6614,-0.0553,0.4864,0.2347
434001.0,-1.8651,2.9951,10.8386,-0.0686,0.4922,0.2645
434011.0,-1.9154,2.7701,11.0684,-0.1149,0.4619,0.2826
434021.0,-1.9561,2.5307,11.2767,-0.1559,0.4044,0.2932
434031.0,-1.9106,2.3559,11.2599,-0.1703,0.3267,0.3001
434041.0,-1.7957,2.2697,10.8793,-0.1612,0.2528,0.3006
434051.0,-1.7717,2.2769,10.4674,-0.1809,0.2112,0.2969
434061.0,-1.731,2.1548,10.2903,-0.2341,0.1974,0.2873
434071.0,-1.7023,2.1261,10.1682,-0.2895,0.1884,0.2751
434081.0,-1.7549,2.0231,10.2663,-0.3092,0.2022,0.2692
434091.0,-1.7382,1.8675,10.5201,-0.2405,0.2309,0.2815
434101.0,-1.7214,1.6903,10.7236,-0.1117,0.241,0.2964
434111.0,-1.5754,1.6496,10.6542,0.0431,0.2272,0.3108
434121.0,-1.4676,1.6807,10.4842,0.1905,0.24,0.3219
434131.0,-1.312,1.7741,10.2711,0.3288,0.2879,0.3326
434141.0,-1.1636,1.8531,10.0868,0.4214,0.3496,0.3411
434151.0,-1.1564,1.913,10.1203,0.4832,0.4385,0.348
434161.0,-1.1875,1.9417,10.3645,0.5805,0.5619,0.3634
434171.0,-1.1875,2.1165,10.8816,0.803,0.7418,0.4007
434181.0,-1.4844,2.4325,11.3653,1.1595,0.9961,0.4693
434191.0,-1.7142,2.6193,12.0811,1.566,1.293,0.5646
434201.0,-1.913,2.8563,12.6988,1.9028,1.5979,0.6428
434211.0,-2.6743,3.201,13.9127,1.9592,1.8411,0.6635
434221.0,-3.4189,3.1292,16.1441,1.7352,1.9305,0.6231
434231.0,-4.2042,2.7557,18.7993,1.3872,1.8177,0.5188
434241.0,-4.6208,2.375,21.2174,1.0642,1.5,0.3421
434251.0,-4.7453,2.7007,22.5534,0.7482,0.9865,0.0873
434261.0,-5.205,3.7254,22.9341,0.2591,0.3086,-0.2214
434271.0,-5.5641,4.9704,22.5438,-0.4166,-0.4842,-0.5209
434281.0,-5.9352,6.1675,21.318,-1.2196,-1.3085,-0.7806
434291.0,-6.3207,7.0078,19.9868,-1.9944,-2.0247,-0.9668
434301.0,-6.7732,7.7189,18.7155,-2.594,-2.6143,-1.0701
434311.0,-6.8139,8.2217,17.188,-2.966,-3.1198,-1.0828
434321.0,-6.8546,8.418,15.5791,-3.0942,-3.4763,-1.0052
434331.0,-6.7181,8.1139,14.3868,-2.9963,-3.6615,-0.8594
434341.0,-6.4332,7.6974,13.2854,-2.7393,-3.7764,-0.6843
434351.0,-6.1004,7.513,12.0309,-2.4594,-3.8961,-0.5124
434361.0,-5.873,7.2832,10.9223,-2.2093,-3.9807,-0.3257
434371.0,-5.7197,6.79,9.7659,-2.0045,-4.0621,-0.1192
434381.0,-5.4324,5.9065,8.5497,-1.8816,-4.1712,0.0777
434391.0,-4.7884,4.4796,7.4077,-1.7762,-4.233,0.2496
434401.0,-4.1563,2.8539,6.4284,-1.665,-4.2101,0.357
434411.0,-3.5985,1.4964,5.7844,-1.5772,-4.168,0.3672
434421.0,-2.964,0.6608,4.8507,-1.4984,-4.1335,0.3017
434431.0,-2.2505,0.3017,4.0893,-1.4702,-4.0664,0.1852
434441.0,-1.7861,0.5459,3.4907,-1.4388,-3.9509,0.0591
434451.0,-1.2139,0.8428,2.818,-1.4245,-3.8493,-0.0319
434461.0,-0.4884,0.9457,2.1021,-1.4186,-3.7253,-0.0867
434471.0,0.2682,0.9864,1.4317,-1.3633,-3.5284,-0.1048
434481.0,1.0678,0.6153,1.2067,-1.2622,-3.2416,-0.0937
434491.0,1.7957,0.0192,1.3216,-1.0882,-2.8846,-0.074
434501.0,2.3918,-0.4908,1.7645,-0.9195,-2.5738,-0.074
434511.0,2.6695,-0.8787,2.1907,-0.7801,-2.3514,-0.0963
434521.0,2.9281,-1.2905,2.3391,-0.6625,-2.2168,-0.1245
434531.0,3.5051,-1.7693,2.2098,-0.5608,-2.1167,-0.1692
434541.0,4.3072,-2.1308,1.9728,-0.4523,-1.9699,-0.2442
434551.0,4.5059,-1.731,1.5706,-0.3326,-1.7581,-0.348
434561.0,4.7477,-1.0295,1.4293,-0.2826,-1.5458,-0.4369
434571.0,5.047,-0.2418,1.2881,-0.2661,-1.3234,-0.4773
434581.0,5.2098,0.2562,1.6209,-0.3006,-1.1142,-0.4709
434591.0,5.375,0.2131,1.9393,-0.3006,-0.9206,-0.422
434601.0,5.4803,-0.2322,2.3559,-0.2331,-0.7221,-0.364
434611.0,5.6072,-0.9792,3.0358,-0.1107,-0.5231,-0.3352
434621.0,5.8251,-1.4365,3.723,0.0926,-0.3315,-0.3443
434631.0,5.8969,-1.2665,4.1539,0.2203,-0.249,-0.4076
434641.0,5.6934,-0.5626,4.0055,0.2331,-0.282,-0.4933
434651.0,5.7245,0.2658,3.4477,0.1548,-0.3592,-0.5507
434661.0,5.849,1.1277,2.15,0.0532,-0.4177,-0.571
434671.0,6.2465,1.719,0.6105,-0.0814,-0.3884,-0.5486
434681.0,6.8019,1.9561,-0.4645,-0.141,-0.1538,-0.4858
434691.0,6.9504,2.2194,-0.9864,0.0037,0.3113,-0.3927
434701.0,6.7636,1.9968,-0.4501,0.2623,0.8663,-0.2703
434711.0,6.4955,1.6879,0.2131,0.6018,1.3893,-0.1532
434721.0,5.8754,1.4341,1.4317,0.9152,1.8443,-0.074
434731.0,5.1619,1.6209,2.4852,1.1919,2.1742,-0.0287
434741.0,4.6471,2.2051,2.8659,1.293,2.311,-0.0128
434751.0,4.537,2.818,1.9321,1.0754,2.2583,-0.0208
434761.0,4.4532,3.1149,0.4645,0.4895,2.1316,-0.05
434771.0,4.2138,3.1699,-1.3886,-0.1623,2.1811,-0.0729
434781.0,3.3543,3.1316,-2.047,-0.6598,2.5291,-0.066
434791.0,2.2266,3.4405,-1.5299,-0.8423,3.0165,-0.016
434801.0,0.917,3.8954,-0.9505,-0.6455,3.4811,0.1059
434811.0,-0.3591,4.1444,-1.1684,-0.2437,3.827,0.2708
434821.0,-1.2019,4.6184,-2.8228,0.1676,4.0457,0.4331
434831.0,-1.9632,4.7453,-5.1068,0.6173,4.4208,0.6024
434841.0,-3.2394,5.1882,-7.4484,1.3399,5.302,0.7604
434851.0,-6.1986,5.6623,-7.6136,2.1327,6.6812,0.8918
434861.0,-10.4315,6.2393,-4.9799,2.7947,8.2233,0.9796
434871.0,-14.5304,6.6487,0.7901,3.1831,9.4892,1.0046
434881.0,-18.3156,8.1451,7.0294,3.5258,10.3017,0.9823
434891.0,-20.9373,11.169,12.4403,3.6301,10.5326,0.9333
434901.0,-23.9995,14.6717,18.1169,3.2964,10.3123,0.9695
434911.0,-24.6339,14.8081,24.8111,2.8989,9.8356,1.2148
434921.0,-23.3267,13.9845,30.4638,2.5041,9.0981,1.4197
434931.0,-22.3954,13.3309,37.1365,1.6299,7.9556,1.4351
434941.0,-20.8224,12.6222,42.2912,0.58,6.2864,1.4048
434951.0,-19.1776,11.3365,45.2744,-0.4725,4.1734,1.3872
434961.0,-17.2837,10.5105,43.1507,-1.1334,1.8432,1.4383
434971.0,-15.3181,9.8138,37.2346,-1.4974,-0.2277,1.5596
434981.0,-13.7331,9.0692,29.6905,-1.649,-1.6809,1.7384
434991.0,-12.4211,7.7428,22.7473,-1.6996,-2.4828,1.9507
435001.0,-11.066,5.7317,17.7458,-1.6198,-2.6941,2.1556
435011.0,-9.8857,3.6583,14.8584,-1.3963,-2.5015,2.3035
435021.0,-8.8585,1.8148,13.8385,-1.1542,-2.1795,2.3642
435031.0,-8.4396,0.4525,14.2982,-0.9227,-1.9587,2.3589
435041.0,-7.9703,-0.6129,14.1689,-0.7285,-2.0273,2.3163
435051.0,-7.4531,-1.5754,13.2926,-0.6955,-2.3216,2.2258
435061.0,-6.8283,-2.3439,12.0333,-0.8104,-2.6967,2.0822
435071.0,-6.6319,-2.8132,10.489,-0.9642,-3.0639,1.9066
435081.0,-5.0925,-3.1292,9.3972,-1.0323,-3.3092,1.7161
435091.0,-5.4947,-2.6264,7.9464,-0.9307,-3.397,1.5373
435101.0,-4.2234,-2.7198,6.1268,-0.9168,-3.4827,1.3989
435111.0,-3.0933,-2.6049,5.272,-0.9817,-3.4332,1.2153
435121.0,-3.0742,-1.8986,4.1779,-0.9567,-3.2741,1.0568
435131.0,-2.4636,-1.6448,3.6536,-1.0046,-3.1049,0.9386
435141.0,-1.9968,-1.5969,2.7869,-1.0664,-2.9234,0.8519
435151.0,-1.5634,-2.0183,2.0423,-1.1632,-2.6627,0.763
435161.0,-0.5986,-2.7438,1.1229,-1.3979,-2.4025,0.6188
435171.0,0.51,-3.9648,2.2553,-1.7655,-2.0566,0.39
435181.0,0.759,-4.6543,4.197,-1.8416,-1.6304,0.1229
435191.0,0.7446,-4.9273,5.8203,-1.7389,-1.4356,-0.158
435201.0,0.8906,-4.5442,6.0286,-1.5543,-1.4644,-0.4454
435211.0,1.2091,-3.7541,4.877,-1.4011,-1.5053,-0.7029
435221.0,1.3623,-3.2753,4.1707,-1.3627,-1.3925,-0.9131
435231.0,1.5562,-2.5786,4.4987,-1.2398,-1.0743,-1.0823
435241.0,1.5874,-2.0758,6.6319,-0.9429,-0.7045,-1.1754
435251.0,1.1181,-1.3791,7.9344,-0.2975,-0.4816,-1.1659
435261.0,0.9002,-1.221,7.1251,0.4204,-0.4581,-1.0791
435271.0,1.5945,-2.1859,6.1675,0.8998,-0.3975,-1.0147
435281.0,2.0853,-2.9928,5.363,1.3021,-0.0899,-1.0557
435291.0,1.743,-3.1532,5.1978,1.4,0.2208,-1.2404
435301.0,1.5395,-2.7222,5.5378,1.1643,0.3884,-1.5133
435311.0,1.3384,-1.7573,6.4979,0.8716,0.5587,-1.7879
435321.0,0.7135,-0.5363,7.7764,0.5763,0.6508,-1.9981
435331.0,0.1125,0.6847,9.2751,0.3954,0.6183,-2.1045
435341.0,-0.3926,1.6496,9.8928,0.3975,0.456,-2.0864
435351.0,-0.5315,2.1715,9.3302,0.4773,0.1634,-1.9928
435361.0,-0.0455,2.5714,7.0006,0.5289,-0.1447,-1.8901
435371.0,0.5052,2.6528,4.0031,0.4129,-0.2921,-1.8204
435381.0,0.8571,3.2633,-0.4788,0.1697,-0.1942,-1.7991
435391.0,0.9361,3.9672,-4.5346,-0.5694,0.1224,-1.8326
435401.0,0.7135,4.6112,-6.5481,-1.5479,0.7748,-1.8486
435411.0,-0.7949,5.7341,-5.9496,-2.2886,1.7256,-1.7687
435421.0,-2.6336,5.8562,-2.9353,-2.4424,2.7154,-1.4857
435431.0,-3.7565,4.968,-0.9792,-1.6969,3.6593,-1.0344
435441.0,-5.3295,2.7509,0.9266,-0.5906,4.5746,-0.6151
435451.0,-6.6343,-0.2873,4.3766,0.8375,5.7112,-0.3629
435461.0,-8.3653,-1.7454,8.0732,2.2636,6.6892,-0.4427
435471.0,-10.6542,-1.221,13.0245,3.1278,7.1782,-0.8195
435481.0,-12.548,2.2769,16.8863,3.4683,7.0574,-1.3015
435491.0,-14.4538,6.11,22.0506,3.1107,6.4215,-1.6873
435501.0,-14.8512,8.6742,27.4735,2.8995,5.7271,-1.7868
435511.0,-14.3868,11.5592,31.3329,2.7478,4.7832,-1.7533
435521.0,-14.2311,14.2048,34.3592,2.1306,3.3507,-1.6639
435531.0,-13.8361,16.18,33.7606,1.3356,1.7022,-1.4277
435541.0,-12.9,16.0555,32.688,0.3421,0.1788,-1.1111
435551.0,-12.2344,15.208,29.6881,-0.4347,-1.0988,-0.7641
435561.0,-11.4347,13.2328,26.0896,-1.0903,-2.1407,-0.4422
435571.0,-10.4411,11.0014,22.2469,-1.5804,-2.9048,-0.1905
435581.0,-9.73,8.9687,18.9405,-1.8629,-3.3566,-0.0186
435591.0,-8.7843,6.9695,15.9837,-1.9215,-3.554,0.0915
435601.0,-7.6806,5.3534,13.7475,-1.8784,-3.5806,0.125
435611.0,-7.1132,4.4724,12.22,-1.8544,-3.5848,0.083
435621.0,-6.5481,3.9696,10.8529,-1.839,-3.6402,0.0138
435631.0,-5.7652,3.7637,9.4044,-1.8156,-3.7078,-0.05
435641.0,-5.0757,3.9002,7.8817,-1.7453,-3.7088,-0.0952
435651.0,-4.5921,3.9959,6.347,-1.7028,-3.6535,-0.1054
435661.0,-3.893,3.6775,5.6192,-1.723,-3.5476,-0.0952
435671.0,-3.5027,3.1651,5.2768,-1.6772,-3.372,-0.0676
435681.0,-3.1723,1.9752,5.8873,-1.5314,-3.1799,-0.0298
435691.0,-2.3343,0.589,5.9448,-1.1877,-3.0479,-0.0106
435701.0,-1.5107,-0.1604,5.4324,-0.8397,-2.925,-0.0654
435711.0,-1.1588,-0.0862,5.0326,-0.6588,-2.8154,-0.1788
435721.0,-0.9242,0.4788,4.4963,-0.655,-2.7696,-0.2927
435731.0,-0.8092,1.0175,4.0103,-0.762,-2.7398,-0.364
435741.0,-0.6704,1.2258,3.3519,-0.8908,-2.6893,-0.3879
435751.0,-0.2442,0.8811,3.1316,-0.9945,-2.5552,-0.389
435761.0,0.3783,0.3687,3.3974,-0.9642,-2.3025,-0.3922
435771.0,0.589,0.17,4.1156,-0.8695,-2.0609,-0.4145
435781.0,0.7183,0.1628,4.8866,-0.6933,-1.8917,-0.4262
435791.0,1.0319,0.3448,4.8459,-0.4124,-1.8118,-0.3996
435801.0,1.391,0.8021,4.063,-0.1096,-1.7389,-0.3459
435811.0,1.4509,1.3216,3.3423,0.1963,-1.5123,-0.2597
435821.0,1.6783,1.8483,2.1069,0.3783,-1.2446,-0.1469
435831.0,2.6312,1.4581,1.6616,0.2458,-0.969,-0.0458
435841.0,3.9409,0.7111,1.6185,-0.0777,-0.6593,-0.0053
435851.0,4.1396,-0.3519,3.1268,-0.5385,-0.3544,-0.0521
435861.0,3.8331,-1.1923,5.679,-0.7684,-0.0968,-0.1421
435871.0,3.2561,-1.4269,7.5729,-0.5715,0.058,-0.224
435881.0,2.8826,-1.2761,8.3893,-0.1415,0.0644,-0.273
435891.0,2.6839,-0.8715,7.6806,0.3054,-0.0043,-0.3022
435901.0,2.715,-0.3376,6.7397,0.588,-0.0064,-0.3331
435911.0,2.8036,0.3208,5.8921,0.7418,0.132,-0.3608
435921.0,2.6935,0.8045,5.5545,0.688,0.3177,-0.3858
435931.0,2.7174,0.9266,5.94,0.5193,0.5193,-0.3996
435941.0,2.5331,1.0032,6.9097,0.4012,0.7487,-0.4087
435951.0,2.2913,1.1157,8.1116,0.4071,0.9402,-0.4007
435961.0,1.8675,1.4964,8.8729,0.5002,1.0392,-0.3778
435971.0,1.7047,1.9848,9.1889,0.5646,1.0275,-0.3437
435981.0,1.4988,2.466,8.9471,0.5241,0.9535,-0.299
435991.0,1.4341,2.5043,8.7436,0.4081,0.8881,-0.2363
436001.0,1.652,2.0207,8.5856,0.3767,0.9567,-0.1719
436011.0,1.6448,1.6927,8.6838,0.3991,1.1382,-0.141
436021.0,1.4054,1.731,9.3422,0.3608,1.3005,-0.1479
436031.0,1.2522,2.2601,9.9479,0.2953,1.4032,-0.1618
436041.0,0.8068,2.7677,10.6949,0.1815,1.4452,-0.1368
436051.0,0.5219,3.1077,11.3102,0.0229,1.3776,-0.0745
436061.0,0.6177,3.225,10.9128,-0.1884,1.1824,0.0096
436071.0,0.8882,3.1029,9.1387,-0.6109,0.878,0.0835
436081.0,0.6225,2.6312,7.4651,-1.2164,0.6359,0.1421
436091.0,0.5531,0.7661,6.9839,-1.5224,0.6726,0.2469
436101.0,1.1588,-0.9912,5.7365,-1.2297,0.9519,0.332
436111.0,0.9385,-1.6041,4.7214,-0.7412,1.3462,0.2969
436121.0,0.4381,-0.3615,1.9992,-0.2927,1.6841,0.2112
436131.0,0.012,1.4437,-1.2378,-0.2714,1.9757,0.1405
436141.0,-0.8452,3.4069,-4.2497,-0.4592,2.4706,0.1634
436151.0,-2.8994,5.9496,-7.3239,-0.4922,3.3284,0.331
436161.0,-6.5817,8.6886,-9.3805,-0.3533,4.5623,0.6662
436171.0,-12.4283,10.0533,-6.8618,0.1953,6.3965,1.2228
436181.0,-18.5646,7.4148,1.5443,1.5777,8.758,1.9624
436191.0,-21.8638,0.3807,13.6278,3.2432,10.6699,2.511
436201.0,-20.0299,-6.2944,28.3785,4.5464,11.6038,2.3775
436211.0,-19.4457,-5.4492,44.501,4.8087,10.9754,1.4559
436221.0,-18.6053,-1.2905,53.9414,3.6466,7.8811,0.34
436231.0,-15.7323,3.5937,50.6278,1.5559,3.7115,-0.6311
436241.0,-14.6669,7.3885,45.4946,-1.5091,0.1032,-1.4761
436251.0,-15.5001,9.5026,38.5778,-4.201,-2.8308,-1.9278
436261.0,-16.0603,10.0054,31.7878,-5.3493,-4.6533,-1.8667
436271.0,-15.287,8.6072,24.8973,-4.5943,-5.2631,-1.3441
436281.0,-13.2304,6.8761,16.8911,-2.9644,-5.2828,-0.7056
436291.0,-10.9247,5.1547,10.2951,-1.5426,-4.896,-0.1953
436301.0,-8.734,3.6607,5.7748,-0.5603,-4.0776,0.1399
436311.0,-7.4364,2.2865,4.1707,-0.3523,-3.2693,0.2533
436321.0,-6.1459,0.838,4.9967,-0.7817,-2.7984,0.1655
436331.0,-5.454,-0.2969,7.4077,-1.1728,-2.469,-0.0202
436341.0,-5.1308,-0.6584,9.256,-1.2122,-2.2732,-0.2144
436351.0,-4.889,-0.5435,10.5872,-1.2281,-2.3679,-0.4071
436361.0,-4.616,-0.0144,11.6358,-1.2239,-2.6446,-0.5608
436371.0,-4.6735,0.8475,11.5951,-1.0334,-2.9617,-0.6247
436381.0,-4.4508,1.6424,9.8809,-0.8349,-3.3683,-0.6018
436391.0,-3.8211,2.1572,6.9599,-0.7641,-3.7264,-0.5316
436401.0,-2.8946,2.4708,3.735,-0.8445,-3.8179,-0.4507
436411.0,-2.0279,2.0877,1.8292,-1.0344,-3.6008,-0.3741
436421.0,-1.1564,1.4653,0.7614,-1.1563,-3.1874,-0.3134
436431.0,-0.4764,0.4669,1.5538,-1.1643,-2.6265,-0.2783
436441.0,-0.2586,-0.2945,3.3471,-0.8684,-2.0066,-0.2522
436451.0,-0.3328,-0.7614,5.4708,-0.4087,-1.5618,-0.2363
436461.0,-0.3807,-0.9337,6.6248,-0.0053,-1.417,-0.2267
436471.0,-0.0958,-1.5179,7.7931,0.2379,-1.3979,-0.2395
436481.0,0.0814,-1.3144,8.2073,0.4385,-1.4154,-0.298
436491.0,-0.0838,-0.4741,8.0852,0.3437,-1.6027,-0.4007
436501.0,0.1676,0.3663,7.118,0.0027,-1.9034,-0.481
436511.0,0.5195,0.6752,6.4069,-0.4012,-2.0619,-0.5124
436521.0,0.7302,0.6871,6.1818,-0.5986,-1.9933,-0.4933
436531.0,0.8595,0.3687,6.7325,-0.5662,-1.8023,-0.4353
436541.0,1.0558,0.0263,7.1156,-0.3576,-1.648,-0.357
436551.0,1.2163,-0.0958,7.0246,-0.1485,-1.6027,-0.29
436561.0,1.4269,-0.1269,6.4045,-0.0176,-1.6219,-0.2352
436571.0,1.7717,-0.4214,5.7509,0.0803,-1.5697,-0.1836
436581.0,2.0734,-0.7518,5.1715,0.1532,-1.4175,-0.1586
436591.0,2.3511,-0.9433,4.9105,0.1107,-1.2579,-0.182
436601.0,2.6432,-0.9313,4.5394,-0.0271,-1.1334,-0.2341
436611.0,2.9401,-1.1253,5.1643,-0.191,-0.9637,-0.2884
436621.0,2.976,-1.0894,6.3446,-0.1203,-0.7162,-0.3187
436631.0,2.7701,-0.7925,7.0964,0.107,-0.5465,-0.3182
436641.0,2.8491,-0.5914,7.4699,0.2581,-0.5449,-0.3049
436651.0,2.9137,-0.1891,7.1443,0.2746,-0.6407,-0.3001
436661.0,2.9904,-0.0024,6.8043,0.1932,-0.7333,-0.2916
436671.0,3.0598,0.2179,6.0645,0.1192,-0.7801,-0.2746
436681.0,3.237,0.1844,5.6503,0.0591,-0.7535,-0.2559
436691.0,3.4931,0.3448,5.1188,0.0793,-0.646,-0.2363
436701.0,3.5889,0.4453,5.0925,0.1368,-0.4848,-0.2134
436711.0,3.711,0.4812,5.0518,0.2799,-0.2692,-0.1783
436721.0,3.5913,0.6728,4.9991,0.3677,-0.0937,-0.1527
436731.0,3.5314,0.6823,4.9895,0.3773,0.0069,-0.1309
436741.0,3.474,0.8954,4.3383,0.3938,0.1048,-0.1086
436751.0,3.4189,0.8404,3.9935,0.3629,0.2416,-0.0841
436761.0,3.3543,0.6464,3.8954,0.3821,0.4544,-0.0537
436771.0,3.6009,0.5602,3.9456,0.5385,0.7359,-0.0325
436781.0,3.2705,0.7901,4.1228,0.7865,1.0924,-0.0181
436791.0,3.067,1.1013,4.8171,1.0078,1.4559,-0.0064
436801.0,2.7126,1.6472,5.5881,1.1196,1.7028,-0.0048
436811.0,2.1524,2.1237,6.6008,1.1185,1.8353,0.0085
436821.0,1.6376,2.5809,7.2664,1.0807,1.8672,0.0442
436831.0,0.8164,2.7126,7.4986,0.9317,1.7528,0.0958
436841.0,1.1085,1.7573,7.6112,0.7806,1.5761,0.1623
436851.0,1.7238,1.221,6.9384,0.9339,1.5905,0.1799
436861.0,1.4078,1.9465,5.9233,1.2505,1.8603,0.1405
436871.0,0.8236,2.9856,5.5881,1.3617,2.1801,0.1043
436881.0,0.3256,4.0845,5.5833,1.2233,2.4142,0.0894
436891.0,-0.3735,5.0494,5.4444,0.7982,2.5078,0.1
436901.0,-0.8859,5.7916,4.4508,0.0607,2.3902,0.1426
436911.0,-1.4365,5.6072,3.2872,-0.9482,2.1194,0.2134
436921.0,-1.324,4.9584,0.9888,-1.7804,1.8741,0.3347
436931.0,-1.4437,4.0534,-0.3759,-1.9369,2.1551,0.5172
436941.0,-2.9473,4.1348,-0.7374,-0.9344,3.1842,0.7822
436951.0,-4.865,4.6448,-0.1341,0.7391,4.5075,1.0887
436961.0,-7.0964,5.8299,0.3591,2.3626,5.7553,1.3484
436971.0,-10.3118,6.9097,2.7701,3.413,6.9148,1.541
436981.0,-12.9407,6.8738,7.3382,3.968,7.9077,1.673
436991.0,-14.7148,5.9664,13.5943,4.0696,8.5558,1.6719
437001.0,-15.5432,5.4923,20.9564,3.5934,8.5202,1.4638
437011.0,-15.8855,6.2824,27.9236,2.5584,7.6864,1.11
437021.0,-15.7371,7.525,33.9689,1.2675,6.2002,0.795
437031.0,-15.3013,8.4276,37.5243,0.3246,4.4463,0.6763
437041.0,-14.6693,8.7556,37.5626,-0.2038,2.6584,0.7285
437051.0,-13.5464,7.8075,35.1301,-0.6582,0.9104,0.837
437061.0,-12.5073,6.7804,31.1103,-1.0302,-0.5481,0.9115
437071.0,-11.7388,5.6312,26.4464,-1.2978,-1.6075,0.9541
437081.0,-10.4746,4.3598,21.7561,-1.5165,-2.3312,0.9514
437091.0,-9.3278,3.6847,17.7722,-1.6405,-2.66,0.8977
437101.0,-8.4372,3.4069,14.7794,-1.7113,-2.6771,0.8296
437111.0,-7.8075,3.0454,13.0939,-1.8102,-2.569,0.7742
437121.0,-7.2377,2.3439,12.7132,-1.9012,-2.4445,0.7348
437131.0,-6.6798,1.6113,12.9838,-1.8805,-2.3849,0.7019
437141.0,-6.4643,1.0774,13.2447,-1.74,-2.4472,0.6726
437151.0,-6.1076,0.5626,12.8664,-1.5144,-2.6111,0.6529
437161.0,-5.691,0.3376,11.7555,-1.3367,-2.8537,0.6162
437171.0,-5.2672,0.2059,10.1873,-1.2526,-3.1033,0.564
437181.0,-4.5418,0.1724,8.102,-1.1595,-3.2347,0.5119
437191.0,-3.7182,0.2035,6.0262,-1.1345,-3.1985,0.4443
437201.0,-2.9999,0.182,4.8937,-1.1589,-2.9734,0.373
437211.0,-2.3487,0.237,4.628,-1.1643,-2.6281,0.3081
437221.0,-2.3056,0.3065,5.1499,-1.1893,-2.2993,0.2549
437231.0,-2.0758,-0.1724,6.3135,-1.1653,-2.0933,0.2341
437241.0,-1.6089,-0.7278,7.0318,-0.9514,-1.9571,0.224
437251.0,-1.3671,-1.0343,7.6255,-0.6215,-1.8294,0.1948
437261.0,-1.1756,-0.9673,7.8554,-0.2426,-1.7166,0.1596
437271.0,-0.9242,-0.565,7.8865,-0.0096,-1.6831,0.1128
437281.0,-0.7446,-0.1867,7.7428,0.0197,-1.7129,0.0623
437291.0,-0.6464,0.1556,7.252,-0.141,-1.7911,0.008
437301.0,-0.5483,0.2107,7.3717,-0.4555,-1.8773,-0.0585
437311.0,-0.3998,0.1628,7.252,-0.6247,-1.9119,-0.0995
437321.0,-0.1963,-0.0814,7.2209,-0.6561,-1.905,-0.1245
437331.0,0.2322,-0.3543,7.3694,-0.4768,-1.7943,-0.1357
437341.0,0.3328,-0.0622,7.1204,-0.1916,-1.6533,-0.1405
437351.0,0.7518,-0.0622,6.9192,-0.0128,-1.5655,-0.1362
437361.0,1.087,-0.1149,6.1962,0.0782,-1.4819,-0.1325
437371.0,1.482,-0.6009,5.9544,0.0122,-1.3457,-0.1586
437381.0,1.8316,-0.5794,5.6096,-0.0968,-1.1744,-0.2363
437391.0,1.6328,-0.3903,6.3398,-0.3384,-1.0286,-0.3437
437401.0,1.4796,-0.1556,6.8929,-0.4762,-0.9573,-0.4103
437411.0,1.5993,-0.2849,7.446,-0.4395,-0.9184,-0.4289
437421.0,1.8507,-0.1867,7.252,-0.2097,-0.8705,-0.4246
437431.0,2.2362,-0.1221,6.8761,0.1016,-0.763,-0.4103
437441.0,2.5881,0.1437,5.8227,0.3453,-0.6396,-0.4113
437451.0,2.7653,0.3184,5.0518,0.4246,-0.4587,-0.4294
437461.0,2.8515,0.5219,4.5442,0.422,-0.1963,-0.4534
437471.0,2.4828,0.3974,4.7501,0.3565,0.1144,-0.4805
437481.0,2.399,-0.1891,5.77,0.3672,0.4608,-0.5082
437491.0,2.241,-0.3831,7.0342,0.4246,0.745,-0.5773
437501.0,1.8483,-0.1628,8.272,0.3964,0.8242,-0.6779
437511.0,1.7741,0.0287,9.2105,0.3704,0.7588,-0.7609
437521.0,1.8555,0.5938,9.0764,0.4709,0.6859,-0.8141
437531.0,1.6616,1.1564,8.7293,0.5821,0.6795,-0.8381
437541.0,1.7526,1.9585,7.9679,0.6886,0.7215,-0.8328
437551.0,1.4796,2.7438,7.3119,0.7024,0.8242,-0.8019
437561.0,1.1301,3.1603,6.8522,0.6444,0.9823,-0.7348
437571.0,0.9649,3.1627,6.608,0.4544,1.1329,-0.663
437581.0,0.5148,2.9042,6.2297,-0.016,1.1318,-0.6274
437591.0,0.4884,1.7861,6.1363,-0.6502,1.0036,-0.6135
437601.0,0.7733,0.9768,4.8123,-1.0578,0.9168,-0.6226
437611.0,0.419,0.3112,3.6823,-1.2643,1.0477,-0.6439
437621.0,0.2825,-0.4549,3.0933,-1.0334,1.4713,-0.629
437631.0,0.0622,-0.3112,1.312,-0.5257,2.0156,-0.6258
437641.0,-0.4357,-0.0072,-0.2059,-0.3448,2.4967,-0.6651
437651.0,-1.4461,1.0343,-1.7406,-0.4427,2.9665,-0.7056
437661.0,-3.3064,2.2338,-2.7054,-0.6816,3.4662,-0.6816
437671.0,-5.9903,2.7797,-2.5905,-0.6737,4.1319,-0.5209
437681.0,-9.4164,1.4269,0.1149,0.1442,5.3142,-0.2139
437691.0,-10.6542,-2.7605,5.1236,1.7139,6.7834,0.0607
437701.0,-11.145,-6.2321,10.7404,3.0054,7.7598,-0.1117
437711.0,-12.9694,-6.1339,18.8112,3.3906,7.9088,-0.7822
437721.0,-14.7866,-2.5786,26.9659,3.3853,7.1346,-1.5431
437731.0,-14.437,2.6887,30.866,3.389,5.6478,-2.0752
437741.0,-14.1138,8.8681,31.2276,3.1693,4.0946,-2.3131
437751.0,-13.8121,14.121,31.0217,2.2652,2.5749,-2.2668
437761.0,-13.6039,16.8169,30.5045,0.8876,1.0195,-1.9555
437771.0,-13.0412,16.1465,29.8725,-0.3507,-0.3634,-1.4452
437781.0,-12.3517,13.1633,28.4647,-0.9519,-1.441,-0.879
437791.0,-11.7268,10.0604,25.7736,-1.0536,-2.3402,-0.4188
437801.0,-10.9559,7.4053,22.0865,-0.9078,-3.0873,-0.1107
437811.0,-9.7229,5.4468,17.2981,-0.7295,-3.6029,0.0426
437821.0,-8.2432,3.7804,13.1226,-0.7503,-3.8035,0.0357
437831.0,-7.1491,2.8802,10.6638,-0.8796,-3.6663,-0.0979
437841.0,-6.4763,2.6624,9.8737,-1.0014,-3.3853,-0.281
437851.0,-6.0549,3.134,10.1849,-1.0307,-3.1469,-0.4342
437861.0,-5.9496,3.8188,10.9918,-0.9195,-3.0501,-0.489
437871.0,-5.7102,4.4269,10.8314,-0.6476,-3.1251,-0.4268
437881.0,-5.0709,4.3646,9.9359,-0.3688,-3.2704,-0.2879
437891.0,-4.4245,4.0558,8.3175,-0.1724,-3.3763,-0.1474
437901.0,-3.6224,3.3088,7.0461,-0.1724,-3.4135,-0.0516
437911.0,-2.7629,2.648,6.0094,-0.2261,-3.3305,-0.0197
437921.0,-2.2625,2.6887,5.3941,-0.3725,-3.1868,-0.0495
437931.0,-1.8364,2.976,5.0781,-0.6316,-3.1012,-0.0905
437941.0,-1.3719,3.0981,4.525,-0.8684,-3.041,-0.0947
437951.0,-0.6919,2.6432,4.0893,-1.0339,-2.9213,-0.0649
437961.0,-0.2346,2.0087,3.9145,-1.0429,-2.6888,-0.0319
437971.0,0.1915,1.0223,4.6639,-0.862,-2.3461,-0.0064
437981.0,0.6321,0.419,4.7836,-0.505,-2.0124,-0.0043
437991.0,0.8667,0.1293,5.454,-0.3182,-1.8081,-0.067
438001.0,1.1349,0.5411,5.7245,-0.1926,-1.6884,-0.1511
438011.0,1.1205,1.2402,5.9376,-0.0931,-1.574,-0.2059
438021.0,1.1468,2.0279,5.4037,-0.0521,-1.5133,-0.215
438031.0,1.3982,2.2458,5.0733,-0.1681,-1.4527,-0.1846
438041.0,1.7166,1.9225,5.0302,-0.2543,-1.2723,-0.1325
438051.0,1.6161,1.4389,5.6719,-0.3022,-1.0318,-0.1054
438061.0,1.6305,0.8882,7.1108,-0.2661,-0.8163,-0.1027
438071.0,1.5658,0.5411,8.3342,-0.0729,-0.6673,-0.1064
438081.0,1.6568,0.5459,8.9663,0.0553,-0.7082,-0.1453
438091.0,1.7597,1.0702,8.7771,0.0569,-0.879,-0.2006
438101.0,1.798,1.7071,8.0349,-0.0309,-1.0483,-0.2267
438111.0,2.0231,2.1404,6.7804,-0.1543,-1.1414,-0.2086
438121.0,2.2721,2.1787,5.4827,-0.3182,-1.1323,-0.1639
438131.0,2.6025,1.7909,5.2433,-0.3794,-0.92,-0.1032
438141.0,2.6887,1.2402,5.3702,-0.199,-0.5534,-0.0362
438151.0,2.7821,0.6991,5.7844,0.0436,-0.2017,-0.0037
438161.0,2.8395,0.4525,6.3039,0.2256,0.0718,-0.0197
438171.0,2.6719,0.3663,7.2233,0.2661,0.2655,-0.0713
438181.0,2.5331,0.6632,8.0086,0.2687,0.3565,-0.1341
438191.0,2.4421,1.0846,8.5545,0.2565,0.3677,-0.1793
438201.0,2.4995,1.6879,8.667,0.2969,0.3677,-0.191
438211.0,2.3415,2.2673,8.5162,0.3496,0.3964,-0.1644
438221.0,2.2577,2.3942,8.7173,0.4236,0.4943,-0.1011
438231.0,2.0063,2.3367,8.8969,0.5417,0.6444,-0.0234
438241.0,2.0686,1.652,9.9,0.5646,0.7785,0.0261
438251.0,1.9249,1.6065,10.5034,0.4869,0.7657,0.0059
438261.0,1.7166,1.6927,11.248,0.2357,0.5752,-0.0479
438271.0,1.8148,1.7526,11.0253,0.0458,0.3225,-0.075
438281.0,2.0973,1.731,10.3022,-0.0511,0.1362,-0.0857
438291.0,2.3032,2.1021,9.0237,-0.0378,0.0841,-0.0851
438301.0,2.332,2.4157,7.9703,-0.0144,0.1681,-0.0623
438311.0,2.3296,2.6839,7.082,0.0245,0.339,-0.0133
438321.0,2.2913,3.0454,6.3279,0.0112,0.5326,0.0426
438331.0,1.9656,3.4189,5.94,-0.0798,0.6965,0.1171
438341.0,1.7813,3.7326,5.2218,-0.1543,0.8242,0.2267
438351.0,1.9465,3.9648,3.5267,-0.2921,0.887,0.3602
438361.0,2.0901,4.1563,0.2442,-0.5678,0.9674,0.5007
438371.0,2.1787,4.4005,-4.9752,-1.1531,1.1653,0.6449
438381.0,1.2689,3.4668,-8.011,-1.9273,1.8427,0.812
438391.0,-1.6305,3.5841,-9.4906,-2.113,3.1304,1.0339
438401.0,-6.0094,3.3878,-8.2384,-1.7512,4.6693,1.3415
438411.0,-10.6183,0.1508,-4.4125,-0.6135,6.4838,1.7741
438421.0,-12.1602,-7.4364,2.6193,0.9477,8.3499,2.0242
438431.0,-11.8728,-15.7443,13.611,2.3168,9.7707,1.6155
438441.0,-13.6086,-17.8847,27.9475,3.3773,10.2208,0.4305
438451.0,-14.4131,-12.0069,38.1923,4.0164,8.8778,-1.0403
438461.0,-14.4227,-2.6097,41.3526,3.8019,6.2582,-2.229
438471.0,-13.8217,7.6782,38.4772,2.6345,3.5481,-2.9096
438481.0,-13.8768,14.8991,36.5068,0.4661,1.2994,-3.0618
438491.0,-14.0468,18.0283,34.1868,-1.6591,-0.5789,-2.7079
438501.0,-13.9175,16.6924,31.8908,-3.0618,-2.1253,-2.0045
438511.0,-13.3884,13.4937,27.7584,-3.1884,-3.2124,-1.1355
438521.0,-12.0357,9.5433,22.2445,-2.3381,-3.7993,-0.2857
438531.0,-9.3206,5.6671,15.1768,-1.1643,-3.9312,0.3597
438541.0,-7.7476,2.3942,10.3453,-0.357,-3.5274,0.6502
438551.0,-5.9424,1.3168,7.0366,0.0777,-2.8138,0.6508
438561.0,-4.7333,0.0048,7.9392,-0.0942,-2.1439,0.4693
438571.0,-4.3694,-0.0287,9.3398,-0.4129,-1.8007,0.1932
438581.0,-4.4915,0.091,12.1649,-0.6971,-1.7139,-0.0835
438591.0,-4.4269,1.0247,13.441,-0.6566,-1.8863,-0.274
438601.0,-4.3048,2.0446,13.7619,-0.5369,-2.2178,-0.3725
438611.0,-3.9959,3.0191,13.0723,-0.4289,-2.5877,-0.3778
438621.0,-3.6775,3.7445,11.8274,-0.4257,-2.9346,-0.3219
438631.0,-3.2178,4.3359,9.9718,-0.5188,-3.2379,-0.2144
438641.0,-2.7294,4.2377,8.0325,-0.6827,-3.414,-0.0612
438651.0,-2.1548,3.4477,6.4715,-0.8626,-3.4433,0.0958
438661.0,-1.5323,2.1715,5.2984,-0.9674,-3.3401,0.2171
438671.0,-0.8571,0.7183,4.5729,-0.9456,-3.1054,0.2794
438681.0,-0.2729,-0.4956,4.4077,-0.8056,-2.776,0.2671
438691.0,0.1245,-1.4078,4.956,-0.5981,-2.4163,0.1852
438701.0,0.5531,-1.4269,5.5162,-0.331,-2.0939,0.0591
438711.0,0.5004,-0.5459,6.0286,-0.1873,-1.9055,-0.0841
438721.0,0.6009,0.6033,6.5122,-0.2139,-1.8704,-0.1852
438731.0,0.6943,1.743,6.5601,-0.2884,-1.8773,-0.2123
438741.0,0.644,2.4038,6.7469,-0.4417,-1.9092,-0.1687
438751.0,0.7925,2.4972,6.7445,-0.5231,-1.9262,-0.0628
438761.0,1.0175,1.8579,7.0054,-0.4901,-1.88,0.0718
438771.0,1.4844,0.9505,7.0126,-0.3049,-1.7938,0.1926
438781.0,1.8052,0.3639,6.7181,-0.0718,-1.7049,0.2554
438791.0,2.1237,0.2729,6.2968,0.0984,-1.6277,0.2735
438801.0,2.1763,0.5411,5.7676,0.2054,-1.5256,0.2788
438811.0,2.3607,0.9433,5.3079,0.1995,-1.4213,0.2911
438821.0,2.6408,1.0056,5.4396,0.1383,-1.2537,0.3225
438831.0,2.6767,0.9122,5.9544,0.0905,-1.0477,0.3581
438841.0,2.6695,0.6105,7.0437,-0.0027,-0.9349,0.3757
438851.0,2.8276,0.5219,7.8745,-0.0176,-0.9168,0.3842
438861.0,2.7485,0.486,8.3773,0.0282,-0.953,0.3948
438871.0,3.0358,0.2227,8.6072,0.1538,-1.0078,0.4252
438881.0,3.3255,0.0599,8.509,0.3789,-0.9924,0.4502
438891.0,3.1412,0.249,8.3534,0.5417,-0.9684,0.4528
438901.0,3.0909,0.486,8.0996,0.5225,-1.0318,0.4422
438911.0,3.1747,0.4094,8.011,0.4028,-1.1063,0.4315
438921.0,3.2729,0.4477,7.8578,0.2719,-1.1685,0.4103
438931.0,3.3567,0.6009,7.6686,0.1133,-1.2733,0.3789
438941.0,3.5123,0.7805,7.0461,0.0378,-1.3734,0.3714
438952.0,3.8978,0.8188,6.2465,0.0782,-1.3643,0.3975
438961.0,4.209,0.6249,5.5498,0.2091,-1.2462,0.4459
438971.0,4.446,0.4525,5.3606,0.4119,-1.0397,0.4954
438981.0,4.7046,0.5435,5.3151,0.671,-0.8014,0.5358
438991.0,4.5514,0.838,4.8315,0.7822,-0.6859,0.5608
439001.0,4.7285,0.7877,4.1252,0.6742,-0.6955,0.5704
439011.0,4.956,0.4549,3.2537,0.5582,-0.6268,0.5699
439021.0,5.2002,-0.0982,2.5594,0.5683,-0.3799,0.555
439031.0,5.3008,-0.5746,2.4181,0.7003,0.0069,0.5071
439041.0,5.2457,-0.4932,2.8778,0.9232,0.4438,0.4284
439051.0,4.7956,0.0024,3.7637,1.1797,0.8381,0.3512
439061.0,4.3981,0.6704,4.5873,1.4154,1.1073,0.306
439071.0,4.1492,1.494,4.9225,1.5288,1.202,0.2836
439081.0,3.8666,2.3966,4.8937,1.4904,1.1717,0.2836
439091.0,3.2082,3.0981,4.4173,1.3713,1.1233,0.3257
439101.0,3.1556,2.4732,3.8786,1.2654,1.1132,0.4108
439111.0,3.6631,1.7382,2.7174,1.3154,1.2478,0.4539
439121.0,3.6392,1.8675,2.1668,1.4026,1.582,0.414
439131.0,2.9018,2.8826,2.2314,1.5101,1.9912,0.3741
439141.0,2.1572,4.1922,1.5012,1.5048,2.27,0.397
439151.0,1.3288,4.9129,-0.838,0.9519,2.2748,0.4693
439161.0,0.7661,4.5777,-3.8978,-0.3012,2.0758,0.5396
439171.0,0.2227,3.3902,-7.5058,-1.8315,1.9518,0.6178
439181.0,-0.2562,0.9002,-8.7101,-2.9495,2.2567,0.7375
439191.0,-1.1708,-0.3903,-8.9352,-2.5419,3.2326,0.9147
439201.0,-4.2689,-0.7015,-7.75,-0.5507,4.9045,1.1286
439211.0,-8.3079,-1.6855,-7.6902,2.395,6.8919,1.3149
439221.0,-11.1642,-3.0981,-5.5641,4.7406,8.8677,1.1531
439231.0,-16.4194,-2.2146,0.5531,6.0453,10.6928,0.5672
439241.0,-21.0307,1.7861,8.9184,6.2949,11.749,-0.2277
439251.0,-24.0713,7.0605,18.8831,5.2929,11.6841,-0.9743
439261.0,-24.6148,12.8856,28.0002,3.3358,10.4283,-1.4543
439271.0,-23.3746,16.915,37.0383,1.3617,8.6436,-1.4734
439281.0,-22.4839,18.6915,44.0509,0.513,7.1394,-0.9807
439291.0,-21.1695,16.4458,49.3277,0.0303,5.2285,-0.2804
439301.0,-18.7801,11.8298,49.8329,-0.3996,2.6084,0.3033
439311.0,-16.4482,7.4651,44.0916,-0.621,-0.0372,0.6391
439321.0,-14.1928,4.5346,34.5627,-0.8583,-2.1237,0.6699
439331.0,-12.1482,2.9305,25.1631,-1.3617,-3.3991,0.4507
439341.0,-10.24,2.3032,17.9733,-1.939,-3.852,0.1203
439351.0,-8.8131,2.3822,14.1018,-2.2753,-3.6162,-0.1905
439361.0,-8.1427,3.0933,12.8425,-2.2274,-3.0458,-0.3868
439371.0,-7.865,3.723,13.3285,-1.9268,-2.5818,-0.4289
439381.0,-7.3813,3.5817,13.4626,-1.4505,-2.4041,-0.3283
439391.0,-6.6367,2.8778,12.6725,-1.0318,-2.4365,-0.1942
439401.0,-5.9209,1.8507,11.5496,-0.8588,-2.577,-0.1224
439411.0,-4.9847,0.8188,10.252,-0.8673,-2.7388,-0.1415
439421.0,-4.312,0.4501,8.916,-0.9115,-2.7952,-0.241
439431.0,-3.9792,0.6512,7.8075,-0.9988,-2.7649,-0.3719
439441.0,-3.6248,0.8068,6.9432,-1.1696,-2.7377,-0.4949
439451.0,-2.9042,0.9266,6.3039,-1.2872,-2.6547,-0.5992
439461.0,-2.8802,1.3336,6.201,-1.2664,-2.4477,-0.671
439471.0,-2.7054,1.4174,6.2728,-1.1313,-2.2535,-0.6832
439481.0,-2.399,1.245,6.0885,-0.8886,-2.1151,-0.6619
439491.0,-1.6855,1.4245,5.4229,-0.5662,-1.9087,-0.6423
439501.0,-1.3791,1.9106,5.2122,-0.3491,-1.6107,-0.6274
439511.0,-1.3431,2.3511,5.8514,-0.306,-1.3537,-0.6002
439521.0,-1.3336,2.4205,6.9935,-0.3432,-1.1914,-0.5513
439531.0,-1.3431,2.15,8.2265,-0.3517,-1.1222,-0.489
439541.0,-1.2402,1.5036,9.5217,-0.3166,-1.1403,-0.4374
439551.0,-1.0223,1.0487,9.8641,-0.2863,-1.2829,-0.4299
439561.0,-0.7829,0.6369,9.7109,-0.422,-1.5272,-0.4853
439571.0,-0.6129,0.7685,9.4475,-0.6274,-1.7698,-0.5864
439581.0,-0.5171,1.4437,9.0549,-0.7258,-1.9199,-0.6678
439591.0,-0.3304,2.3607,8.1211,-0.6391,-1.9592,-0.6678
439601.0,-0.1221,3.0358,7.5992,-0.4911,-1.8698,-0.5896
439611.0,-0.0239,3.2801,7.1563,-0.3469,-1.7347,-0.4523
439621.0,0.2466,2.6193,7.0342,-0.3171,-1.6405,-0.3022
439631.0,0.6967,1.4844,7.0509,-0.3299,-1.5564,-0.1974
439641.0,1.1229,0.261,7.3023,-0.3076,-1.4223,-0.1687
439651.0,1.2258,-0.2274,7.4627,-0.3421,-1.3643,-0.2347
439661.0,1.3024,-0.0934,7.5968,-0.4805,-1.425,-0.3485
439671.0,1.3982,0.5507,7.3071,-0.5332,-1.4819,-0.4331
439681.0,1.4988,1.075,7.0988,-0.4741,-1.4495,-0.4534
439691.0,1.719,1.6089,6.3997,-0.3618,-1.4112,-0.4198
439701.0,2.0662,1.7023,5.6048,-0.3326,-1.3729,-0.365
439711.0,2.4804,1.5658,5.1164,-0.3496,-1.2606,-0.3118
439721.0,2.6336,1.1636,5.3247,-0.3092,-1.0648,-0.2591
439731.0,2.8683,1.0319,4.9871,-0.0798,-0.862,-0.2081
439741.0,3.2417,1.063,4.5705,0.2112,-0.5965,-0.1687
439751.0,3.3088,1.5371,4.0127,0.4709,-0.2655,-0.1362
439761.0,3.1508,1.8818,4.1252,0.53,0.0362,-0.1022
439771.0,3.1053,1.8244,4.8171,0.5146,0.3187,-0.0591
439781.0,3.0909,1.5251,5.9185,0.5161,0.6029,-0.0218
439791.0,2.7126,1.4868,7.0246,0.4997,0.7822,-0.0186
439801.0,2.5139,1.3001,7.7357,0.4438,0.7966,-0.0213
439811.0,2.66,1.1205,7.7931,0.4161,0.7348,-0.0346
439821.0,2.5259,1.3623,7.2496,0.422,0.7114,-0.0585
439831.0,2.3511,1.7693,6.0573,0.315,0.6524,-0.0846
439841.0,2.296,2.2146,2.9449,-0.0654,0.4746,-0.1032
439851.0,2.4421,1.7837,-0.2035,-0.8971,0.3012,-0.133
439861.0,2.1596,1.7023,-5.0206,-1.956,0.2144,-0.1825
439871.0,2.4852,0.4764,-8.2791,-3.1592,0.3501,-0.2107
439881.0,2.3248,-0.2442,-9.5936,-3.3326,1.2106,-0.1421
439891.0,-0.3304,0.5219,-9.9407,-2.0689,2.7872,0.0511
439901.0,-2.8946,-0.3759,-8.5904,-0.0101,4.5937,0.3613
439911.0,-5.5785,-1.4198,-7.2832,2.3211,6.5998,0.5619
439921.0,-10.5632,-1.7334,-2.0327,3.5721,8.252,0.4268
439931.0,-14.2263,-2.715,7.5322,4.1212,9.4157,0.124
439941.0,-16.0172,-2.1356,17.8584,4.5645,10.033,-0.3118
439951.0,-18.2773,2.1715,28.5006,4.2973,9.6919,-0.8759
439961.0,-18.3037,6.2273,38.0774,2.9309,7.8529,-1.3015
439971.0,-16.7857,9.7037,42.466,1.5245,5.3105,-1.4149
439981.0,-15.8041,12.5672,42.1164,0.6455,3.024,-1.2132
439991.0,-14.4849,13.3525,38.2833,0.0064,1.0371,-0.7849
440001.0,-13.3692,11.3437,33.8684,-0.6295,-0.5619,-0.3086
440011.0,-11.9135,8.0565,29.2284,-0.969,-1.6687,0.0788
440021.0,-10.7667,5.0805,24.3131,-1.0525,-2.4078,0.2927
440031.0,-9.1363,2.0973,20.0036,-1.0435,-2.8633,0.3283
440041.0,-7.6782,0.7805,15.3349,-0.9828,-3.0368,0.1729
440051.0,-6.5697,0.4334,12.6031,-1.1063,-2.9729,-0.1043
440061.0,-5.9089,1.221,11.3318,-1.1526,-2.7095,-0.3837
440071.0,-5.7604,2.5331,11.394,-1.1068,-2.4078,-0.5694
440081.0,-5.8059,3.7852,12.0045,-0.9892,-2.2838,-0.6146
440091.0,-5.4636,4.47,12.3804,-0.8046,-2.3349,-0.5353
440101.0,-5.1308,4.5681,12.1985,-0.6082,-2.4823,-0.3805
440111.0,-4.8315,4.1994,11.3701,-0.5481,-2.759,-0.2219
440121.0,-4.2449,3.2609,10.2041,-0.6816,-3.1341,-0.1086
440131.0,-3.3543,1.8866,8.6263,-0.7556,-3.3896,-0.0479
440141.0,-2.9185,1.2641,6.8785,-0.7646,-3.4635,-0.0713
440151.0,-2.4876,1.233,5.8059,-0.787,-3.422,-0.1389
440161.0,-2.0997,1.5299,5.2936,-0.7029,-3.2815,-0.1761
440171.0,-1.8196,1.7957,5.2792,-0.4081,-3.0075,-0.1431
440181.0,-1.4605,1.6161,6.1531,-0.0096,-2.692,-0.0559
440191.0,-1.1133,1.3647,6.6894,0.3986,-2.4647,0.042
440201.0,-1.0367,1.47,6.213,0.4491,-2.5259,0.0788
440211.0,-0.4597,0.9553,4.8483,0.0506,-2.8058,0.0686
440221.0,0.589,0.067,3.2034,-0.4688,-2.9383,-0.0059
440231.0,1.3024,-0.2131,1.9273,-0.8482,-2.7627,-0.1447
440241.0,1.7214,0.0982,1.5538,-1.0488,-2.3642,-0.2873
440251.0,2.0279,0.6823,2.3296,-1.1137,-1.897,-0.3858
440261.0,1.9321,1.063,4.0749,-0.9578,-1.4761,-0.3847
440271.0,2.1644,1.0247,5.1044,-0.5295,-1.2148,-0.2889
440281.0,2.6552,0.565,5.1595,0.0021,-1.0094,-0.1602
440291.0,2.8419,0.3639,4.8339,0.3911,-0.8237,-0.0814
440301.0,2.9856,0.1125,4.5586,0.5577,-0.6678,-0.0559
440311.0,3.1963,-0.0479,4.4508,0.613,-0.4539,-0.0702
440321.0,3.0742,0.1556,4.9344,0.5965,-0.166,-0.1219
440331.0,2.9042,0.5052,5.9903,0.4911,0.066,-0.1772
440341.0,2.8347,0.7709,7.1898,0.3954,0.2049,-0.2086
440351.0,2.7246,0.9433,8.1618,0.339,0.2687,-0.2171
440361.0,2.6935,0.9601,8.8394,0.3294,0.2661,-0.2102
440371.0,2.66,0.9625,9.0333,0.4076,0.2762,-0.1905
440381.0,2.6887,0.9146,9.2823,0.5529,0.3517,-0.1724
440391.0,2.5355,1.549,9.0237,0.7013,0.4406,-0.1687
440401.0,2.2841,2.1261,9.4116,0.7029,0.5188,-0.1591
440411.0,2.2051,2.727,9.5193,0.6795,0.5837,-0.124
440421.0,1.9058,2.9832,9.7013,0.5177,0.5917,-0.0734
440431.0,1.8914,2.545,10.0652,0.3288,0.5805,-0.016
440441.0,1.889,1.8627,10.4794,0.2448,0.6263,0.0208
440451.0,1.7669,1.2234,11.0756,0.2182,0.6662,0.0106
440461.0,1.5634,0.9505,11.3988,0.2261,0.6226,-0.0426
440471.0,1.6137,1.1875,11.4922,0.2762,0.564,-0.1203
440481.0,1.4222,2.3703,10.9607,0.2937,0.506,-0.2001
440491.0,1.1301,3.4429,10.6805,0.0399,0.3443,-0.2453
440501.0,1.2809,3.9959,9.8665,-0.299,0.1192,-0.2214
440511.0,1.6783,3.7804,8.6335,-0.5906,0.0043,-0.1511
440521.0,1.992,3.2537,7.8721,-0.7737,0.107,-0.0889
440531.0,1.8244,3.0813,8.1139,-0.8237,0.3709,-0.0474
440541.0,1.5107,2.9401,8.8633,-0.7098,0.6141,0.016
440551.0,1.3192,2.7126,8.8394,-0.4869,0.7215,0.1038
440561.0,1.3743,2.4828,7.0366,-0.4331,0.6524,0.1761
440571.0,1.8459,1.4389,4.525,-0.8423,0.4608,0.1884
440581.0,2.7533,0.6656,0.1365,-1.533,0.2852,0.1224
440591.0,3.1508,0.3807,-4.6567,-2.4174,0.3267,0.0037
440601.0,3.0382,1.2378,-9.6223,-2.9256,0.9344,-0.0458
440611.0,0.8284,3.1268,-12.7108,-2.7186,2.3748,0.0947
440621.0,-3.1029,3.8762,-11.8992,-1.8821,4.283,0.4672
440631.0,-7.4603,2.6624,-8.7987,-0.4331,6.3369,0.9578
440641.0,-11.3725,-0.2274,-2.6408,1.0546,8.2238,1.2904
440651.0,-14.9015,-2.15,5.2553,2.1769,9.5567,1.259
440661.0,-16.4003,-3.3878,15.2128,2.7159,10.1442,0.9365
440671.0,-16.9079,-3.1268,26.3721,3.107,10.2985,0.4651
440681.0,-17.176,-0.4046,37.1005,2.5632,9.3125,-0.174
440691.0,-16.4673,1.9417,45.4108,0.63,6.686,-0.8237
440701.0,-15.1768,3.8834,48.0756,-1.2467,3.5066,-1.2217
440711.0,-15.3588,4.2641,46.2201,-2.1093,0.8051,-1.2728
440721.0,-14.3556,5.5785,37.4118,-2.2072,-1.541,-1.1467
440731.0,-13.6326,5.1787,30.5093,-2.3237,-3.1953,-0.9631
440741.0,-11.8178,6.1746,21.634,-1.4862,-3.6439,-0.646
440751.0,-10.647,6.1172,16.3213,-0.9019,-3.3927,-0.3342
440761.0,-9.0453,5.8371,12.7755,-0.903,-3.2012,-0.1112
440771.0,-7.8338,4.0103,13.362,-1.1345,-2.9059,0.042
440781.0,-7.2209,2.8563,14.0971,-0.9062,-2.5717,0.1586
440791.0,-7.1611,1.8699,15.4091,-0.7295,-2.5935,0.2097
440801.0,-6.8331,1.8268,15.2702,-0.6396,-3.0554,0.2097
440811.0,-6.3662,1.968,13.8145,-0.5342,-3.5385,0.2299
440821.0,-6.0837,1.9537,11.8082,-0.4592,-3.8818,0.2767
440831.0,-5.5186,1.4102,10.4028,-0.4927,-4.1164,0.3198
440841.0,-4.9919,0.9313,8.9376,-0.4645,-4.2526,0.3448
440851.0,-4.7692,0.668,7.0653,-0.4161,-4.3431,0.3544
440861.0,-3.9025,0.3974,4.3503,-0.5071,-4.4554,0.3549
440871.0,-2.4852,-0.5291,2.1739,-0.704,-4.3846,0.3283
440881.0,-1.3264,-0.9864,0.7398,-0.7466,-4.0031,0.2655
440891.0,-0.3208,-1.0942,0.2801,-0.6556,-3.4321,0.1974
440901.0,0.395,-1.2881,1.1181,-0.5183,-2.7883,0.1458
440911.0,0.5866,-1.5131,3.4572,-0.3304,-2.17,0.1054
440921.0,0.3304,-1.2091,6.0645,-0.1495,-1.8198,0.0697
440931.0,0.0479,-0.9697,7.8219,-0.0766,-1.8667,0.0575
440941.0,0.1053,-0.5435,7.6782,-0.0862,-2.2189,0.0623
440951.0,0.7207,-0.0646,6.1244,-0.1405,-2.5472,0.0873
440961.0,1.3815,0.4214,3.8331,-0.1362,-2.5925,0.1447
440971.0,2.0806,0.8332,2.2673,-0.1809,-2.3722,0.2097
440981.0,2.4062,0.9002,1.7909,-0.2559,-1.9736,0.282
440991.0,2.6432,0.3543,2.3703,-0.3065,-1.4963,0.3677
441001.0,2.9904,-0.34,3.4429,-0.4475,-1.1355,0.4028
441011.0,2.8204,-0.5387,5.0063,-0.7008,-0.953,0.3773
441021.0,2.5259,-1.3024,7.1682,-0.763,-0.8737,0.3906
441031.0,2.8802,-2.1524,7.5872,-0.4289,-0.9019,0.4326
441041.0,2.964,-2.7126,7.2042,-0.008,-0.9248,0.4294
441051.0,3.5769,-3.1699,6.7301,0.4683,-0.7748,0.3959
441061.0,3.5075,-2.7725,6.2345,0.7279,-0.5875,0.2975
441071.0,3.6631,-2.5786,7.0126,0.6513,-0.4534,0.1623
441081.0,3.5171,-1.5706,7.7596,0.5481,-0.3395,0.0383
441091.0,3.0742,-0.577,8.9567,0.3272,-0.3656,-0.0431
441101.0,3.0167,0.4836,8.7197,0.1048,-0.5816,-0.049
441111.0,3.0885,0.8236,8.0852,-0.2001,-0.8141,0.0074
441121.0,3.2034,0.2825,7.9296,-0.3831,-0.9104,0.1112
441131.0,3.4405,-0.7901,8.169,-0.1953,-0.8253,0.2368
441141.0,3.7565,-1.8627,7.5465,0.331,-0.6518,0.3427
441151.0,4.0318,-2.3583,6.9528,0.7646,-0.4853,0.3565
441161.0,4.1396,-2.3104,6.8761,1.0334,-0.281,0.2948
441171.0,3.9433,-1.6664,7.2568,1.1919,-0.0788,0.2107
441181.0,3.7134,-0.9098,8.0254,1.2494,0.0341,0.1389
441191.0,3.4069,0.0838,8.4491,1.2872,0.0436,0.1048
441201.0,3.3088,0.905,8.8107,1.2968,-0.0282,0.1224
441211.0,3.0981,1.4676,8.1116,1.2882,-0.1543,0.1884
441221.0,2.8132,2.1452,5.861,1.0057,-0.4214,0.2458
441231.0,2.9401,2.1452,3.0789,0.2815,-0.7897,0.2772
441241.0,3.5602,1.4653,-0.2873,-0.564,-1.0509,0.2969
441251.0,4.3455,0.8739,-3.8714,-1.102,-0.9237,0.3028
441261.0,4.786,1.075,-8.2361,-1.3021,-0.3778,0.3209
441271.0,4.5203,1.1037,-10.6446,-1.4793,0.497,0.373
441281.0,3.3375,1.8842,-12.2799,-1.5192,1.4591,0.4762
441291.0,1.4389,2.2865,-12.8401,-1.3718,2.4328,0.6891
441301.0,-0.1891,2.0183,-15.3923,-0.8184,3.3481,1.0078
441311.0,-3.371,0.996,-18.8926,0.1,4.6613,1.3329
441321.0,-7.7692,-2.3918,-16.3716,1.467,7.0494,1.5814
441331.0,-12.1889,-6.4332,-7.3957,3.2065,9.8616,1.5415
441341.0,-18.7969,-9.2727,5.9472,4.2979,11.6974,1.0036
441351.0,-21.5263,-10.1873,21.0977,5.0694,12.3072,0.1697
441361.0,-23.3435,-6.1651,36.071,6.0783,12.0332,-0.7327
441371.0,-24.8303,2.5163,47.41,6.4955,10.3187,-1.4793
441381.0,-21.4185,10.0533,51.935,5.7835,7.0079,-1.8321
441391.0,-19.5127,16.7427,49.4235,4.6735,3.9419,-1.7863
441401.0,-17.5016,19.642,46.4762,2.9836,1.4606,-1.4809
441411.0,-15.4977,20.2166,41.3886,1.2632,-0.5438,-1.0488
441421.0,-14.6525,17.8655,39.0015,-0.3443,-1.9534,-0.5965
441431.0,-14.0181,14.9614,36.6744,-1.1361,-3.0437,-0.1469
441441.0,-13.4458,13.0101,32.7886,-1.259,-4.0079,0.2581
441451.0,-13.1442,11.1594,27.6339,-1.2803,-4.9513,0.6024
441461.0,-12.1889,8.4396,21.9189,-1.4692,-5.849,0.8477
441471.0,-10.7715,5.8682,15.603,-1.7874,-6.5301,0.9174
441481.0,-9.3254,3.9145,9.0166,-2.3716,-6.9925,0.7939
441491.0,-7.3526,2.5283,4.2186,-3.1001,-7.1766,0.5252
441501.0,-5.6575,2.49,-0.0048,-3.472,-6.9904,0.2464
441511.0,-3.6033,2.5905,-3.96,-3.529,-6.6009,0.0718
441521.0,-1.8914,2.2553,-7.015,-3.289,-5.9283,0.0271
441531.0,-0.3735,1.8675,-10.5536,-2.8596,-5.1955,0.0665
441541.0,1.6352,0.7973,-15.4378,-2.5547,-4.4884,0.1352
441551.0,4.1468,-0.577,-20.9205,-2.5015,-3.5971,0.1527
441561.0,5.6599,-0.9816,-26.5924,-2.5334,-2.2631,0.0931
441571.0,5.4923,-1.2785,-28.91,-2.7723,-0.5566,-0.009
441581.0,4.3646,-0.8475,-28.4144,-2.9373,1.1664,-0.1038
441591.0,2.0853,-0.261,-26.0393,-2.7005,2.8521,-0.0851
441601.0,-0.9002,-0.2298,-21.2318,-1.9576,4.5011,0.0607
441611.0,-3.8475,-1.4054,-14.9302,-0.5928,6.0693,0.2879
441621.0,-6.9959,-2.9042,-7.5848,1.201,7.5948,0.4464
441631.0,-10.7548,-3.9265,1.6305,2.8457,8.8964,0.4236
441641.0,-14.7555,-4.3742,12.6486,4.085,9.6701,0.1921
441651.0,-16.3524,-1.9201,21.4425,5.1285,9.7802,-0.1761
441661.0,-17.6692,3.4524,31.0265,5.3137,9.3412,-0.5763
441671.0,-18.4186,8.9687,41.3239,4.5905,8.1472,-0.7966
441681.0,-17.7027,12.5696,47.9343,3.2869,6.0304,-0.7482
441691.0,-16.7139,13.0484,52.1361,1.6857,3.4656,-0.5225
441701.0,-15.4426,11.5999,50.3764,0.4789,0.7364,-0.1862
441711.0,-13.793,8.7604,43.833,-0.4337,-1.831,0.1016
441721.0,-12.4762,6.3949,34.8859,-1.0217,-3.7333,0.2597
441731.0,-10.908,4.5059,26.0034,-1.3899,-4.9024,0.3033
441741.0,-9.2943,3.3686,18.3013,-1.6309,-5.4142,0.2453
441751.0,-7.6423,2.7749,12.615,-1.7501,-5.3445,0.1538
441761.0,-6.3925,2.1476,10.1754,-1.7661,-4.9029,0.0633
441771.0,-5.3606,1.7382,8.8992,-1.5234,-4.4522,0.0223
441781.0,-4.0486,1.3503,7.8147,-1.1488,-4.1271,0.0133
441791.0,-3.1795,1.8579,5.873,-0.9684,-4.0116,-0.0027
441801.0,-3.1795,1.8579,5.873,-0.9684,-4.0116,-0.0027
441811.0,-2.2553,1.3264,4.8052,-1.1648,-4.0744,-0.0112
441821.0,-1.2594,0.972,2.9233,-1.2451,-4.1143,-0.009
441831.0,-0.486,0.5411,0.8691,-1.2068,-4.0371,0.0048
441841.0,0.7709,-0.4621,-1.312,-1.002,-3.7972,0.0415
441851.0,1.8052,-1.0582,-3.4572,-0.6173,-3.272,0.0532
441861.0,2.4181,-1.5921,-4.2282,-0.2059,-2.5009,0.0415
441871.0,2.9137,-1.5682,-4.3239,0.1793,-1.6921,0.0106
441881.0,3.3495,-1.5586,-4.4005,0.3001,-1.0445,-0.0426
441891.0,3.5937,-1.7526,-3.2848,0.1426,-0.4784,-0.1405
441901.0,3.1436,-0.8787,-3.2154,-0.0899,-0.0825,-0.2655
441911.0,3.304,0.3903,-4.7501,-0.7577,-0.049,-0.3938
441921.0,3.5937,2.1572,-7.5561,-1.7267,-0.0474,-0.4661
441931.0,3.1723,3.4117,-9.4068,-2.5408,0.2581,-0.3751
441941.0,2.8659,4.1013,-11.5664,-2.634,0.9025,-0.0676
441951.0,2.0207,2.5474,-12.8545,-1.8459,2.1045,0.4017
441961.0,0.8092,0.431,-12.6629,-0.5114,3.7312,0.8019
441971.0,-3.3136,1.1636,-10.4674,0.5859,5.2222,0.9413
441981.0,-6.9288,-0.4573,-5.5138,1.4191,6.5258,1.0419
441991.0,-9.9359,-3.5003,1.221,2.3738,7.9455,1.0057
442001.0,-13.5081,-4.2138,10.659,2.9309,8.8836,0.5965
442011.0,-15.3229,-3.8906,22.7736,3.2895,9.2524,0.0734
442021.0,-17.3197,1.5467,33.9881,3.8025,9.0209,-0.4347
442031.0,-18.5215,8.5329,44.2592,3.5162,7.6566,-0.737
442041.0,-17.5064,13.7044,49.8688,2.3775,5.1546,-0.6955
442051.0,-17.516,15.9574,51.6836,0.8849,2.4051,-0.3656
442061.0,-16.6421,13.2471,49.6533,-0.3549,-0.3443,0.1772
442071.0,-15.7203,8.8849,42.7317,-0.9434,-2.7388,0.6939
442081.0,-14.4873,4.2521,34.34,-1.1754,-4.5113,1.0089
442091.0,-12.6701,0.5698,25.7832,-1.1398,-5.5638,1.0834
442101.0,-10.7548,-0.644,18.4377,-1.1568,-6.0086,0.9014
442111.0,-9.4739,-0.2705,13.4315,-1.3952,-6.0922,0.5922
442121.0,-8.1738,0.5674,9.7372,-1.6331,-5.9793,0.3272
442131.0,-7.1563,1.6209,7.3095,-1.8491,-5.7904,0.132
442141.0,-6.0501,2.2721,4.9297,-1.9906,-5.6595,0.0537
442151.0,-4.5657,1.6735,2.8132,-2.0901,-5.5808,0.0681
442161.0,-3.2465,0.8284,-0.1341,-1.9827,-5.426,0.1123
442171.0,-1.47,-1.142,-3.6727,-1.8698,-5.1833,0.157
442181.0,0.2705,-3.043,-7.4939,-1.8262,-4.7922,0.1032
442191.0,1.6759,-3.9624,-10.8362,-1.7725,-4.1249,-0.0639
442201.0,3.3591,-3.7876,-14.4275,-1.7299,-3.2853,-0.29
442211.0,4.4939,-2.1332,-18.579,-1.8475,-2.3035,-0.5146
442221.0,4.7429,-0.8715,-20.4608,-2.1295,-1.1041,-0.6375
442231.0,5.2505,1.1564,-22.3211,-1.88,0.3863,-0.6077
442241.0,3.6943,3.4477,-22.5534,-1.5633,1.9917,-0.4252
442251.0,1.2761,3.3615,-18.3683,-1.1871,3.5167,-0.0681
442261.0,-1.8268,1.6759,-13.7044,0.0059,5.1163,0.3826
442271.0,-5.023,-1.9968,-6.9121,1.2723,6.5689,0.68
442281.0,-7.8506,-4.2473,1.3431,2.2498,7.5831,0.6284
442291.0,-9.8785,-4.2306,9.5553,3.1192,8.1583,0.3416
442301.0,-12.3301,-1.2163,17.7913,3.7078,8.3653,-0.033
442311.0,-13.7714,4.0558,25.9053,3.728,7.9402,-0.3262
442321.0,-14.8656,10.1035,33.1238,3.265,7.0909,-0.3672
442331.0,-15.5144,13.5488,40.5626,2.3078,5.734,-0.0867
442341.0,-15.1098,12.3876,44.8649,1.2212,3.7211,0.4182
442351.0,-14.3365,8.193,45.0469,0.3932,1.4819,0.8998
442361.0,-12.4834,2.8204,40.7397,0.0208,-0.5986,1.1861
442371.0,-10.5058,-1.0678,33.7247,-0.1314,-2.1641,1.1515
442381.0,-9.1435,-2.9544,27.4615,-0.4613,-3.1847,0.8157
442391.0,-8.2744,-2.8204,22.3068,-0.9413,-3.8536,0.3326
442401.0,-7.2664,-0.838,18.4904,-1.3505,-4.2127,-0.1208
442411.0,-7.0725,1.506,16.1369,-1.5415,-4.3043,-0.3709
442421.0,-6.6272,2.7605,14.7483,-1.4899,-4.3458,-0.3821
442431.0,-6.0861,3.2417,12.8808,-1.2776,-4.5033,-0.2368
442441.0,-5.1499,2.7653,10.1945,-1.0695,-4.7284,-0.0245
442451.0,-4.039,2.0638,7.4053,-0.977,-4.8949,0.1532
442461.0,-2.806,1.0894,4.3072,-0.9312,-4.9098,0.2932
442471.0,-1.8699,0.0096,1.1444,-0.9982,-4.8156,0.3634
442481.0,-0.3663,-1.6161,-1.9249,-1.1589,-4.5975,0.3576
442491.0,1.4605,-3.4812,-3.972,-1.1286,-3.9855,0.2645
442501.0,2.1021,-3.9456,-4.4341,-0.912,-3.0634,0.0676
442511.0,2.6049,-4.3934,-2.9688,-0.6891,-2.196,-0.149
442521.0,2.8132,-3.8403,-0.7757,-0.3326,-1.4223,-0.348
442531.0,2.3439,-2.6959,2.3846,-0.008,-0.911,-0.4895
442541.0,2.2075,-1.7933,3.8188,0.3608,-0.7982,-0.5161
442551.0,2.2745,-1.3623,3.2322,0.5523,-0.9514,-0.4933
442561.0,2.976,-1.1037,0.6273,0.4017,-1.2137,-0.4901
442571.0,3.4357,-0.2251,-3.7373,-0.1394,-1.3638,-0.5326
442581.0,3.7613,1.166,-9.7181,-1.2334,-1.4048,-0.5805
442591.0,3.5721,2.0614,-15.0116,-2.7053,-1.1664,-0.5449
442601.0,4.197,2.5953,-20.4752,-3.8663,-0.5784,-0.3597
442611.0,6.462,2.3415,-25.5557,-3.8594,0.6598,0.0005
442621.0,0.0168,5.7054,-31.7351,-2.2508,3.0884,0.5199
442631.0,-4.6567,7.355,-31.9506,-0.7944,5.7335,1.1717
442641.0,-14.1114,9.098,-29.882,0.9929,8.7745,1.9039
442651.0,-24.9739,2.569,-15.4881,2.7313,12.2945,2.5962
442661.0,-32.8197,-6.7349,1.3072,4.3841,15.054,2.7143
442671.0,-38.3527,-13.4602,26.5014,5.1296,16.4348,1.8581
442681.0,-37.1341,-11.3222,48.4658,5.9996,15.8383,0.5917
442691.0,-36.2937,-0.2801,63.2213,5.7309,13.3326,-0.7247
442701.0,-33.2842,6.5146,72.5611,3.4353,9.0645,-1.6655
442711.0,-32.4247,14.2838,75.7789,1.64,4.772,-1.9576
442721.0,-30.0879,13.7906,71.6369,-0.4922,-0.8551,-1.7347
442731.0,-28.084,12.323,57.5829,-1.0594,-5.1604,-1.1185
442741.0,-25.5964,9.8521,39.9401,-0.5459,-7.6465,-0.3512
442751.0,-21.1432,6.6942,21.6963,-0.1894,-8.9113,0.2373
442761.0,-15.7395,2.9521,8.9304,-0.4975,-8.7942,0.4539
442771.0,-11.1139,0.1532,2.3128,-0.8594,-7.5406,0.332
442781.0,-8.6239,-0.3543,-0.1963,-1.2063,-5.9639,-0.017
442791.0,-7.0892,-0.2825,1.0989,-1.8486,-4.847,-0.4576
442801.0,-5.9903,0.7183,3.869,-2.2977,-4.1936,-0.8407
442811.0,-6.3829,2.3511,8.1163,-2.212,-3.8025,-1.0408
442821.0,-6.6822,4.1013,9.5241,-1.4638,-3.9259,-0.9472
442831.0,-6.1555,4.968,6.9025,-0.6944,-4.4905,-0.6619
442841.0,-4.3886,4.8243,1.6209,-0.2533,-4.9258,-0.3315
442851.0,-1.9872,3.6607,-3.3471,-0.2107,-4.7699,-0.066
442861.0,-0.6488,2.7126,-5.3271,-0.4204,-3.9871,0.066
442871.0,0.4477,1.5467,-4.13,-0.7652,-3.1443,0.1075
442881.0,1.2929,0.4836,-2.2505,-0.9083,-2.4275,0.125
442891.0,1.6688,-0.3711,0.668,-0.9355,-1.8784,0.1149
442901.0,1.6065,-0.7781,3.1244,-0.7838,-1.608,0.0979
442911.0,1.5227,-1.2522,4.2138,-0.4214,-1.4633,0.1123
442921.0,1.7669,-1.6496,4.3958,-0.1117,-1.3963,0.1048
442931.0,1.9824,-1.7406,4.2617,0.0223,-1.3058,0.0484
442941.0,2.0806,-1.2091,4.4891,-0.0144,-1.1669,-0.0474
442951.0,2.0782,-0.1101,5.2768,-0.1426,-1.0153,-0.1304
442961.0,2.0806,1.0846,6.122,-0.2501,-0.8971,-0.1373
442971.0,2.0662,1.7933,6.9791,-0.3874,-0.8519,-0.0628
442981.0,1.8627,2.0423,7.7452,-0.5566,-0.9062,0.067
442991.0,1.9369,1.1253,8.3558,-0.6263,-1.011,0.2442
443001.0,2.2051,-0.2298,8.2097,-0.5172,-1.0972,0.3986
443011.0,2.332,-1.4533,7.604,-0.3288,-1.1222,0.4784
443021.0,2.6767,-2.399,6.5697,-0.1799,-1.093,0.4752
443031.0,3.0694,-2.6671,5.873,-0.1139,-0.9583,0.3911
443041.0,3.2848,-2.1787,5.8203,-0.0575,-0.6832,0.2826
443051.0,3.0574,-1.482,6.7133,-0.0378,-0.3778,0.2065
443061.0,2.7988,-0.8667,8.3031,-0.0452,-0.1862,0.1799
443071.0,2.3415,-0.3232,9.6103,-0.0335,-0.1932,0.2065
443081.0,2.3535,-0.5315,10.2185,-0.0537,-0.3842,0.2746
443091.0,2.3463,-0.9433,9.821,-0.0921,-0.6588,0.332
443101.0,2.6001,-1.5969,9.0836,-0.1905,-0.945,0.3533
443111.0,2.9951,-1.9896,7.6567,-0.1602,-1.1222,0.3485
443121.0,3.4213,-1.889,5.8562,-0.033,-1.1158,0.3267
443131.0,3.8211,-1.7765,4.6687,0.0878,-0.9147,0.3092
443141.0,3.9768,-1.494,3.9337,0.1767,-0.613,0.2964
443151.0,3.9744,-1.5036,4.3981,0.1697,-0.3182,0.2857
443161.0,3.8188,-1.6807,5.0015,0.2277,-0.058,0.2937
443171.0,3.6057,-2.1165,6.0382,0.3507,0.1479,0.2969
443181.0,3.4141,-2.229,6.8019,0.5491,0.2746,0.2778
443191.0,3.2657,-2.1237,7.6998,0.7774,0.3682,0.2464
443201.0,3.1508,-1.5921,8.0924,0.9951,0.3852,0.2086
443211.0,3.0071,-0.7111,8.1259,1.0775,0.2873,0.1692
443221.0,3.043,0.2298,7.3717,1.1047,0.1602,0.1639
443231.0,3.067,0.8571,6.6008,1.0493,0.0899,0.191
443241.0,2.9233,1.5658,5.94,0.9924,0.0894,0.249
443251.0,2.5474,1.889,5.6216,1.0195,0.1639,0.3576
443261.0,2.4995,1.992,5.1523,1.1377,0.2107,0.4991
443271.0,2.6863,2.1284,4.8171,1.4245,0.3624,0.6508
443281.0,2.5139,2.9042,4.2401,1.8486,0.654,0.8077
443291.0,2.0782,3.7996,4.209,2.0955,0.8838,0.9674
443301.0,1.3623,4.8387,2.1907,2.0981,0.912,1.1579
443311.0,1.4676,4.1994,-2.9521,1.4026,0.6699,1.3542
443321.0,2.5474,1.8268,-9.0764,-0.2118,0.415,1.4122
443331.0,2.1596,-0.3615,-14.8919,-1.9619,0.6619,1.3473
443341.0,1.8986,-2.5067,-18.5551,-3.0831,1.4782,1.2664
443351.0,0.0144,-3.2848,-21.1432,-2.8186,2.9335,1.2563
443361.0,-4.6663,-2.1141,-22.2206,-0.4746,5.634,1.3734
443371.0,-12.56,-2.3679,-18.4401,2.4631,8.8746,1.5091
443381.0,-18.6963,-4.8602,-8.3414,4.5996,11.6969,1.3436
443391.0,-27.0736,-4.9392,4.5107,5.9033,13.7913,0.6854
443401.0,-30.5763,-2.5642,18.4521,5.8969,14.3644,-0.2857
443411.0,-32.6904,2.2266,35.8843,4.7885,13.762,-1.2356
443421.0,-31.2779,10.2161,50.9462,3.48,11.69,-1.806
443431.0,-25.5126,18.2534,52.9957,2.1998,8.5601,-1.7757
443441.0,-27.6674,19.666,63.8677,0.5875,6.4769,-1.2654
443451.0,-27.4543,16.8145,64.7248,-0.6933,2.3046,-0.4044
443461.0,-23.3243,8.0134,58.4616,-1.5192,-2.3844,0.4315
443471.0,-20.5806,2.3966,44.4843,-0.224,-4.9013,1.1105
443481.0,-17.358,-1.7142,29.0967,0.9679,-6.18,1.3872
443491.0,-13.3812,-4.0558,15.457,0.7774,-6.8898,1.0999
443501.0,-9.56,-3.4955,6.5481,-0.3352,-6.7376,0.3884
443511.0,-7.2042,-2.1955,2.7629,-1.4761,-5.7649,-0.3363
443521.0,-6.3758,-0.8595,2.5881,-2.303,-4.5607,-0.8993
443531.0,-6.1507,0.1221,6.0645,-2.7931,-3.6705,-1.2909
443541.0,-6.5481,1.4222,9.3948,-2.4562,-3.1815,-1.4144
443551.0,-6.2513,1.8603,11.1833,-1.4894,-3.0745,-1.2792
443561.0,-5.3319,1.7837,10.0173,-0.3044,-3.1815,-1.0211
443571.0,-4.4005,1.4988,7.8003,0.456,-3.305,-0.8072
443581.0,-3.2968,1.5778,5.3151,0.6061,-3.3874,-0.7077
443591.0,-2.3511,2.1787,3.4309,0.2224,-3.3912,-0.7189
443601.0,-1.6759,2.7222,3.0335,-0.3528,-3.2113,-0.7583
443611.0,-1.3767,3.2489,3.1532,-0.8051,-2.9687,-0.7593
443621.0,-0.9816,3.2657,3.5434,-1.0552,-2.7649,-0.7082
443631.0,-0.6057,3.1125,3.7397,-0.9791,-2.4743,-0.6024
443641.0,-0.2442,2.3774,4.5107,-0.6401,-2.0502,-0.4581
443651.0,-0.0048,1.6592,5.0039,-0.1905,-1.6538,-0.3336
443661.0,0.1245,1.5251,5.5689,0.0745,-1.3963,-0.2879
443671.0,0.3017,2.1213,5.7557,0.1841,-1.2361,-0.2794
443681.0,0.5387,2.9736,6.098,0.149,-1.0935,-0.2554
443691.0,0.4621,3.7828,6.6702,0.0069,-0.9759,-0.1926
443701.0,0.2274,4.2018,7.0844,-0.1666,-0.9317,-0.0718
443711.0,0.4549,3.4716,7.264,-0.3597,-0.9514,0.0851
443721.0,0.8691,1.9082,7.5681,-0.4581,-0.895,0.207
443731.0,1.2737,0.3519,8.0397,-0.4358,-0.7231,0.2448
443741.0,1.3767,-0.4142,8.9663,-0.4225,-0.5885,0.1777
443751.0,1.1803,-0.2705,9.8043,-0.4427,-0.5944,0.0681
443761.0,1.1492,0.0958,10.4555,-0.4347,-0.6981,-0.0074
443771.0,1.2665,0.6297,10.2185,-0.3443,-0.821,-0.0293
443781.0,1.4988,1.1732,9.4667,-0.3028,-0.9339,-0.0096
443791.0,1.6951,1.5706,8.497,-0.3672,-1.0121,0.0346
443801.0,1.913,1.4892,7.683,-0.4949,-1.0243,0.107
443811.0,2.1955,0.8308,7.446,-0.572,-0.9285,0.1841
443821.0,2.332,0.0335,7.5753,-0.5486,-0.7455,0.2368
443831.0,2.4301,-0.6321,7.9799,-0.5401,-0.63,0.2432
443841.0,2.5043,-1.0391,8.3055,-0.6024,-0.6465,0.2027
443851.0,2.5235,-1.1325,8.2193,-0.6518,-0.7359,0.149
443861.0,2.794,-1.2713,7.7716,-0.671,-0.8317,0.107
443871.0,3.0191,-1.1468,7.0294,-0.572,-0.8328,0.0772
443881.0,3.2034,-1.008,6.4428,-0.3586,-0.6848,0.0745
443891.0,3.1196,-1.0511,6.2872,-0.1399,-0.4768,0.0915
443901.0,3.3878,-1.5227,6.6942,0.0468,-0.3081,0.1032
443911.0,3.4261,-1.8459,6.8378,0.2277,-0.1708,0.0851
443921.0,3.4764,-2.0016,7.5417,0.3257,-0.0851,0.0255
443931.0,3.3208,-1.4916,7.6064,0.406,-0.1139,-0.05
443941.0,3.4117,-0.9768,7.1754,0.4177,-0.2054,-0.108
443951.0,3.632,-0.5914,6.529,0.4619,-0.2049,-0.1304
443961.0,3.632,-0.1317,6.0645,0.6087,-0.016,-0.1245
443971.0,3.4812,0.17,6.6343,0.8099,0.306,-0.099
443981.0,3.2178,0.6464,7.4747,1.0264,0.5848,-0.0612
443991.0,3.0215,0.9936,8.5832,1.0839,0.6572,-0.0271
444001.0,2.8276,1.7023,7.8123,0.9509,0.4518,0.0032
444011.0,2.818,1.98,5.3199,0.3491,0.0106,0.0293
444021.0,3.4069,1.2977,1.0534,-0.654,-0.4592,0.0394
444031.0,4.1827,0.6201,-5.0182,-1.9459,-0.754,-0.0112
444041.0,4.5179,-0.1915,-9.1889,-3.1294,-0.3986,-0.0713
444051.0,3.5147,0.0431,-10.0868,-3.3183,0.7817,-0.0192
444061.0,1.7502,1.3599,-9.8569,-2.5297,1.9933,0.1628
444071.0,-0.656,4.1731,-11.6358,-0.8014,3.1996,0.5183
444081.0,-6.3614,7.4627,-14.1904,1.6331,4.9412,1.0637
444091.0,-10.8409,6.2944,-15.1457,4.2244,7.3479,1.7006
444101.0,-15.0571,1.154,-13.1154,5.8479,10.1213,1.9427
444111.0,-20.7649,-5.8347,0.4549,5.4957,12.6888,1.3611
444121.0,-24.2341,-10.75,24.6004,4.2048,13.9807,0.1203
444131.0,-27.0976,-7.525,49.2368,3.4843,13.5635,-1.3069
444141.0,-19.0195,2.1021,57.9325,2.344,10.0915,-2.4419
444151.0,-26.3195,9.4116,73.3727,1.1499,7.0367,-2.8947
444161.0,-28.3234,18.2247,69.02,0.1692,1.4011,-2.6574
444171.0,-24.4089,18.4306,60.0729,-1.4899,-4.0403,-1.964
444181.0,-22.9365,17.9038,43.1651,-1.0318,-6.752,-0.7998
444191.0,-21.3611,13.5201,28.3186,-0.687,-8.243,0.3044
444201.0,-16.6134,7.6543,11.7364,-0.6731,-9.0752,1.0786
444211.0,-10.422,0.9385,2.0734,-1.0397,-8.4643,1.3308
444221.0,-5.4947,-2.6983,-4.2665,-1.1228,-6.7185,1.1073
444231.0,-3.9744,-5.0781,-3.0095,-1.5676,-4.8486,0.5305
444241.0,-2.6336,-5.0661,-0.6393,-1.8427,-3.7455,-0.1559
444251.0,-1.8579,-3.6272,2.0901,-1.665,-2.9043,-0.7333
444261.0,-2.1332,-0.8859,5.0901,-1.1153,-2.2099,-1.0892
444271.0,-2.308,1.7885,7.3741,-0.5821,-1.9912,-1.2068
444281.0,-1.8771,3.4237,8.0589,-0.1538,-2.1167,-1.1095
444291.0,-1.1109,3.9361,7.7405,0.1405,-2.2631,-0.8971
444301.0,-0.6752,3.8475,7.1227,0.1974,-2.3636,-0.6705
444311.0,-0.4501,3.146,6.9336,-0.008,-2.4722,-0.4879
444321.0,0.2418,2.545,6.2034,-0.2235,-2.5728,-0.3576
444331.0,0.7853,2.162,5.3917,-0.4299,-2.5648,-0.2778
444341.0,1.1923,1.9058,4.877,-0.6018,-2.4498,-0.2256
444351.0,1.5179,1.8531,4.7381,-0.7003,-2.2876,-0.1905
444361.0,1.6879,1.6376,4.853,-0.6992,-2.1098,-0.149
444371.0,2.1045,1.0056,4.7956,-0.5183,-1.8714,-0.083
444381.0,2.3846,0.6536,4.8219,-0.3512,-1.6213,-0.0617
444391.0,2.4636,0.5818,5.0398,-0.2889,-1.4154,-0.0803
444401.0,2.5474,0.8595,5.3295,-0.3076,-1.2702,-0.1064
444411.0,2.6647,1.2617,5.5617,-0.4188,-1.2058,-0.124
444421.0,2.8922,1.6903,5.521,-0.4922,-1.151,-0.1086
444431.0,3.1173,2.0135,5.3295,-0.5151,-1.0477,-0.049
444441.0,3.1963,2.0638,5.4181,-0.4821,-0.8971,0.0484
444451.0,3.3854,1.4724,5.545,-0.3719,-0.7157,0.1799
444461.0,3.6536,0.2298,6.0238,-0.2054,-0.4895,0.2916
444471.0,3.6871,-0.9385,6.3327,-0.0484,-0.2836,0.3315
444481.0,4.0558,-2.3679,7.197,-0.0112,-0.1485,0.2767
444491.0,4.0869,-2.7797,7.8721,0.0027,-0.0745,0.1261
444501.0,4.0342,-2.2362,8.5545,0.0005,-0.0756,-0.0607
444511.0,3.8858,-1.1301,8.6981,0.0149,-0.1325,-0.1995
444521.0,3.7613,-0.0144,8.6646,0.0282,-0.1756,-0.2538
444531.0,3.5386,1.0223,8.3773,0.0293,-0.2203,-0.2267
444541.0,3.4285,1.1899,8.3294,0.0176,-0.2629,-0.1235
444551.0,3.6296,0.7159,8.0373,0.1277,-0.2368,0.0138
444561.0,3.6631,0.0407,7.6591,0.2267,-0.1639,0.1086
444571.0,3.8427,-0.7278,7.513,0.2325,-0.1091,0.1357
444581.0,3.9935,-1.0582,7.3502,0.1969,-0.0569,0.099
444591.0,3.96,-1.0008,7.5585,0.1618,0.0261,0.0282
444601.0,3.8379,-0.4286,7.6183,0.2336,0.1187,-0.0277
444611.0,3.7397,0.2753,7.7069,0.3395,0.1963,-0.0484
444621.0,3.5554,0.8954,7.6279,0.4656,0.2586,-0.0239
444631.0,3.5362,0.9864,7.8961,0.5566,0.3272,0.0314
444641.0,3.4093,0.9864,8.1786,0.6029,0.3496,0.0782
444651.0,3.3447,0.9529,8.1906,0.5263,0.2224,0.0979
444661.0,3.4429,0.7805,7.7979,0.4097,0.0144,0.1043
444671.0,3.7469,1.0056,6.5338,0.4991,-0.0468,0.1187
444681.0,3.881,1.4916,5.1451,0.6316,0.0601,0.1447
444691.0,3.7924,2.0159,4.0127,0.6476,0.2086,0.1857
444701.0,3.7589,2.3846,2.9784,0.5114,0.332,0.2437
444711.0,3.6033,2.4062,1.8675,0.2815,0.447,0.3225
444721.0,3.4931,2.557,-1.3838,-0.1724,0.3975,0.4023
444731.0,4.1204,1.5036,-6.2608,-1.2196,0.1607,0.447
444741.0,5.3774,-0.2634,-11.4994,-2.4371,0.2182,0.4566
444751.0,4.5131,-0.5578,-14.4155,-2.6728,1.4069,0.4858
444761.0,0.5459,1.573,-17.2718,-2.0247,3.1325,0.6109
444771.0,-4.2952,3.0598,-16.3165,-0.8865,5.1301,0.8716
444781.0,-11.1498,3.9121,-11.9542,1.6847,8.1035,1.2984
444791.0,-17.9517,2.0518,-4.7956,4.565,11.2297,1.64
444801.0,-22.9149,-2.0806,5.8419,6.1156,13.4321,1.4612
444811.0,-26.1638,-5.5043,22.3547,5.6558,14.1824,0.5683
444821.0,-27.0401,-6.5984,46.8258,4.6954,13.7908,-0.6167
444831.0,-25.831,-0.5028,62.7831,4.2053,11.152,-1.7288
444841.0,-22.3164,5.1092,64.0856,2.7776,6.7286,-2.6089
444851.0,-28.5772,15.8376,63.7432,1.7655,3.2501,-2.9974
444861.0,-23.1735,18.8687,59.7018,-0.2868,-1.9699,-2.9484
444871.0,-21.8423,21.0977,45.0613,-1.3734,-5.6191,-2.3211
444881.0,-21.2773,20.231,32.688,-1.5894,-6.9882,-1.3564
444891.0,-18.4761,18.0906,20.4704,-1.7677,-7.7736,-0.4007
444901.0,-14.3269,13.9247,10.9367,-2.1806,-7.9955,0.3895
444911.0,-9.9096,9.833,3.8403,-2.2929,-7.3139,0.9546
444921.0,-7.3239,6.3805,0.5794,-2.2162,-6.073,1.251
444931.0,-5.4109,3.7661,-0.7422,-2.0933,-4.9284,1.3202
444941.0,-3.6631,1.6496,-0.7542,-2.0236,-4.0568,1.235
444951.0,-2.2458,-0.1867,0.2322,-1.8331,-3.3012,1.0765
444961.0,-1.3767,-1.2953,1.7119,-1.4415,-2.6403,0.8721
444971.0,-0.6369,-1.5969,2.8826,-0.9924,-2.1795,0.646
444981.0,-0.2179,-1.2019,4.1899,-0.6337,-1.898,0.4289
444991.0,-0.0287,-0.2251,5.1068,-0.3352,-1.7416,0.2735
445001.0,0.1389,0.6488,5.636,-0.1389,-1.6932,0.2033
445011.0,0.1939,1.3312,5.7293,-0.0474,-1.6958,0.2081
445021.0,0.328,1.6185,5.8179,-0.0506,-1.6889,0.2719
445031.0,0.5315,1.5323,5.8203,-0.132,-1.6809,0.3666
445041.0,0.8021,1.3838,5.3367,-0.2613,-1.6724,0.4613
445051.0,1.0965,0.7901,5.3056,-0.4608,-1.6107,0.5369
445061.0,1.5131,0.0742,5.3199,-0.63,-1.5107,0.5773
445071.0,1.6568,-0.6608,6.0837,-0.7764,-1.4,0.564
445081.0,1.6568,-1.0295,6.7469,-0.7535,-1.3037,0.5284
445091.0,1.5347,-1.0989,6.9671,-0.6641,-1.2803,0.481
445101.0,1.6927,-1.2186,7.4053,-0.5412,-1.2824,0.4427
445111.0,1.8747,-0.9529,7.0581,-0.2724,-1.2164,0.4252
445121.0,2.0063,-0.6919,6.7014,-0.108,-1.1334,0.4135
445131.0,2.3655,-0.5986,6.2704,-0.0782,-1.0589,0.4065
445141.0,2.5666,-0.4788,6.2321,-0.1394,-0.9248,0.3932
445151.0,2.6528,-0.3735,6.8354,-0.1963,-0.7402,0.3826
445161.0,2.66,-0.3496,7.671,-0.1809,-0.5848,0.3948
445171.0,2.5043,-0.3448,8.1714,-0.1735,-0.539,0.4198
445181.0,2.5355,-0.6584,8.6957,-0.2453,-0.589,0.4395
445191.0,2.6097,-1.0415,9.0333,-0.3336,-0.6923,0.4411
445201.0,2.6528,-1.4078,9.1746,-0.3858,-0.8125,0.4214
445211.0,2.7246,-1.6807,8.9471,-0.339,-0.9126,0.3927
445221.0,2.8826,-1.8172,8.4635,-0.2325,-0.9684,0.3586
445231.0,2.964,-1.719,8.0014,-0.1288,-0.986,0.315
445241.0,3.1556,-1.403,7.5848,0.0106,-0.9599,0.2836
445251.0,3.5123,-0.9673,6.8235,0.1889,-0.8897,0.2735
445261.0,3.5171,-0.4357,5.9256,0.2453,-0.8216,0.2746
445271.0,3.6751,-0.3232,5.3032,0.1293,-0.762,0.2852
445281.0,3.8475,-0.7207,5.0853,-0.0043,-0.6385,0.3033
445291.0,3.8858,-1.1995,5.2601,-0.016,-0.4284,0.3076
445301.0,3.869,-1.6328,5.8442,0.0963,-0.2059,0.29
445311.0,3.972,-1.8196,6.2776,0.3459,0.0085,0.2581
445321.0,3.9049,-1.7645,7.1946,0.6497,0.2464,0.2166
445331.0,3.7685,-1.2713,8.193,0.9621,0.4273,0.1719
445341.0,3.6847,-0.4836,8.8346,1.1217,0.4161,0.1298
445351.0,3.5219,0.2777,8.9926,1.0823,0.2379,0.1043
445361.0,3.5745,0.9936,8.6239,0.9434,-0.0005,0.1038
445371.0,3.4333,1.7071,7.8338,0.7396,-0.2421,0.132
445381.0,3.1268,2.2242,6.5697,0.5071,-0.4848,0.2027
445391.0,3.1316,2.0662,4.9584,0.2501,-0.738,0.3038
445401.0,3.1963,1.9345,2.3607,0.075,-0.9126,0.4012
445411.0,3.3112,2.0375,-2.2889,-0.1495,-0.9823,0.4816
445421.0,4.0941,1.7957,-8.1858,-0.8237,-0.9732,0.5231
445431.0,4.525,1.1971,-12.8952,-1.7789,-0.5832,0.5215
445441.0,3.9145,0.8859,-15.0547,-2.3759,0.3017,0.5364
445451.0,1.743,0.9768,-15.9478,-2.2365,1.467,0.6412
445461.0,0.4094,0.9337,-17.4585,-1.3223,2.6829,0.8386
445471.0,-1.5179,1.2905,-19.6755,0.2176,4.3734,1.0722
445481.0,-5.43,0.3424,-17.5998,1.7464,6.6296,1.2723
445491.0,-10.2472,-1.6089,-10.3884,2.9495,8.8363,1.2819
445501.0,-16.0412,-3.1603,0.1963,4.0499,10.7928,1.0557
445511.0,-20.5159,-3.2944,14.0037,4.839,12.0412,0.5917
445521.0,-22.2613,-0.5291,27.8996,4.9662,11.9406,-0.0208
445531.0,-23.8175,4.9297,40.7469,4.7241,10.9296,-0.5204
445541.0,-22.3427,9.3326,50.5081,3.7195,8.5665,-0.7641
445551.0,-21.0331,11.5855,54.3627,2.3945,5.4824,-0.7003
445561.0,-19.7378,11.5281,53.6588,1.5671,2.7281,-0.3767
445571.0,-17.4729,10.1299,49.3445,1.1095,0.298,0.008
445581.0,-17.006,8.4611,44.2377,0.9796,-1.6602,0.3533
445591.0,-15.117,7.0222,36.4134,0.9211,-3.4098,0.6034
445601.0,-12.9431,5.8179,29.1949,0.7295,-4.457,0.7104
445611.0,-11.1618,5.3151,22.6132,0.5066,-4.8555,0.7237
445621.0,-9.8928,4.4077,19.0698,-0.0841,-5.0333,0.6274
445631.0,-8.7412,4.3,15.5336,-0.7811,-5.3057,0.4512
445641.0,-7.4005,4.0821,13.1059,-1.4766,-5.5467,0.2677
445651.0,-6.3542,3.8092,10.7763,-1.806,-5.6244,0.166
445661.0,-5.454,3.1723,8.0804,-1.9193,-5.7021,0.1463
445671.0,-4.1061,2.3367,3.7804,-2.0337,-5.9299,0.1378
445681.0,-1.9321,1.1756,-3.4931,-2.3365,-6.1592,0.1038
445691.0,0.8236,-0.498,-10.6398,-2.8016,-5.8351,-0.0048
445701.0,2.6432,-1.3312,-15.7467,-3.0932,-4.7768,-0.2033
445711.0,4.3742,-1.3743,-19.1416,-3.1554,-3.5093,-0.4486
445721.0,5.4803,-0.0335,-22.381,-2.8154,-1.9534,-0.6194
445731.0,5.4061,1.7885,-23.5135,-2.3998,-0.2586,-0.6678
445741.0,4.628,3.8978,-23.3315,-1.9715,1.3776,-0.5614
445751.0,1.9178,4.9728,-20.741,-1.5884,2.8495,-0.2703
445761.0,-0.6249,3.5267,-16.4146,-0.8508,4.1611,0.1517
445771.0,-2.9473,0.8859,-12.9933,0.2905,5.3674,0.5071
445781.0,-5.3654,-2.7414,-7.3119,1.2978,6.5274,0.5949
445791.0,-8.3917,-5.5641,-0.6393,2.3977,7.7236,0.3762
445801.0,-11.3892,-6.3829,7.8865,3.322,8.7208,-0.1634
445811.0,-14.6932,-2.6983,17.7506,3.8839,9.1811,-0.9041
445821.0,-17.0826,4.1683,27.3561,4.1217,8.997,-1.508
445831.0,-19.2374,12.7395,37.1652,4.0425,8.4068,-1.7373
445841.0,-19.8503,19.5798,45.6167,3.1517,6.8621,-1.5085
445851.0,-19.1129,21.4568,51.2982,1.6666,4.5043,-0.8881
445861.0,-15.3564,18.1983,51.382,0.3709,1.9858,-0.0883
445871.0,-19.156,15.5025,51.3077,-0.0905,0.0686,0.6306
445881.0,-16.7283,9.9671,45.3893,-1.0185,-3.5103,1.0935
445891.0,-15.0212,5.8371,34.7949,-1.3888,-6.0113,1.35
445901.0,-13.6853,3.9935,22.9125,-1.3399,-7.142,1.4303
445911.0,-11.552,2.2936,12.7779,-1.8922,-7.855,1.2882
445921.0,-8.193,0.5938,4.4221,-2.5323,-7.9423,1.0429
445931.0,-4.8171,-0.5578,-0.8906,-2.8394,-7.1771,0.7476
445941.0,-3.0861,-0.6728,-3.5338,-2.8457,-5.9905,0.4651
445951.0,-1.7813,-1.0151,-3.6512,-2.7893,-5.078,0.2565
445961.0,0.1245,-1.6783,-4.379,-2.3392,-4.433,0.1532
445971.0,1.6017,-2.3703,-5.1906,-1.4942,-3.6083,0.125
445981.0,2.2865,-2.8802,-5.5474,-0.6577,-2.7521,0.0915
445991.0,3.0047,-3.5817,-5.2026,-0.0484,-2.013,0.0192
446001.0,3.146,-3.6966,-4.0462,0.4592,-1.209,-0.0921
446011.0,2.7533,-3.632,-1.5347,0.7125,-0.5662,-0.2496
446021.0,2.332,-2.9257,0.5411,0.8109,-0.2746,-0.4172
446031.0,1.9752,-1.719,1.6281,0.8423,-0.1788,-0.5449
446041.0,2.0183,-0.5291,0.407,0.5933,-0.3634,-0.6125
446051.0,2.6193,-0.4046,-1.7669,-0.1171,-0.6907,-0.654
446061.0,2.7605,-0.1867,-6.3494,-0.9519,-0.8647,-0.6891
446071.0,3.201,-0.6488,-11.1474,-2.047,-0.8296,-0.7359
446081.0,3.5721,-0.4836,-16.2925,-2.9905,-0.3688,-0.7684
446091.0,2.9137,-0.146,-19.235,-3.5348,0.6215,-0.7146
446101.0,-0.2682,-0.2298,-18.7945,-2.9947,2.1966,-0.4837
446111.0,-3.7517,-1.0391,-18.1265,-0.7838,4.4538,-0.0867
446121.0,-8.2337,-3.9025,-13.781,1.9507,7.0372,0.1825
446131.0,-13.1561,-6.292,-5.3079,4.5927,9.7483,0.0388
446141.0,-19.4074,-5.7341,7.7165,6.6642,11.9507,-0.6029
446151.0,-22.9388,0.1532,20.9253,7.5778,12.552,-1.5442
446161.0,-24.4544,9.8689,35.6592,6.8706,11.814,-2.42
446171.0,-25.2349,20.8894,46.3063,4.5969,9.5009,-2.8452
446181.0,-28.1079,22.0506,57.3316,1.2052,6.2709,-2.6866
446191.0,-21.9644,25.9675,59.4217,-0.2341,2.9665,-1.9853
446201.0,-20.8343,18.8136,60.104,-2.2934,-1.972,-1.1653
446211.0,-21.2653,16.089,45.0182,-1.4697,-5.2365,-0.141
446221.0,-19.3739,12.785,30.641,-0.299,-6.6961,0.7215
446231.0,-14.8081,10.4866,14.9877,0.0947,-7.4304,1.2063
446241.0,-10.1969,7.4651,6.4739,-0.4273,-6.8334,1.3335
446251.0,-7.3741,5.703,3.4596,-0.9573,-5.3206,1.2271
446261.0,-6.699,4.6184,4.8985,-1.6267,-3.9951,0.9833
446271.0,-6.0478,3.6272,8.9112,-2.311,-3.4002,0.7162
446281.0,-5.9951,3.1819,12.4594,-2.4158,-3.3028,0.5736
446291.0,-6.1746,2.8371,13.611,-2.0651,-3.6859,0.58
446301.0,-5.6024,2.32,11.2958,-1.7193,-4.5235,0.655
446311.0,-4.4388,1.3982,7.2065,-1.5522,-5.3504,0.7226
446321.0,-3.2465,0.6009,1.6783,-1.359,-5.7463,0.779
446331.0,-1.3048,-0.3017,-4.4365,-1.2563,-5.6803,0.8024
446341.0,0.249,-0.5339,-10.6231,-1.4011,-5.1269,0.7556
446351.0,2.0638,-1.3312,-15.6772,-2.3179,-4.5996,0.6236
446361.0,4.47,-1.8771,-21.1983,-3.5785,-3.9839,0.4204
446371.0,6.0023,-2.478,-24.1024,-4.9002,-3.0261,0.199
446381.0,5.3846,-2.5067,-23.4967,-5.2535,-1.5905,0.0995
446391.0,4.1827,-1.9345,-22.6324,-4.143,0.0213,0.2017
446401.0,3.4884,-2.4301,-23.1017,-2.0875,1.5974,0.448
446411.0,1.9034,-3.3136,-23.6906,0.4715,3.6838,0.6939
446421.0,-2.0016,-4.5633,-19.5965,2.5259,6.0235,0.7301
446431.0,-6.529,-5.4109,-11.9016,3.9749,8.0658,0.5023
446441.0,-10.987,-4.9991,-1.9417,4.9391,9.7754,0.0415
446451.0,-15.9957,-2.4062,10.6734,5.5116,10.8849,-0.5667
446461.0,-18.3994,3.2202,22.5031,5.6021,10.7694,-1.1456
446471.0,-20.2717,10.3022,34.103,5.2142,10.0319,-1.4324
446481.0,-20.547,16.6421,42.9304,4.0052,8.3244,-1.3446
446491.0,-19.5271,16.702,49.6533,2.1066,5.8506,-0.9397
446501.0,-20.9756,18.8783,53.0459,1.467,3.77,-0.2964
446511.0,-17.7003,13.4578,54.2742,-0.0117,-0.1809,0.2751
446521.0,-16.4434,10.3166,45.4779,-0.1453,-3.1693,0.8131
446531.0,-15.8281,7.8051,35.676,0.1618,-4.8656,1.2063
446541.0,-13.9366,5.8945,23.93,-0.1133,-6.3311,1.3276
446551.0,-11.1594,4.0342,14.2479,-0.9434,-7.0681,1.2207
446561.0,-8.1139,2.2553,8.3031,-1.6676,-6.8212,1.002
446571.0,-6.4069,1.8076,4.0821,-2.0891,-6.1049,0.7301
446581.0,-5.193,1.6472,3.3878,-2.5781,-5.4765,0.4432
446591.0,-4.2353,1.7693,3.4069,-2.5579,-4.9774,0.2836
446601.0,-3.1077,1.8579,2.5522,-1.9555,-4.5288,0.2948
446611.0,-1.8364,1.7837,1.2282,-1.1483,-4.0574,0.4124
446621.0,-0.7685,1.5802,-0.0359,-0.4145,-3.5646,0.5827
446631.0,0.4573,0.5674,-1.7933,-0.0213,-3.2187,0.7545
446641.0,1.9776,-1.2163,-3.0622,-0.0213,-2.9378,0.8365
446651.0,2.8156,-2.3463,-4.7477,-0.1149,-2.5839,0.7971
446661.0,3.3303,-3.2106,-7.2329,-0.4725,-2.3009,0.6598
446671.0,4.4628,-4.2114,-9.2368,-1.0924,-2.0412,0.4331
446681.0,4.9249,-4.4436,-11.5903,-1.4724,-1.5309,0.1804
446691.0,5.4085,-4.7429,-12.3445,-1.6341,-0.8003,-0.0617
446701.0,5.6,-4.0941,-13.4099,-1.3446,0.0527,-0.2677
446711.0,4.6519,-2.9377,-15.0116,-0.8897,0.9312,-0.406
446721.0,3.2992,-1.8675,-16.8791,-0.5428,1.8092,-0.473
446731.0,1.5419,-1.6496,-18.1624,-0.2927,2.8149,-0.4821
446741.0,-0.8523,-1.9249,-18.0714,0.1479,4.167,-0.4864
446751.0,-4.9536,-1.9249,-15.6126,0.7849,5.833,-0.5406
446761.0,-9.8234,-3.0143,-9.2943,1.6027,7.5847,-0.629
446771.0,-15.0093,-4.1539,-0.1437,2.9447,9.3609,-0.8147
446781.0,-19.6109,-3.8379,11.4108,4.8273,10.9684,-1.1675
446791.0,-22.5917,0.7422,22.6108,6.5104,11.6112,-1.7267
446801.0,-23.5015,11.0277,31.5101,6.9536,11.0935,-2.362
446811.0,-25.2469,21.725,42.181,5.1551,9.4844,-2.6973
446821.0,-23.4991,23.9564,49.8018,2.2365,6.6929,-2.4562
446831.0,-27.4806,28.3258,52.4833,0.8977,4.5011,-1.7581
446841.0,-24.531,23.5111,57.5758,-1.1855,0.4917,-0.9551
446851.0,-22.8766,21.5119,49.5863,-1.0424,-2.5509,0.1128
446861.0,-22.0171,17.7913,40.0957,-0.3613,-4.4277,1.1275
446871.0,-19.3404,13.9247,27.5285,-0.2416,-6.0608,1.8049
446881.0,-15.7299,9.9072,17.844,-0.7503,-6.6839,2.0917
446891.0,-13.0508,7.0102,12.8186,-1.4873,-6.4444,2.0673
446901.0,-11.394,5.0159,9.6175,-2.2445,-6.1299,1.8789
446911.0,-10.003,3.0263,8.2528,-3.1783,-6.1704,1.5841
446921.0,-8.6957,1.7549,6.6655,-3.7099,-6.3252,1.2866
446931.0,-7.5848,0.8787,4.7549,-3.6322,-6.3433,1.0797
446941.0,-6.0741,0.6105,1.2402,-3.0841,-6.2518,0.9786
446951.0,-3.3184,0.2801,-3.6464,-2.502,-5.9916,0.9424
446961.0,-1.391,0.0575,-8.8131,-2.1763,-5.3578,0.9344
446971.0,0.6273,-0.917,-13.5679,-2.634,-4.8459,0.8817
446981.0,2.9975,-2.2984,-18.0188,-3.6519,-4.4447,0.7306
446991.0,4.5011,-3.4141,-22.3882,-4.5416,-3.7541,0.5726
447001.0,4.9847,-4.8674,-25.9747,-4.7156,-2.635,0.4906
447011.0,5.545,-6.3853,-29.3745,-3.9738,-1.144,0.4922
447021.0,5.1212,-7.5178,-30.9139,-2.5584,0.9413,0.489
447031.0,2.7174,-7.7309,-29.8365,-0.8503,3.2661,0.381
447041.0,-0.5986,-7.3789,-25.9292,0.6816,5.3882,0.1591
447051.0,-5.4899,-6.6655,-19.0698,2.0321,7.4325,-0.1437
447061.0,-9.979,-4.1156,-11.8034,3.2634,9.0965,-0.5529
447071.0,-15.5216,0.4357,-2.7031,3.9621,10.5103,-1.028
447081.0,-20.7194,6.3279,9.426,4.2276,11.5426,-1.3542
447091.0,-23.5853,12.3086,21.3108,3.886,11.5452,-1.384
447101.0,-26.092,15.627,35.6664,3.0203,10.87,-1.094
447111.0,-27.3202,17.6237,41.4963,1.9731,9.03,-0.6375
447121.0,-27.9499,12.6869,54.2766,0.688,7.2452,-0.1953
447131.0,-24.2365,14.1713,55.4976,0.745,4.7518,0.207
447141.0,-22.7832,9.3877,58.6101,-0.423,1.2015,0.406
447151.0,-22.3618,10.6662,50.5368,-0.2256,-1.4383,0.6199
447161.0,-21.4904,9.4164,44.2496,-0.7881,-3.5683,0.7279
447171.0,-20.1257,8.1283,35.9825,-1.7421,-5.6446,0.7114
447181.0,-19.6492,6.8881,29.7503,-2.452,-6.9856,0.6742
447191.0,-19.5056,6.438,22.7569,-2.5818,-7.8896,0.7184
447201.0,-18.4784,5.8682,15.9645,-2.4892,-8.5181,0.8471
447211.0,-16.5583,4.9584,10.24,-2.1551,-8.6692,1.0546
447221.0,-14.5927,3.8954,5.3223,-1.6176,-8.3786,1.3117
447231.0,-12.4211,2.217,0.9601,-1.3239,-8.0211,1.5346
447241.0,-9.8162,-0.1006,-2.2386,-1.4665,-7.7124,1.6272
447251.0,-7.4795,-2.1213,-4.2258,-1.6565,-7.2591,1.5687
447261.0,-5.7461,-3.3686,-5.6647,-1.6767,-6.6887,1.4207
447271.0,-3.9768,-4.5681,-5.9975,-1.6533,-6.1826,1.2079
447281.0,-2.5905,-4.9632,-5.8251,-1.2856,-5.5478,1.0004
447291.0,-2.1093,-5.1667,-4.3886,-0.663,-4.8667,0.8657
447301.0,-1.0487,-5.1858,-4.3934,0.0708,-4.4639,0.8147
447311.0,0.2825,-5.8778,-5.8203,0.5007,-4.3106,0.7928
447321.0,1.4461,-6.3758,-8.4156,0.4895,-4.251,0.696
447331.0,2.3152,-6.1603,-13.0891,-0.1107,-4.3474,0.4762
447341.0,3.3351,-5.8634,-16.8336,-1.2143,-4.4517,0.1357
447351.0,3.2178,-3.7421,-23.6475,-1.7001,-4.151,-0.1522
447361.0,3.0143,-1.8196,-32.9466,-2.0061,-3.5747,-0.2682
447371.0,5.9951,-0.0982,-42.5138,-1.822,-2.3583,-0.2336
447381.0,3.6559,1.8268,-47.1418,-1.0977,0.1793,-0.0537
447391.0,0.182,2.897,-48.4562,-0.5135,2.6685,0.241
447401.0,-4.1061,1.9728,-46.8593,0.1165,5.0657,0.5593
447411.0,-10.2903,0.1772,-42.3774,0.895,7.4043,0.7253
447421.0,-17.3508,-2.3535,-33.2243,2.0295,9.7877,0.6907
447431.0,-26.1303,-3.5721,-21.8734,4.2814,12.4397,0.4613
447441.0,-35.7239,-5.0757,-5.4253,7.1261,15.2913,-0.0394
447451.0,-47.1011,0.4932,9.256,9.8733,17.4357,-0.9929
447461.0,-54.1257,11.054,26.3123,10.7167,17.4357,-2.1987
447471.0,-43.4236,30.9666,27.6698,9.7095,17.4357,-3.0001
447481.0,-64.1119,44.3286,71.3951,5.484,17.4357,-3.2725
447491.0,-55.9142,23.1256,78.4508,-0.5183,11.177,-3.0841
447501.0,-45.5114,28.3473,78.4508,0.5752,4.739,-1.8847
447511.0,-40.7469,18.1864,78.4508,-0.017,-0.6705,-0.8104
447521.0,-37.2418,16.9318,63.2811,-0.7279,-7.92,-0.2964
447531.0,-33.3249,11.6981,42.9041,-1.7677,-11.4633,-0.1596
447541.0,-28.1438,13.2471,14.8177,-1.3909,-12.4057,-0.0282
447551.0,-21.1743,12.6438,-2.8276,-2.8809,-12.0949,-0.1107
447561.0,-7.5729,10.8266,-16.0268,-3.9807,-10.1016,-0.1086
447571.0,-8.2001,10.7739,-13.9678,-3.6306,-5.3823,0.0404
447581.0,-6.0118,5.2122,-4.2641,-3.7705,-3.3725,0.2309
447591.0,-2.9975,1.7765,0.5962,-2.5148,-2.2876,0.4305
447601.0,-3.4812,1.1013,3.7517,-0.6375,-1.2851,0.5853
447611.0,-1.8028,0.1484,2.9353,0.2464,-1.5687,0.6274
447621.0,0.2131,0.0431,-0.261,0.39,-1.8672,0.5449
447631.0,0.4477,-0.0622,-1.0415,0.0048,-1.6272,0.3954
447641.0,0.5555,-0.1437,-1.5251,-0.7333,-1.525,0.1969
447651.0,0.4908,-0.0982,-0.4118,-1.5282,-1.4261,-0.0138
447661.0,0.3855,0.0,1.4676,-1.7299,-1.0621,-0.0926
447671.0,0.079,-0.1365,3.3064,-1.434,-0.7157,-0.0506
447681.0,0.4573,-0.3448,3.9433,-0.8993,-0.5513,0.0569
447691.0,1.0702,-0.6057,3.4429,-0.2879,-0.323,0.1735
447701.0,1.3168,-0.5555,3.0382,0.1383,0.0628,0.2373
447711.0,1.2091,-0.5602,3.9433,0.2139,0.4651,0.2442
447721.0,0.7566,-0.6943,5.7916,0.0793,0.7497,0.2198
447731.0,0.3304,-0.9026,8.2001,-0.0628,0.9126,0.1846
447741.0,-0.0311,-1.2091,10.5441,-0.0894,0.9711,0.157
447751.0,-0.4405,-1.336,12.6007,-0.1064,0.8258,0.1224
447761.0,-0.5986,-1.0894,13.8457,-0.1352,0.473,0.0734
447771.0,-0.5986,-0.4501,13.6589,-0.1176,0.0506,0.0452
447781.0,-0.4334,-0.1604,12.6558,-0.1857,-0.3491,0.042
447791.0,-0.4884,0.091,11.2456,-0.3379,-0.6284,0.0383
447801.0,-0.5722,-0.0072,10.3597,-0.4911,-0.7247,0.0426
447811.0,-0.5171,-0.4118,9.8665,-0.5438,-0.6854,0.0537
447821.0,-0.5531,-0.6823,9.6893,-0.497,-0.5752,0.0543
447831.0,-0.5626,-1.0918,10.1347,-0.389,-0.4193,0.0468
447841.0,-0.5052,-1.0606,10.5273,-0.2176,-0.2852,0.0239
447851.0,-0.589,-0.7853,11.157,-0.1192,-0.2139,-0.0144
447861.0,-0.6273,-0.2969,11.5616,-0.0931,-0.2272,-0.0436
447871.0,-0.7614,0.3783,11.8082,-0.1825,-0.3485,-0.0697
447881.0,-0.735,0.7422,11.7196,-0.3267,-0.5231,-0.0543
447891.0,-0.8499,0.7111,11.461,-0.4289,-0.6582,-0.0074
447901.0,-0.8595,0.4836,11.0014,-0.4832,-0.7673,0.0463
447911.0,-0.7159,0.0622,10.4794,-0.4885,-0.8168,0.0931
447921.0,-0.5219,-0.4142,10.1131,-0.415,-0.7572,0.125
447931.0,-0.261,-0.8428,9.9934,-0.3086,-0.6417,0.1282
447941.0,-0.0048,-0.8906,9.9527,-0.2506,-0.5353,0.0952
447951.0,0.0287,-0.7015,10.1706,-0.3065,-0.4853,0.0399
447961.0,0.0599,-0.5315,10.5704,-0.4204,-0.5028,-0.0074
447971.0,0.0239,-0.4453,10.8026,-0.4699,-0.5225,-0.025
447981.0,-0.0982,-0.486,11.1019,-0.4496,-0.5252,-0.0223
447991.0,-0.1628,-0.5076,11.1043,-0.3959,-0.563,-0.0122
448001.0,0.0024,-0.5028,11.1139,-0.3672,-0.6146,-0.0074
448011.0,0.1676,-0.4429,11.1426,-0.3501,-0.6439,-0.0043
448021.0,0.1915,-0.4238,11.3054,-0.3751,-0.6816,-0.0043
448031.0,0.3496,-0.3663,11.2934,-0.415,-0.7599,-0.0037
448041.0,0.4381,-0.4262,11.2312,-0.4592,-0.8445,0.0053
448051.0,0.5219,-0.565,11.0588,-0.4933,-0.9051,0.0218
448061.0,0.4812,-0.8308,11.1163,-0.506,-0.9339,0.0426
448071.0,0.4334,-1.257,11.2336,-0.4911,-0.9732,0.0617
448081.0,0.4405,-1.7238,11.4706,-0.4236,-1.0217,0.0644
448091.0,0.5243,-1.7526,11.2168,-0.2937,-1.085,0.0495
448101.0,0.7398,-1.6041,10.7595,-0.2256,-1.1659,0.0208
448111.0,1.0606,-1.3647,9.9982,-0.2565,-1.2526,-0.0149
448121.0,1.4365,-0.9744,9.0573,-0.4273,-1.3335,-0.0617
448131.0,1.4437,-0.8188,8.7508,-0.6529,-1.3276,-0.0926
448141.0,1.5443,-1.245,9.1147,-0.7567,-1.2212,-0.0825
448151.0,1.4461,-1.6472,9.6175,-0.7237,-1.1371,-0.0654
448161.0,1.3264,-2.2673,10.4938,-0.6066,-1.1174,-0.0527
448171.0,1.4557,-2.5115,10.7093,-0.3347,-1.151,-0.0484
448181.0,1.6352,-2.3056,10.1945,-0.0729,-1.2233,-0.0623
448191.0,1.9441,-1.9537,9.7013,0.0399,-1.2978,-0.0899
448201.0,2.2338,-1.4102,9.1363,0.0357,-1.3367,-0.1171
448211.0,2.2553,-1.0487,8.9591,-0.1176,-1.3782,-0.1394
448221.0,2.2817,-0.8787,9.0166,-0.3533,-1.4766,-0.1548
448231.0,2.3846,-0.9122,8.9136,-0.5422,-1.6075,-0.1501
448241.0,2.4541,-1.2306,8.6574,-0.6311,-1.7278,-0.1235
448251.0,2.739,-1.8411,8.1858,-0.5529,-1.7911,-0.0851
448261.0,3.1987,-2.2529,7.367,-0.3283,-1.7725,-0.067
448271.0,3.4477,-2.2242,6.5505,-0.0793,-1.6575,-0.0793
448281.0,3.7876,-1.889,5.9975,0.1155,-1.4867,-0.1064
448291.0,4.0797,-1.2091,5.5115,0.1224,-1.3553,-0.1421
448301.0,4.0965,-0.6847,5.5952,-0.066,-1.2787,-0.1607
448311.0,4.0031,-0.4118,5.4181,-0.307,-1.2728,-0.1415
448321.0,4.2186,-0.8356,5.5761,-0.531,-1.2691,-0.091
448331.0,4.5514,-1.6305,5.4444,-0.5726,-1.202,-0.0404
448341.0,4.7549,-2.4995,5.3558,-0.506,-1.0903,-0.0335
448351.0,5.1164,-3.0358,5.4612,-0.323,-0.8945,-0.0772
448361.0,5.0063,-2.988,6.0813,-0.0931,-0.6518,-0.1501
448371.0,4.9225,-2.6887,6.7947,0.1128,-0.5348,-0.2171
448381.0,5.0901,-2.0901,6.6559,0.2559,-0.5933,-0.2671
448391.0,4.9991,-1.3216,5.8993,0.3384,-0.6689,-0.2841
448401.0,5.1404,-0.8547,4.6639,0.3586,-0.6534,-0.2416
448411.0,5.5019,-1.1708,4.0223,0.2506,-0.5587,-0.182
448421.0,5.6575,-1.7669,4.0773,0.248,-0.3182,-0.1346
448431.0,5.6192,-2.3128,4.7669,0.4933,0.0798,-0.1096
448441.0,5.3223,-2.4732,5.9807,0.8189,0.4284,-0.1192
448451.0,4.8722,-2.3104,7.1108,1.0706,0.5593,-0.1655
448461.0,4.4628,-1.9058,7.7931,1.268,0.5284,-0.224
448471.0,4.47,-1.3551,7.6614,1.4282,0.4172,-0.2767
448481.0,4.7381,-0.7374,7.1611,1.4537,0.2629,-0.3331
448491.0,4.944,-0.0766,6.213,1.4638,0.1878,-0.356
448501.0,5.1882,0.3041,4.7501,1.4181,0.2171,-0.3437
448511.0,5.296,0.3017,4.3072,1.1909,0.315,-0.3469
448521.0,5.3678,0.5507,4.0941,1.052,0.4879,-0.3581
448531.0,5.0015,0.9577,4.1755,0.9355,0.63,-0.3544
448541.0,4.4197,1.336,4.2976,0.8375,0.6715,-0.3166
448551.0,3.9672,1.7597,3.45,0.7886,0.5933,-0.2405
448561.0,3.4524,1.8579,1.6352,0.6375,0.3986,-0.1485
448571.0,3.1244,1.8483,-2.411,0.3831,0.1995,-0.0532
448581.0,3.893,1.8292,-9.3134,-0.3193,0.0293,-0.0202
448591.0,3.7709,2.8132,-18.0068,-1.6788,0.0937,-0.083
448601.0,3.4213,3.8092,-24.9141,-3.3555,0.7285,-0.0974
448611.0,0.4884,5.7964,-26.8845,-4.0813,2.2604,0.0995
448621.0,-3.9337,9.098,-28.8142,-3.0591,4.1579,0.7205
448631.0,-9.2057,8.5258,-28.1893,-0.9099,6.2811,1.7315
448641.0,-15.773,4.786,-25.5653,2.718,9.3764,2.7622
448651.0,-26.6666,-0.5698,-17.6094,6.288,12.9697,3.2246
448661.0,-34.2323,-7.3789,-6.2513,8.5931,16.2443,2.7659
448671.0,-48.655,-10.8218,18.2797,9.2045,17.4357,1.1621
448681.0,-50.2208,-2.8994,36.6217,8.7921,17.4357,-1.0536
448691.0,-44.5489,10.1442,46.0285,5.4137,15.9245,-3.1709
448701.0,-45.339,15.3468,77.1723,2.2583,14.077,-4.1989
448711.0,-46.086,24.8758,78.4508,0.0835,8.2967,-4.2532
448721.0,-43.0765,25.5342,78.4508,-2.0747,1.1265,-3.4587
448731.0,-38.3862,27.9882,72.0798,0.0404,-3.1554,-1.6166
448741.0,-33.3273,21.045,55.9597,1.1265,-6.5147,0.1474
448751.0,-28.4647,14.1545,35.2426,1.4223,-9.188,1.2494
448761.0,-23.0011,8.9232,17.2023,0.9615,-10.125,1.6325
448771.0,-16.86,6.0741,2.2075,-0.4097,-9.8026,1.4654
448781.0,-11.4108,3.4429,-3.8092,-2.5829,-8.5457,0.9025
448791.0,-8.4228,2.4373,-3.7397,-4.0366,-6.645,0.281
448801.0,-8.2552,1.5754,2.8371,-4.4101,-4.8784,-0.1618
448811.0,-8.0732,1.506,7.7452,-3.3092,-4.0111,-0.2905
448821.0,-7.0749,1.9345,7.6614,-1.3867,-3.7535,-0.149
448831.0,-5.3079,2.0973,4.5394,0.1112,-3.6524,0.0644
448841.0,-3.8738,2.4517,1.9561,0.5486,-3.4726,0.1804
448851.0,-2.897,2.9736,1.3479,0.0399,-3.3023,0.1655
448861.0,-2.3391,3.0957,2.1715,-0.9147,-3.2783,0.1
448871.0,-2.1261,2.5809,3.2825,-1.7719,-3.3975,0.0601
448881.0,-1.7765,1.6113,3.7948,-2.1976,-3.5891,0.0639
448891.0,-1.2546,0.6512,3.45,-2.0268,-3.6349,0.1054
448901.0,-0.735,-0.0766,2.1907,-1.3707,-3.4231,0.1799
448911.0,0.2346,-0.9864,0.8859,-0.6657,-3.0293,0.2437
448921.0,1.1468,-1.6712,0.1772,-0.2469,-2.535,0.2176
448931.0,1.5658,-1.8076,1.1109,-0.2559,-2.1018,0.0867
448941.0,1.6424,-1.3192,2.9544,-0.4315,-1.8188,-0.0772
448951.0,1.64,-0.3041,4.3359,-0.5741,-1.7182,-0.1974
448961.0,1.6424,0.735,4.9704,-0.7386,-1.8124,-0.2448
448971.0,1.7573,1.3168,5.0398,-0.886,-1.9922,-0.2043
448981.0,1.9968,1.1468,4.7716,-0.8418,-2.0625,-0.0825
448991.0,2.3511,0.7757,3.9073,-0.572,-1.9938,0.0692
449001.0,2.8754,0.2203,2.7701,-0.3342,-1.8635,0.1985
449011.0,3.5195,-0.4525,1.7933,-0.2086,-1.6549,0.2836
449021.0,4.1707,-1.1085,1.6592,-0.157,-1.3111,0.3108
449031.0,4.2928,-1.2857,2.083,-0.1043,-0.8982,0.2969
449041.0,4.1779,-1.3671,2.6863,-0.1575,-0.5853,0.2666
449051.0,4.3479,-2.1548,4.0199,-0.3012,-0.3528,0.2347
449061.0,4.2234,-3.0311,5.6695,-0.3661,-0.1644,0.1772
449071.0,3.9409,-3.5099,7.2137,-0.3634,-0.1532,0.0756
449081.0,3.6272,-3.7278,8.2193,-0.2831,-0.3272,-0.0388
449091.0,3.5745,-3.8762,8.3821,-0.008,-0.539,-0.133
449101.0,3.7565,-3.3423,7.0366,0.4246,-0.6816,-0.2176
449111.0,3.9983,-2.6169,5.2481,0.7029,-0.7317,-0.3033
449121.0,4.4317,-1.7406,3.802,0.7343,-0.6965,-0.4007
449131.0,4.3335,-0.8308,3.2848,0.6699,-0.5763,-0.4768
449141.0,4.2856,-0.0982,2.4852,0.7162,-0.4438,-0.4943
