time_ms,ax,ay,az,gx,gy,gz
1393851.0,-10.0844,5.1906,39.4852,-0.6955,0.1176,-0.4927
1393861.0,-10.0173,4.7884,40.5195,-0.5688,0.0537,-0.5332
1393871.0,-9.7205,4.4149,41.1037,-0.2379,-0.0298,-0.5954
1393881.0,-9.912,4.0414,41.7645,0.2293,-0.1224,-0.7082
1393891.0,-9.3661,4.2808,40.96,0.4613,-0.2554,-0.8471
1393901.0,-9.2512,5.4875,38.7956,0.4278,-0.3374,-1.0163
1393911.0,-9.2416,6.608,39.0734,0.2756,-0.1511,-1.1015
1393921.0,-9.2799,7.8721,39.1021,0.0122,-0.1527,-1.0419
1393931.0,-9.663,8.0637,40.0502,0.0128,-0.2538,-0.9115
1393941.0,-9.663,8.3318,40.1556,-0.0889,-0.273,-0.7535
1393951.0,-10.4004,7.9871,39.6576,-0.0697,-0.3842,-0.5922
1393961.0,-10.7548,8.5138,37.7997,-0.365,-0.3677,-0.4097
1393971.0,-10.975,7.0773,38.6711,-0.1298,-0.0628,-0.2389
1393981.0,-9.9695,7.0198,38.1348,0.1729,0.365,-0.1495
1393991.0,-9.6534,6.3877,38.9489,0.1969,0.6444,-0.1144
1394001.0,-9.5098,5.8514,39.7916,0.2011,0.8008,-0.0889
1394011.0,-9.2895,5.6216,40.9408,0.1357,0.7891,-0.1266
1394021.0,-9.4427,5.3151,40.6152,-0.1187,0.7556,-0.158
1394031.0,-9.7588,5.0853,41.2282,-0.4693,0.6832,-0.232
1394041.0,-9.845,4.5586,42.4061,-0.7966,0.5279,-0.3145
1394051.0,-10.2376,3.984,44.0533,-0.8088,0.3177,-0.3895
1394061.0,-10.161,4.2521,44.7907,-0.5518,0.1676,-0.3757
1394071.0,-10.2951,4.5681,45.576,-0.091,0.0021,-0.2698
1394081.0,-10.0365,4.9799,45.3462,0.4182,-0.1133,-0.0782
1394091.0,-10.1227,5.4684,44.6279,0.7583,-0.2102,0.19
1394101.0,-10.1131,5.2577,43.0573,0.7795,-0.3975,0.3948
1394111.0,-8.8873,3.6488,42.4061,0.7263,-0.2283,0.563
1394121.0,-7.8721,3.1603,40.5386,0.7114,0.2017,0.597
1394131.0,-7.6136,2.4229,40.7493,0.0362,0.5358,0.5098
1394141.0,-7.5274,1.9441,41.458,-0.7524,0.7375,0.4299
1394151.0,-7.9104,1.7813,43.0573,-1.649,0.8455,0.3507
1394161.0,-8.6287,1.2258,44.9535,-2.2753,1.0499,0.3379
1394171.0,-9.2512,0.7087,47.4243,-2.75,1.193,0.39
1394181.0,-9.6822,-0.5842,51.3891,-2.7446,1.2116,0.4704
1394191.0,-10.1801,-1.8292,54.3867,-2.2194,1.143,0.5289
1394201.0,-10.5919,-3.4381,57.6715,-1.4362,0.8503,0.4826
1394211.0,-10.2089,-4.4532,59.3379,-0.8093,0.2352,0.2772
1394221.0,-9.4427,-4.7214,58.9452,-0.721,-0.5667,-0.0873
1394231.0,-9.7588,-4.0701,57.3459,-1.0286,-1.3303,-0.5076
1394241.0,-10.1897,-2.9592,55.4018,-1.7597,-2.1173,-0.9142
1394251.0,-10.5153,-1.992,53.5631,-2.6105,-2.7867,-1.2521
1394261.0,-11.0708,-1.3886,52.2989,-3.4821,-3.2603,-1.5351
1394271.0,-11.2911,-1.9154,52.0212,-3.7881,-3.6423,-1.7874
1394281.0,-10.7931,-2.2122,51.2455,-3.5226,-3.878,-2.0332
1394291.0,-10.2089,-1.7334,50.1059,-2.9123,-3.985,-2.253
1394301.0,-9.9982,0.5363,48.0468,-2.1976,-3.9132,-2.3349
1394311.0,-10.4004,2.6719,45.9782,-1.6549,-3.8701,-2.2604
1394321.0,-9.912,4.0893,42.3869,-1.6107,-3.9089,-2.0939
1394331.0,-9.3565,4.367,38.9393,-2.3253,-3.7072,-2.0071
1394341.0,-9.0788,3.4955,37.6177,-3.2517,-3.4678,-2.0571
1394351.0,-8.7245,0.9194,38.6041,-3.9318,-3.0426,-2.1955
1394361.0,-7.9104,-3.0646,42.6551,-3.8041,-2.634,-2.5243
1394371.0,-7.5848,-6.11,46.4379,-3.6152,-2.7292,-3.1501
1394381.0,-7.2688,-7.4124,49.2344,-3.1661,-3.3475,-3.9052
1394391.0,-7.2975,-6.9911,49.9622,-2.6505,-3.9579,-4.6847
1394401.0,-7.8051,-5.5067,50.125,-1.9619,-4.5746,-5.3509
1394411.0,-7.9296,-3.3902,48.8417,-1.4622,-5.3094,-5.883
1394421.0,-8.4372,-1.6664,46.1219,-1.1797,-6.056,-6.3726
1394431.0,-8.734,0.4214,43.2393,-1.0397,-6.5993,-6.7514
1394441.0,-8.7628,3.0454,39.7533,-1.0413,-7.025,-7.0686
1394451.0,-9.0022,5.1811,37.1484,-1.0413,-7.1553,-7.2059
1394461.0,-9.232,7.4603,34.601,-0.9567,-7.0547,-7.125
1394471.0,-8.6862,7.9679,34.0455,-0.6449,-6.7403,-6.8627
1394481.0,-7.6806,7.0485,35.032,0.1144,-6.4253,-6.5609
1394491.0,-6.2632,5.9089,34.3137,0.5092,-6.5897,-6.4402
1394501.0,-4.9033,5.2672,33.0879,0.3124,-7.0005,-6.537
1394511.0,-3.62,5.5545,31.5652,-0.0527,-7.4118,-6.7296
1394521.0,-2.7198,6.3207,29.4391,-0.273,-7.7151,-6.8478
1394531.0,-2.9018,7.106,26.6044,-0.5295,-7.7933,-6.8786
1394541.0,-1.7621,6.2441,25.1008,-0.39,-7.4842,-6.7695
1394551.0,-0.5267,5.2002,23.7409,-0.2182,-6.9813,-6.753
1394561.0,0.2682,3.1795,23.1759,-0.1022,-6.6573,-6.9084
1394571.0,1.6281,1.8004,23.2812,0.1618,-6.3508,-7.1713
1394581.0,2.2601,1.2737,23.0418,0.6279,-5.9793,-7.4746
1394591.0,2.739,2.1261,22.2852,1.2659,-5.6936,-7.7901
1394601.0,3.0454,4.0318,19.7665,1.8065,-5.3568,-8.0285
1394611.0,4.1659,7.5657,16.271,2.1237,-4.8268,-8.1243
1394621.0,4.3958,11.7029,13.1777,1.6985,-4.0111,-8.0908
1394631.0,6.2058,16.1944,10.7931,0.8817,-3.3672,-7.7284
1394641.0,6.7804,19.3547,10.2951,0.0117,-2.3573,-7.1133
1394651.0,7.3837,21.6244,10.094,-0.3757,-1.0578,-6.2268
1394661.0,7.92,24.0091,10.9942,-0.5161,0.415,-5.1147
1394671.0,8.2169,25.5126,12.785,-0.4432,1.7714,-3.8083
1394681.0,8.3031,25.1966,17.0467,0.2884,3.1613,-2.3211
1394691.0,7.8147,22.8024,21.3946,1.6208,4.2798,-0.8668
1394701.0,8.5712,20.3028,23.3004,2.701,4.6986,0.2591
1394711.0,10.2185,18.3875,22.7736,2.8319,4.8449,1.0637
1394721.0,10.3717,17.6022,21.0211,2.1806,4.9204,1.5926
1394731.0,10.2951,17.5639,18.5024,0.8498,4.9944,2.0119
1394741.0,8.5617,17.5351,16.6349,-0.7013,5.3552,2.4419
1394751.0,5.5737,17.2766,16.3572,-1.8358,5.9916,2.9857
1394761.0,3.5147,16.5008,17.2861,-2.1556,7.034,3.6412
1394771.0,1.4461,15.026,19.8527,-1.7948,8.3749,4.3841
1394781.0,-0.929,12.3062,23.6643,-0.7737,9.6536,5.0359
1394791.0,-2.49,10.4962,27.3609,0.1091,10.5039,5.4334
1394801.0,-3.7254,9.4427,30.7224,0.8705,10.9477,5.6878
1394811.0,-5.7269,9.0309,31.9195,1.6187,11.3643,5.9059
1394821.0,-6.541,9.0022,30.6841,2.0263,12.0742,5.9809
1394831.0,-9.2895,9.663,31.9674,1.7022,13.0027,5.9315
1394841.0,-13.1968,10.1418,37.9625,1.384,13.4901,5.8697
1394851.0,-16.7115,11.9519,41.525,1.6905,13.7556,5.9251
1394861.0,-20.2071,14.0204,46.4284,2.3312,14.276,6.2177
1394871.0,-22.7258,15.6102,50.9869,3.2672,14.4352,6.8068
1394881.0,-24.8231,15.773,54.6357,3.6508,14.3713,7.3788
1394891.0,-25.2062,16.3189,56.2254,3.2321,14.01,7.862
1394901.0,-26.2117,15.1122,59.4624,2.1641,13.4146,8.2366
1394911.0,-28.2612,13.149,64.1263,1.6064,12.4748,8.6506
1394921.0,-28.7975,10.9463,67.0568,1.5548,11.6394,8.9698
1394931.0,-29.2284,8.1307,68.6178,1.8273,10.6763,9.0794
1394941.0,-29.0273,6.6176,66.3577,1.6698,9.5711,8.94
1394951.0,-27.6099,6.8091,61.7225,0.7944,8.9033,8.6218
1394961.0,-27.2556,7.3933,61.033,-0.3868,8.7086,8.4026
1394971.0,-26.0393,7.3167,62.2397,-1.4633,8.2126,8.2871
1394981.0,-28.0122,6.1866,65.1031,-2.1269,7.8817,8.293
1394991.0,-29.305,5.2098,68.4742,-2.4339,7.0563,8.3478
1395001.0,-27.1886,4.1276,71.7399,-2.6451,5.4919,8.3824
1395011.0,-25.1487,2.3846,70.4757,-2.6308,3.7402,8.3004
1395021.0,-23.9612,2.059,65.6586,-3.0751,2.5552,7.9567
1395031.0,-23.0226,1.9441,63.3985,-3.7865,1.5421,7.5842
1395041.0,-21.8064,2.49,60.7361,-4.6155,0.4257,7.208
1395051.0,-21.634,3.6296,58.7729,-5.4648,-0.481,6.9696
1395061.0,-21.5095,4.2425,57.413,-5.7351,-1.1701,6.9669
1395071.0,-21.2126,3.7733,56.6755,-5.4898,-1.7549,7.1303
1395081.0,-20.3124,2.5379,55.0666,-4.8135,-2.253,7.3006
1395091.0,-19.2398,1.5897,51.9063,-4.291,-2.6196,7.3655
1395101.0,-18.5982,1.1396,48.7172,-3.9084,-2.8276,7.3378
1395111.0,-17.5639,0.8236,45.0876,-3.6966,-2.9048,7.2383
1395121.0,-16.9797,1.2929,41.3814,-3.9291,-2.684,7.1553
1395131.0,-17.1233,0.7374,40.8738,-4.1308,-2.2806,7.1388
1395141.0,-16.8552,-0.3065,41.0941,-4.1207,-1.9252,7.1436
1395151.0,-16.7977,-2.0494,42.3678,-4.0882,-1.6932,7.101
1395161.0,-16.7594,-3.984,43.8713,-3.6833,-1.4596,7.0265
1395171.0,-16.3763,-5.794,45.3462,-3.1288,-1.1659,6.8733
1395181.0,-16.0412,-7.7285,47.2807,-2.6175,-1.077,6.5455
1395191.0,-15.0547,-8.4084,48.1522,-2.5749,-1.3505,6.0256
1395201.0,-14.3939,-8.4084,48.7268,-2.8569,-1.7991,5.3887
1395211.0,-13.8098,-7.7859,49.2056,-3.2629,-2.345,4.7975
1395221.0,-13.7044,-7.173,49.5025,-3.6019,-2.9607,4.251
1395231.0,-13.9726,-6.7708,49.0045,-3.629,-3.4545,3.8254
1395241.0,-13.4458,-6.292,48.6119,-3.33,-3.671,3.5449
1395251.0,-13.8289,-7.5561,49.9143,-2.6318,-3.7386,3.3183
1395261.0,-12.7467,-8.7628,49.4834,-1.8331,-4.0387,3.0091
1395271.0,-11.6837,-9.2033,47.8553,-1.3744,-4.5458,2.5494
1395281.0,-10.3525,-8.1786,44.6471,-1.7315,-4.7528,2.0364
1395291.0,-9.7683,-7.7189,44.0533,-2.0848,-4.954,1.55
1395301.0,-9.5768,-7.3741,44.6471,-2.1359,-5.2392,1.1004
1395311.0,-9.0022,-6.6272,43.019,-2.0923,-5.5473,0.7588
1395321.0,-7.9009,-6.4548,41.1707,-2.2524,-5.5797,0.4363
1395331.0,-7.2305,-6.4739,40.5195,-2.3487,-5.6404,0.1298
1395341.0,-7.0581,-7.0581,40.4045,-2.386,-5.7617,-0.1969
1395351.0,-6.7421,-7.8338,40.0119,-2.0853,-5.774,-0.4911
1395361.0,-5.3343,-8.6,39.9353,-1.5639,-5.6723,-0.8077
1395371.0,-4.2425,-9.1746,39.3032,-0.9988,-5.65,-1.1802
1395381.0,-2.9688,-9.1363,38.1732,-0.7274,-5.7968,-1.6378
1395391.0,-2.0207,-8.3701,36.3631,-0.7939,-5.9033,-2.0971
1395401.0,-1.5897,-7.4316,34.9649,-1.0238,-6.0581,-2.4919
1395411.0,-1.2833,-6.6559,33.6433,-1.3814,-6.1246,-2.8191
1395421.0,-0.8906,-6.7516,32.5228,-1.607,-6.1118,-3.0799
1395431.0,-0.2586,-7.9966,31.5939,-1.5751,-5.9368,-3.3683
1395441.0,1.1013,-9.098,31.2587,-1.3638,-5.6984,-3.7753
1395451.0,1.743,-9.8258,30.3585,-1.0153,-5.4776,-4.2633
1395461.0,2.1452,-9.9024,29.7168,-0.5193,-5.1759,-4.7768
1395471.0,2.988,-8.7915,28.4144,0.0117,-4.7816,-5.2844
1395481.0,3.1603,-7.3071,27.3705,0.4252,-4.4112,-5.6862
1395491.0,3.3232,-5.363,25.5797,0.6715,-3.9712,-5.9884
1395501.0,3.6009,-4.3096,24.2102,0.6401,-3.4124,-6.2443
1395511.0,3.6296,-3.4285,24.2581,0.6045,-2.8782,-6.4577
1395521.0,4.2042,-2.4134,23.1088,0.3688,-2.4046,-6.7153
1395531.0,4.4915,-1.7813,23.1663,-0.0803,-1.889,-6.9952
1395541.0,4.5873,-1.5514,23.1184,-0.3948,-1.4484,-7.2548
1395551.0,4.6639,-0.6321,23.3004,-0.6657,-0.9041,-7.5273
1395561.0,4.3574,0.3926,23.9037,-0.754,-0.3336,-7.7082
1395571.0,3.9456,2.241,24.0378,-0.8232,0.2884,-7.7609
1395581.0,2.8443,2.7198,26.1064,-0.6215,0.9429,-7.6725
1395591.0,2.4134,3.5147,27.5142,-0.0851,1.5628,-7.4911
1395601.0,2.6145,3.3423,29.2763,0.4448,2.1955,-7.3426
1395611.0,2.2314,3.1412,31.115,0.8551,2.5648,-7.2708
1395621.0,1.6472,3.6966,32.3696,1.0302,2.6909,-7.283
1395631.0,0.8811,4.7788,32.8293,0.9402,2.6803,-7.2697
1395641.0,0.182,6.3303,32.4175,0.5539,2.6552,-7.1761
1395651.0,-0.3352,7.8338,31.6897,-0.0761,2.7085,-6.9967
1395661.0,-1.0822,9.0118,31.4981,-0.9727,2.8303,-6.7387
1395671.0,-1.6089,9.1937,31.5268,-1.6485,3.0549,-6.3332
1395681.0,-1.5897,8.1403,33.0591,-1.9523,3.6487,-5.8639
1395691.0,-2.0973,5.6695,36.9186,-1.5947,4.1037,-5.4041
1395701.0,-2.6911,2.7294,39.9066,-0.8849,4.1978,-5.1498
1395711.0,-1.5706,0.8332,40.8163,-0.0665,4.2298,-5.0748
1395721.0,-0.4597,0.2682,40.6057,0.489,4.3128,-5.1743
1395731.0,-0.182,1.3408,39.7916,0.4459,4.2282,-5.2881
1395741.0,0.2682,3.3423,37.8475,-0.4917,3.9541,-5.3823
1395751.0,-0.5171,4.9704,36.9186,-2.0077,3.6652,-5.3249
1395761.0,-2.5091,4.8746,37.5124,-3.2767,3.4332,-5.0998
1395771.0,-4.4628,2.9401,37.5315,-3.7684,3.4736,-4.7624
1395781.0,-4.9225,-0.2586,38.1636,-3.273,4.0653,-4.4894
1395791.0,-4.0606,-3.5434,38.7382,-2.2311,5.0636,-4.4181
1395801.0,-3.9744,-5.9568,41.6591,-1.0839,5.8623,-4.5985
1395811.0,-4.5873,-7.0677,44.082,-0.3076,6.1422,-4.9939
1395821.0,-4.2617,-6.2537,45.5952,0.0867,6.1065,-5.4808
1395831.0,-4.9129,-3.7541,45.7101,0.0043,5.8729,-5.8814
1395841.0,-7.4412,-1.8962,45.2025,-0.8546,5.4068,-6.1603
1395851.0,-9.8258,-1.5227,44.2448,-1.9821,4.8582,-6.4136
1395861.0,-12.1434,-2.3367,43.3159,-2.9463,4.7401,-6.7557
1395871.0,-13.7906,-3.9552,45.6048,-2.9287,5.2339,-7.0957
1395881.0,-13.7906,-2.988,47.1083,-2.5031,5.7777,-7.4097
1395891.0,-14.6812,-1.5227,51.9063,-1.8161,6.0879,-7.6023
1395901.0,-16.0507,0.1915,55.9094,-0.8248,6.2406,-7.6486
1395911.0,-18.2821,2.2984,59.472,0.1735,5.6271,-7.5539
1395921.0,-18.6269,4.367,61.3011,0.6369,4.5693,-7.3586
1395931.0,-20.322,5.0949,61.4927,1.1132,3.5816,-7.1271
1395941.0,-21.4137,5.2289,59.6827,1.2978,2.8207,-7.0292
1395951.0,-22.1033,5.1906,60.0178,1.3047,2.162,-7.0803
1395961.0,-22.4768,6.7229,59.7593,1.3127,1.3697,-7.1974
1395971.0,-22.7162,8.6957,60.6882,1.3888,0.7173,-7.1447
1395981.0,-22.2373,10.8314,61.1383,1.615,0.1623,-6.9169
1395991.0,-22.1703,12.0764,61.4927,1.4319,-0.7061,-6.6083
1396001.0,-21.5191,12.3349,61.7225,0.9615,-1.8518,-6.2858
1396011.0,-21.4904,12.153,60.9085,0.4448,-2.9905,-5.9708
1396021.0,-20.9924,11.3772,59.2134,0.0952,-3.9775,-5.658
1396031.0,-20.3603,10.161,57.3651,0.0479,-4.6927,-5.4047
1396041.0,-19.1536,9.3757,55.4401,0.1506,-5.1487,-5.2317
1396051.0,-18.5215,8.7819,53.7163,0.3954,-5.4669,-5.0508
1396061.0,-17.1138,8.3318,52.2127,0.7242,-5.7771,-4.897
1396071.0,-15.4282,8.2361,50.5272,0.9871,-6.0741,-4.7518
1396081.0,-14.0779,7.9392,48.5831,0.9977,-6.3923,-4.6134
1396091.0,-12.8808,7.7572,46.7444,1.0179,-6.6248,-4.5203
1396101.0,-11.789,7.1251,45.1163,0.8615,-6.6998,-4.449
1396111.0,-10.7835,6.0334,44.6375,0.7285,-6.7759,-4.4713
1396121.0,-9.8354,5.1811,43.9671,0.6715,-6.8877,-4.5671
1396131.0,-8.9926,4.9129,43.8139,0.7274,-7.0265,-4.7236
1396141.0,-8.3222,5.2577,43.4883,1.0286,-7.1229,-4.8326
1396151.0,-7.6327,6.5888,42.3295,1.35,-7.1558,-4.8635
1396161.0,-7.5848,7.8147,41.9464,1.4958,-7.2224,-4.7603
1396171.0,-7.0294,9.2895,40.3279,1.5878,-7.4421,-4.5512
1396181.0,-7.3167,8.5808,39.3128,1.4426,-7.4091,-4.3851
1396191.0,-7.2496,8.1499,37.5507,1.4591,-7.3022,-4.308
1396201.0,-6.5793,7.9583,36.6696,0.4635,-7.1803,-4.4117
1396211.0,-5.6312,8.1499,37.2538,-0.5465,-7.3958,-4.6437
1396221.0,-5.2289,9.5193,38.7861,-1.6549,-7.4996,-4.8268
1396231.0,-5.3056,10.9942,41.0079,-1.9741,-7.6214,-4.7661
1396241.0,-5.5545,12.038,43.5649,-1.5351,-7.6683,-4.4245
1396251.0,-5.43,12.4403,45.3941,-0.3294,-7.8082,-3.8876
1396261.0,-4.8554,12.9191,44.4843,0.8806,-8.1669,-3.2895
1396271.0,-3.6009,13.216,42.3582,1.6788,-8.5718,-2.7569
1396281.0,-2.4134,13.6374,38.9776,1.8512,-8.9608,-2.2966
1396291.0,-0.8715,13.4363,36.3248,1.6655,-9.2034,-1.956
1396301.0,-0.0958,13.8289,33.4997,1.5708,-9.2609,-1.6229
1396311.0,1.2833,14.1354,31.9003,1.4346,-9.2055,-1.267
1396321.0,3.0646,15.2654,29.171,1.0956,-9.2401,-0.9195
1396331.0,5.3343,15.4091,26.0968,0.4209,-9.3561,-0.5358
1396341.0,7.106,14.9111,23.942,0.0516,-9.1358,-0.2315
1396351.0,7.7764,15.275,20.389,-0.0506,-8.4957,0.1245
1396361.0,8.8585,15.2654,18.3683,-0.2097,-7.9205,0.5039
1396371.0,9.8545,15.1409,15.9071,-0.2586,-7.3522,0.9025
1396381.0,11.4251,14.7483,13.4075,-0.2895,-6.4418,1.3106
1396391.0,12.8233,14.4801,11.5017,-0.216,-5.377,1.7299
1396401.0,13.8576,14.4322,9.6151,-0.1985,-4.2409,2.1529
1396411.0,15.1792,14.1737,9.3661,0.116,-2.9176,2.6547
1396421.0,16.1848,14.5951,9.0022,0.6811,-1.5591,3.1911
1396431.0,16.4721,14.9973,10.0078,1.2169,-0.257,3.8216
1396441.0,16.0316,15.2654,9.6151,1.6565,0.8993,4.4894
1396451.0,15.6677,14.4418,9.7588,1.963,2.1146,5.1322
1396461.0,14.7866,13.3022,10.343,2.0603,3.2182,5.6622
1396471.0,14.4514,11.9997,10.5824,1.549,4.0329,6.0251
1396481.0,14.4035,10.1227,11.8944,0.7508,4.8603,6.2491
1396491.0,14.2024,8.9639,14.3652,0.1788,5.7282,6.471
1396501.0,12.8425,7.7572,18.1002,-0.1889,6.4444,6.7514
1396511.0,11.3677,6.8091,21.3659,-0.2969,6.8738,7.0867
1396521.0,10.0078,5.2385,24.2006,-0.2985,7.2224,7.4049
1396531.0,8.7628,2.6432,26.6044,-0.0724,7.5039,7.6614
1396541.0,7.9679,-1.3312,29.6977,0.339,7.6544,7.6417
1396551.0,7.5082,-5.0853,31.0097,0.547,7.4395,7.2633
1396561.0,8.3989,-6.9336,30.5979,0.3017,7.0521,6.4896
1396571.0,9.0118,-5.8514,30.0329,-0.0883,7.1064,5.7473
1396581.0,7.0581,-2.5857,30.4542,-0.1506,7.4996,5.344
1396591.0,4.6735,-0.0383,31.2204,-0.1942,8.1025,5.3201
1396601.0,2.6815,0.0096,33.2028,-0.0676,8.4356,5.3839
1396611.0,1.6281,-1.1205,35.5874,-0.033,8.7304,5.3291
1396621.0,0.4597,-2.6719,38.719,0.3879,8.9539,5.1099
1396631.0,-1.0247,-2.6719,40.6919,0.9158,8.8559,4.7752
1396641.0,-1.7526,-0.4501,40.4045,1.2356,8.6564,4.4187
1396651.0,-2.4708,3.2561,39.7533,1.5341,8.8655,4.358
1396661.0,-3.6392,6.9623,39.217,1.6974,9.5333,4.6395
1396671.0,-5.9951,9.3087,41.6112,1.79,10.133,5.1184
1396681.0,-7.9392,9.1171,44.8673,1.6352,10.3358,5.6611
1396691.0,-9.1937,7.7668,48.5736,1.4974,10.0362,6.0938
1396701.0,-10.0078,5.7461,52.0212,1.3585,9.478,6.2912
1396711.0,-10.5441,3.304,53.7163,1.325,8.6255,6.2736
1396721.0,-10.7643,3.3136,53.4194,1.2409,7.705,6.1725
1396731.0,-10.8409,5.3056,51.6573,1.3356,7.4219,6.3332
1396741.0,-11.3964,6.0908,50.8912,1.7544,7.7396,6.7594
1396751.0,-12.8329,5.2289,51.121,2.0045,7.9679,7.2112
1396761.0,-12.8617,3.1508,51.9063,1.9321,8.0338,7.4762
1396771.0,-12.8329,0.3448,54.0611,1.7187,8.0344,7.5592
1396781.0,-13.3501,-2.5666,57.4704,1.7868,7.5938,7.3698
1396791.0,-13.3213,-4.7692,59.4241,2.0742,6.8259,6.9765
1396801.0,-12.8712,-5.8131,59.2134,2.4919,5.9341,6.3869
1396811.0,-11.9614,-3.3423,55.2582,2.3732,5.2663,5.8043
1396821.0,-12.0955,0.3352,52.3756,2.0593,5.1551,5.4983
1396831.0,-12.8233,3.122,49.7132,1.458,5.4871,5.5537
1396841.0,-13.9247,3.486,50.9486,0.5805,5.6196,5.6643
1396851.0,-14.3269,2.3272,52.9789,-0.3421,5.4808,5.7149
1396861.0,-14.5759,0.4597,56.2063,-0.9057,5.0806,5.6787
1396871.0,-14.9685,-1.2067,59.3283,-1.1595,4.4453,5.5217
1396881.0,-15.3037,-2.8252,61.4831,-0.8184,3.4795,5.2833
1396891.0,-14.6621,-3.9744,61.1096,-0.3661,2.502,4.8997
1396901.0,-13.9151,-2.9113,58.0738,-0.0186,1.6767,4.4357
1396911.0,-13.6086,0.3639,54.2047,-0.1815,1.144,4.0669
1396921.0,-13.7331,3.6775,50.8624,-0.5342,0.9551,3.9552
1396931.0,-14.3556,5.9472,48.8513,-1.0711,0.9679,4.068
1396941.0,-15.0643,6.7612,48.6789,-1.5399,1.0536,4.3399
1396951.0,-15.3133,5.363,50.0197,-1.6809,0.9913,4.6491
1396961.0,-15.1505,3.7062,50.556,-1.6501,0.8461,4.8151
1396971.0,-15.0739,1.7047,51.8488,-1.3957,0.5795,4.8369
1396981.0,-14.4993,1.0056,52.0595,-0.9668,0.299,4.7842
1396991.0,-14.0588,0.7661,51.1401,-0.5864,0.1511,4.6565
1397001.0,-13.8481,1.2163,50.0101,-0.3943,0.0351,4.515
1397011.0,-14.0683,1.8866,49.6845,-0.3666,-0.1485,4.3963
1397021.0,-13.9726,2.7007,49.4834,-0.2134,-0.2762,4.3186
1397031.0,-14.279,3.1125,49.1099,-0.0266,-0.3677,4.3
1397041.0,-14.3844,3.7733,49.1769,0.3459,-0.4166,4.3388
1397051.0,-14.1928,4.8554,48.7651,0.4273,-0.4699,4.4336
1397061.0,-14.8824,5.2194,48.8896,0.2927,-0.7199,4.5075
1397071.0,-14.3652,5.4492,47.999,-0.0106,-0.9397,4.6054
1397081.0,-13.9534,5.0087,47.9223,-0.4581,-1.0722,4.6698
1397091.0,-13.5703,3.9648,48.8609,-0.8184,-1.3361,4.6853
1397101.0,-12.9383,3.0933,49.5695,-1.1318,-1.682,4.6624
1397111.0,-12.5265,1.9058,50.4793,-1.3138,-2.0822,4.6225
1397121.0,-12.2392,0.4501,51.619,-1.2451,-2.6563,4.5187
1397131.0,-11.4251,-0.6033,51.0731,-1.0115,-3.305,4.3835
1397141.0,-10.975,-1.743,50.5464,-0.5183,-3.7982,4.2298
1397151.0,-9.9311,-2.308,48.1713,0.041,-4.1808,4.0377
1397161.0,-8.8202,-2.8156,45.0014,0.2953,-4.5581,3.7732
1397171.0,-7.3358,-2.7485,41.3526,0.017,-4.7869,3.3576
1397181.0,-5.8993,-2.6719,38.3838,-0.6428,-4.8571,2.8904
1397191.0,-5.1906,-2.5857,36.7366,-1.2882,-4.8843,2.4552
1397201.0,-4.3287,-2.4804,34.8692,-1.7336,-4.7433,2.0215
1397211.0,-3.371,-2.5762,34.2754,-2.0353,-4.4735,1.6495
1397221.0,-2.8347,-2.375,34.1413,-2.2668,-4.2516,1.2941
1397231.0,-2.4612,-2.7677,34.4957,-2.3158,-4.0973,0.9881
1397241.0,-1.7238,-2.6624,34.3424,-2.2099,-3.9073,0.721
1397251.0,-1.2163,-2.7294,34.103,-1.9534,-3.6849,0.4741
1397261.0,-0.4597,-2.4995,34.1222,-1.5963,-3.5247,0.2698
1397271.0,-0.0096,-2.3655,33.7104,-1.201,-3.3284,0.0686
1397281.0,0.249,-1.8962,33.1932,-0.8562,-3.1373,-0.1123
1397291.0,0.3639,-1.2737,32.3026,-0.5459,-2.9405,-0.29
1397301.0,0.5938,-0.1149,31.6418,-0.3549,-2.7521,-0.4007
1397311.0,0.4597,0.3352,31.5364,0.0128,-2.4323,-0.3991
1397321.0,0.5746,0.8523,31.048,0.4821,-2.1396,-0.3613
1397331.0,1.4748,1.4653,29.4391,0.5598,-1.7437,-0.3081
1397341.0,1.9537,0.68,30.4926,0.6002,-1.3308,-0.2794
1397351.0,2.3942,0.0,32.1589,0.6236,-1.1025,-0.2687
1397361.0,3.0454,-0.9864,33.0591,0.646,-1.077,-0.3358
1397371.0,3.3327,-2.2601,33.7582,0.7939,-1.0855,-0.4629
1397381.0,4.1084,-3.122,33.5092,0.953,-1.1153,-0.6375
1397391.0,4.1563,-3.984,32.3792,1.0057,-1.1478,-0.8721
1397401.0,4.4532,-5.0087,31.1246,1.0781,-1.085,-1.1706
1397411.0,4.7309,-5.7652,29.4295,1.0594,-0.8418,-1.5665
1397421.0,4.6639,-6.541,28.9028,1.0781,-0.4656,-2.0103
1397431.0,4.4724,-7.5657,28.424,1.1733,0.0633,-2.5776
1397441.0,4.4915,-7.422,27.8398,1.2297,0.6236,-3.2278
1397451.0,4.3191,-6.3303,28.175,1.1201,1.1829,-3.919
1397461.0,3.2944,-4.3287,29.4487,0.9647,1.7363,-4.5224
1397471.0,1.9441,-1.5897,30.4926,0.745,2.0486,-5.0061
1397481.0,1.312,0.9481,31.9865,0.1671,2.2216,-5.3451
1397491.0,0.431,3.122,33.5188,-0.3299,2.1785,-5.493
1397501.0,-0.4693,4.6831,35.0703,-0.6689,2.0651,-5.5127
1397511.0,-1.0726,5.7365,35.6066,-0.7705,2.0614,-5.3786
1397521.0,-1.8387,5.928,35.5683,-0.6188,2.1519,-5.1886
1397531.0,-2.739,5.2289,35.9609,-0.2256,2.3908,-4.9965
1397541.0,-2.4612,4.7692,36.1237,0.2591,2.676,-4.8571
1397551.0,-2.8539,3.6871,37.34,0.6321,2.8793,-4.8358
1397561.0,-2.988,3.62,37.2442,0.7641,2.8048,-4.9284
1397571.0,-3.4093,4.1851,36.8132,0.48,2.6701,-5.0338
1397581.0,-3.9935,4.8363,36.4302,0.1575,2.5696,-5.0881
1397591.0,-4.4819,4.8842,36.1812,-0.0388,2.692,-5.0827
1397601.0,-5.0087,3.9648,36.6504,-0.183,2.8761,-5.071
1397611.0,-6.1196,2.9975,36.4014,-0.2059,3.1022,-5.1221
1397621.0,-6.9336,2.2314,37.2155,-0.1591,3.3103,-5.2541
1397631.0,-7.0294,2.1261,37.6847,-0.1426,3.5683,-5.4494
1397641.0,-7.6998,2.6911,38.2689,-0.1128,3.8642,-5.6255
1397651.0,-8.6574,3.5913,40.2513,-0.083,3.9536,-5.709
1397661.0,-9.0022,4.4819,41.3048,-0.1181,3.9132,-5.7622
1397671.0,-9.3853,5.5545,42.1092,-0.3193,3.7317,-5.7734
1397681.0,-10.41,5.8993,43.1435,-0.5672,3.4374,-5.7085
1397691.0,-11.9231,5.0757,43.4595,-0.5976,3.1443,-5.6415
1397701.0,-11.5113,4.9033,42.9137,-0.4768,3.0416,-5.6494
1397711.0,-11.8465,4.616,42.9137,-0.3874,3.115,-5.6718
1397721.0,-12.5265,4.7692,43.0286,-0.1261,3.14,-5.6973
1397731.0,-13.283,5.0757,43.019,0.0591,3.1592,-5.7122
1397741.0,-13.532,4.9799,44.331,0.423,3.1655,-5.6995
1397751.0,-12.8042,5.7174,43.9671,0.6912,3.0261,-5.7048
1397761.0,-12.9861,6.7995,43.6607,0.5007,2.8702,-5.7011
1397771.0,-13.4841,7.853,43.3159,0.124,2.5914,-5.6633
1397781.0,-14.2024,8.4563,43.7181,-0.2964,2.3259,-5.5297
1397791.0,-15.2559,8.1594,43.6128,-0.2826,2.0992,-5.3206
1397801.0,-15.7826,7.8434,42.5019,0.107,2.1886,-5.1195
1397811.0,-15.8592,6.7804,43.0286,0.9237,2.7287,-4.9087
1397821.0,-16.2423,5.3822,45.3174,2.113,3.2209,-4.7645
1397831.0,-16.52,5.3439,47.1754,3.306,3.189,-4.7172
1397841.0,-15.8496,6.4069,47.3669,3.7195,2.9037,-4.7502
1397851.0,-16.4146,7.9583,47.7978,3.6918,2.4419,-4.7459
1397861.0,-16.0507,8.8202,46.0644,2.9867,1.7916,-4.7448
1397871.0,-16.2806,8.9735,44.5417,1.5905,1.4463,-4.8337
1397881.0,-17.6884,7.3071,45.5856,0.4119,1.1744,-4.9806
1397891.0,-18.148,5.6312,46.9455,-0.4954,0.986,-5.2637
1397901.0,-19.326,4.4915,50.441,-0.6928,0.7593,-5.5952
1397911.0,-19.6803,5.0949,52.1649,-0.307,0.422,-5.8628
1397921.0,-19.5941,6.79,53.5056,0.2192,0.0686,-5.9586
1397931.0,-19.6995,8.983,54.3771,0.6572,-0.3443,-5.9283
1397941.0,-19.7186,10.6686,55.0283,1.0727,-1.0382,-5.7293
1397951.0,-19.6899,12.0668,54.3771,1.4101,-1.7219,-5.4451
1397961.0,-19.4601,12.8233,52.5575,1.5719,-2.2551,-5.1125
1397971.0,-19.3643,13.034,50.192,1.5516,-2.6478,-4.8098
1397981.0,-19.0291,12.9,48.248,1.5043,-2.9112,-4.5708
1397991.0,-18.7897,12.3924,46.9264,1.3122,-3.1091,-4.4038
1398001.0,-18.7227,11.7986,45.7197,1.1808,-3.2257,-4.2957
1398011.0,-18.2247,11.3581,45.6622,1.2281,-3.1389,-4.2085
1398021.0,-17.8703,11.3006,45.6335,1.2984,-3.1299,-4.1739
1398031.0,-17.5543,11.655,46.2272,1.3255,-3.2347,-4.0898
1398041.0,-17.0659,12.3637,46.3996,1.4452,-3.363,-3.969
1398051.0,-16.5679,12.9191,46.5816,1.3941,-3.554,-3.8083
1398061.0,-16.2901,13.3309,46.323,1.2632,-3.8929,-3.6354
1398071.0,-15.8209,13.4841,45.6143,1.0068,-4.2308,-3.4492
1398081.0,-15.3995,13.5895,45.0206,0.8226,-4.4857,-3.2624
1398091.0,-14.8345,13.4841,44.2448,0.6327,-4.5421,-3.0799
1398101.0,-14.5855,13.0532,44.1299,0.4981,-4.5996,-2.9373
1398111.0,-13.6278,12.6222,44.5322,0.3863,-4.7544,-2.8101
1398121.0,-13.4267,12.6701,44.446,0.4001,-4.9188,-2.6526
1398131.0,-12.6127,12.8904,43.9384,0.4491,-5.0827,-2.4775
1398141.0,-11.3389,12.8617,42.3965,0.3794,-5.2355,-2.2934
1398151.0,-10.4196,12.3924,41.0941,0.1314,-5.3163,-2.1567
1398161.0,-9.0692,12.3349,39.7725,-0.2703,-5.3084,-2.0571
1398171.0,-7.6327,11.7986,39.1308,-0.6981,-5.2376,-1.9603
1398181.0,-6.7612,10.6111,39.4852,-1.0318,-5.0944,-1.9284
1398191.0,-6.2824,9.6438,40.2513,-1.2638,-5.0955,-2.0082
1398201.0,-6.0047,9.414,41.0079,-1.3101,-5.1828,-2.121
1398211.0,-5.8131,10.3142,40.6823,-1.1265,-5.2057,-2.1508
1398221.0,-5.861,11.5209,40.7493,-0.9041,-5.1748,-2.0625
1398231.0,-5.9185,12.6797,40.2705,-0.5172,-4.9497,-1.8055
1398241.0,-5.8035,12.9383,39.7533,-0.0591,-4.5272,-1.4511
1398251.0,-5.5737,11.7986,41.0175,0.1815,-4.0664,-1.1424
1398261.0,-5.4205,10.6686,42.3965,-0.1144,-4.1074,-1.0977
1398271.0,-4.798,9.8162,43.7947,-0.9222,-4.5804,-1.2271
1398281.0,-4.4724,9.8258,44.8578,-1.5245,-5.0178,-1.3931
1398291.0,-4.7309,10.343,46.0261,-1.7804,-5.4685,-1.4665
1398301.0,-5.0566,11.0133,46.4379,-1.6511,-5.8383,-1.4042
1398311.0,-5.0278,11.5592,46.5816,-1.16,-6.0906,-1.2286
1398321.0,-4.3096,11.8465,45.3653,-0.9711,-6.5594,-1.1265
1398331.0,-3.6966,12.1817,42.5402,-1.3484,-7.1143,-1.0642
1398341.0,-2.7294,12.9383,39.3224,-1.9981,-7.539,-1.0084
1398351.0,-1.8962,13.4075,36.3153,-2.8351,-7.771,-0.9716
1398361.0,-1.0439,13.5608,34.3329,-3.4832,-7.7923,-0.886
1398371.0,-0.1149,13.9438,32.7431,-4.0387,-7.7077,-0.7545
1398381.0,0.5938,13.7331,31.9195,-4.3021,-7.5826,-0.5193
1398391.0,1.3503,13.714,31.1821,-4.2324,-7.4325,-0.1916
1398401.0,2.0016,12.9957,29.7839,-3.8988,-7.3623,0.157
1398411.0,3.3902,11.8848,27.6961,-3.7924,-7.324,0.4166
1398421.0,4.7214,10.5345,24.0952,-4.059,-7.2431,0.5135
1398431.0,6.11,9.414,20.5327,-4.7002,-7.0702,0.4044
1398441.0,7.2209,9.2895,18.3875,-5.1083,-6.6088,0.2879
1398451.0,7.7381,9.6726,18.263,-4.822,-5.8618,0.3262
1398461.0,8.3989,10.8697,18.4354,-3.679,-4.9933,0.5917
1398471.0,9.3661,12.4211,17.2574,-2.444,-4.0121,1.0962
1398481.0,10.161,13.2447,15.9262,-1.1643,-2.9958,1.7363
1398491.0,11.1187,13.6565,13.6757,-0.158,-1.963,2.4514
1398501.0,11.5592,13.3309,11.6071,0.4853,-0.7343,3.1214
1398511.0,11.971,12.4403,11.1666,0.8062,0.663,3.7067
1398521.0,12.1434,11.2911,11.9231,0.68,1.8507,4.1899
1398531.0,11.9135,9.8737,13.6469,0.2719,2.7468,4.5629
1398541.0,11.2049,8.351,16.3189,-0.0995,3.4406,4.8454
1398551.0,10.9559,6.9911,18.5215,-0.2996,3.9712,5.0567
1398561.0,10.4196,6.5793,20.571,-0.5183,4.3729,5.2285
1398571.0,9.5002,7.2592,20.9445,-0.8743,4.7725,5.4643
1398581.0,7.7859,7.2592,22.4672,-1.1882,5.245,5.8085
1398591.0,6.043,6.2153,24.6699,-1.16,5.8277,6.3045
1398601.0,5.5545,3.3615,28.5293,-0.8163,6.3396,6.686
1398611.0,4.8937,-0.2011,31.6705,-0.4709,6.4258,6.8047
1398621.0,4.4341,-3.4955,34.2275,-0.2395,5.9096,6.5663
1398631.0,5.612,-4.7214,33.7199,-0.3831,5.1642,6.0581
1398641.0,5.7557,-3.4189,32.5611,-0.5358,4.9359,5.6212
1398651.0,4.1563,-0.2682,29.9754,-0.6082,5.1838,5.4898
1398661.0,2.1452,1.7047,29.3912,-0.9158,5.6947,5.6665
1398671.0,0.431,0.8811,30.5404,-0.9706,6.2427,5.9634
1398681.0,-1.1971,-1.81,33.2411,-0.8439,6.6248,6.0975
1398691.0,-1.9537,-4.5107,34.4478,-0.5603,6.7807,5.9315
1398701.0,-2.9018,-5.3247,35.0894,-0.3634,6.7605,5.5068
1398711.0,-2.9688,-3.2178,34.6393,-0.1942,7.1644,5.1615
1398721.0,-4.7309,0.4788,34.419,0.0372,7.8774,5.2009
1398731.0,-6.6176,3.0358,35.597,-0.0713,8.6511,5.4994
1398741.0,-8.2169,3.8116,38.0295,-0.2304,9.1241,5.9575
1398751.0,-9.8162,2.6432,41.0462,-0.5976,9.3439,6.322
1398761.0,-11.4922,0.8715,44.9344,-0.9307,9.0794,6.5194
1398771.0,-11.8944,-1.2833,48.9566,-1.0291,8.459,6.5226
1398781.0,-12.6605,-3.1699,51.6956,-0.5369,7.5752,6.371
1398791.0,-12.9287,-2.3367,50.9295,0.3049,6.7312,6.1502
1398801.0,-12.8808,1.4078,46.6869,0.8562,6.4678,6.1182
1398811.0,-14.7291,4.3191,43.5745,0.8088,6.7823,6.3731
1398821.0,-16.5775,5.4971,42.6359,0.2975,7.1558,6.7408
1398831.0,-17.5639,3.9552,45.0493,-0.3453,7.1819,7.0005
1398841.0,-18.2151,1.5036,48.5831,-0.5832,6.8632,7.108
1398851.0,-18.7993,-0.3735,51.6956,-0.1809,6.2411,7.0425
1398861.0,-19.3164,-0.7087,51.5903,0.795,5.592,6.8563
1398871.0,-19.575,2.375,47.3094,1.4708,5.2211,6.7573
1398881.0,-19.9293,5.6407,43.9575,1.6027,5.6015,6.9223
1398891.0,-20.6284,7.5753,41.5633,1.2393,6.1789,7.2112
1398901.0,-21.8638,7.1443,42.7221,0.3757,6.4018,7.4666
1398911.0,-21.6819,5.9951,44.8099,-0.4645,6.4151,7.5698
1398921.0,-23.3291,4.7597,48.5544,-1.0749,6.3231,7.5901
1398931.0,-24.9284,5.1427,51.0252,-1.2542,5.725,7.6731
1398941.0,-26.5469,5.8227,52.3564,-0.4523,5.4973,8.0088
1398951.0,-27.9451,7.4412,50.9869,0.5039,5.716,8.5308
1398961.0,-28.3282,7.5657,50.5177,1.2345,6.1241,9.1688
1398971.0,-27.811,6.0621,50.6805,1.1291,6.4391,9.5791
1398981.0,-25.5126,3.0742,53.5727,0.2586,6.2497,9.7132
1398991.0,-27.8972,2.3463,52.931,-1.1132,5.7809,9.7547
1399001.0,-29.7073,-1.3982,59.2517,-1.6905,4.7268,9.6009
1399011.0,-27.8494,-2.2984,60.3147,-2.5903,3.4864,9.2827
1399021.0,-27.5142,-3.8403,62.0481,-2.3322,2.03,8.9858
1399031.0,-28.1845,-2.9975,59.0793,-1.8251,1.4867,8.7942
1399041.0,-27.6674,-2.4995,57.8152,-1.0211,1.1004,8.7852
1399051.0,-27.3609,-2.3559,56.0435,-0.8269,0.6396,8.765
1399061.0,-26.7576,-3.055,54.6165,-0.7508,-0.0144,8.6532
1399071.0,-25.4647,-3.6392,52.7107,-0.7982,-0.4778,8.4478
1399081.0,-24.3155,-3.7158,50.7283,-0.7301,-0.82,8.1764
1399091.0,-23.6164,-3.2944,49.2344,-0.6976,-1.0594,7.9045
1399101.0,-23.5302,-2.4325,47.0987,-0.7593,-1.2898,7.6917
1399111.0,-23.0226,-1.6568,44.6279,-1.0036,-1.4011,7.5054
1399121.0,-22.2373,-1.4748,42.5498,-1.5038,-1.3196,7.3277
1399131.0,-22.3523,-2.2027,42.1092,-2.0476,-1.1706,7.0755
1399141.0,-22.1033,-3.3806,42.4636,-2.4961,-1.0584,6.7472
1399151.0,-21.4808,-4.2617,43.8905,-2.6685,-1.0467,6.3087
1399161.0,-21.0211,-4.118,45.5856,-2.56,-1.1164,5.8633
1399171.0,-20.5806,-3.2274,46.7731,-2.1907,-1.3101,5.4637
1399181.0,-20.14,-1.7909,46.572,-1.9156,-1.6017,5.1322
1399191.0,-19.4984,-0.6512,45.2313,-2.0284,-2.0556,4.8459
1399201.0,-18.8663,0.1532,43.6415,-2.6669,-2.5052,4.4969
1399211.0,-18.9621,0.6608,43.2872,-3.3161,-2.8165,4.1899
1399221.0,-18.5982,0.8715,43.201,-3.4172,-3.0277,3.9664
1399231.0,-17.7171,1.561,43.8809,-3.3028,-2.9495,3.8642
1399241.0,-18.2247,2.2122,44.6567,-3.0336,-3.0655,3.8834
1399251.0,-18.1672,1.5323,46.6774,-2.5563,-3.305,4.0137
1399261.0,-16.836,0.8523,47.003,-2.022,-3.5284,4.1436
1399271.0,-16.022,-0.2394,47.5584,-1.7485,-3.9185,4.2165
1399281.0,-15.3325,-1.4844,47.386,-1.6033,-4.4548,4.193
1399291.0,-14.6621,-2.4708,47.501,-1.3271,-5.0827,4.2016
1399301.0,-13.4363,-3.7733,45.5377,-1.0509,-5.4222,4.1505
1399311.0,-12.9383,-5.794,44.6567,-0.6173,-5.5851,4.0286
1399321.0,-11.4922,-7.7668,43.4117,-0.1352,-5.6979,3.7711
1399331.0,-10.1227,-9.1267,42.0518,0.1282,-5.8117,3.3486
1399341.0,-9.2991,-9.6822,40.6727,0.3267,-5.9038,2.875
1399351.0,-8.2073,-9.6343,39.964,0.5428,-5.8484,2.4376
1399361.0,-7.1251,-9.4044,39.6863,0.9371,-5.6931,2.0566
1399371.0,-6.3782,-9.4523,39.6576,1.3558,-5.5718,1.7304
1399381.0,-5.8514,-10.1131,39.7725,1.8805,-5.5702,1.4181
1399391.0,-4.8937,-10.2568,39.1021,2.3035,-5.6702,1.0211
1399401.0,-3.7541,-10.41,36.5259,2.328,-5.8431,0.506
1399411.0,-2.3655,-10.5824,33.4901,1.8507,-5.8341,-0.174
1399421.0,-0.8428,-10.6398,30.9235,1.1446,-5.6846,-1.002
1399431.0,0.3543,-9.7779,30.5021,0.3283,-5.369,-1.823
1399441.0,0.431,-8.8681,30.1095,-0.357,-5.1301,-2.5935
1399451.0,0.316,-7.6614,30.4734,-0.9136,-4.9103,-3.2826
1399461.0,0.4693,-6.1196,30.866,-1.0765,-4.6911,-3.8179
1399471.0,0.5555,-4.7788,31.2204,-0.994,-4.4958,-4.2127
1399481.0,0.747,-3.802,30.9235,-0.8423,-4.4054,-4.54
1399491.0,1.5227,-2.8539,29.7551,-0.7551,-4.2564,-4.8678
1399501.0,1.7047,-1.5227,28.4431,-0.8503,-4.0808,-5.1822
1399511.0,2.0111,-0.0096,28.1558,-0.8493,-3.9254,-5.4132
1399521.0,2.1931,2.2314,26.7768,-0.9546,-3.5811,-5.5191
1399531.0,1.9058,3.9169,26.9012,-0.7987,-3.0644,-5.4121
1399541.0,2.1261,5.2289,27.7536,-0.3954,-2.7244,-5.0833
1399551.0,2.9209,5.2672,28.1175,0.0314,-2.4392,-4.6948
1399561.0,3.486,4.3479,28.0888,0.3374,-2.2753,-4.433
1399571.0,3.8116,2.6815,27.6865,0.4757,-2.2232,-4.2947
1399581.0,4.3479,1.2067,26.9587,0.8285,-2.1716,-4.2739
1399591.0,4.4819,0.5938,25.1104,1.1345,-1.9321,-4.3458
1399601.0,4.2042,-0.067,23.2621,1.4601,-1.4995,-4.5261
1399611.0,3.9552,-0.4884,21.3563,1.7906,-0.8556,-4.7571
1399621.0,4.2617,-0.4501,19.1536,1.9784,-0.0346,-5.1024
1399631.0,3.9648,0.5842,17.7075,1.8081,1.0115,-5.4749
1399641.0,3.8307,2.3463,17.2574,1.2616,2.0662,-5.8213
1399651.0,2.5091,4.1372,19.2302,0.5146,2.949,-5.9831
1399661.0,1.9537,5.4205,22.7353,-0.1554,3.5247,-6.0091
1399671.0,0.4597,5.0757,26.1638,-0.6412,3.9339,-5.948
1399681.0,-1.2546,3.8116,29.6785,-0.5098,4.1457,-5.8676
1399691.0,-2.1452,2.557,32.2451,0.0628,4.3378,-5.849
1399701.0,-3.0837,1.4174,34.3616,1.119,4.5559,-5.907
1399711.0,-3.1795,1.4174,34.0647,2.2056,4.8603,-6.0118
1399721.0,-3.8403,2.5091,34.036,2.8617,5.1141,-6.1959
1399731.0,-4.3191,4.3479,32.7718,2.7239,5.2743,-6.3327
1399741.0,-5.3343,5.679,33.3464,1.9092,5.3844,-6.4194
1399751.0,-6.3398,6.359,35.5683,0.8226,5.3302,-6.4375
1399761.0,-7.9487,5.4779,39.1787,0.0186,4.9944,-6.38
1399771.0,-9.9024,3.0646,42.7604,0.1756,4.5597,-6.3348
1399781.0,-9.7971,1.6664,42.8083,0.7758,4.3537,-6.4886
1399791.0,-10.3334,0.8428,41.6687,1.1988,4.3559,-6.769
1399801.0,-10.7931,1.6568,40.711,1.2973,4.3176,-7.1681
1399811.0,-10.8314,3.4764,39.2649,0.8434,4.3239,-7.5368
1399821.0,-11.9135,5.0087,39.3511,0.0654,4.391,-7.7529
1399831.0,-12.9287,6.4452,40.6535,-0.6502,4.3176,-7.8029
1399841.0,-13.3405,6.8474,42.3582,-1.2978,4.2159,-7.7023
1399851.0,-15.0069,6.0813,44.5992,-1.4676,3.9701,-7.5379
1399861.0,-16.6828,4.051,46.9934,-1.0057,3.7732,-7.3559
1399871.0,-17.3819,3.1508,46.5433,-0.281,3.5534,-7.2969
1399881.0,-18.0523,1.8196,47.1466,0.5678,3.4821,-7.3554
1399891.0,-17.7937,1.992,46.2751,1.3729,3.5098,-7.5331
1399901.0,-18.0619,3.3615,45.9112,1.7964,3.4853,-7.7539
1399911.0,-18.8759,5.3343,45.4898,1.8406,3.3635,-7.8476
1399921.0,-19.0387,6.7708,46.0644,1.5894,3.1038,-7.8699
1399931.0,-19.5463,7.4795,46.639,1.2425,2.7824,-7.8359
1399941.0,-21.1073,7.1922,47.501,0.9174,2.3865,-7.7933
1399951.0,-22.0554,6.3686,47.7117,0.854,1.963,-7.7965
1399961.0,-21.9596,5.8993,47.1083,0.9679,1.8177,-7.8779
1399971.0,-21.2797,6.1866,46.4858,0.9003,1.814,-8.0583
1399981.0,-21.318,7.5274,48.0851,0.8455,1.6623,-8.1892
1399991.0,-21.6053,9.4044,48.9758,0.7987,1.2755,-8.1456
1400001.0,-21.5765,11.1187,49.129,0.7343,0.7588,-7.9365
1400011.0,-21.7681,11.7795,49.2822,0.6476,0.3358,-7.606
1400021.0,-22.4863,11.3294,48.3341,0.6971,-0.2022,-7.2894
1400031.0,-22.5917,10.0461,46.3326,0.5614,-0.5662,-7.1207
1400041.0,-22.5821,9.1075,44.9248,0.4182,-0.5917,-7.1569
1400051.0,-23.5685,9.5193,45.6048,0.48,-0.4752,-7.2085
1400061.0,-24.6411,10.3142,47.501,1.4314,-0.3315,-7.0792
1400071.0,-24.0378,12.153,48.3725,2.5414,-0.1921,-6.8355
1400081.0,-23.6547,13.7523,48.5353,3.2251,-0.3507,-6.5354
1400091.0,-23.0993,15.5623,47.7021,3.2656,-0.7497,-6.1954
1400101.0,-22.2373,16.2518,47.3286,2.7425,-1.2563,-5.8767
1400111.0,-22.0267,16.1082,47.1179,2.054,-1.6469,-5.5537
1400121.0,-22.2086,15.0356,48.2575,1.7709,-2.0885,-5.2397
1400131.0,-22.5246,13.5033,48.248,1.7985,-2.428,-5.0146
1400141.0,-22.7832,12.1913,48.4108,2.2008,-2.6978,-4.8619
1400151.0,-22.2565,11.722,47.0892,2.5467,-2.9069,-4.8683
1400161.0,-21.634,12.536,46.1602,2.5712,-3.173,-4.9039
1400171.0,-20.8296,14.2024,44.6567,2.2131,-3.455,-4.8731
1400181.0,-20.14,15.591,43.45,1.5639,-3.6843,-4.755
1400191.0,-19.393,16.022,43.4404,0.8588,-3.8738,-4.5756
1400201.0,-18.8759,15.6006,43.2393,0.2522,-4.0781,-4.3708
1400211.0,-18.9525,14.3748,44.3885,-0.0239,-4.192,-4.184
1400221.0,-18.5503,13.4937,44.6758,0.215,-4.3037,-4.0462
1400231.0,-17.9469,13.216,45.1068,0.6151,-4.3351,-3.9142
1400241.0,-17.516,13.6374,45.0493,0.9312,-4.4181,-3.7695
1400251.0,-16.6828,13.9917,44.5992,0.9573,-4.6597,-3.6407
1400261.0,-15.9454,14.6717,43.9384,0.58,-5.0657,-3.5316
1400271.0,-15.1888,15.4187,42.5402,0.0947,-5.4573,-3.3837
1400281.0,-14.279,16.6732,41.5825,-0.2549,-5.651,-3.1586
1400291.0,-14.1545,17.3244,40.146,-0.2959,-5.642,-2.7446
1400301.0,-13.4554,17.1233,38.7956,-0.0628,-5.4377,-2.2413
1400311.0,-12.8808,16.4338,37.474,0.1192,-5.1508,-1.7538
1400321.0,-11.7986,15.1026,36.8037,0.0883,-4.8385,-1.4026
1400331.0,-11.4634,13.7906,37.8571,0.3278,-4.549,-1.1105
1400341.0,-10.5632,13.3405,37.7901,0.4725,-4.325,-0.8657
1400351.0,-9.979,12.6414,38.7861,0.6678,-4.2718,-0.6997
1400361.0,-9.5098,12.7372,38.4509,0.7833,-4.2936,-0.5199
1400371.0,-8.6,12.3828,37.474,0.8322,-4.3096,-0.3475
1400381.0,-7.5944,12.9383,36.6504,0.6295,-4.2452,-0.2155
1400391.0,-7.2496,12.6988,35.846,0.2288,-4.2638,-0.0809
1400401.0,-7.0006,12.6031,35.0607,-0.1059,-4.2596,0.0777
1400411.0,-5.9185,12.3158,34.8787,-0.2528,-4.0888,0.2549
1400421.0,-5.6695,12.0093,35.2905,-0.3102,-3.8855,0.4486
1400431.0,-5.4779,11.1187,35.7215,-0.1735,-3.8493,0.6252
1400441.0,-4.6639,10.8314,34.8117,-0.1048,-3.8291,0.7593
1400451.0,-4.2138,10.2855,34.2084,-0.009,-3.7833,0.8881
1400461.0,-3.1795,10.2472,33.1741,-0.0085,-3.6125,0.9684
1400471.0,-2.9688,9.9311,32.3888,-0.1841,-3.4598,1.0504
1400481.0,-2.0207,9.3948,31.9865,-0.3214,-3.3417,1.0914
1400491.0,-1.2546,9.1937,31.297,-0.5694,-3.1012,1.1079
1400501.0,-0.814,8.9352,31.8046,-0.638,-2.8596,1.1861
1400511.0,-0.6129,8.3318,31.9387,-0.6188,-2.6483,1.2643
1400521.0,0.0383,7.7093,32.3121,-0.4938,-2.4908,1.3297
1400531.0,-0.1437,6.675,31.9482,-0.3214,-2.3275,1.3718
1400541.0,0.067,5.5929,31.8429,0.0947,-1.9874,1.3393
1400551.0,1.0534,5.3247,32.3313,0.5821,-1.5665,1.2568
1400561.0,1.6185,6.177,32.4654,1.0456,-1.1845,1.1499
1400571.0,1.5897,7.8434,32.7527,1.383,-0.9296,1.1685
1400581.0,0.7087,8.3318,32.8868,1.5511,-0.7173,1.2084
1400591.0,1.5227,8.3318,32.0919,1.4489,-0.4576,1.1185
1400601.0,1.7526,9.5864,31.1438,0.5715,-0.2687,0.8445
1400611.0,1.4461,11.9806,32.6665,-1.002,-0.323,0.5997
1400621.0,0.3735,14.1354,36.1716,-2.2221,-0.5433,0.6236
1400631.0,-0.4597,15.2654,39.7629,-2.4914,-0.8221,0.9849
1400641.0,-0.8332,14.6621,42.1667,-1.6219,-0.8248,1.5969
1400651.0,-0.0479,14.2982,42.2912,-0.1926,-0.6359,2.1918
1400661.0,0.814,13.9247,42.6838,0.878,-0.4092,2.6909
1400671.0,0.9577,14.9781,42.9041,1.6682,-0.4805,3.149
1400681.0,0.0479,15.6677,43.2967,1.5309,-1.0158,3.5912
1400691.0,0.3926,14.6046,42.0518,1.2845,-1.8294,4.0089
1400701.0,1.3695,12.6127,40.1651,1.0121,-2.2891,4.3075
1400711.0,2.6815,10.4196,37.8858,1.2276,-2.2359,4.5352
1400721.0,3.3136,9.4044,35.8843,1.6288,-1.9667,4.7166
1400731.0,3.4381,8.4276,33.8349,2.0007,-1.6373,4.8475
1400741.0,4.1851,7.2018,31.5077,2.1375,-1.3079,4.8997
1400751.0,6.043,6.2728,30.2914,2.1274,-0.588,4.8034
1400761.0,6.4356,6.177,30.2627,1.6511,-0.1133,4.6017
1400771.0,6.0813,6.3877,31.048,0.7354,-0.2027,4.3516
1400781.0,6.3782,6.8474,30.7894,-0.0559,-0.2804,4.2218
1400791.0,6.6463,6.8091,29.8796,-0.3033,0.1288,4.2282
1400801.0,6.9719,6.3015,29.7456,-0.0995,0.7678,4.3745
1400811.0,6.5888,5.4109,29.9084,0.2293,1.4096,4.5634
1400821.0,6.9719,3.4477,30.3393,0.6343,2.0321,4.6528
1400831.0,6.9911,1.1109,31.3162,0.7173,2.3652,4.5778
1400841.0,7.6423,-1.5323,31.6705,0.5827,2.3881,4.2766
1400851.0,8.4467,-3.1891,30.6458,0.1165,2.5664,3.7817
1400861.0,8.7819,-4.2521,30.6649,-0.365,2.7638,3.1474
1400871.0,8.4659,-4.3383,30.6649,-0.8381,3.0245,2.5323
1400881.0,7.7189,-4.3096,31.479,-0.8461,3.5077,2.0162
1400891.0,6.8666,-3.8595,32.5228,-0.6486,4.2941,1.5655
1400901.0,5.1619,-3.7158,35.5395,-0.3299,4.7624,1.1717
1400911.0,4.8554,-3.0263,38.4796,0.0399,5.0322,0.779
1400921.0,3.371,-2.6911,41.6687,0.4337,5.013,0.4581
1400931.0,2.6911,-1.7813,42.9232,0.6822,4.8289,0.1564
1400941.0,2.2027,-0.747,44.1395,0.9062,4.7858,-0.1357
1400951.0,1.1013,0.182,45.2408,0.9599,4.5884,-0.4299
1400961.0,0.5555,1.0918,45.3941,0.8344,4.2941,-0.7066
1400971.0,0.5555,2.0399,46.1027,0.6391,4.0973,-0.9961
1400981.0,0.0096,3.055,46.3805,0.3565,3.9137,-1.2739
1400991.0,-1.2067,4.3096,48.0181,0.0612,3.5912,-1.4841
1401001.0,-2.1739,5.2864,48.2767,-0.1777,3.1395,-1.5969
1401011.0,-2.49,6.0908,48.3629,-0.2847,2.7803,-1.6203
1401021.0,-3.304,6.7038,48.5927,-0.3193,2.6552,-1.574
1401031.0,-3.5913,6.4931,49.7132,-0.0011,2.4562,-1.5133
1401041.0,-3.553,6.4165,50.9773,0.357,2.1359,-1.4489
1401051.0,-4.1563,6.8091,50.9582,0.6582,1.6591,-1.434
1401061.0,-4.1468,7.1251,50.3932,0.6721,1.1903,-1.4521
1401071.0,-4.0797,7.7668,48.8226,0.563,0.7545,-1.5059
1401081.0,-4.1851,8.6957,47.319,0.3533,0.4464,-1.4974
1401091.0,-4.1851,9.9407,45.9208,0.1463,0.3182,-1.4591
1401101.0,-4.4915,10.1131,45.0589,0.0117,0.248,-1.3329
1401111.0,-4.2042,9.7779,44.197,0.0495,0.2788,-1.2058
1401121.0,-4.2425,9.2895,42.9424,0.2469,0.4486,-1.1254
1401131.0,-3.8882,8.7819,42.8658,0.4523,0.6726,-1.0855
1401141.0,-3.3615,9.0405,41.9847,0.4385,0.8088,-1.118
1401151.0,-3.3136,9.0022,42.6551,0.3443,0.8471,-1.1675
1401161.0,-3.4955,9.5385,42.4348,0.2661,0.7737,-1.1616
1401171.0,-3.486,9.8354,42.5498,0.2246,0.7348,-1.1057
1401181.0,-3.4764,10.4196,42.0039,0.1341,0.7811,-1.0366
1401191.0,-3.6392,10.6111,42.0135,-0.116,0.7843,-0.9445
1401201.0,-3.8786,10.1418,42.205,-0.3177,0.7503,-0.9259
1401211.0,-3.8595,9.8737,41.8411,-0.6087,0.6646,-0.9456
1401221.0,-3.8978,9.8641,42.2146,-0.8913,0.5662,-0.961
1401231.0,-3.7637,9.7875,42.5785,-0.8759,0.5683,-0.9488
1401241.0,-3.9744,9.5385,43.9958,-0.4597,0.5997,-0.8413
1401251.0,-4.0893,9.9216,44.0437,0.033,0.5337,-0.7045
1401261.0,-4.0989,10.0173,43.8618,0.3581,0.3645,-0.5811
1401271.0,-3.8116,10.0461,42.6551,0.4581,0.2325,-0.4757
1401281.0,-3.7637,10.2185,41.3526,0.3054,0.1548,-0.3794
1401291.0,-3.5913,9.6726,40.0789,0.0064,0.1841,-0.348
1401301.0,-3.5051,9.1363,40.1364,-0.2416,0.216,-0.3528
1401311.0,-3.2561,8.5329,39.897,-0.3065,0.2724,-0.3996
1401321.0,-3.1412,8.4659,39.7246,-0.24,0.4917,-0.4507
1401331.0,-3.1891,8.667,40.1651,-0.2176,0.7237,-0.4768
1401341.0,-3.3998,8.9639,41.0653,-0.2927,0.6917,-0.5215
1401351.0,-3.5051,9.1267,41.7453,-0.3241,0.5752,-0.531
1401361.0,-3.7733,9.4236,42.0518,-0.3773,0.4959,-0.5358
1401371.0,-3.9265,9.3374,42.4923,-0.3374,0.331,-0.481
1401381.0,-3.7637,9.5098,42.0996,-0.2538,0.2352,-0.4603
1401391.0,-3.7062,9.5577,41.5155,-0.2075,0.2102,-0.4369
1401401.0,-3.6009,9.8641,41.1611,-0.2708,0.1676,-0.4353
1401411.0,-3.6488,10.1418,40.8163,-0.4012,0.1612,-0.4145
1401421.0,-3.7828,10.0748,41.1324,-0.4927,0.0979,-0.3783
1401431.0,-3.5434,10.1514,41.0653,-0.5263,-0.0309,-0.357
1401441.0,-3.7062,10.2089,40.9983,-0.4874,-0.157,-0.2921
1401451.0,-3.4572,10.0844,40.4524,-0.2937,-0.1506,-0.223
1401461.0,-3.6105,10.4004,39.4948,-0.2139,-0.0798,-0.1144
1401471.0,-3.3327,10.2185,38.7861,-0.207,0.0362,-0.0367
1401481.0,-3.2561,9.7875,38.1444,-0.2959,0.2049,0.0085
1401491.0,-2.9975,9.2608,38.3934,-0.4752,0.3283,-0.0101
1401501.0,-3.0263,8.9639,39.1021,-0.6018,0.4124,-0.0426
1401511.0,-3.2465,8.5521,40.1556,-0.5098,0.448,-0.0484
1401521.0,-3.0646,8.3893,40.5674,-0.3257,0.4071,-0.0697
1401531.0,-3.2753,8.7436,40.395,-0.2368,0.3719,-0.1016
1401541.0,-3.3998,8.7628,40.146,-0.2187,0.3783,-0.0968
1401551.0,-3.5051,8.9447,40.0023,-0.199,0.3496,-0.116
1401561.0,-3.486,9.0118,39.7437,-0.3837,0.4246,-0.1368
1401571.0,-3.8882,8.8873,39.7916,-0.473,0.4103,-0.1543
1401581.0,-3.9744,8.9064,40.0119,-0.5906,0.3996,-0.183
1401591.0,-3.802,8.916,40.778,-0.5257,0.3161,-0.1953
1401601.0,-3.7445,8.7915,40.8738,-0.4156,0.3145,-0.1825
1401611.0,-3.8403,9.2895,40.6727,-0.2884,0.2778,-0.1554
1401621.0,-3.869,9.5481,40.5865,-0.1719,0.3815,-0.0947
1401631.0,-4.2617,9.5002,40.6823,-0.1431,0.3991,-0.0394
1401641.0,-4.1468,9.5289,40.6631,-0.1596,0.3171,-0.0133
1401651.0,-3.9648,9.4715,39.9353,-0.215,0.3278,0.0229
1401661.0,-4.5298,9.2416,39.7437,-0.2128,0.3555,0.0537
1401671.0,-4.1372,9.1171,40.0981,-0.2219,0.3544,0.058
1401681.0,-4.0318,9.1842,40.1651,-0.29,0.4331,0.067
1401691.0,-4.3,9.0501,40.6344,-0.3347,0.4193,0.0639
1401701.0,-4.1276,9.3565,40.7589,-0.3416,0.39,0.0708
1401711.0,-4.2329,9.2033,40.644,-0.3113,0.3938,0.0798
1401721.0,-4.0701,9.4332,41.2186,-0.2261,0.3565,0.1112
1401731.0,-4.3574,9.481,40.7397,-0.1341,0.3171,0.1761
1401741.0,-3.9744,9.3948,40.0023,-0.0186,0.3017,0.248
1401751.0,-3.735,9.3087,40.0119,-0.1027,0.3895,0.2746
1401761.0,-3.5721,8.8394,39.8491,-0.2373,0.3773,0.2985
1401771.0,-3.5243,8.4276,39.1117,-0.4358,0.3661,0.2586
1401781.0,-3.3423,8.2073,39.8299,-0.5459,0.4837,0.1724
1401791.0,-3.5243,8.5042,40.0502,-0.6497,0.5406,0.1458
1401801.0,-4.2329,8.4372,41.1515,-0.6178,0.3975,0.1437
1401811.0,-3.8786,8.6095,40.9313,-0.3996,0.3863,0.1921
1401821.0,-3.7828,8.8298,40.6727,-0.2357,0.456,0.2533
1401831.0,-3.6009,8.5904,40.3279,-0.1304,0.481,0.2959
1401841.0,-3.7062,8.351,40.1939,-0.1203,0.5183,0.3368
1401851.0,-3.6105,7.92,39.7916,-0.2054,0.5683,0.3198
1401861.0,-3.5721,7.2209,39.648,-0.3182,0.5848,0.2559
1401871.0,-3.5626,6.9049,40.0789,-0.3964,0.6167,0.1426
1401881.0,-3.6966,7.1826,40.4333,-0.4236,0.663,0.0213
1401891.0,-4.118,7.7093,40.5195,-0.4252,0.613,-0.0559
1401901.0,-4.0223,8.0732,40.711,-0.48,0.6024,-0.091
1401911.0,-3.9456,8.169,40.5769,-0.4209,0.5805,-0.0474
1401921.0,-3.9648,8.6,40.3662,-0.3842,0.6268,-0.0218
1401931.0,-3.7637,8.2361,40.6823,-0.3592,0.6114,-0.0133
1401941.0,-3.6105,8.0062,40.4524,-0.364,0.5731,-0.0218
1401951.0,-3.6009,8.0828,40.1747,-0.4033,0.5204,-0.0633
1401961.0,-3.7637,7.9966,40.28,-0.4938,0.4874,-0.0867
1401971.0,-3.5626,8.2073,39.6097,-0.5587,0.472,-0.1272
1401981.0,-3.3519,8.3797,38.8148,-0.6173,0.5188,-0.1724
1401991.0,-3.4381,8.3222,38.9297,-0.6838,0.5859,-0.1953
1402001.0,-3.371,8.6766,38.2498,-0.6689,0.6864,-0.2017
1402011.0,-3.1795,9.0692,37.4262,-0.6896,0.862,-0.1671
1402021.0,-3.1508,8.8107,37.1772,-0.7056,1.0977,-0.1405
1402031.0,-3.0263,8.5329,36.6983,-0.7306,1.4255,-0.1383
1402041.0,-2.8826,8.351,36.9952,-0.7487,1.731,-0.1873
1402051.0,-3.0646,8.4084,37.3591,-0.7976,2.0151,-0.2831
1402061.0,-3.4668,9.165,37.9337,-0.7402,2.2758,-0.3241
1402071.0,-3.6966,10.6973,37.4645,-0.696,2.5169,-0.2985
1402081.0,-4.0318,12.1817,37.3208,-0.8924,2.8096,-0.1495
1402091.0,-5.1523,12.9861,37.4262,-1.1499,3.2086,0.0676
1402101.0,-6.1387,13.4171,38.0199,-1.5495,3.4305,0.3453
1402111.0,-6.3111,13.3405,39.6192,-1.9406,3.7035,0.6678
1402121.0,-6.857,12.4594,41.5059,-2.1918,3.9456,1.0201
1402131.0,-7.9487,11.1378,43.7947,-2.2391,3.9493,1.3154
1402141.0,-7.8147,9.4906,46.1027,-2.1013,3.9717,1.5133
1402151.0,-8.4851,8.4563,47.3669,-1.84,3.894,1.6341
1402161.0,-9.2895,7.7285,48.2384,-1.7054,3.6295,1.6501
1402171.0,-9.5481,8.3127,48.1426,-1.6315,3.3794,1.6325
1402181.0,-10.0461,9.0118,48.3533,-1.6336,3.198,1.7065
1402191.0,-10.8218,9.5768,47.9223,-1.5873,2.9798,1.8475
1402201.0,-11.157,9.9407,47.1179,-1.6336,2.7904,2.0375
1402211.0,-11.8178,9.8928,46.4762,-1.8188,2.7148,2.229
1402221.0,-12.7372,8.8585,45.6814,-2.0332,2.7553,2.3413
1402231.0,-13.6374,7.4508,46.4092,-1.9241,2.9192,2.3993
1402241.0,-13.8672,6.3973,47.7021,-1.6096,3.0703,2.4163
1402251.0,-13.6565,5.3151,49.4834,-1.318,3.0416,2.3354
1402261.0,-14.212,5.5258,49.7515,-1.3617,2.6818,2.1833
1402271.0,-14.0875,5.2194,50.2208,-1.7395,2.2907,2.0279
1402281.0,-13.6278,5.0087,50.7379,-2.2019,1.8794,1.8486
1402291.0,-13.8193,4.4915,51.4179,-2.8122,1.3755,1.6416
1402301.0,-13.9055,3.3902,52.2223,-3.2666,0.9078,1.384
1402311.0,-13.7714,2.0399,53.927,-3.471,0.4294,1.1137
1402321.0,-13.6853,1.5706,55.3252,-3.5545,-0.2804,0.7689
1402331.0,-13.4363,1.9632,55.4018,-3.447,-1.1808,0.4566
1402341.0,-13.3405,3.237,54.2622,-3.4513,-2.005,0.2299
1402351.0,-13.4554,4.5777,52.9023,-3.3614,-2.7798,0.1261
1402361.0,-12.8042,5.6695,49.9239,-3.2672,-3.3108,0.124
1402371.0,-12.7084,6.1579,47.8745,-3.0735,-3.5886,0.2081
1402381.0,-11.9423,6.426,45.1451,-2.7265,-3.6625,0.3602
1402391.0,-11.655,6.1866,42.952,-2.5568,-3.588,0.4938
1402401.0,-10.8984,5.8802,40.9887,-2.6414,-3.5114,0.5672
1402411.0,-10.6015,5.3151,40.4524,-2.9293,-3.3933,0.5337
1402421.0,-10.2185,4.9895,40.1172,-3.0426,-3.2443,0.5454
1402431.0,-9.8067,4.8554,41.0653,-2.9585,-3.0517,0.5981
1402441.0,-9.3757,4.5777,41.8506,-2.7963,-3.0607,0.6604
1402451.0,-9.1363,4.6064,42.1763,-2.7824,-3.2688,0.6843
1402461.0,-9.0884,4.3479,41.9273,-2.7829,-3.5699,0.7162
1402471.0,-8.6287,4.7884,40.462,-2.6568,-3.6301,0.804
1402481.0,-8.2552,4.616,40.0502,-2.3046,-3.3954,0.9706
1402491.0,-8.0828,4.3862,39.5426,-2.0561,-3.123,1.1478
1402501.0,-7.2113,3.9073,39.7533,-2.1162,-2.9452,1.2829
1402511.0,-6.4643,3.2944,40.0311,-2.3828,-2.9809,1.3532
1402521.0,-5.9089,2.2697,40.5482,-2.7047,-3.189,1.3425
1402531.0,-5.3534,1.5419,40.6535,-2.9585,-3.3183,1.3143
1402541.0,-5.43,0.9385,40.6152,-3.1895,-3.4502,1.2388
1402551.0,-5.5545,-0.0383,40.4045,-3.3528,-3.5444,1.1627
1402561.0,-5.6982,-0.929,40.4045,-3.2842,-3.5284,1.0914
1402571.0,-5.4588,-1.3599,40.9504,-2.9958,-3.3624,1.0355
1402581.0,-4.9512,-1.7717,41.4005,-2.6403,-3.2023,0.9828
1402591.0,-4.6256,-1.7047,41.5155,-2.4898,-3.1921,0.9067
1402601.0,-4.2234,-1.6568,42.2816,-2.4589,-3.3747,0.8328
1402611.0,-3.8116,-1.2163,42.1858,-2.3631,-3.497,0.7827
1402621.0,-3.9169,-0.7661,41.6974,-2.2407,-3.6024,0.7992
1402631.0,-3.6775,-0.9673,41.4388,-2.1253,-3.5896,0.8312
1402641.0,-3.3327,-1.3312,41.9273,-1.9188,-3.5077,0.8737
1402651.0,-3.3136,-1.2546,41.9081,-1.756,-3.5715,0.9243
1402661.0,-3.2274,-1.2737,42.4253,-1.7001,-3.7205,0.9876
1402671.0,-2.8826,-1.9249,42.8562,-1.6017,-3.8046,1.0695
1402681.0,-2.624,-2.7198,44.2736,-1.4298,-4.0095,1.1329
1402691.0,-2.0207,-3.6488,44.1395,-1.3,-4.3543,1.1079
1402701.0,-1.7909,-5.0374,45.1355,-1.0855,-4.6773,1.0429
1402711.0,-1.6568,-6.177,45.4611,-0.8168,-5.154,0.8482
1402721.0,-2.1165,-6.8283,44.5609,-0.7529,-5.7761,0.5827
1402731.0,-2.0782,-7.1443,43.2776,-0.6838,-6.1645,0.3288
1402741.0,-1.4844,-7.5753,42.6264,-0.6779,-6.2491,0.0059
1402751.0,-1.063,-7.7764,43.1435,-0.9493,-6.6615,-0.4262
1402761.0,-1.6281,-5.8323,43.201,-1.7315,-7.523,-0.8546
1402771.0,-1.7238,-3.9648,42.8466,-2.3823,-8.4223,-1.0876
1402781.0,-1.1492,-2.9305,41.3335,-2.5148,-8.9124,-1.0962
1402791.0,-0.4405,-2.6719,39.6097,-2.2109,-9.2875,-0.9998
1402801.0,0.5842,-2.49,37.7805,-1.8512,-9.3327,-0.8562
1402811.0,1.1013,-2.1356,36.8994,-0.7976,-9.3934,-0.5768
1402821.0,2.0686,-1.7142,33.3847,0.1687,-9.2923,-0.2331
1402831.0,3.4764,-1.6855,29.9179,1.0334,-8.965,0.1761
1402841.0,4.616,-1.8771,27.4663,1.3633,-8.5505,0.5236
1402851.0,6.4931,-3.371,27.5908,1.7581,-8.3238,0.8056
1402861.0,8.3414,-4.3096,26.3937,2.1737,-8.1003,0.9887
1402871.0,9.0022,-6.1196,26.4128,3.0458,-7.8923,1.16
1402881.0,9.2703,-6.5888,24.3825,4.0472,-7.7316,1.251
1402891.0,8.5808,-7.2113,23.6547,5.4637,-7.7321,1.4527
1402901.0,9.2895,-7.5178,20.14,7.4251,-7.5363,1.7815
1402911.0,11.0708,-9.5193,15.6198,9.7371,-6.8605,2.1987
1402921.0,14.1928,-13.9151,8.849,11.6756,-5.7452,2.3972
1402931.0,19.6803,-20.4656,2.8826,12.2679,-4.8465,1.9523
1402941.0,22.563,-25.6946,-4.9512,10.0149,-5.2887,0.4438
1402951.0,20.5039,-25.8095,-15.1218,5.2174,-7.2335,-1.8794
1402961.0,11.3868,-20.8583,-21.6053,1.0227,-9.4854,-4.0425
1402971.0,-1.9345,-11.224,-42.9232,0.0937,-12.884,-5.021
1402981.0,0.4405,-5.9759,-78.4532,2.6744,-13.3837,-5.0487
1402991.0,20.4752,7.3646,-78.4532,8.0945,-4.922,-5.1519
1403001.0,-4.4053,12.6318,-78.4532,5.5739,3.5151,-5.9091
1403011.0,-6.6655,44.264,-78.4532,-3.0783,17.4357,-5.5936
1403021.0,-50.8145,55.8519,-78.4532,-9.7653,17.4357,-2.634
1403031.0,-78.4532,57.0299,-78.4532,-13.5364,17.4357,1.673
1403041.0,-78.4532,36.5355,-78.4532,-14.0967,17.4357,6.2257
1403051.0,-78.4532,7.7572,-72.1517,-8.7341,17.4357,9.8058
1403061.0,-78.4532,-22.0745,-7.7668,5.2062,17.4357,12.3445
1403071.0,-78.4532,-62.8047,51.3604,17.4357,17.4357,11.3606
1403081.0,-78.4532,-78.4532,78.4508,17.4357,17.4357,5.3195
1403091.0,-78.4532,-64.586,78.4508,17.4357,17.4357,-4.0845
1403101.0,-78.4532,-17.583,78.4508,17.4357,17.4357,-11.5112
1403111.0,-78.4532,26.3075,78.4508,3.7216,17.4357,-15.7298
1403121.0,-78.4532,57.7194,78.4508,-3.8834,17.4357,-15.4776
1403131.0,-78.4532,78.4508,78.4508,-3.8871,14.1334,-11.1403
1403141.0,-78.4532,78.4508,78.4508,-0.2198,5.8208,-5.2025
1403151.0,-78.4532,73.2913,78.4508,3.5678,0.6024,-0.1873
1403161.0,-78.4532,55.1433,78.4508,5.2211,-2.8016,2.3541
1403171.0,-78.4532,38.0199,78.4508,4.0371,-5.9405,2.5712
1403181.0,-78.4532,23.6547,78.4508,1.3431,-11.6314,1.2329
1403191.0,-78.4532,17.4681,78.4508,-0.1117,-17.4363,-1.1041
1403201.0,-78.4532,32.7431,78.4508,-2.8394,-17.4363,-3.6572
1403211.0,-78.4532,57.0012,78.4508,-7.0819,-17.4363,-5.4526
1403221.0,-78.4532,78.4508,78.4508,-12.2742,-17.4363,-5.8724
1403231.0,-78.4532,78.4508,78.4508,-14.574,-17.4363,-4.2883
1403241.0,-78.4532,78.4508,78.4508,-13.3198,-17.4363,-0.8413
1403251.0,-78.4532,78.4508,78.3287,-7.5427,-17.4363,4.0685
1403261.0,-78.4532,70.2459,50.6805,-0.6891,-17.4363,9.0922
1403271.0,-78.4532,42.1092,12.6797,1.5554,-17.4363,12.4913
1403281.0,-78.4532,15.7634,-21.9117,-0.8987,-17.4363,13.6944
1403291.0,-78.4532,-3.735,-58.8495,-7.5023,-17.4363,12.8367
1403301.0,-67.8134,-20.4944,-78.4532,-16.2667,-17.4363,10.0798
1403311.0,-41.0462,-34.917,-78.4532,-17.4363,-17.4363,6.0522
1403321.0,-25.3785,-37.34,-78.4532,-17.4363,-17.4363,2.56
1403331.0,-30.6841,-27.3322,-78.4532,-13.7168,-17.4363,0.5044
1403341.0,-20.0251,-14.4035,-78.4532,-3.2491,-17.4363,0.1591
1403351.0,-24.8327,-2.6432,-78.4532,3.7312,-17.4363,1.0531
1403361.0,-13.3309,-3.6105,-78.4532,5.0934,-17.4363,2.1817
1403371.0,-2.2697,-6.5505,-78.4532,2.966,-7.1314,2.6409
1403381.0,1.1301,-13.8481,-78.4532,-1.0062,4.6406,2.394
1403391.0,-22.3044,-18.9717,-78.4532,-3.0416,17.4357,0.9966
1403401.0,-51.5424,-13.963,-78.4532,0.2905,17.4357,-0.1745
1403411.0,-77.9169,-3.8882,-78.4532,8.9757,17.4357,-0.9104
1403421.0,-78.4532,10.5536,-78.4532,16.6557,17.4357,-1.2372
1403431.0,-78.4532,30.1191,-78.4532,14.9497,17.4357,-1.4931
1403441.0,-78.4532,31.2874,-75.5035,9.5865,17.4357,-0.7098
1403451.0,-78.4532,29.7264,-33.0879,10.7396,17.4357,1.1706
1403461.0,-78.4532,-11.3964,39.5235,14.8912,17.4357,1.2803
1403471.0,-78.4532,-31.3832,78.4508,17.4357,17.4357,-1.7581
1403481.0,-78.4532,-23.3866,78.4508,17.4357,17.4357,-6.2481
1403491.0,-78.4532,19.9868,78.4508,17.4357,17.4357,-9.4854
1403501.0,-78.4532,63.5613,78.4508,14.8018,17.4357,-9.8489
1403511.0,-78.4532,78.4508,78.4508,12.1375,17.4357,-7.6848
1403521.0,-78.4532,78.4508,78.4508,9.1449,11.9167,-4.3165
1403531.0,-78.4532,78.4508,78.4508,8.6442,0.1016,-0.9504
1403541.0,-78.4532,78.2712,78.4508,6.5604,-11.8299,0.431
1403551.0,-78.4532,70.8779,78.4508,1.2925,-17.4363,0.4262
1403561.0,-78.4532,71.4526,78.4508,-2.6393,-17.4363,0.0952
1403571.0,-78.4532,72.324,78.4508,-6.5987,-17.4363,0.1655
1403581.0,-78.4532,74.0191,78.4508,-6.744,-17.4363,1.3484
1403591.0,-78.4532,67.2962,78.4508,-6.2161,-17.4363,3.1485
1403601.0,-78.4532,55.986,47.4531,-3.695,-17.4363,5.0551
1403611.0,-78.4532,45.3462,8.5425,-2.5643,-17.4363,6.5045
1403621.0,-78.4532,35.4916,-17.0563,-4.0989,-17.4363,7.1101
1403631.0,-78.4532,26.8055,-31.4215,-6.9701,-17.4363,7.2846
1403641.0,-78.4532,15.4857,-40.9313,-9.7589,-17.4363,7.1308
1403651.0,-78.4532,0.1245,-49.4738,-12.8122,-17.4363,6.1794
1403661.0,-76.6049,-7.7572,-63.0345,-14.8992,-17.4363,4.6895
1403671.0,-57.547,-17.9182,-68.5604,-14.4474,-17.4363,3.305
1403681.0,-47.5105,-28.1845,-72.7837,-8.8884,-17.4363,2.0071
1403691.0,-36.0758,-32.0248,-78.4532,-2.5211,-17.4363,0.6141
1403701.0,-23.0418,-22.7258,-78.4532,2.2572,-17.4363,-0.6337
1403711.0,-16.8839,-3.3902,-78.4532,1.615,-17.4363,-1.0531
1403721.0,-11.224,16.7211,-78.4532,-4.3809,-17.4363,-0.3517
1403731.0,-3.9361,18.9429,-78.4532,-12.1396,-14.6645,0.7673
1403741.0,3.1987,10.3717,-78.4532,-13.7801,-4.0786,1.9906
1403751.0,-4.1851,3.735,-78.4532,-8.3792,7.3384,2.883
1403761.0,-15.3325,3.4477,-78.4532,0.8865,17.4357,3.546
1403771.0,-45.8442,10.8026,-78.4532,7.2703,17.4357,4.0212
1403781.0,-78.4532,13.0053,-78.4532,8.3185,17.4357,4.0611
1403791.0,-78.4532,10.0269,-78.4532,6.2576,17.4357,3.6093
1403801.0,-78.4532,9.0118,-78.4532,4.3176,17.4357,3.1741
1403811.0,-78.4532,4.3383,-12.0093,8.7054,17.4357,3.3177
1403821.0,-78.4532,-6.2728,78.4508,12.6116,17.4357,3.0969
1403831.0,-78.4532,-2.2984,78.4508,17.4357,17.4357,2.2966
1403841.0,-78.4532,22.2852,78.4508,17.4357,17.4357,1.7262
1403851.0,-78.4532,46.8976,78.4508,17.4357,17.4357,0.9951
1403861.0,-78.4532,61.282,78.4508,17.4357,17.4357,0.6061
1403871.0,-78.4532,71.2514,78.4508,15.1455,17.4357,0.9104
1403881.0,-78.4532,78.4508,78.4508,8.8384,17.4357,1.4324
1403891.0,-78.4532,60.5637,78.4508,6.5743,13.4135,1.9172
1403901.0,-78.4532,53.745,78.4508,1.7193,-2.0582,1.3979
1403911.0,-78.4532,43.8713,78.4508,-2.1779,-15.2493,0.4911
1403921.0,-78.4532,47.4243,78.4508,-3.9297,-17.4363,-0.2049
1403931.0,-78.4532,50.058,78.4508,-8.2148,-17.4363,-0.9626
1403941.0,-78.4532,53.7642,78.4508,-9.6813,-17.4363,-1.0025
1403951.0,-78.4532,55.1624,78.4508,-10.3209,-17.4363,-0.3555
1403961.0,-78.4532,50.7762,58.6579,-8.8458,-17.4363,0.7391
1403971.0,-78.4532,45.8921,25.4552,-7.2298,-17.4363,1.9028
1403981.0,-78.4532,41.7357,2.5091,-6.752,-17.4363,2.9043
1403991.0,-78.4532,37.6273,-5.0374,-7.4522,-17.4363,3.7961
1404001.0,-78.4532,29.8892,-2.6719,-7.3815,-17.4363,4.7576
1404011.0,-78.4532,15.0739,-2.2122,-8.169,-17.4363,5.1689
1404021.0,-73.6456,-1.2354,-11.722,-8.1083,-17.4363,4.7832
1404031.0,-59.7018,-11.2527,-38.2689,-9.1103,-17.4363,3.5556
1404041.0,-51.8297,-19.6899,-62.2876,-9.3434,-17.4363,2.0039
1404051.0,-40.6535,-21.452,-78.4532,-9.2779,-17.4363,0.431
1404061.0,-33.4135,-19.1153,-78.4532,-5.7835,-17.4363,-0.2171
1404071.0,-21.0211,-19.5463,-78.4532,-2.6792,-17.4363,-0.1437
1404081.0,-5.1332,-24.5741,-78.4532,0.7482,-17.4363,-0.1522
1404091.0,13.0819,-31.4598,-78.4532,0.9716,-14.184,-1.2638
1404101.0,20.3699,-25.6946,-78.4532,-3.2666,-6.5684,-3.2001
1404111.0,20.9636,-14.8441,-78.4532,-8.9065,4.291,-4.8183
1404121.0,4.1659,-3.4764,-78.4532,-11.3845,17.1026,-5.2865
1404131.0,-14.7579,8.9639,-78.4532,-7.5411,17.4357,-4.4144
1404141.0,-39.1117,21.3659,-78.4532,-2.5068,17.4357,-2.602
1404151.0,-63.5613,33.2315,-78.4532,1.6267,17.4357,-0.1948
1404161.0,-78.4532,39.3607,-78.4532,3.6934,17.4357,2.3924
1404171.0,-78.4532,22.8694,-68.8477,6.3194,17.4357,4.5778
1404181.0,-78.4532,-7.9487,-24.9667,8.4324,17.4357,4.3857
1404191.0,-78.4532,-34.8596,33.4997,12.3823,17.4357,1.9183
1404201.0,-78.4532,-29.2093,74.6608,17.4357,17.4357,-1.8911
1404211.0,-78.4532,-78.4532,78.4508,17.4357,17.4357,-3.0001
1404221.0,-78.4532,78.4508,72.0942,7.4448,17.4357,-6.9137
1404231.0,-78.4532,69.7287,78.4508,17.4357,17.4357,-3.6476
1404241.0,-78.4532,78.4508,78.4508,4.1271,17.4357,-2.2684
1404251.0,-78.4532,61.5501,78.4508,9.4503,17.4357,1.3702
1404261.0,-78.4532,78.4508,78.4508,8.8059,17.4357,3.2246
1404271.0,-78.4532,55.6891,78.4508,-5.1546,-1.3814,2.3732
1404281.0,-78.4532,49.4259,78.4508,-2.2578,-17.4363,2.2998
1404291.0,-78.4532,49.5121,78.4508,-11.7421,-17.4363,0.1548
1404301.0,-78.4532,41.8123,78.4508,-16.3124,-17.4363,-1.723
1404311.0,-78.4532,50.5177,78.4508,-17.4363,-17.4363,-2.2242
1404321.0,-78.4532,53.4003,77.6775,-16.115,-17.4363,-1.5974
1404331.0,-78.4532,58.6101,16.0986,-12.0641,-17.4363,0.3241
1404341.0,-78.4532,51.188,-25.9915,-9.0608,-17.4363,2.6425
1404351.0,-78.4532,37.4549,-75.7525,-4.8002,-17.4363,4.5751
1404361.0,-78.4532,22.6683,-78.4532,-3.2682,-17.4363,5.6149
1404371.0,-60.7457,3.7828,-78.4532,-7.9556,-17.4363,5.0934
1404381.0,-41.8315,-12.038,-78.4532,-7.5576,-17.4363,3.4103
1404391.0,-31.6513,-16.6732,-78.4532,-7.6326,-17.4363,1.6868
1404401.0,-26.1926,-13.5703,-78.4532,-5.5712,-17.4363,0.4268
1404411.0,-18.6269,-7.0485,-78.4532,-2.0651,-17.4363,0.1383
1404421.0,-10.8218,6.5505,-78.4532,1.2483,-15.5547,0.9365
1404431.0,-3.7254,11.6167,-78.4532,2.8553,-12.7207,2.4291
1404441.0,7.9871,13.149,-78.4532,2.2285,-7.4464,3.7365
1404451.0,5.679,6.1004,-78.4532,-0.0037,-3.2065,4.8177
1404461.0,13.4171,-8.1882,-78.4532,-3.4279,1.0786,4.8875
1404471.0,4.3958,-19.4505,-78.4532,-3.7455,9.0938,4.2894
1404481.0,-10.8793,-24.871,-78.4532,1.7389,17.0276,3.53
1404491.0,-37.0814,-20.2071,-78.4532,7.456,17.4357,2.5515
1404501.0,-66.1566,-14.3748,-78.4532,8.8889,17.4357,1.268
1404511.0,-78.4532,-17.2957,-78.4532,5.335,17.4357,-0.1447
1404521.0,-78.4532,-26.4416,-78.4532,1.1573,17.4357,-2.4083
1404531.0,-78.4532,-29.7551,-37.5507,4.3894,17.4357,-3.6593
1404541.0,-78.4532,-11.3102,49.0524,15.0327,17.4357,-4.5544
1404551.0,-78.4532,19.5367,78.4508,17.4357,17.4357,-4.7347
1404561.0,-78.4532,58.8016,78.4508,17.4357,17.4357,-3.3252
1404571.0,-78.4532,78.4508,78.4508,13.6019,17.4357,-1.0052
1404581.0,-78.4532,71.3376,78.4508,17.3421,17.4357,0.4358
1404591.0,-78.4532,55.5551,78.4508,3.8137,17.4357,-0.5454
1404601.0,-78.4532,33.0017,78.4508,6.3635,-5.8942,0.2916
1404611.0,-78.4532,53.113,78.4508,8.2935,-17.4363,0.8173
1404621.0,-78.4532,49.6366,78.4508,-2.7569,-17.4363,-1.7022
1404631.0,-78.4532,54.0228,78.4508,-8.0376,-17.4363,-3.6253
1404641.0,-78.4532,62.4982,78.4508,-11.756,-17.4363,-4.226
1404651.0,-78.4532,65.333,61.1766,-10.4321,-17.4363,-2.9857
1404661.0,-78.4532,62.4312,27.7823,-7.8247,-17.4363,-0.4347
1404671.0,-78.4532,44.7045,6.857,-2.627,-17.4363,2.3429
1404681.0,-78.4532,25.8574,-16.2423,0.248,-17.4363,4.0957
1404691.0,-74.4788,4.2713,-19.1728,0.6747,-17.4363,4.2181
1404701.0,-63.025,-9.9407,-9.7013,-0.2448,-17.4363,3.1054
1404711.0,-53.8025,-16.6062,2.1835,-1.3973,-17.4363,1.2643
1404721.0,-40.2034,-19.259,14.6621,-3.1996,-17.4363,-1.226
1404731.0,-72.937,6.7421,8.8777,-2.4062,-17.4363,-2.386
1404741.0,-17.334,23.2238,-60.1519,-7.697,-17.4363,-2.3243
1404751.0,-48.0277,17.1138,-42.1188,-6.9771,-17.4363,-1.7836
1404761.0,-37.1676,29.985,-66.6929,-5.6691,-17.4363,0.141
1404771.0,-30.6075,10.6015,-77.5242,-4.9497,-17.4363,1.9225
1404781.0,-14.2407,8.6095,-78.4532,-2.1066,-17.4363,2.8117
1404791.0,-3.8595,0.7661,-78.4532,-3.9398,-17.4363,3.008
1404801.0,9.4523,1.4844,-78.4532,-1.0073,-14.2745,3.1554
1404811.0,8.0349,1.6089,-78.4532,2.6558,-5.1913,3.5726
1404821.0,-0.7566,6.292,-78.4532,4.4224,5.4531,4.2436
1404831.0,-23.1854,1.6185,-78.4532,4.4011,17.4357,5.46
1404841.0,-48.8226,-15.3133,-78.4532,4.3069,17.4357,6.0884
1404851.0,-78.4532,-37.1389,-78.4532,2.32,17.4357,5.2647
1404861.0,-78.4532,-59.7114,-78.4532,-0.6284,17.4357,3.041
1404871.0,-78.4532,-72.1708,-78.4532,2.4025,17.4357,-0.7125
1404881.0,-78.4532,-67.7463,-22.0554,10.1586,17.4357,-4.1946
1404891.0,-78.4532,-78.4532,78.4508,-1.2441,17.4357,-5.5036
1404901.0,-78.4532,22.4385,29.171,17.4357,17.4357,-7.7444
1404911.0,-78.4532,64.3753,78.4508,6.8504,17.4357,-8.4611
1404921.0,-78.4532,59.9125,78.4508,12.4908,17.4357,-5.5324
1404931.0,-78.4532,54.5303,78.4508,17.3873,17.4357,-3.6077
1404941.0,-78.4532,73.4733,78.4508,17.4357,17.4357,-2.7659
1404951.0,-78.4532,68.9339,78.4508,4.9928,16.0927,-3.2177
1404961.0,-78.4532,70.6385,78.4508,8.6809,-1.4473,-1.4974
1404971.0,-78.4532,78.4508,78.4508,15.4765,-14.2324,1.5804
1404981.0,-78.4532,78.4508,78.4508,2.4765,-17.4363,3.0799
1404991.0,-78.4532,78.4508,78.4508,-10.5119,-17.4363,6.3188
1405001.0,-78.4532,69.518,78.4508,-1.1478,-17.4363,8.9331
1405011.0,-78.4532,52.9214,33.3847,-1.5676,-17.4363,11.2398
1405021.0,-70.6673,29.8892,3.3327,1.6011,-17.4363,12.0827
1405031.0,-78.4532,-8.1307,15.342,2.9649,-14.8156,12.1593
1405041.0,-41.1803,-4.9704,-8.983,2.4733,-10.8008,10.2341
1405051.0,-38.7286,-8.1211,7.1826,-7.5033,-9.4088,7.8274
1405061.0,-34.5435,-20.8008,78.4508,-11.8922,-13.0666,5.0577
1405071.0,-8.8681,-9.6247,53.3237,-6.9765,-16.7371,3.3816
1405081.0,-21.318,-7.7668,57.7386,-11.1525,-17.4363,1.6804
1405091.0,-24.0569,-2.5474,46.007,-10.3805,-17.4363,0.5811
1405101.0,-27.0928,6.0047,26.9108,-12.3386,-17.4363,0.0229
1405111.0,-27.0066,1.8579,27.1598,-10.8301,-17.4363,-0.2448
1405121.0,-28.6059,6.3686,20.2358,-7.9482,-17.1968,-0.249
1405131.0,-30.799,10.41,20.2741,-6.8621,-15.8761,-0.0527
1405141.0,-27.1407,14.7674,19.4313,-4.9391,-15.3754,0.6252
1405151.0,-24.5932,19.4792,14.3173,-4.9933,-14.1856,1.5405
1405161.0,-21.2318,17.9086,16.453,-4.0323,-13.0293,2.5738
1405171.0,-18.2438,16.7498,15.5527,-3.6945,-11.7113,3.5428
1405181.0,-15.3804,11.5209,19.2015,-2.9452,-10.7487,4.3591
1405191.0,-12.4211,5.6216,22.0171,-2.1503,-9.8047,4.8193
1405201.0,-11.4347,-0.0383,23.8367,-1.4585,-9.1821,4.888
1405211.0,-9.2512,-3.984,25.3307,-1.64,-8.8416,4.5352
1405221.0,-9.2129,-6.7612,29.2859,-1.5639,-9.0241,4.0169
1405231.0,-8.3989,-6.3111,28.0026,-1.7985,-9.7105,3.4343
1405241.0,-6.2345,-5.4396,25.4647,-2.1726,-9.9973,2.8872
1405251.0,-3.9552,-4.7022,22.0745,-2.0135,-9.5977,2.4397
1405261.0,-2.1931,-3.4668,18.3204,-2.2732,-8.7245,1.9938
1405271.0,-0.1149,-1.9632,16.2231,-2.7702,-7.6832,1.608
1405281.0,2.0686,-1.0151,17.832,-3.2757,-6.4253,1.3106
1405291.0,2.8252,-0.4597,21.1456,-3.6992,-5.4111,1.0264
1405301.0,2.1644,0.3448,26.0585,-4.374,-5.4478,0.87
1405311.0,3.4285,-0.1053,28.8549,-5.0551,-5.9676,0.763
1405321.0,4.3191,-0.9864,30.9331,-5.0141,-6.2555,0.6912
1405331.0,4.6926,-2.2505,31.9865,-4.3383,-6.2699,0.6939
1405341.0,5.0949,-2.0399,30.5213,-3.3779,-6.3348,0.7375
1405351.0,6.7708,-1.3982,28.2995,-2.4206,-6.0459,0.8493
1405361.0,7.8147,-1.1971,26.432,-1.5607,-5.3334,1.0062
1405371.0,8.1211,-1.5131,24.938,-0.9493,-4.6124,1.1249
1405381.0,9.165,-1.7813,23.7792,-0.7615,-3.8243,1.119
1405391.0,9.0118,-2.2984,25.2253,-0.7061,-2.9963,1.0967
1405401.0,8.5808,-1.7909,26.8438,-0.9317,-2.5376,1.0515
1405411.0,9.481,-2.8539,30.0616,-0.8833,-2.055,1.0078
1405421.0,10.0173,-2.4708,31.5364,-0.7487,-1.583,0.9184
1405431.0,9.347,-2.3176,33.9594,-0.903,-1.5027,0.8375
1405441.0,9.3087,-1.9441,35.1181,-1.1275,-1.4867,0.7753
1405451.0,8.7053,-1.2354,37.2155,-1.3851,-1.4356,0.7551
1405461.0,9.232,-1.2258,39.6959,-1.6011,-1.5543,0.796
1405471.0,8.8585,-1.6089,42.9041,-1.6123,-2.1136,0.8668
1405481.0,9.0309,-2.0207,43.766,-1.4819,-2.8734,0.8817
1405491.0,9.3757,-2.1548,42.4253,-1.1941,-3.5178,0.9445
1405501.0,9.6822,-1.992,39.6576,-0.9062,-3.8222,1.0195
1405511.0,10.5058,-2.1165,37.1197,-0.5406,-3.7125,1.0743
1405521.0,11.4826,-1.0247,33.9211,-0.5486,-3.2895,1.102
1405531.0,11.6167,-0.2011,32.8676,-0.7412,-2.7457,1.1717
1405541.0,10.9176,0.431,35.4246,-0.654,-2.1902,1.4048
1405551.0,10.5058,0.4214,37.6273,-0.306,-1.9795,1.7155
1405561.0,10.1323,-0.7949,40.7397,0.0931,-2.1737,2.0438
1405571.0,10.4579,-1.8196,40.8451,0.6199,-2.601,2.2833
1405581.0,11.5305,-3.5243,40.0885,0.9567,-2.949,2.3892
1405591.0,11.9519,-4.5394,38.4605,0.9456,-3.3119,2.3386
1405601.0,11.9135,-5.3917,36.8516,0.6731,-3.5827,2.1987
1405611.0,12.1625,-6.1675,35.1181,0.5624,-3.6716,2.0321
1405621.0,12.9766,-7.0773,33.7487,0.4848,-3.4433,1.8581
1405631.0,13.8289,-7.7189,32.8197,0.5321,-3.0016,1.6591
1405641.0,14.461,-7.5465,32.9442,0.4917,-2.6286,1.4213
1405651.0,14.9015,-6.8474,34.1988,0.1963,-2.5717,1.1744
1405661.0,14.461,-6.5314,35.4533,-0.2214,-3.0378,0.9807
1405671.0,14.777,-5.9089,35.6161,-0.7551,-3.7466,0.7822
1405681.0,15.1792,-5.4492,34.419,-1.1547,-4.491,0.63
1405691.0,16.089,-5.0853,32.2164,-1.5053,-5.2019,0.5539
1405701.0,16.8169,-4.8267,28.0122,-1.7267,-5.6867,0.4555
1405711.0,17.7075,-4.8459,23.4344,-2.0619,-5.6058,0.3906
1405721.0,18.8184,-5.3056,19.4888,-2.2929,-5.0652,0.3134
1405731.0,19.2781,-4.8363,16.0699,-2.834,-4.2505,0.2219
1405741.0,19.4984,-5.296,15.6964,-3.0192,-3.3816,0.1389
1405751.0,19.9198,-5.1715,14.9207,-3.0511,-2.3477,0.1586
1405761.0,19.9964,-5.4875,16.52,-2.7047,-1.2441,0.2091
1405771.0,20.4944,-5.8993,18.2917,-2.0593,-0.3219,0.2873
1405781.0,20.8391,-6.2824,20.3986,-1.6331,-0.0165,0.3528
1405791.0,21.6915,-6.6655,20.4273,-1.3164,0.083,0.4103
1405801.0,20.5327,-6.7516,19.393,-0.5662,0.5161,0.5694
1405811.0,24.5645,-8.2265,19.0483,0.6715,1.7347,0.5747
1405821.0,23.8079,-9.0214,20.887,2.2801,3.3246,0.5656
1405831.0,20.9732,-8.0062,22.5055,3.7205,4.4415,0.5422
1405841.0,19.6995,-7.4795,25.5701,4.5256,5.0992,0.53
1405851.0,20.638,-7.0485,27.8398,5.1455,5.1642,0.5071
1405861.0,20.638,-6.5984,28.6538,4.9322,4.6773,0.3139
1405871.0,20.1017,-4.0414,26.4511,4.1505,3.5625,0.1399
1405881.0,22.9748,-5.4779,28.1558,3.4364,3.447,-0.1091
1405891.0,24.4783,-6.2058,26.1543,4.8316,4.1595,-0.3528
1405901.0,20.4752,-4.4628,24.1144,4.631,4.8465,-0.6965
1405911.0,15.9645,-4.616,26.6906,4.2181,4.425,-1.0126
1405921.0,15.1697,-3.8211,27.1886,3.6625,3.7471,-1.3484
1405931.0,14.7196,-2.8826,29.6689,4.0818,3.2943,-1.5884
1405941.0,11.473,1.9249,27.0449,3.9323,2.0188,-1.45
1405951.0,14.9781,1.4557,17.0659,-1.1887,-1.342,-1.914
1405961.0,13.3309,-4.7118,16.3955,-1.5878,-3.9579,-2.2162
1405971.0,16.2901,-1.3312,-6.9719,-2.7798,-3.7455,-2.7542
1405981.0,12.9095,0.0287,-21.3659,-4.1499,-2.9522,-3.297
1405991.0,8.3893,8.9735,-41.889,-7.0532,-2.3812,-3.7296
1406001.0,5.9568,17.0659,-59.3283,-10.8099,-2.0752,-3.7801
1406011.0,3.8116,23.8846,-78.4532,-11.3516,0.2458,-3.149
1406021.0,-12.0764,44.2544,-78.4532,-12.5483,3.5513,-1.6362
1406031.0,-29.7168,68.6466,-78.4532,-16.9137,9.2891,2.0901
1406041.0,-60.8989,78.4508,-78.4532,-14.0329,17.4357,7.962
1406051.0,-78.4532,78.4508,-78.4532,-4.2436,17.4357,15.4531
1406061.0,-78.4532,58.8878,-78.4532,10.8567,17.4357,17.4357
1406071.0,-78.4532,31.0767,-78.4532,17.4357,17.4357,17.4357
1406081.0,-78.4532,-44.7716,-78.4532,17.4357,17.4357,17.4357
1406091.0,-78.4532,-78.4532,-17.1425,17.4357,17.4357,10.3427
1406101.0,-78.4532,-78.4532,78.4508,17.4357,17.4357,-1.3611
1406111.0,-78.4532,-66.9036,78.4508,17.4357,17.4357,-9.785
1406121.0,-78.4532,-8.0445,78.4508,17.4357,17.4357,-15.6324
1406131.0,-78.4532,32.6569,78.4508,1.4782,17.4357,-16.3486
1406141.0,-78.4532,51.2551,78.4508,3.7259,3.3699,-9.1688
1406151.0,-78.4532,70.0352,78.4508,17.4357,-17.4363,0.0357
1406161.0,-78.4532,52.0978,78.4508,16.4439,-17.4363,5.0742
1406171.0,-78.4532,13.781,78.4508,17.4357,-17.4363,7.7268
1406181.0,-78.4532,-0.1628,70.265,17.4357,-17.4363,7.4453
1406191.0,-78.4532,-13.0819,15.4761,15.2817,-17.4363,5.2966
1406201.0,-78.4532,-8.3701,-32.7814,10.7966,-17.4363,2.3131
1406211.0,-60.037,0.3735,-48.7843,5.8889,-17.4363,-0.5837
1406221.0,-68.2922,12.0572,-31.9578,5.2392,-17.4363,-2.362
1406231.0,-54.7793,25.867,-19.7474,0.4113,-15.6313,-3.3204
1406241.0,-43.6511,29.803,3.1795,-0.8365,-11.7049,-3.3656
1406251.0,-43.9671,34.8021,23.3866,0.6614,-10.1772,-2.5222
1406261.0,-41.525,36.7271,33.1549,2.1662,-10.8881,-1.1621
1406271.0,-38.6233,33.9785,33.7678,3.7695,-11.4819,0.4033
1406281.0,-36.9569,27.8398,29.6785,3.6072,-12.2136,1.3968
1406291.0,-31.4981,23.7313,23.7696,2.5467,-12.5813,1.7081
1406301.0,-28.807,23.444,20.4178,0.0942,-12.0758,1.7171
1406311.0,-28.3282,22.2565,23.5015,-2.9101,-12.4248,1.7102
1406321.0,-25.9819,20.0155,25.5605,-5.6532,-13.5524,1.6437
1406331.0,-22.7736,16.4625,25.5605,-7.8252,-14.217,1.5213
1406341.0,-21.4329,11.5113,29.2188,-8.0759,-14.3032,1.4303
1406351.0,-20.0443,8.6,30.6266,-6.2427,-13.9536,1.4697
1406361.0,-19.3068,7.5657,29.2955,-3.9568,-13.6386,1.5852
1406371.0,-17.4681,7.5178,26.8151,-2.3775,-13.2954,1.7629
1406381.0,-15.3229,7.2688,23.5781,-1.4798,-12.9926,1.8816
1406391.0,-13.1011,7.4603,20.8391,-1.4638,-12.7404,1.9204
1406401.0,-11.6358,7.6902,18.6269,-2.0492,-12.4344,1.8667
1406411.0,-10.1418,7.9679,18.512,-2.6654,-12.0806,1.8438
1406421.0,-8.6479,7.5561,18.8184,-3.1139,-11.7927,1.873
1406431.0,-7.1347,5.9376,20.1975,-2.5568,-11.384,2.0183
1406441.0,-4.5777,5.3343,17.7554,-1.8182,-10.547,2.1918
1406451.0,-3.4381,3.4955,19.2207,-1.1909,-9.6451,2.3482
1406461.0,-1.2163,1.5993,20.0826,-0.5667,-8.9241,2.3897
1406471.0,-0.1915,1.494,20.2741,-0.8104,-8.8661,2.254
1406481.0,1.6568,2.1835,19.3356,-1.6118,-8.8751,2.0997
1406491.0,2.9209,2.2027,19.8815,-2.3269,-8.6404,1.9683
1406501.0,4.0414,1.5706,21.4425,-2.4929,-8.4654,1.9582
1406511.0,5.6695,1.4269,21.1743,-2.3349,-8.0998,2.0194
1406521.0,6.9432,0.5459,21.1264,-1.7671,-7.5544,2.1013
1406531.0,7.853,-0.4597,21.0498,-1.3548,-6.9318,2.1274
1406541.0,8.5617,-1.5227,20.8679,-1.002,-6.3034,2.1215
1406551.0,9.7971,-2.8826,22.2948,-0.7918,-5.5451,1.9874
1406561.0,9.8833,-2.9401,24.0761,-1.1047,-5.2317,1.6746
1406571.0,9.9311,-2.6336,26.4894,-1.7411,-5.5542,1.3218
1406581.0,10.4196,-1.8579,27.0928,-2.3807,-5.9884,1.0382
1406591.0,10.8409,-1.8866,27.6387,-2.2445,-6.2465,0.8977
1406601.0,11.5975,-1.1301,26.4416,-1.5096,-6.1023,0.8535
1406611.0,12.4403,-0.6704,24.5837,-0.4374,-5.709,0.9642
1406621.0,13.6182,-1.4365,21.8447,0.5183,-4.9274,1.093
1406631.0,15.7155,-2.0111,18.828,1.1504,-3.877,1.0781
1406641.0,16.089,-2.1261,18.7705,1.0951,-2.8867,0.9562
1406651.0,16.8839,-2.375,20.8583,0.8897,-2.1444,0.7572
1406661.0,17.2478,-1.4653,22.4097,0.2533,-1.8714,0.5518
1406671.0,17.0754,-1.4078,24.7752,-0.5332,-1.9252,0.3347
1406681.0,17.4394,-0.9194,25.8478,-1.2483,-1.9603,0.1266
1406691.0,17.2574,-1.6664,28.8932,-1.1478,-1.8491,0.0431
1406701.0,17.9374,-1.6951,29.9946,-0.2432,-1.5947,0.0112
1406711.0,17.8033,-0.9673,29.4104,0.2959,-1.3351,0.0298
1406721.0,17.9182,-0.6991,29.4008,0.7859,-1.0025,0.083
1406731.0,18.3587,-0.1915,29.305,0.8524,-0.6933,0.0995
1406741.0,19.2494,0.7183,29.2955,0.3826,-0.5864,0.0341
1406751.0,19.1057,0.747,30.5979,-0.0942,-0.5896,-0.0404
1406761.0,18.5503,1.1109,31.8716,-0.4486,-0.6955,-0.091
1406771.0,18.7227,0.5076,32.5994,-0.5438,-0.812,-0.1517
1406781.0,18.828,0.5363,33.2411,-0.3757,-0.7955,-0.2086
1406791.0,18.4641,1.2258,33.289,0.0692,-0.6662,-0.2006
1406801.0,18.9333,2.557,32.5899,0.2336,-0.4746,-0.1559
1406811.0,19.2302,3.9073,32.5228,0.2831,-0.2932,-0.0633
1406821.0,19.3643,4.5107,32.4175,0.2118,-0.0192,0.0846
1406831.0,19.9868,4.7022,32.9729,0.3209,0.2581,0.2469
1406841.0,19.7186,3.8786,33.9594,0.067,0.3214,0.3512
1406851.0,19.5846,2.8635,35.0224,-0.1245,0.1788,0.3283
1406861.0,19.5558,2.4038,34.8787,-0.381,0.0468,0.2724
1406871.0,19.8144,1.6376,35.0703,-0.5209,0.0287,0.2267
1406881.0,20.5422,1.3024,35.032,-0.4656,0.1628,0.125
1406891.0,20.2741,1.1301,35.0128,-0.4858,0.2943,0.0176
1406901.0,19.9964,1.2258,35.4246,-0.5337,0.339,-0.0899
1406911.0,20.1975,1.2833,35.8364,-0.5768,0.3193,-0.2011
1406921.0,19.891,1.3024,36.6217,-0.2543,0.2639,-0.2613
1406931.0,20.0826,1.561,35.9896,0.1447,0.3517,-0.3235
1406941.0,20.1783,2.4134,35.4725,0.2054,0.4661,-0.3831
1406951.0,19.5558,3.0167,35.9226,0.1453,0.2453,-0.3964
1406961.0,19.5367,4.3479,34.8213,-0.1948,0.0032,-0.3661
1406971.0,19.9581,4.3766,33.9211,-0.4699,-0.0575,-0.2528
1406981.0,20.2549,3.7541,32.5994,-0.745,0.1064,-0.1447
1406991.0,19.9581,2.557,33.3752,-0.9599,0.2597,-0.1181
1407001.0,19.8336,1.4461,33.7678,-0.8546,0.3363,-0.1064
1407011.0,19.5558,0.3735,34.3329,-0.5098,0.4864,-0.1133
1407021.0,19.0962,0.2011,34.8979,-0.1149,0.5103,-0.1958
1407031.0,18.7801,0.3543,34.0551,0.1155,0.3161,-0.2501
1407041.0,19.3547,0.7374,33.4422,0.3746,0.2501,-0.3001
1407051.0,19.9676,1.1396,31.115,0.431,0.3906,-0.3773
1407061.0,19.5941,1.3599,29.6689,0.2166,0.5209,-0.4784
1407071.0,19.5941,2.059,29.0177,0.1064,0.7295,-0.5545
1407081.0,19.2111,2.7677,27.7823,-0.0654,1.1052,-0.564
1407091.0,18.2342,3.3423,28.242,-0.2836,1.3654,-0.5177
1407101.0,17.2574,3.1029,28.7017,-0.456,1.3739,-0.4597
1407111.0,16.52,2.6432,28.1079,-0.7982,1.0382,-0.3778
1407121.0,18.1385,1.4844,26.6331,-1.234,0.8705,-0.3177
1407131.0,19.5846,-0.2682,25.4839,-0.9355,1.209,-0.3805
1407141.0,19.4218,0.9194,22.0745,-1.1132,1.8805,-0.5156
1407151.0,18.4641,2.0111,21.2797,-1.5612,2.2817,-0.6226
1407161.0,17.9661,3.4572,19.9581,-2.2359,2.7367,-0.6258
1407171.0,16.3093,3.869,19.8144,-2.9032,3.1139,-0.5247
1407181.0,14.5472,3.7924,20.5806,-3.6482,3.1937,-0.3911
1407191.0,12.5839,3.3327,21.7394,-3.8977,3.0086,-0.2442
1407201.0,10.4866,4.5394,20.8391,-4.1835,2.3583,-0.0431
1407211.0,7.9871,5.9185,17.4298,-5.2152,0.754,0.1735
1407221.0,6.3111,7.2018,8.5808,-7.3341,-1.8996,0.3746
1407231.0,3.9744,6.2824,-6.2632,-9.3519,-5.3307,0.5071
1407241.0,6.4356,9.9695,-48.1713,-11.7533,-7.2016,0.3092
1407251.0,-3.3806,14.3652,-78.4532,-12.8495,-4.8523,0.1506
1407261.0,-5.794,39.897,-78.4532,-17.4363,1.7155,0.3709
1407271.0,-20.1017,59.2134,-78.4532,-17.4363,9.9601,2.279
1407281.0,-47.0413,78.4508,-78.4532,-17.4091,17.4357,7.3612
1407291.0,-78.4532,78.4508,-78.4532,-10.0191,17.4357,15.6888
1407301.0,-78.4532,76.1835,-78.4532,1.209,17.4357,17.4357
1407311.0,-78.4532,27.5716,-78.4532,10.1112,17.4357,17.4357
1407321.0,-78.4532,-30.6171,-78.4532,17.4357,17.4357,17.4357
1407331.0,-78.4532,-71.6441,-76.126,17.4357,17.4357,17.4357
1407341.0,-78.4532,-78.4532,-9.596,17.4357,17.4357,10.0436
1407351.0,-78.4532,-78.4532,30.4255,17.4357,17.4357,-3.3172
1407361.0,-78.4532,-41.4293,78.4508,17.4357,17.4357,-12.0486
1407371.0,-78.4532,27.5525,78.4508,6.678,17.4357,-14.0361
1407381.0,-78.4532,78.4508,78.4508,-14.4708,17.4357,-15.2535
1407391.0,-78.4532,38.8914,78.4508,2.8404,17.4357,-9.1417
1407401.0,-78.4532,63.7815,78.4508,-3.1714,12.8601,-3.5167
1407411.0,-78.4532,16.9797,78.4508,16.6482,-5.9394,3.1065
1407421.0,-78.4532,44.9727,78.4508,17.4357,-17.4363,7.5081
1407431.0,-78.4532,7.8147,78.4508,12.7792,-17.4363,6.6573
1407441.0,-78.4532,-0.6512,78.4508,12.6563,-17.4363,4.7768
1407451.0,-78.4532,6.11,62.6898,2.8154,-17.4363,1.9342
1407461.0,-78.4532,7.1635,52.6629,3.2752,-17.4363,0.4347
1407471.0,-78.4532,21.9883,22.8981,0.5656,-17.4363,-0.1676
1407481.0,-78.4532,22.381,23.1854,1.2749,-17.4363,0.1187
1407491.0,-65.0744,28.5676,7.8051,4.8098,-17.4363,1.3324
1407501.0,-56.3308,28.673,-2.0016,6.1996,-17.4363,2.7276
1407511.0,-47.7691,25.5413,-4.9033,6.7653,-15.7048,3.8818
1407521.0,-41.8985,23.0993,-4.0127,5.7553,-12.9096,4.7299
1407531.0,-36.6887,18.5886,-0.1341,4.2894,-10.8035,5.2871
1407541.0,-33.2028,14.0109,5.9951,2.5988,-9.3785,5.4941
1407551.0,-31.5364,9.0022,11.8178,1.1281,-8.5814,5.4627
1407561.0,-27.3801,5.1427,15.0069,-0.2794,-8.1839,5.211
1407571.0,-24.4496,-0.6416,19.393,-1.7512,-7.7784,4.6656
1407581.0,-22.8981,-4.8746,23.9037,-2.3498,-7.5145,3.8807
1407591.0,-19.9198,-8.3031,28.7687,-2.4733,-7.258,2.9005
1407601.0,-18.1864,-9.6438,32.7048,-2.154,-7.3075,1.7209
1407611.0,-19.2111,-7.8434,35.7885,-2.2673,-8.0354,0.5369
1407621.0,-19.2494,-4.4532,36.1812,-2.6095,-9.0135,-0.4188
1407631.0,-20.4848,-0.5938,34.1509,-2.8048,-9.784,-1.0153
1407641.0,-21.0307,2.0111,30.5883,-3.3028,-10.0037,-1.3122
1407651.0,-18.7801,2.2984,27.5716,-4.0398,-9.8989,-1.59
1407661.0,-16.9222,2.1356,26.2021,-5.1775,-9.4067,-1.9949
1407671.0,-16.5391,3.2082,25.9915,-6.3172,-9.0166,-2.4153
1407681.0,-16.7115,4.3191,29.0177,-7.8492,-8.674,-2.8282
1407691.0,-18.1768,5.1427,33.6912,-8.4851,-8.9113,-3.0197
1407701.0,-18.0427,6.6846,36.5834,-8.4377,-9.2944,-2.9165
1407711.0,-18.2917,7.7859,38.2976,-7.5336,-9.66,-2.4972
1407721.0,-17.3819,8.3606,37.3304,-6.2789,-9.8148,-1.8491
1407731.0,-16.1369,8.2552,35.2139,-4.9492,-9.7989,-1.1307
1407741.0,-14.0779,7.6902,32.0536,-3.9621,-9.5009,-0.4241
1407751.0,-11.722,5.6886,30.5117,-3.264,-9.0188,0.1979
1407761.0,-10.3046,3.3998,29.2093,-2.891,-8.4734,0.5715
1407771.0,-9.5577,0.8523,30.0903,-2.8803,-8.1184,0.7689
1407781.0,-7.7381,-1.0822,29.2188,-2.8825,-7.9045,0.8093
1407791.0,-5.9568,-2.739,29.3912,-3.4066,-7.5922,0.6114
1407801.0,-4.8076,-4.2904,30.7607,-3.7908,-7.4139,0.3448
1407811.0,-3.8882,-5.1044,31.3257,-4.2846,-7.3325,0.0181
1407821.0,-1.8196,-6.9432,32.5324,-4.7981,-7.2867,-0.3762
1407831.0,-1.0918,-7.6806,33.7104,-5.0237,-7.2873,-0.861
1407841.0,-0.747,-7.7859,34.2371,-5.1407,-7.3181,-1.3409
1407851.0,-0.68,-7.4124,36.1524,-4.6773,-7.2836,-1.6868
1407861.0,-0.1628,-6.2345,37.4645,-3.3789,-7.1489,-1.8246
1407871.0,0.4214,-4.3383,37.2346,-1.7592,-6.8302,-1.7602
1407881.0,0.3735,-2.5187,35.9322,-0.0628,-6.4593,-1.4984
1407891.0,0.9768,-0.7949,34.3616,1.4026,-6.0613,-1.143
1407901.0,2.7581,0.7374,31.4311,2.3578,-5.5042,-0.7689
1407911.0,3.3519,1.3886,29.3242,2.6079,-4.8162,-0.4204
1407921.0,3.7062,1.8866,29.3433,2.809,-4.0419,-0.1383
1407931.0,4.2713,3.1029,28.5676,2.518,-3.4066,0.0819
1407941.0,4.0797,3.486,30.0616,1.6123,-3.0048,0.29
1407951.0,4.2617,3.4668,31.0001,0.6204,-2.9218,0.4496
1407961.0,4.7597,2.6624,33.6146,-0.3975,-2.9351,0.6002
1407971.0,5.5162,1.2737,35.0607,-0.9344,-2.8989,0.7008
1407981.0,5.7748,0.249,37.1293,-1.1738,-2.8745,0.7817
1407991.0,5.8993,-0.6129,38.9201,-0.9977,-2.9373,0.8881
1408001.0,6.4548,-1.5802,39.8012,-0.5976,-3.0293,0.9849
1408011.0,6.6176,-2.5187,39.7916,-0.2767,-3.1794,0.9913
1408021.0,7.2305,-3.304,39.399,-0.1586,-3.4582,0.9599
1408031.0,7.7476,-4.4149,39.5522,-0.0915,-3.8456,0.7865
1408041.0,7.6231,-4.1276,38.4221,-0.0772,-4.3937,0.5917
1408051.0,8.0445,-3.2274,36.4972,-0.3427,-4.8715,0.4427
1408061.0,8.3222,-2.49,34.285,-0.5672,-5.269,0.4012
1408071.0,9.098,-2.4421,32.475,-0.8195,-5.336,0.4033
1408081.0,9.347,-4.0989,30.4638,-0.6401,-5.1806,0.4023
1408091.0,10.4962,-5.4396,28.5389,-0.6167,-4.8555,0.3097
1408101.0,11.473,-7.3358,28.4144,-0.622,-4.6092,0.0282
1408111.0,11.7124,-6.9623,27.7057,-0.854,-4.5671,-0.3395
1408121.0,12.038,-5.8897,27.6674,-1.2074,-4.7933,-0.6529
1408131.0,12.4786,-4.367,26.1543,-1.4447,-5.0599,-0.8072
1408141.0,13.5895,-2.6336,23.0705,-1.7794,-5.0678,-0.8434
1408151.0,14.2503,-2.1452,21.452,-1.7522,-4.5155,-0.7423
1408161.0,14.1928,-1.8387,19.3068,-1.5272,-3.7152,-0.5773
1408171.0,14.9398,-2.8539,19.393,-1.4793,-2.8894,-0.4981
1408181.0,15.6868,-3.6775,19.7857,-1.2388,-2.1614,-0.464
1408191.0,16.8648,-3.62,21.1935,-1.0185,-1.5862,-0.4821
1408201.0,17.4298,-3.2753,22.6491,-0.6572,-1.2803,-0.4677
1408211.0,17.8129,-2.3272,22.7449,-0.3879,-1.1824,-0.4246
1408221.0,18.4066,-1.9249,21.6915,-0.0809,-1.0919,-0.3688
1408231.0,18.828,-1.2067,19.1632,0.2655,-0.7891,-0.3033
1408241.0,19.6037,-1.1396,16.3763,0.5257,-0.075,-0.2277
1408251.0,19.0291,-0.68,14.2216,0.9993,1.0179,-0.1373
1408261.0,18.9717,-0.2777,13.3022,1.2404,2.3887,-0.0713
1408271.0,17.4968,-0.3543,14.6908,1.6613,3.5018,0.0346
1408281.0,17.2574,-0.1149,15.5432,1.8017,4.3069,0.108
1408291.0,17.1138,-0.182,16.4625,1.9816,4.93,0.1719
1408301.0,17.5351,0.3831,15.8209,1.8709,5.6697,0.1644
1408311.0,16.089,0.7757,14.4322,1.3042,6.5141,0.0899
1408321.0,14.5951,0.6895,14.0492,0.1804,7.4985,-0.041
1408331.0,12.6318,-0.1532,16.204,-0.8508,8.5074,-0.2304
1408341.0,10.7931,-1.063,20.7625,-1.5671,9.4338,-0.4135
1408351.0,9.8928,-1.245,26.2309,-2.0305,10.0309,-0.5672
1408361.0,8.916,-1.3312,30.7799,-2.6084,10.016,-0.7173
1408371.0,7.9296,-1.245,33.8636,-3.7764,9.4524,-0.8876
1408381.0,6.9815,-1.4174,36.0375,-4.9806,8.8033,-1.0041
1408391.0,5.7652,-1.6951,37.2921,-5.9027,8.4037,-1.0323
1408401.0,3.9361,-2.6624,40.28,-6.0922,8.1456,-0.9424
1408411.0,2.3272,-3.7445,42.9424,-5.3025,7.73,-0.713
1408421.0,1.6664,-5.0853,43.8809,-3.7684,7.431,-0.4997
1408431.0,2.4229,-5.7078,44.1299,-1.4239,7.3245,-0.348
1408441.0,2.7294,-3.4093,40.1364,0.315,7.3181,-0.2575
1408451.0,2.4612,-0.067,36.3823,1.3729,7.7869,-0.0149
1408461.0,1.7334,2.873,32.8484,1.9874,8.9826,0.3395
1408471.0,-0.6512,4.4532,33.6242,1.789,10.1043,0.7593
1408481.0,-3.2657,4.5873,37.1772,1.1472,10.505,1.119
1408491.0,-5.0661,3.5051,42.0901,0.6215,10.4629,1.4617
1408501.0,-5.861,1.5227,46.4762,0.5768,10.0899,1.7145
1408511.0,-6.6367,0.0479,49.6557,0.6337,9.3934,1.8502
1408521.0,-7.7093,-0.3639,50.623,0.9668,8.5548,1.9278
1408531.0,-7.8626,-0.1341,48.9854,1.1531,8.1759,1.9763
1408541.0,-9.1075,0.8619,47.1849,1.2872,8.3637,2.0524
1408551.0,-10.3525,1.6951,47.8649,1.2026,8.7032,2.1572
1408561.0,-11.7316,1.8675,50.8433,1.1148,8.6224,2.2615
1408571.0,-12.8521,1.5419,53.6684,1.0759,8.1541,2.3482
1408581.0,-13.8959,1.6376,55.1241,0.9966,7.2761,2.4227
1408591.0,-14.7196,1.3982,55.9956,0.7423,6.2209,2.4887
1408601.0,-14.9111,1.3312,53.6301,0.331,5.2243,2.5829
1408611.0,-15.4282,0.4501,51.1306,-0.2724,4.7055,2.6058
1408621.0,-15.9454,-0.9194,49.6079,-0.8397,4.5895,2.6403
1408631.0,-17.0084,-2.49,50.7667,-1.0664,4.3745,2.61
1408641.0,-17.3532,-3.0837,51.37,-0.9333,3.9658,2.5664
1408651.0,-17.7746,-2.988,51.37,-0.5098,3.4364,2.527
1408661.0,-18.6077,-1.1013,49.7707,0.058,3.0676,2.6159
1408671.0,-18.6269,1.1205,46.6965,0.4667,3.0283,2.8793
1408681.0,-18.8376,2.8635,43.7852,0.4294,3.3826,3.2326
1408691.0,-19.7665,3.553,42.4731,0.0085,3.8568,3.6152
1408701.0,-20.2071,2.6719,44.1778,-0.4784,4.0903,3.9504
1408711.0,-20.14,1.2929,46.6582,-0.7875,4.052,4.2495
1408721.0,-19.5367,-0.4501,49.2248,-0.7928,3.7546,4.4224
1408731.0,-19.6708,-2.0686,50.7092,-0.5082,3.2512,4.5336
1408741.0,-19.2685,-2.7485,50.3453,-0.0867,2.8383,4.6368
1408751.0,-19.2494,-2.7773,48.7459,0.3118,2.6829,4.6916
1408761.0,-19.2494,-2.739,46.5624,0.281,2.5797,4.6251
1408771.0,-18.9717,-2.806,46.5241,0.132,2.436,4.5102
1408781.0,-18.6748,-2.6624,45.8825,-0.0027,2.2258,4.3575
1408791.0,-18.081,-2.4229,46.1698,-0.348,2.0311,4.1728
1408801.0,-17.8512,-1.992,45.509,-0.7082,1.7251,3.9967
1408811.0,-17.8895,-1.5419,45.193,-1.0621,1.4484,3.9142
1408821.0,-17.9948,-1.1684,45.3079,-0.8924,1.409,3.9664
1408831.0,-18.2438,-0.8715,44.5034,-0.7088,1.5261,4.0435
1408841.0,-18.8472,-1.0726,44.2736,-0.6529,1.5304,4.1329
