time_ms,ax,ay,az,gx,gy,gz
1302411.0,-10.8697,6.857,41.7261,-0.3427,-0.0378,0.9312
1302421.0,-10.5345,6.7516,41.4963,-0.6768,-0.2719,0.9759
1302431.0,-10.1993,6.4643,40.4716,-0.8908,-0.472,1.0121
1302441.0,-9.9695,5.9664,39.5714,-0.9881,-0.621,1.0382
1302451.0,-9.7013,5.2194,38.3264,-0.9477,-0.5896,1.0328
1302461.0,-8.8298,4.2425,37.3208,-0.7742,-0.3783,1.011
1302471.0,-8.6479,3.486,36.66,-0.5555,-0.1942,0.9392
1302481.0,-8.418,2.988,36.4206,-0.3576,-0.0617,0.7652
1302491.0,-8.0637,2.8826,35.7023,-0.3001,0.0229,0.5837
1302501.0,-7.7955,3.4381,35.3576,-0.406,0.1341,0.4204
1302511.0,-8.1786,3.7637,35.3959,-0.4656,0.1485,0.3118
1302521.0,-7.8913,4.1084,34.6872,-0.5741,0.1857,0.2267
1302531.0,-7.5561,4.5298,34.0647,-0.7104,0.2506,0.1447
1302541.0,-8.1403,5.0661,33.854,-0.944,0.2714,0.0894
1302551.0,-8.4946,5.5737,34.1892,-1.0222,0.3469,0.0809
1302561.0,-8.5808,6.3782,34.1413,-0.9605,0.522,0.1676
1302571.0,-9.165,6.3015,34.5627,-0.9892,0.6598,0.2831
1302581.0,-9.2703,6.0525,34.4765,-0.9599,0.6146,0.3682
1302591.0,-8.4659,5.8227,34.7638,-1.0871,0.5449,0.4161
1302601.0,-8.2073,5.363,34.0264,-1.3968,0.5459,0.4017
1302611.0,-8.0254,4.9129,33.9689,-1.8629,0.4943,0.3592
1302621.0,-7.5848,4.0318,34.2754,-2.2189,0.4156,0.2964
1302631.0,-7.2018,3.0358,34.3712,-2.3535,0.4039,0.2198
1302641.0,-8.0924,2.6528,34.6585,-2.2615,0.4129,0.1272
1302651.0,-7.9583,1.8387,34.3616,-1.8262,0.6327,0.0543
1302661.0,-7.3454,1.9728,33.8732,-1.2127,1.1164,-0.0575
1302671.0,-7.5848,3.237,34.3712,-0.8668,1.6219,-0.1506
1302681.0,-8.5138,4.4915,35.7215,-0.8418,1.7565,-0.1548
1302691.0,-8.6095,4.7692,36.3248,-1.1398,1.5543,-0.1032
1302701.0,-7.6998,4.4819,37.3208,-1.6315,1.3149,-0.1309
1302711.0,-7.5561,4.2329,37.7901,-1.8661,1.1111,-0.1107
1302721.0,-8.2839,3.8211,37.8954,-1.996,1.019,-0.1048
1302731.0,-8.2073,2.9305,37.9529,-1.7608,1.069,-0.1011
1302741.0,-8.6191,2.1356,38.2689,-1.4207,1.2558,-0.1181
1302751.0,-9.2799,1.2833,39.2362,-0.9222,1.4197,-0.1783
1302761.0,-9.1842,0.929,39.0446,-0.3666,1.4548,-0.274
1302771.0,-9.0884,1.2641,38.8531,-0.0883,1.474,-0.4273
1302781.0,-9.1267,1.8866,37.8858,-0.1415,1.3867,-0.5651
1302791.0,-9.1267,2.6336,36.9952,-0.564,1.3548,-0.6864
1302801.0,-9.3661,2.9209,37.1867,-0.978,1.3047,-0.7774
1302811.0,-10.1418,2.5953,37.6464,-1.3995,1.2207,-0.8546
1302821.0,-10.2855,2.0303,37.7422,-1.6144,1.0429,-0.919
1302831.0,-10.3717,1.1396,38.1827,-1.8395,0.9317,-1.0307
1302841.0,-10.1418,0.5267,38.8627,-2.0316,0.7301,-1.1754
1302851.0,-10.6303,0.3352,37.8858,-2.3636,0.4166,-1.3627
1302861.0,-11.0325,0.0766,38.2019,-2.5451,0.1591,-1.5112
1302871.0,-10.6781,0.4405,36.7271,-2.5004,0.1208,-1.5676
1302881.0,-10.161,0.3926,35.4533,-2.6042,0.3629,-1.6751
1302891.0,-10.2568,1.0822,35.1565,-3.0559,0.4581,-1.8124
1302901.0,-10.4291,1.9441,35.281,-3.7775,0.357,-1.9369
1302911.0,-11.2527,2.7677,35.5778,-4.2314,0.3618,-1.9193
1302921.0,-11.8944,2.5187,36.8516,-4.2271,0.7024,-1.7533
1302931.0,-12.5265,1.3216,39.9257,-3.5976,1.0339,-1.5139
1302941.0,-12.6127,0.182,41.64,-2.5797,1.152,-1.2941
1302951.0,-11.8178,-1.1684,43.3446,-1.4543,1.334,-1.1366
1302961.0,-12.153,-1.561,43.9863,-0.3496,1.2233,-1.0578
1302971.0,-11.6262,-1.6281,42.3103,0.455,1.0717,-1.002
1302981.0,-9.6822,-2.2314,40.8451,0.8312,1.3196,-1.0126
1302991.0,-11.6837,-2.6528,40.3088,0.506,1.1627,-1.193
1303001.0,-11.9806,-4.0797,39.8587,-0.5273,0.8631,-1.4819
1303011.0,-11.0899,-5.6312,39.7533,-0.8551,0.8971,-1.9129
1303021.0,-11.7316,-5.2577,40.1843,-1.1829,1.0844,-2.3849
1303031.0,-12.3349,-3.3519,41.0366,-0.6353,1.1882,-2.709
1303041.0,-12.4594,1.743,38.7478,0.1532,1.6666,-2.7904
1303051.0,-14.2694,7.3454,37.3208,0.5896,2.4254,-2.4855
1303061.0,-15.6964,10.6207,38.7478,1.019,3.1123,-1.8134
1303071.0,-16.338,11.6933,39.8299,1.5564,3.6434,-1.0573
1303081.0,-16.769,11.3006,41.6208,1.5931,4.0664,-0.373
1303091.0,-17.832,10.3142,44.1395,1.202,3.935,0.1378
1303101.0,-18.3013,9.4332,46.1602,0.688,3.4694,0.6002
1303111.0,-17.6213,7.7381,46.6007,0.4028,3.1698,1.0302
1303121.0,-17.6884,5.9376,45.7867,0.2474,2.9516,1.3212
1303131.0,-16.769,5.612,44.3598,0.0362,2.8122,1.4356
1303141.0,-17.085,6.7421,41.7932,-0.4507,2.8521,1.6118
1303151.0,-17.6501,6.7229,42.3199,-0.7178,3.1629,1.8486
1303161.0,-18.646,7.0773,42.3486,-0.9509,3.2842,2.0742
1303171.0,-19.5846,6.5793,44.0437,-1.2334,3.1884,2.3211
1303181.0,-19.4984,5.6024,45.5281,-1.1563,3.0064,2.5281
1303191.0,-20.2166,5.2481,46.2177,-0.8828,2.6382,2.6866
1303201.0,-19.6803,5.5162,45.3941,-0.3863,2.2386,2.858
1303211.0,-19.7282,6.3111,42.8754,0.1799,2.1407,3.0432
1303221.0,-19.5941,7.671,39.7342,0.4544,2.17,3.1655
1303231.0,-20.3507,9.5193,36.9377,0.1469,2.2221,3.2555
1303241.0,-20.6763,10.8984,35.7502,-0.2224,2.5371,3.405
1303251.0,-21.5861,11.6358,37.1197,-0.3022,2.875,3.653
1303261.0,-22.7545,12.5743,38.9297,-0.2841,2.8271,3.9807
1303271.0,-22.9077,12.9478,40.2417,-0.1086,2.5701,4.3426
1303281.0,-23.2908,13.6374,39.9927,0.2203,2.2609,4.8151
1303291.0,-23.4728,13.5895,39.0829,0.3539,2.0236,5.3509
1303301.0,-24.124,12.9383,37.838,0.5523,1.8996,5.8261
1303311.0,-24.0857,11.4251,36.6409,0.9041,2.138,6.2257
1303321.0,-24.2676,9.5002,37.5315,1.7283,2.6137,6.5476
1303331.0,-24.373,8.4946,39.5522,2.685,2.8234,6.76
1303341.0,-25.3402,7.5753,41.2282,3.6891,2.6132,6.9015
1303351.0,-24.2772,8.4276,39.1117,4.333,2.3668,6.9696
1303361.0,-24.2676,10.1514,36.9856,4.3772,2.3142,7.0452
1303371.0,-23.0801,12.4403,32.3121,3.4018,2.5126,7.1505
1303381.0,-23.5111,12.8904,31.2779,1.4766,2.6877,7.2016
1303391.0,-23.5973,12.8138,31.8812,-0.5481,2.8532,7.2383
1303401.0,-24.5837,11.0899,35.0128,-2.2317,2.8952,7.3224
1303411.0,-24.7944,8.1594,40.0023,-2.8495,3.0612,7.4315
1303421.0,-25.1774,4.4245,46.1889,-2.5387,3.0447,7.489
1303431.0,-24.9763,2.7485,50.1442,-2.245,2.353,7.4623
1303441.0,-24.0474,0.2011,54.176,-1.3085,1.5383,7.415
1303451.0,-23.2908,-0.3448,53.0364,-0.6561,0.8727,7.324
1303461.0,-22.8215,-1.0534,52.2032,-0.4555,0.0899,7.1537
1303471.0,-21.634,-1.6281,50.1729,-0.8578,-0.5289,6.8834
1303481.0,-21.2318,-2.3846,48.6119,-1.5974,-0.9684,6.5551
1303491.0,-21.0786,-4.5681,48.7268,-2.2397,-1.2861,6.1645
1303501.0,-20.9445,-6.6176,49.0045,-2.6223,-1.5809,5.6404
1303511.0,-20.8679,-8.3989,50.6996,-2.7861,-1.6261,5.0753
1303521.0,-20.7529,-10.9271,54.0515,-2.2556,-1.8299,4.4474
1303531.0,-20.5997,-11.6071,57.2406,-1.6964,-2.4706,3.7035
1303541.0,-20.4848,-10.1227,58.5909,-1.1653,-3.3555,3.0118
1303551.0,-20.9062,-7.6998,57.9588,-0.8971,-4.3974,2.5036
1303561.0,-21.0498,-5.9664,56.4265,-0.729,-5.4472,2.1524
1303571.0,-20.3507,-5.4779,53.3237,-0.5481,-6.2119,1.8837
1303581.0,-19.7953,-5.2481,49.943,-0.4347,-6.5253,1.5719
1303591.0,-20.3028,-5.114,48.3916,0.0431,-6.6088,1.3308
1303601.0,-19.8336,-5.3439,48.7172,0.6024,-6.7302,1.0169
1303611.0,-19.8719,-3.2178,45.5952,0.7567,-7.2362,0.7732
1303621.0,-19.6133,-2.4038,43.9863,0.4246,-7.8508,0.5949
1303631.0,-18.081,-2.3463,40.4045,0.2405,-8.0216,0.4417
1303641.0,-17.7458,-3.2178,39.1117,0.2804,-7.9551,0.2336
1303651.0,-16.3189,-3.3902,35.6066,0.1405,-7.8843,-0.0724
1303661.0,-15.1601,-3.6583,34.3041,-0.248,-7.7683,-0.4699
1303671.0,-13.9726,-3.1412,32.6761,-0.6066,-7.6667,-0.9275
1303681.0,-13.3884,-3.0933,30.8277,-0.887,-7.54,-1.3468
1303691.0,-12.0189,-3.1316,29.8796,-0.8732,-7.1308,-1.7868
1303701.0,-10.7452,-2.7102,28.5868,-0.7668,-6.6493,-2.1971
1303711.0,-10.2089,-1.5036,28.1558,-0.6726,-6.3268,-2.6143
1303721.0,-9.232,-0.3256,26.1447,-0.6848,-5.9708,-2.9165
1303731.0,-7.2784,0.2969,24.1527,-0.8524,-5.4015,-3.2241
1303741.0,-6.426,1.1779,22.3235,-1.3164,-4.6246,-3.5843
1303751.0,-6.0238,2.0207,22.7353,-1.8315,-3.9483,-3.927
1303761.0,-5.3917,3.7637,22.8694,-2.5345,-3.3289,-4.2393
1303771.0,-4.9512,4.5777,24.507,-3.1219,-2.8851,-4.4325
1303781.0,-4.9321,5.3822,26.1638,-3.2704,-2.4147,-4.5565
1303791.0,-4.118,5.5545,28.0313,-2.9442,-1.8251,-4.557
1303801.0,-4.1563,6.7325,30.234,-2.4642,-1.0993,-4.5512
1303811.0,-4.4245,8.3127,32.3888,-2.1002,-0.7684,-4.4506
1303821.0,-4.4724,9.845,35.4533,-1.9725,-0.8253,-4.3037
1303831.0,-4.5681,11.2815,36.842,-1.8762,-1.1855,-4.0648
1303841.0,-4.4724,12.469,36.0758,-2.0284,-1.5862,-3.7333
1303851.0,-3.7158,12.4403,35.7981,-2.0763,-1.8762,-3.3614
1303861.0,-3.1125,11.8178,34.2179,-2.0497,-1.9656,-2.9995
1303871.0,-2.5474,9.9311,33.2603,-2.2013,-1.872,-2.7026
1303881.0,-2.1356,7.039,32.3026,-2.2077,-1.7214,-2.5861
1303891.0,-1.0343,4.865,30.55,-2.2562,-1.2505,-2.7835
1303901.0,-1.2067,4.2425,31.5556,-2.4839,-0.7551,-3.1134
1303911.0,-1.5131,4.7788,32.7048,-2.4637,-0.4778,-3.4561
1303921.0,-0.5267,6.7421,31.1534,-2.5334,-0.0426,-3.7306
1303931.0,-0.5459,9.7396,29.5253,-3.4167,0.5763,-4.0137
1303941.0,-1.1205,12.4403,29.9179,-4.8449,0.8274,-4.1909
1303951.0,-2.0111,15.342,31.4598,-6.5934,1.1073,-4.1643
1303961.0,-2.6432,14.9111,37.2442,-7.1213,1.7304,-3.8631
1303971.0,-3.9648,15.2463,41.707,-6.9505,2.2184,-3.4518
1303981.0,-5.679,14.2311,48.6598,-6.0874,2.3046,-2.982
1303991.0,-5.545,13.532,54.5208,-3.8913,2.2929,-2.4435
1304001.0,-6.2153,14.6429,57.1065,-1.7911,2.0167,-1.8794
1304011.0,-6.8474,16.5775,57.0107,-0.0564,1.3228,-1.3367
1304021.0,-6.5027,19.4218,53.2566,0.5875,0.7019,-0.7998
1304031.0,-7.2209,20.8296,49.7228,0.4108,0.3789,-0.2826
1304041.0,-6.8187,20.1975,49.6557,0.5928,0.6194,0.2373
1304051.0,-6.1387,20.1975,49.0811,0.9073,0.9269,0.7178
1304061.0,-6.4835,20.1688,49.6845,0.5875,0.8918,1.0898
1304071.0,-5.9759,20.7721,49.9909,-0.1697,0.5326,1.4175
1304081.0,-6.3015,20.6476,51.3125,-1.0962,0.0474,1.7879
1304091.0,-5.7365,20.4082,51.0827,-1.7863,-0.5731,2.2237
1304101.0,-5.7174,20.3411,49.3876,-2.4919,-1.0546,2.6584
1304111.0,-6.4643,19.3164,48.2671,-2.95,-1.3494,3.1283
1304121.0,-5.9472,17.0754,46.6678,-3.0644,-1.2489,3.6641
1304131.0,-4.8171,13.0915,47.8266,-2.6137,-0.9786,4.0228
1304141.0,-4.9033,11.0612,46.9838,-2.4977,-1.0344,4.1909
1304151.0,-4.5394,9.2703,46.821,-2.4775,-1.4064,4.2505
1304161.0,-3.6871,8.9926,44.6758,-2.311,-1.4548,4.3362
1304171.0,-3.8403,8.5904,43.0286,-2.3333,-1.3681,4.4208
1304181.0,-3.5626,9.2608,40.7685,-2.6435,-1.3489,4.5192
1304191.0,-4.5777,9.9024,39.7246,-3.0958,-1.2042,4.7214
1304201.0,-4.5969,8.2073,40.5386,-3.074,-0.5864,5.0913
1304211.0,-4.7692,5.296,42.4636,-2.6946,0.0011,5.3397
1304221.0,-6.1962,3.2753,44.7428,-2.693,-0.099,5.3956
1304231.0,-6.0238,2.0494,46.7157,-2.4706,-0.3613,5.4515
1304241.0,-5.7078,0.6321,48.6502,-1.8172,-0.216,5.5888
1304251.0,-6.2824,-1.1205,50.5368,-1.0382,-0.3986,5.7058
1304261.0,-5.5354,-2.0686,49.2727,-0.8567,-0.9535,5.6489
1304271.0,-5.2194,-2.8156,47.9606,-1.0642,-1.4266,5.5388
1304281.0,-5.6982,-3.0933,46.6869,-1.3686,-1.7251,5.4041
1304291.0,-5.4779,-3.5817,44.695,-1.6464,-1.8182,5.2418
1304301.0,-5.5162,-3.4764,44.3885,-2.0853,-1.6049,5.0641
1304311.0,-5.7461,-4.0223,45.5281,-2.3738,-1.582,4.921
1304321.0,-5.8802,-4.798,47.1466,-2.2652,-1.6809,4.8358
1304331.0,-5.3247,-5.2481,48.0564,-2.2338,-1.8555,4.7464
1304341.0,-5.0949,-6.4356,49.4067,-2.0917,-2.3338,4.6203
1304351.0,-4.4053,-6.7325,48.88,-2.2178,-2.9426,4.4176
1304361.0,-3.7924,-6.9815,47.9511,-2.286,-3.4513,4.2005
1304371.0,-3.6105,-6.857,46.6295,-2.2157,-3.7024,4.0462
1304381.0,-3.237,-6.3782,44.8769,-1.956,-3.9243,3.9163
1304391.0,-2.8443,-5.7557,42.8083,-1.6559,-3.9674,3.852
1304401.0,-2.5474,-4.5203,40.6727,-1.3627,-3.8663,3.8424
1304411.0,-2.0494,-3.8499,38.9585,-1.2244,-3.6865,3.9637
1304421.0,-1.3503,-3.8499,37.6273,-1.028,-3.3768,4.1138
1304431.0,-0.2969,-4.3766,37.5411,-0.8439,-3.0197,4.3101
1304441.0,0.565,-5.8706,37.7613,-0.5938,-2.6893,4.4447
1304451.0,0.8236,-7.3454,39.4181,-0.1692,-2.5467,4.5416
1304461.0,0.929,-8.7245,40.9217,0.6279,-2.5664,4.6251
1304471.0,1.3024,-9.8162,41.0462,1.7624,-2.6797,4.6911
1304481.0,1.5419,-10.1706,39.2458,2.8617,-2.742,4.7417
1304491.0,1.5323,-10.41,36.344,3.7562,-2.5983,4.8305
1304501.0,2.9784,-11.4251,32.1398,3.9424,-2.2397,4.7406
1304511.0,3.7637,-12.9287,28.2133,2.6143,-1.9598,4.2803
1304521.0,4.4436,-14.7196,26.5661,0.5922,-1.8156,3.5577
1304531.0,5.3056,-16.0795,26.7001,-1.4889,-1.5937,2.6728
1304541.0,5.5067,-17.4681,27.562,-3.0314,-1.2606,1.7943
1304551.0,5.2098,-18.1959,29.5828,-3.9344,-0.7854,0.9349
1304561.0,4.5777,-17.7937,31.7471,-4.3005,-0.4544,0.1697
1304571.0,3.8211,-16.2997,33.4231,-4.308,-0.2448,-0.4305
1304581.0,3.0358,-14.5567,34.4765,-4.0973,-0.1799,-0.7843
1304591.0,2.5666,-14.0588,35.1277,-3.6604,-0.083,-0.9376
1304601.0,2.6528,-14.9111,35.913,-2.9447,0.083,-1.0695
1304611.0,3.2274,-16.5391,36.5642,-1.9566,0.3741,-1.3133
1304621.0,3.1699,-16.8264,36.6409,-0.8716,0.6183,-1.6581
1304631.0,2.6336,-15.8783,37.0335,0.0846,0.7801,-2.0609
1304641.0,1.6089,-13.1681,36.7079,1.0147,0.7662,-2.3557
1304651.0,0.5555,-9.7205,36.4876,1.7906,0.7109,-2.4605
1304661.0,-0.1053,-7.0198,34.4861,2.2982,0.7247,-2.402
1304671.0,-0.1341,-5.0566,32.4175,2.6276,0.986,-2.2546
1304681.0,0.2682,-4.5394,31.7854,2.7766,1.4718,-2.0997
1304691.0,-0.2203,-5.1523,33.1453,2.9123,1.9827,-1.9997
1304701.0,0.5555,-7.0006,35.6736,3.1709,2.4679,-2.0779
1304711.0,-0.0766,-8.1786,39.1787,3.1214,2.3855,-2.3605
1304721.0,-0.5363,-8.3222,42.6934,3.074,1.7634,-2.7329
1304731.0,-0.5842,-6.9528,43.4404,3.0325,1.06,-3.0309
1304741.0,-0.2011,-5.5354,42.6934,2.9256,0.3778,-3.2198
1304751.0,0.1341,-4.7788,39.9066,2.7819,-0.1091,-3.3933
1304761.0,0.9194,-4.3,36.4302,2.486,-0.191,-3.6035
1304771.0,1.8483,-3.237,32.7431,2.0375,0.1139,-3.8834
1304781.0,1.5323,-1.4653,31.2012,1.3819,0.7827,-4.1675
1304791.0,1.3024,-0.182,32.3217,0.8892,1.6235,-4.291
1304801.0,1.0822,0.7374,36.2769,0.8008,2.1684,-4.3064
1304811.0,1.0343,2.2697,39.2074,0.5619,2.4498,-4.3138
1304821.0,1.0822,3.4572,43.4979,0.5406,2.3503,-4.1904
1304831.0,1.1396,4.7309,45.193,0.4193,2.0369,-4.0196
1304841.0,1.245,5.3822,46.0261,0.1772,1.6559,-3.845
1304851.0,1.2641,5.3247,46.4284,-0.1985,1.5538,-3.6971
1304861.0,1.0534,4.9704,47.6733,-0.3475,1.5931,-3.6205
1304871.0,0.3543,4.3958,50.307,-0.3006,1.5596,-3.6019
1304881.0,0.0575,4.1468,53.496,-0.224,1.2185,-3.6412
1304891.0,-0.0383,5.5067,54.9613,-0.1772,0.5555,-3.7301
1304901.0,0.2682,8.0541,54.2335,-0.5055,-0.0825,-3.7807
1304911.0,0.5171,10.8697,52.8161,-1.3798,-0.6364,-3.7897
1304921.0,0.1437,13.4746,52.8831,-2.6361,-1.3133,-3.6945
1304931.0,0.0575,15.1888,51.8009,-3.8562,-2.0247,-3.4614
1304941.0,-0.1245,15.84,51.2838,-4.7358,-2.4477,-3.098
1304951.0,0.0096,15.6198,51.0252,-5.1056,-2.7398,-2.6153
1304961.0,0.1149,15.3133,50.4315,-5.1083,-2.9463,-2.0667
1304971.0,0.8906,14.1354,49.8377,-4.7752,-2.9745,-1.4771
1304981.0,0.9194,12.7084,49.8856,-4.1148,-3.0405,-0.9147
1304991.0,1.8292,11.8369,48.7172,-3.322,-3.2209,-0.4172
1305001.0,2.4612,11.904,46.1698,-2.5877,-3.2321,0.0319
1305011.0,3.304,12.1242,43.2872,-2.105,-3.1027,0.5034
1305021.0,3.8499,12.2487,40.4429,-1.9816,-2.8138,0.9323
1305031.0,4.2234,12.0764,37.5315,-2.1066,-2.3706,1.3505
1305041.0,4.3574,11.4539,36.8994,-2.4999,-1.7682,1.756
1305051.0,4.0318,10.2089,37.7997,-2.8516,-1.4841,2.1189
1305061.0,4.7118,7.7859,39.7342,-2.9181,-1.2122,2.4142
1305071.0,5.5258,5.7557,41.1132,-2.6473,-1.0743,2.6148
1305081.0,5.9185,4.3862,41.3335,-2.5738,-1.2872,2.6595
1305091.0,6.1962,4.1276,40.711,-2.5563,-1.4447,2.7202
1305101.0,5.9759,4.616,39.0925,-2.5855,-1.4596,2.8191
1305111.0,5.0949,5.2768,37.6177,-2.6435,-1.4883,2.991
1305121.0,5.1715,6.11,35.3959,-2.7792,-1.3079,3.2485
1305131.0,4.7884,5.7078,34.3999,-2.7579,-0.8157,3.6375
1305141.0,5.296,4.0127,34.6968,-2.5233,-0.3129,4.0159
1305151.0,5.9089,2.7869,34.3137,-2.4887,-0.0968,4.2766
1305161.0,6.3686,1.7238,34.0168,-2.6627,0.182,4.4681
1305171.0,5.9089,1.1109,35.1565,-2.568,0.4667,4.69
1305181.0,5.0182,0.7853,36.0088,-2.1854,0.7184,5.0471
1305191.0,4.3096,-0.4214,37.091,-1.4287,1.1047,5.4946
1305201.0,3.3806,-2.6432,39.1404,-0.3837,1.4771,5.9522
1305211.0,2.8635,-6.0142,40.893,0.9243,1.7597,6.3657
1305221.0,3.984,-9.5193,41.9464,2.1519,2.1034,6.5551
1305231.0,3.8499,-13.4746,43.2584,3.2374,2.2386,6.3864
1305241.0,4.2425,-14.3173,43.5649,3.472,2.171,5.899
1305251.0,3.5626,-14.4035,44.6471,3.6428,1.9129,5.3637
1305261.0,2.6528,-12.3253,43.6894,3.4688,1.6916,4.9471
1305271.0,1.2354,-10.9271,42.9616,2.9947,1.5825,4.6517
1305281.0,0.814,-10.7548,42.6743,2.2753,1.6788,4.4336
1305291.0,0.6225,-11.7316,43.8713,1.4596,1.6682,4.1781
1305301.0,0.814,-13.3501,45.5186,0.6061,1.6155,3.811
1305311.0,0.7949,-14.8632,48.631,-0.1346,1.4101,3.3544
1305321.0,-0.0096,-15.591,51.4753,-0.6045,0.9014,2.8468
1305331.0,-0.7087,-15.342,54.6644,-0.3847,0.373,2.5057
1305341.0,-1.4365,-14.5759,55.0188,0.0782,-0.1836,2.3067
1305351.0,-3.0167,-14.0396,55.1528,0.5353,-0.6784,2.204
1305361.0,-3.0646,-14.0492,54.6453,1.0504,-1.0632,2.1146
1305371.0,-3.0646,-14.3844,54.243,1.2388,-1.3787,2.0252
1305381.0,-2.4038,-16.2614,55.7562,1.4096,-1.6091,1.839
1305391.0,-2.2505,-18.1672,57.1544,1.3484,-2.1827,1.4489
1305401.0,-2.1548,-18.646,57.729,0.8365,-3.3518,0.8301
1305411.0,-1.8387,-18.2055,56.3691,0.1128,-4.4101,0.1852
1305421.0,-1.7334,-17.1425,54.6548,-0.9349,-5.3009,-0.4784
1305431.0,-1.8004,-16.6924,54.8464,-1.8502,-6.1901,-1.0791
1305441.0,-2.1356,-15.5623,54.8176,-2.5254,-7.2633,-1.6171
1305451.0,-1.8962,-14.1833,52.7299,-3.0203,-8.5926,-2.0587
1305461.0,-1.0726,-12.5265,50.125,-3.3044,-9.7031,-2.4227
1305471.0,0.0479,-11.4634,46.7827,-3.0745,-10.4826,-2.6515
1305481.0,0.3352,-10.6494,42.0422,-2.3275,-10.9652,-2.693
1305491.0,1.992,-9.7205,36.7271,-1.5985,-10.9972,-2.6845
1305501.0,3.2944,-8.4372,31.8333,-0.7497,-10.7476,-2.5967
1305511.0,4.5298,-7.4986,27.2939,-0.2011,-10.2618,-2.4137
1305521.0,6.3207,-6.3686,23.5494,0.2708,-9.743,-2.2551
1305531.0,8.1499,-5.3534,20.8008,0.5997,-9.2471,-2.0178
1305541.0,10.2185,-4.4819,17.3628,1.2031,-8.526,-1.7097
1305551.0,11.9806,-3.8978,13.6853,1.7331,-7.539,-1.3627
1305561.0,14.3939,-4.8171,10.726,2.0045,-6.2928,-1.0461
1305571.0,16.6828,-6.9815,9.2991,2.1162,-5.0231,-0.9456
1305581.0,18.6173,-8.6574,8.7436,1.9811,-3.8536,-1.0951
1305591.0,20.2645,-9.1459,8.3414,1.4819,-2.7931,-1.3755
1305601.0,21.1935,-9.2416,9.73,0.9738,-1.7602,-1.6937
1305611.0,21.0402,-8.5329,11.6933,0.6534,-0.8822,-1.9949
1305621.0,20.5901,-7.3263,13.1298,0.3719,-0.3171,-2.1742
1305631.0,20.8679,-6.9432,14.4131,0.1969,0.224,-2.3195
1305641.0,21.0307,-6.5793,15.5719,0.3698,1.0089,-2.4142
1305651.0,20.5614,-6.1483,16.4434,0.5055,1.715,-2.494
1305661.0,19.8048,-5.3534,17.9757,0.5257,2.2753,-2.56
1305671.0,19.9198,-4.118,19.1345,0.4741,2.7952,-2.5999
1305681.0,19.5367,-2.9975,20.5806,0.3235,3.2336,-2.568
1305691.0,18.8472,-2.0782,21.4233,0.1804,3.5407,-2.5185
1305701.0,18.4066,-1.0918,22.3906,0.0702,3.8929,-2.3376
1305711.0,17.6022,-1.2546,23.8846,0.1346,4.5166,-2.1354
1305721.0,16.2231,-1.312,26.0872,0.1203,4.872,-1.9406
1305731.0,15.2846,-2.1165,29.171,0.4044,4.8789,-1.7554
1305741.0,14.4706,-1.6759,29.9754,0.8737,4.9508,-1.5522
1305751.0,13.9343,-1.2067,29.2763,1.3526,5.1306,-1.3415
1305761.0,13.3405,-0.7949,28.7975,1.847,5.4047,-1.0871
1305771.0,13.2064,-0.7566,27.677,2.2029,5.8814,-0.8998
1305781.0,12.1051,-1.0247,26.6618,2.328,6.6019,-0.8147
1305791.0,11.4443,-1.8387,27.8398,2.3312,7.324,-0.7817
1305801.0,10.1897,-1.5993,29.0081,1.856,7.9679,-0.9115
1305811.0,8.4755,-1.7047,32.8676,1.2733,8.2616,-1.0626
1305821.0,7.1922,-1.245,36.0184,0.5161,8.0839,-1.1717
1305831.0,6.7038,-2.2122,38.403,-0.0261,7.8146,-1.3053
1305841.0,6.0813,-2.7773,39.4564,-0.5938,7.6193,-1.5091
1305851.0,5.0278,-3.1603,41.5059,-1.0115,7.2511,-1.7251
1305861.0,4.6926,-2.3655,41.2473,-1.0988,6.9675,-1.906
1305871.0,4.1276,-0.8332,39.897,-1.2866,6.8595,-1.996
1305881.0,3.2848,1.0247,38.2689,-1.5788,6.935,-2.013
1305891.0,3.1125,1.3791,38.336,-1.9965,7.2021,-1.9566
1305901.0,2.4134,0.2969,40.1364,-2.4695,7.1473,-1.9725
1305911.0,1.1971,-0.3831,40.3471,-3.2092,6.4955,-2.1088
1305921.0,0.7949,-0.8045,39.6097,-3.7599,5.9064,-2.2588
1305931.0,0.1341,0.1915,36.5259,-4.0073,5.75,-2.3328
1305941.0,-0.5171,2.1069,33.1357,-4.4016,6.1188,-2.2764
1305951.0,-1.7334,3.6871,31.5364,-4.7842,6.9989,-2.0114
1305962.0,-3.2561,3.5243,33.4518,-4.7262,8.0849,-1.4654
1305971.0,-4.1659,0.7278,37.2059,-4.4517,8.8613,-1.0126
1305981.0,-6.0525,-2.5379,42.5402,-3.7232,9.1726,-0.6673
1305991.0,-7.2018,-5.4779,45.9208,-3.1373,8.9837,-0.5007
1306001.0,-7.2975,-7.9104,48.3341,-2.254,8.7112,-0.4539
1306011.0,-7.6231,-9.7588,48.4778,-1.5032,8.5122,-0.5768
1306021.0,-7.6998,-10.3813,46.754,-1.2265,8.3749,-0.8397
1306031.0,-8.3989,-9.7779,45.7293,-1.5825,8.4978,-1.1728
1306041.0,-9.9982,-9.3948,46.3422,-2.0662,8.7022,-1.3835
1306051.0,-10.9846,-10.726,50.058,-2.2248,9.048,-1.5325
1306061.0,-12.1625,-11.6454,55.2486,-1.8198,9.0784,-1.7145
1306071.0,-13.3118,-12.0476,59.6252,-1.1824,8.6436,-1.9284
1306081.0,-14.4897,-11.8465,63.4272,-0.1101,7.8609,-2.0928
1306091.0,-14.9877,-10.7643,63.2357,0.8104,7.0361,-2.2359
1306101.0,-15.1409,-9.1363,61.1383,1.376,6.3848,-2.3748
1306111.0,-15.5336,-7.039,59.721,1.3308,5.8761,-2.5206
1306121.0,-15.7634,-5.2481,59.3858,1.019,5.311,-2.5999
1306131.0,-15.8113,-2.988,57.6811,0.3384,4.7182,-2.6212
1306141.0,-16.3668,-1.5993,57.1065,-0.6763,4.3016,-2.5488
1306151.0,-17.0946,-2.308,61.1766,-0.8902,4.0717,-2.3918
1306161.0,-18.1864,-2.6815,62.594,-0.3757,3.5582,-2.1529
1306171.0,-18.3013,-3.7733,64.3083,0.3065,3.1336,-1.9805
1306181.0,-18.5024,-4.3862,65.4383,1.0866,2.7015,-1.8805
1306191.0,-18.3779,-5.2672,66.7695,1.7187,1.9768,-1.889
1306201.0,-18.2342,-4.2425,66.4726,2.0045,1.1478,-1.9779
1306211.0,-18.0619,-2.4325,66.1949,2.0018,0.2597,-1.9795
1306221.0,-18.1097,-1.8292,65.3617,1.8555,-0.7168,-1.9124
1306231.0,-17.8416,-1.1492,63.6091,1.3138,-1.7246,-1.9294
1306241.0,-17.3436,-1.2641,61.9236,0.6737,-2.5483,-1.9619
1306251.0,-16.7786,-1.8771,60.966,0.2283,-3.3885,-2.0369
1306261.0,-16.587,-2.5091,59.3379,-0.1804,-4.2404,-2.1928
1306271.0,-15.5815,-2.9018,56.9245,-0.3693,-4.806,-2.3562
1306281.0,-14.1641,-2.8826,55.1433,-0.6917,-5.1205,-2.5845
1306291.0,-13.9917,-2.49,54.0802,-1.0637,-5.6782,-2.8292
1306301.0,-13.1011,-0.8715,52.5767,-1.4138,-6.238,-2.9639
1306311.0,-12.153,0.565,50.3644,-1.6384,-6.4689,-2.9782
1306321.0,-11.8657,1.2833,49.8664,-1.5639,-6.6126,-2.8702
1306331.0,-11.4347,1.6951,48.3437,-1.2765,-6.7951,-2.6888
1306341.0,-11.1187,2.1644,47.9702,-0.746,-6.7663,-2.4568
1306351.0,-10.4962,2.1835,48.0085,0.2687,-6.7498,-2.1194
1306361.0,-9.9886,2.7677,47.1849,1.1552,-6.993,-1.7714
1306371.0,-8.8011,3.3232,45.1259,1.6958,-7.125,-1.4564
1306381.0,-7.0485,4.2713,42.3869,1.5926,-7.1383,-1.176
1306391.0,-6.4548,4.6543,41.8219,1.16,-7.3527,-0.911
1306401.0,-5.3343,4.9608,40.8738,0.5114,-7.8151,-0.6923
1306411.0,-4.2425,4.2425,39.6001,-0.0404,-8.1301,-0.4539
1306421.0,-3.7924,3.2082,38.2593,-0.4443,-8.227,-0.2464
1306431.0,-3.3232,1.2354,38.1636,-0.4198,-8.2834,-0.0947
1306441.0,-2.3463,0.1628,37.3112,-0.1862,-8.2164,-0.0266
1306451.0,-1.5897,-0.4405,36.0279,-0.0788,-8.185,0.0112
1306461.0,-0.4884,-0.7374,35.6161,-0.0649,-8.2398,0.0277
1306471.0,0.5938,-0.0287,34.4669,-0.0596,-8.3834,0.0803
1306481.0,1.5993,0.498,32.7431,-0.0122,-8.434,0.2123
1306491.0,1.9728,1.4078,30.4447,-0.0202,-8.4691,0.4166
1306501.0,2.9688,1.5227,28.5485,0.1809,-8.2036,0.7029
1306511.0,3.5243,1.0726,26.6906,0.5986,-7.7428,1.0413
1306521.0,4.6639,0.1628,25.0338,0.9684,-7.2612,1.3404
1306531.0,6.426,-0.4788,23.2238,1.2819,-6.7674,1.5511
1306541.0,7.853,-0.8906,21.5765,1.2308,-6.2044,1.6831
1306551.0,9.0405,-0.6512,19.6133,1.0142,-5.617,1.8331
1306561.0,10.2663,-0.8045,18.7801,0.696,-5.0082,1.9646
1306571.0,10.8793,-1.4748,19.0483,0.5215,-4.4362,2.1167
1306581.0,11.7507,-1.9537,18.0714,0.4816,-3.9132,2.2253
1306591.0,12.6605,-2.624,17.1425,0.7359,-3.123,2.3594
1306601.0,13.2351,-3.2178,15.9454,1.0435,-2.0806,2.4514
1306611.0,12.8042,-3.7637,15.7443,1.3234,-1.0584,2.5494
1306621.0,13.2256,-4.0414,15.0452,1.5484,0.1463,2.6574
1306631.0,14.4514,-5.3822,16.3859,1.8395,1.6618,2.7388
1306641.0,13.9438,-6.7804,19.4888,1.6581,2.7904,2.6425
1306651.0,13.4458,-8.2648,24.2006,1.3207,3.1847,2.4062
1306661.0,13.6565,-8.6,27.3801,0.895,3.2975,2.0752
1306671.0,13.3884,-8.983,30.5692,0.7652,3.2885,1.6809
1306681.0,12.2009,-6.8283,30.3297,0.348,3.1911,1.3356
1306691.0,11.7124,-5.5545,31.1246,0.1149,3.3603,1.1605
1306701.0,11.1857,-4.6448,31.5173,0.2001,3.9861,1.1265
1306711.0,10.6973,-4.4628,33.4805,0.1745,4.5879,1.0296
1306721.0,9.5672,-3.4668,36.1908,-0.4853,4.7252,0.837
1306731.0,9.0884,-2.3846,40.6823,-1.2249,4.3894,0.696
1306741.0,8.1882,-1.0726,44.5705,-1.5107,3.7647,0.704
1306751.0,7.4029,0.0287,46.6774,-1.4606,2.9399,0.8562
1306761.0,7.5082,1.1684,45.8442,-1.1307,2.1556,1.1015
1306771.0,7.0868,1.9824,43.8043,-0.5779,1.7831,1.3532
1306781.0,7.0868,2.9592,40.9983,0.1394,1.8464,1.674
1306791.0,7.2209,4.051,38.154,0.5348,2.3009,2.0029
1306801.0,6.4835,4.6735,37.2729,0.7024,2.8149,2.3056
1306811.0,5.8131,4.549,37.5124,0.77,3.206,2.6377
1306821.0,6.426,3.3615,39.0734,0.7567,3.5423,2.9644
1306831.0,6.3877,1.9537,40.2226,0.5273,3.6588,3.1118
1306841.0,6.1483,0.8715,42.7126,0.3012,3.4529,3.1054
1306851.0,6.1004,0.5459,43.2489,0.0357,3.149,3.082
1306861.0,6.0334,0.6512,44.2257,-0.0697,2.8787,3.0884
1306871.0,5.4396,1.0534,43.4212,-0.0277,2.7872,3.1091
1306881.0,3.9265,1.1205,43.1818,-0.1793,2.8143,3.1762
1306891.0,3.6105,-0.1149,45.1163,0.2022,3.0091,3.2943
1306901.0,4.1276,-0.996,45.4228,0.505,3.1171,3.2815
1306911.0,3.3806,-1.1971,46.5433,0.4821,2.8399,3.1549
1306921.0,3.304,-0.3926,46.5337,-0.0506,2.4243,2.9718
1306931.0,2.241,0.4597,47.3286,-0.3778,2.005,2.8984
1306941.0,1.4748,1.4269,47.0987,-0.7716,1.5469,2.9154
1306951.0,1.1971,2.4038,45.3653,-1.2286,1.2239,2.9793
1306961.0,0.3735,2.9592,45.7293,-1.7432,1.0302,3.1517
1306971.0,-0.6608,3.4381,45.6143,-2.3211,0.5619,3.3864
1306981.0,-1.6089,3.0358,45.5569,-2.4743,0.216,3.7423
1306991.0,-2.2889,1.8771,45.2791,-2.1875,0.1006,4.2032
1307001.0,-2.624,0.1149,45.2408,-1.5224,-0.0537,4.6517
1307011.0,-2.2218,-2.241,43.699,-0.9844,-0.1809,5.0391
1307021.0,-1.9058,-4.8459,42.0039,-0.5912,-0.306,5.3195
1307031.0,-1.3599,-7.1347,38.834,-0.6279,-0.2884,5.4137
1307041.0,-1.7334,-9.1363,37.5985,-0.6444,-0.1352,5.3791
1307051.0,-2.4708,-9.9503,34.783,-1.0946,0.1075,5.3009
1307061.0,-2.6049,-11.6454,33.605,-1.6086,0.3693,5.2062
1307071.0,-2.4708,-14.1449,32.7527,-2.2083,0.7088,5.1019
1307081.0,-2.1356,-17.0659,33.3273,-2.6925,1.0743,4.888
1307091.0,-1.2929,-20.1209,34.85,-2.8378,1.5761,4.5655
1307101.0,-1.2929,-23.1759,38.0487,-2.5142,1.9262,4.1611
1307111.0,-2.3559,-24.6411,40.9696,-1.3633,2.0683,3.8238
1307121.0,-2.5953,-25.8382,41.6495,0.1953,2.2136,3.5199
1307131.0,-2.4612,-26.6714,41.3143,1.7384,2.5871,3.2156
1307141.0,-1.7334,-26.2788,39.5235,2.452,2.8686,2.7202
1307151.0,-1.7526,-25.752,37.8188,1.9076,2.7893,2.1247
1307161.0,-1.5323,-25.9053,37.8763,0.9493,2.6733,1.4585
1307171.0,-0.9385,-26.2021,36.8803,-0.1383,2.7861,0.7593
1307181.0,-1.6089,-26.681,38.1827,-1.2813,2.9697,0.0154
1307191.0,-2.2218,-27.4759,41.3814,-2.014,2.9878,-0.7077
1307201.0,-2.2984,-28.2803,45.1355,-2.3179,2.8351,-1.4229
1307211.0,-3.5626,-27.6578,48.7747,-2.0651,2.4089,-2.0635
1307221.0,-4.5011,-25.5701,50.4219,-1.5224,1.7576,-2.5664
1307231.0,-5.047,-24.0857,50.7954,-0.3299,1.126,-2.7994
1307241.0,-4.4724,-22.4672,47.9798,1.093,0.8056,-2.9527
1307251.0,-3.8116,-20.7146,43.7852,1.9497,0.8104,-3.1741
1307261.0,-3.6583,-18.9908,40.4429,2.0215,0.9051,-3.4353
1307271.0,-3.869,-17.3244,37.9625,1.5309,0.969,-3.7674
1307281.0,-3.9456,-15.9933,36.2291,0.713,1.1031,-4.1313
1307291.0,-5.1044,-14.9685,36.2961,-0.1399,1.4564,-4.4378
1307301.0,-6.1387,-13.9917,38.9872,-0.5827,1.6607,-4.6677
1307311.0,-6.5314,-13.5512,41.2952,-0.4566,1.6155,-4.7895
1307321.0,-6.3207,-13.0436,42.1092,-0.0388,1.4793,-4.8859
1307331.0,-5.794,-12.3637,41.8602,0.4305,1.383,-5.0051
1307341.0,-5.794,-10.6111,39.8587,0.6912,1.359,-5.0982
1307351.0,-5.612,-9.2225,38.3455,0.5912,1.5277,-5.1716
1307361.0,-6.1579,-8.102,36.8132,0.2389,1.8017,-5.2573
1307371.0,-6.2058,-6.3877,36.7175,-0.2794,2.1194,-5.3158
1307381.0,-6.6655,-5.4492,38.4988,-0.4677,2.5722,-5.2259
1307391.0,-6.9528,-4.5969,40.9887,-0.2182,2.9681,-5.0301
1307401.0,-6.9623,-4.6639,43.3829,0.2687,3.1911,-4.8007
1307411.0,-6.6942,-4.9799,45.2791,0.7141,3.2299,-4.6411
1307421.0,-6.2345,-5.0757,46.4379,0.969,2.9107,-4.6129
1307431.0,-5.6886,-4.8937,46.7157,0.9376,2.4153,-4.6688
1307441.0,-4.7597,-4.2617,45.2887,0.6321,2.055,-4.797
1307451.0,-3.8116,-4.3,44.5417,0.1671,1.8454,-5.0029
1307461.0,-3.5721,-3.1316,42.8658,-0.3092,1.8145,-5.2509
1307471.0,-3.4285,-0.9864,41.9943,-1.0967,1.8273,-5.4941
1307481.0,-3.7062,0.68,43.1148,-1.6602,1.9635,-5.5393
1307491.0,-3.8786,2.1356,43.9575,-1.9576,2.0917,-5.4531
1307501.0,-4.3191,2.375,48.133,-1.6336,2.1822,-5.2472
1307511.0,-4.1084,2.7485,50.6996,-0.6806,2.1503,-4.9822
1307521.0,-3.9744,3.802,52.3372,0.3948,1.8177,-4.7459
1307531.0,-3.5338,5.2098,51.868,1.3031,1.3415,-4.4857
1307541.0,-2.8922,7.5657,49.1099,1.5915,0.8445,-4.2473
1307551.0,-2.8922,9.6534,46.8114,1.3313,0.5513,-4.0116
1307561.0,-2.4804,11.9806,44.2832,0.5896,0.3469,-3.7498
1307571.0,-2.2027,13.4458,44.0916,-0.4145,0.1293,-3.4912
1307581.0,-2.2697,13.8289,43.766,-1.0515,-0.0213,-3.1161
1307591.0,-2.5283,14.6334,43.0861,-1.3431,0.0506,-2.6685
1307601.0,-2.8252,14.8057,43.4883,-1.6192,0.2756,-2.195
1307611.0,-3.4955,14.1449,46.2272,-1.2521,0.3491,-1.6543
1307621.0,-3.6679,13.9726,47.3094,-0.9152,0.1235,-1.1605
1307631.0,-3.6871,14.2886,47.5201,-0.6231,-0.3092,-0.6811
1307641.0,-2.988,14.7962,46.5241,-0.4736,-0.6396,-0.2038
1307651.0,-2.5283,15.6293,44.5609,-0.5518,-0.8301,0.2272
1307661.0,-2.9305,16.4146,43.1531,-1.2159,-0.9754,0.6231
1307671.0,-3.2657,17.1329,41.6016,-2.0816,-1.1824,1.0701
1307681.0,-3.7062,16.9126,42.5689,-2.701,-1.1935,1.6091
1307691.0,-5.0278,15.9262,44.0342,-2.7345,-1.21,2.2402
1307701.0,-5.5067,14.6334,44.1778,-2.3131,-1.1286,2.9655
1307711.0,-6.1579,12.9,44.6471,-1.707,-0.8205,3.6498
1307721.0,-6.4165,10.6877,45.8921,-0.9897,-0.5683,4.3005
1307731.0,-6.608,8.734,47.5488,-0.3416,-0.5683,4.8114
1307741.0,-7.3167,7.0964,48.2192,0.2283,-0.6455,5.2307
1307751.0,-8.0924,6.4931,49.1865,0.539,-0.6784,5.6574
1307761.0,-8.4084,4.5298,50.6038,0.4225,-0.8806,5.9825
1307771.0,-9.0214,2.5187,52.7586,-0.0239,-1.525,6.131
1307781.0,-9.3278,0.9577,54.9421,-0.6002,-2.6015,6.2167
1307791.0,-8.1211,-0.067,55.9286,-1.1435,-3.7232,6.2082
1307801.0,-8.4659,-0.0096,54.0802,-1.5586,-4.8912,6.354
1307811.0,-8.916,-0.3639,52.1744,-1.8395,-5.8139,6.5977
1307821.0,-9.0309,-1.494,49.7802,-1.7906,-6.2459,6.9999
1307831.0,-9.6247,-3.6775,47.9702,-1.4378,-6.3396,7.4826
1307841.0,-9.0692,-7.5178,46.8306,-0.9653,-6.3407,7.9822
1307851.0,-9.0692,-11.9327,47.1083,-0.4566,-6.6812,8.2382
1307861.0,-8.7436,-15.9741,45.4419,-0.1969,-7.4799,8.2744
1307871.0,-7.2592,-19.2398,41.391,-0.0484,-8.2626,8.0354
1307881.0,-5.3822,-21.3275,35.3576,0.1841,-8.4372,7.7039
1307891.0,-3.7254,-22.8694,26.7193,-0.4284,-8.3031,7.2405
1307901.0,-1.8579,-25.4839,21.2222,-1.2271,-7.5741,6.6078
1307911.0,0.7566,-27.0736,16.2901,-1.74,-6.1667,5.924
1307921.0,2.2027,-29.056,16.0412,-1.9656,-4.4868,5.2248
1307931.0,2.3272,-30.4542,17.6692,-1.7075,-2.9841,4.5645
1307941.0,2.557,-32.1781,20.1592,-1.2318,-1.9544,3.8823
1307951.0,3.1412,-32.8484,21.4904,-0.6098,-1.1009,3.14
1307961.0,2.9401,-32.0536,22.3427,-0.0979,-0.2352,2.4456
1307971.0,2.3559,-30.4734,24.1048,0.6055,0.5497,1.9294
1307981.0,1.5897,-28.1175,24.8518,1.5921,1.2584,1.5921
1307991.0,1.3982,-25.0625,22.4863,1.8475,1.8746,1.3702
1308001.0,1.3599,-23.7313,21.5478,1.5224,2.4658,1.2042
1308011.0,1.8292,-23.7313,21.3371,1.0334,3.4875,1.0307
1308021.0,1.3695,-24.8614,23.4344,0.4395,4.4288,0.7497
1308031.0,0.4118,-26.3075,27.3801,-0.2559,4.9838,0.3555
1308041.0,-0.4788,-27.1119,31.8908,-0.6859,5.1572,-0.1277
1308051.0,-1.3791,-27.3418,35.9322,-0.7748,5.2009,-0.5938
1308061.0,-2.739,-26.6235,40.3279,-0.4028,5.078,-0.9743
1308071.0,-3.6583,-25.9627,41.3814,0.0841,4.7289,-1.2739
1308081.0,-3.9456,-25.8861,41.956,0.5811,4.465,-1.5735
1308091.0,-3.5051,-26.0585,41.9081,1.0057,4.4852,-1.9651
1308101.0,-3.3806,-25.8286,42.0326,1.0759,4.4724,-2.4514
1308111.0,-3.8211,-25.3019,42.7126,0.8551,4.1845,-3.0362
1308121.0,-3.9744,-23.3004,42.3295,0.0516,3.8903,-3.6365
1308131.0,-4.8171,-21.9788,43.1722,-0.704,3.6593,-4.1473
1308141.0,-5.2768,-20.2166,43.5553,-1.5341,3.4497,-4.5607
1308151.0,-6.9719,-18.6843,45.1163,-2.096,3.0426,-4.8332
1308161.0,-7.3741,-18.3779,45.9878,-1.9699,2.61,-4.9486
1308171.0,-6.4452,-18.8088,44.3023,-1.3031,2.6973,-5.0966
1308181.0,-6.4548,-18.6748,41.9943,-1.2329,2.883,-5.4174
1308191.0,-6.2632,-18.828,40.6823,-1.3739,2.95,-5.8304
1308201.0,-5.679,-17.7458,38.5466,-1.8411,3.3496,-6.3178
1308211.0,-6.5314,-16.0028,39.3607,-2.2913,3.9062,-6.7355
1308221.0,-7.4029,-13.8768,42.4731,-1.9491,4.5347,-6.9627
1308231.0,-8.6191,-10.3334,44.9918,-1.0057,5.161,-6.9095
1308241.0,-10.4579,-7.1251,46.9838,-0.4512,5.4302,-6.6817
1308251.0,-10.7548,-6.359,51.0252,0.1517,5.5334,-6.3311
1308261.0,-10.8793,-5.4684,52.6437,0.3539,5.3238,-6.0703
1308271.0,-10.9846,-6.2441,55.6796,-0.0154,4.8114,-5.9634
1308281.0,-9.9503,-6.8187,58.8686,-0.0362,4.3548,-5.9038
1308291.0,-9.5672,-6.1675,60.8989,-0.1745,3.7253,-5.9751
1308301.0,-9.0214,-4.5394,62.1631,-1.0935,2.7989,-6.1102
1308311.0,-9.1267,-2.9113,63.3218,-2.3578,1.4575,-6.164
1308321.0,-9.3087,-1.3982,63.3218,-3.6168,0.3161,-6.1869
1308331.0,-10.6398,-0.8906,64.0976,-4.0653,-0.5204,-5.9362
1308341.0,-11.0995,-2.9592,65.7735,-3.6077,-1.0743,-5.618
1308351.0,-10.2568,-5.7557,66.6546,-2.7734,-1.831,-5.4898
1308361.0,-9.9216,-6.2824,64.653,-2.5488,-2.9958,-5.6638
1308371.0,-8.916,-4.4053,61.9524,-2.5935,-3.902,-5.9405
1308381.0,-9.1459,-0.2682,58.7824,-3.2491,-4.4272,-6.0501
1308391.0,-10.0173,2.8443,58.1791,-3.9451,-5.1179,-5.8463
1308401.0,-10.4387,4.9416,57.796,-4.3277,-5.8484,-5.3807
1308411.0,-10.1035,5.9089,56.5798,-4.4155,-6.5221,-4.6943
1308421.0,-8.9543,5.0182,55.6891,-4.2574,-7.0845,-3.9504
1308431.0,-8.1403,3.1987,53.8887,-4.0818,-7.7539,-3.305
1308441.0,-6.6846,1.1301,51.7722,-3.7791,-8.4771,-2.8016
1308451.0,-5.4013,-0.2203,48.1713,-3.4135,-8.8719,-2.3865
1308461.0,-4.1468,-1.2737,45.2217,-2.9937,-9.1108,-1.9827
1308471.0,-3.3136,-1.8866,41.6495,-2.5972,-9.3721,-1.5788
1308481.0,-2.6528,-2.1356,37.1484,-2.5611,-9.5264,-1.1637
1308491.0,-1.245,-2.8347,31.9482,-2.958,-9.4062,-0.7588
1308501.0,0.5746,-5.2481,29.3433,-3.3683,-9.0225,-0.3948
1308511.0,2.4325,-8.9256,28.7304,-3.4502,-8.5436,-0.1655
1308521.0,3.1412,-11.6933,28.3569,-3.4327,-8.2775,-0.1027
1308531.0,3.8595,-13.9055,28.2707,-3.0256,-8.1216,-0.041
1308541.0,5.0949,-16.1369,27.5333,-2.0566,-7.8125,0.0889
1308551.0,6.2441,-18.4449,25.1774,-1.0355,-7.4267,0.158
1308561.0,7.8338,-20.6667,22.6779,-0.2453,-6.8382,0.0873
1308571.0,9.0884,-22.1703,20.6763,0.182,-6.231,-0.091
1308581.0,10.3621,-23.9229,20.4273,0.332,-5.766,-0.3975
1308591.0,10.9559,-24.4687,20.0826,0.4369,-5.4201,-0.7939
1308601.0,11.2336,-24.5549,18.7514,0.3815,-5.0955,-1.1467
1308611.0,12.1817,-24.689,18.2342,0.4028,-4.574,-1.5155
1308621.0,12.4786,-24.1527,17.6884,0.7184,-3.8147,-1.7868
1308631.0,13.6757,-23.3195,18.9717,1.1552,-2.8936,-1.9353
1308641.0,13.7044,-22.5534,21.9883,1.5447,-2.2806,-2.038
1308651.0,14.03,-21.8734,24.1431,1.5506,-2.3647,-2.1018
1308661.0,14.8441,-21.4137,25.7712,1.4521,-2.6201,-2.17
1308671.0,15.1888,-21.0402,25.7616,1.591,-2.7686,-2.2162
1308681.0,15.5719,-20.9445,25.2923,1.8581,-2.8255,-2.2317
1308691.0,15.5527,-20.571,24.3251,2.0337,-2.7723,-2.2375
1308701.0,16.453,-22.4672,24.2772,2.3583,-2.3647,-2.2774
1308711.0,17.1904,-23.9516,24.8805,2.9213,-1.9465,-2.5052
1308721.0,17.5447,-24.0378,26.1064,3.2789,-1.6352,-2.8367
1308731.0,18.4449,-22.7736,26.997,3.7232,-1.5798,-3.1842
1308741.0,18.3013,-20.9157,27.6291,3.5721,-1.6261,-3.5268
1308751.0,17.8703,-18.4737,27.428,3.2427,-1.9529,-3.8365
1308761.0,17.334,-16.4242,26.6523,2.8287,-2.1061,-4.0174
1308771.0,16.9126,-14.8153,25.618,2.6505,-2.0428,-4.1175
1308781.0,17.4106,-13.465,24.9093,2.6701,-1.8283,-4.1409
1308791.0,19.0195,-12.9,24.2964,2.7345,-1.4835,-4.1643
1308801.0,20.1975,-11.7986,23.8271,2.6372,-1.177,-4.2468
1308811.0,20.638,-10.5632,24.0665,2.3812,-0.9514,-4.3319
1308821.0,21.069,-9.3278,23.7601,2.2051,-0.6992,-4.3372
1308831.0,20.7242,-8.4084,24.4592,1.9619,-0.4528,-4.3096
1308841.0,20.6189,-7.8338,25.6754,2.0641,-0.2554,-4.2234
1308851.0,19.891,-6.7421,25.1487,2.3764,-0.0208,-4.0457
1308861.0,20.1975,-6.6942,24.756,2.8229,0.4901,-3.8158
1308871.0,21.318,-7.6998,24.7369,3.1783,1.0382,-3.7296
1308881.0,22.4193,-8.169,24.3634,3.0591,1.4032,-3.8387
1308891.0,23.2142,-8.2552,24.5262,2.7021,1.8379,-4.0786
1308901.0,22.6779,-7.7764,26.6331,2.46,2.2971,-4.3101
1308911.0,22.0075,-6.7516,28.6347,2.3902,2.6302,-4.4894
1308921.0,20.9541,-4.7309,29.9754,2.4738,2.8729,-4.6358
1308931.0,19.642,-2.1452,31.4885,2.3791,3.0219,-4.6576
1308941.0,19.5367,0.6321,32.36,1.9773,2.9431,-4.5714
1308951.0,19.5558,2.3367,33.107,1.2398,2.593,-4.4208
1308961.0,19.6229,3.5147,32.7431,0.5656,2.3498,-4.2479
1308971.0,19.6325,4.4532,33.2315,0.1623,2.2604,-4.0377
1308981.0,19.393,5.0853,33.2411,0.3821,2.4147,-3.6875
1308991.0,18.7418,5.6886,32.5516,0.8338,2.7468,-3.2842
1309001.0,18.2342,5.1906,32.8389,1.3324,3.2459,-2.8787
1309011.0,17.5256,4.6543,34.0839,1.7783,3.5939,-2.5685
1309021.0,16.3763,4.4245,34.2658,1.905,3.5795,-2.4105
1309031.0,16.52,5.0566,33.5284,1.574,3.455,-2.2769
1309041.0,16.7977,5.296,33.4039,0.97,3.3576,-2.1817
1309051.0,17.267,5.8897,32.6569,0.3629,3.3949,-2.1066
1309061.0,17.2861,6.3303,32.3409,0.0314,3.8184,-1.9976
1309071.0,16.4721,6.8283,33.4518,-0.0208,4.4793,-1.7969
1309081.0,15.4953,5.861,37.3591,0.2703,4.8715,-1.5165
1309091.0,14.7196,4.7405,40.7206,0.6167,4.7097,-1.3697
1309101.0,14.6908,4.4724,41.2282,0.5837,4.0462,-1.3627
1309111.0,15.1026,5.5737,40.0694,0.1868,3.5391,-1.3872
1309121.0,15.3708,7.5274,38.0774,-0.2645,3.3385,-1.3824
1309131.0,15.5049,9.2416,36.1908,-0.7583,3.4646,-1.2952
1309141.0,14.9302,11.3294,35.3767,-1.2409,3.8775,-1.1116
1309151.0,14.777,12.3924,37.1197,-1.4889,4.408,-0.7907
1309161.0,11.722,13.6374,38.6616,-1.3814,4.607,-0.2953
1309171.0,10.8218,13.5416,41.4293,-1.1483,4.698,0.2559
1309181.0,10.5919,13.1298,43.1531,-0.571,4.6868,0.8141
1309191.0,9.8162,12.9191,43.8426,-0.3656,4.3974,1.2451
1309201.0,10.0461,12.785,43.6224,-0.2841,4.0675,1.6336
1309211.0,9.8833,13.0053,42.7413,-0.1027,4.0185,2.0018
1309221.0,10.1323,13.7906,41.2377,-0.0378,4.2367,2.3881
1309231.0,8.9926,15.3612,39.7916,-0.6891,4.5134,2.8127
1309241.0,7.2975,14.1833,42.0613,-1.144,4.8023,3.4146
1309251.0,7.2209,10.8122,45.2887,-1.2914,4.8891,3.9477
1309261.0,6.4739,7.422,47.2424,-1.6581,4.5368,4.2707
1309271.0,5.679,4.5873,49.3206,-1.9773,4.1148,4.5384
1309281.0,6.0717,1.494,50.8816,-2.0678,3.6657,4.7566
1309291.0,5.9472,-1.6281,50.4698,-2.0933,3.0469,4.8561
1309301.0,5.928,-4.1276,49.3014,-2.1721,2.6217,4.8385
1309311.0,5.8897,-6.1675,47.1754,-2.2162,2.5339,4.7885
1309321.0,5.0949,-7.0677,44.4651,-2.5627,2.4685,4.6656
1309331.0,4.3862,-8.5904,42.5306,-3.2725,2.436,4.5927
1309341.0,3.6105,-11.4826,42.3103,-3.5774,2.4929,4.5235
1309351.0,4.0318,-14.461,41.8506,-3.6657,2.7138,4.3889
1309361.0,4.6735,-17.0467,41.6016,-3.2752,3.0197,4.1244
1309371.0,4.5011,-18.1672,41.6974,-2.9857,3.4385,3.7727
1309381.0,3.8978,-18.3875,42.7604,-2.4839,3.8615,3.4976
1309391.0,2.4804,-17.516,43.2201,-2.3078,4.1404,3.3018
1309401.0,1.9249,-19.077,46.2464,-2.0327,4.3479,3.2267
1309411.0,2.1069,-22.0171,48.5065,-1.8182,4.3186,2.9777
1309421.0,2.4612,-25.4456,51.6764,-1.6549,3.9504,2.4935
1309431.0,3.3232,-28.4431,54.0611,-1.5415,3.3119,1.7762
1309441.0,3.0646,-29.4391,54.4825,-1.8528,2.2152,0.8115
1309451.0,3.4572,-29.42,52.7969,-2.6723,0.9397,-0.1708
1309461.0,4.0031,-28.6538,49.8569,-3.1134,0.1735,-1.0648
1309471.0,4.3096,-26.3649,46.3517,-3.5066,0.1,-1.8651
1309481.0,3.8499,-24.5645,44.6854,-3.8046,0.3124,-2.4296
1309491.0,3.304,-23.6451,44.8961,-3.7705,0.5241,-2.8745
1309501.0,2.5762,-22.7066,45.6048,-3.7051,0.3884,-3.2656
1309511.0,2.7102,-21.452,46.3326,-3.5183,0.1368,-3.5439
1309521.0,2.8635,-20.3603,46.0166,-3.1655,-0.0053,-3.7195
1309531.0,2.4229,-19.3164,45.9304,-2.6111,-0.199,-3.7998
1309541.0,2.4421,-18.0523,44.8578,-1.856,-0.3384,-3.7929
1309551.0,2.1548,-16.3476,42.5976,-1.2691,-0.3821,-3.769
1309561.0,2.2027,-15.1218,40.5674,-0.9791,-0.257,-3.6647
1309571.0,1.7526,-14.2311,39.2458,-0.8764,-0.0803,-3.463
1309581.0,2.7102,-16.089,39.6959,-0.6369,0.2123,-3.3443
1309591.0,2.7007,-17.5351,40.0311,-0.4821,0.3778,-3.4183
1309601.0,2.8635,-18.8472,41.3622,-0.1836,0.398,-3.6072
1309611.0,3.2944,-18.6077,42.4061,0.4933,0.4555,-3.8195
1309621.0,3.0263,-17.4872,42.7413,1.0866,0.4635,-4.0079
1309631.0,2.7485,-15.8017,42.5019,1.4692,0.3241,-4.1835
1309641.0,2.6528,-13.7427,42.4923,1.6357,0.1894,-4.2936
1309651.0,2.557,-12.1051,43.019,1.9656,0.2017,-4.3032
1309661.0,2.2314,-10.1514,43.4691,2.1561,0.1075,-4.3277
1309671.0,2.2027,-8.4372,44.3119,2.1316,-0.0995,-4.2851
1309681.0,2.1548,-7.4316,45.1642,2.1657,-0.3688,-4.2228
1309691.0,2.1739,-6.608,46.1889,2.2301,-0.7466,-4.1861
1309701.0,2.1644,-5.2002,45.758,2.0417,-1.2308,-4.1712
1309711.0,2.4229,-4.0414,46.3709,1.8102,-1.7012,-4.1659
1309721.0,1.6185,-2.7102,45.825,1.6043,-2.3211,-4.1164
1309731.0,1.6568,-2.2601,45.5569,1.2904,-2.9133,-4.0063
1309741.0,2.2314,-1.9058,42.7126,1.0147,-3.4508,-3.9366
1309751.0,2.7485,-1.8675,40.5386,0.5103,-3.8408,-3.9132
1309761.0,3.1891,-2.4421,37.9625,0.107,-4.0632,-3.8759
1309771.0,4.2713,-3.0646,35.0224,-0.3624,-4.0499,-3.9456
1309781.0,5.3822,-3.0071,31.613,-0.9716,-3.8211,-4.109
1309791.0,5.7652,-2.6049,30.1765,-1.6096,-3.4907,-4.2878
1309801.0,5.8035,-1.6951,29.8701,-2.1008,-3.1741,-4.3495
1309811.0,6.1675,-1.1301,29.7168,-2.196,-2.6419,-4.2947
1309821.0,6.6846,-0.8523,29.8509,-2.1572,-2.2099,-4.1856
1309831.0,7.2784,-0.1149,29.8318,-2.2668,-1.9438,-4.0685
1309841.0,7.7764,0.4214,30.4064,-2.3269,-1.8156,-3.8445
1309851.0,8.6095,0.7374,30.1382,-2.2993,-1.6373,-3.5646
1309861.0,9.2895,0.2777,30.0712,-1.93,-1.433,-3.2406
1309871.0,9.8641,-0.5267,29.6019,-1.326,-1.0828,-2.9149
1309881.0,10.3717,-1.312,28.9986,-0.5513,-0.6444,-2.6238
1309891.0,10.5058,-1.0822,28.1367,0.1713,-0.158,-2.3466
1309901.0,10.8122,0.0958,27.6865,0.944,0.3927,-1.9385
1309911.0,11.5113,0.6704,26.8917,1.6315,1.0456,-1.4372
1309921.0,12.2009,0.3543,25.8861,1.7246,1.566,-1.0445
1309931.0,12.651,-0.0479,25.6563,1.4979,2.0822,-0.738
1309941.0,12.8138,-1.3695,27.3801,1.3356,2.7244,-0.4943
1309951.0,12.2296,-3.2178,29.2188,1.3026,3.0841,-0.3656
1309961.0,11.7507,-4.4915,30.6075,1.0318,3.1341,-0.4076
1309971.0,10.6686,-5.1619,32.3696,0.8934,3.0942,-0.4895
1309981.0,10.4962,-5.4109,33.2219,0.977,3.0985,-0.5534
1309991.0,10.3621,-5.0566,33.04,1.0797,3.0267,-0.6306
1310001.0,10.5058,-4.1946,32.475,1.2249,3.1607,-0.6407
1310011.0,10.6877,-3.2944,30.9235,1.4218,3.5997,-0.6109
1310021.0,10.161,-1.8771,29.8605,1.1611,4.2298,-0.5816
1310031.0,8.7819,-1.3599,31.728,0.8195,4.7076,-0.5103
1310041.0,7.9296,-1.3408,33.8732,0.5119,5.0556,-0.3815
1310051.0,6.8761,-2.0782,36.0279,0.248,5.1003,-0.3065
1310061.0,6.292,-2.3463,37.7613,-0.0905,4.8172,-0.2996
1310071.0,5.9568,-2.2697,38.6616,-0.257,4.5453,-0.2081
1310081.0,5.6599,-2.0207,38.5275,0.0468,4.6326,-0.0644
1310091.0,5.9472,-2.9497,38.5658,0.4417,5.0822,0.0841
1310101.0,5.0853,-3.486,38.7095,0.6832,5.5228,0.1288
1310111.0,4.5873,-3.2944,40.3662,0.6279,5.7058,0.1
1310121.0,3.6105,-3.122,42.1858,0.4363,5.6952,0.0649
1310131.0,2.5474,-2.5474,43.3542,0.182,5.4648,0.0633
1310141.0,1.992,-2.4612,44.3215,-0.0676,5.1391,0.1091
1310151.0,1.5419,-2.3272,44.7045,-0.1623,4.8603,0.1921
1310161.0,1.5419,-2.6049,44.6471,-0.0415,4.7081,0.3161
1310171.0,1.3503,-2.3655,43.2297,0.1155,4.6853,0.4198
1310181.0,1.1013,-2.1835,42.3008,0.1868,4.8608,0.4922
1310191.0,0.3256,-1.6664,41.8506,0.1932,5.1269,0.5651
1310201.0,-0.996,-1.3982,44.5609,0.5497,5.4573,0.7476
1310211.0,-2.4421,-1.1875,49.1673,1.6096,5.675,1.0142
1310221.0,-3.869,-0.2969,51.6669,3.3363,5.3967,1.4782
1310231.0,-3.6871,0.2873,50.4027,4.5379,5.145,1.9592
1310241.0,-3.3902,-0.1341,47.0317,4.9173,5.0918,2.2498
1310251.0,-3.1795,-1.7621,45.2696,4.258,4.9614,2.237
1310261.0,-3.371,-4.4436,45.2504,3.2725,4.8092,2.0204
1310271.0,-2.3655,-7.1635,46.2464,2.246,4.7358,1.5245
1310281.0,-2.5762,-8.7436,47.3669,1.0227,4.2824,0.8599
1310291.0,-3.1316,-9.3182,48.6789,-0.0952,3.7243,0.1681
1310301.0,-3.8499,-9.1554,48.7459,-0.8035,3.2347,-0.4156
1310311.0,-4.6735,-8.5712,48.0851,-1.3569,2.7808,-0.8391
1310321.0,-4.5777,-9.232,47.4339,-1.2175,2.6265,-1.1398
1310331.0,-4.5394,-9.4044,46.0644,-0.4965,2.9931,-1.358
1310341.0,-4.6064,-9.8545,46.1315,0.3437,3.7306,-1.566
1310351.0,-5.0853,-10.1706,48.7747,1.0743,4.1494,-1.8624
1310361.0,-5.4684,-9.5289,50.9486,1.376,3.82,-2.2109
1310371.0,-5.2194,-8.6,52.0116,1.0967,3.0432,-2.6414
1310381.0,-5.1811,-7.4508,50.8145,0.2123,2.188,-3.0847
1310391.0,-5.114,-6.9145,50.3261,-0.3288,1.6772,-3.4231
1310401.0,-5.1332,-5.9472,48.5927,-0.555,1.7198,-3.6955
1310411.0,-5.8419,-6.0621,49.5504,-0.8248,1.8592,-3.9403
1310421.0,-6.4739,-6.1675,51.5903,-0.9275,1.7969,-4.2026
1310431.0,-6.7325,-6.7325,55.1433,-0.8945,1.5453,-4.5432
1310441.0,-6.2537,-6.1292,57.8535,-0.4949,0.9296,-4.8784
1310451.0,-6.608,-4.2138,58.5718,-0.357,-0.0431,-5.2301
1310461.0,-6.5984,-1.494,57.4991,-0.3416,-0.9817,-5.4744
1310471.0,-6.7133,1.5131,55.239,-0.4273,-1.7065,-5.5686
1310481.0,-6.7421,4.0127,52.6724,-0.7008,-2.1912,-5.5271
1310491.0,-6.7038,5.6599,51.121,-1.0461,-2.4999,-5.4361
1310501.0,-6.9528,7.3933,49.5504,-1.5245,-2.9431,-5.27
1310511.0,-6.4739,8.2552,48.0181,-2.2067,-3.3997,-5.062
1310521.0,-5.8993,7.9487,46.5145,-2.5164,-3.6721,-4.7534
1310531.0,-4.9895,7.0006,44.8482,-3.0373,-4.0159,-4.6347
1310541.0,-4.1372,5.8323,43.335,-3.2193,-4.275,-4.607
1310551.0,-3.4093,5.5737,41.0749,-3.0096,-4.0957,-4.5794
1310561.0,-3.3806,7.039,39.2074,-2.6872,-3.753,-4.5091
1310571.0,-3.4668,9.1937,37.6656,-2.5031,-3.4098,-4.3144
1310581.0,-3.5147,11.2527,36.9856,-2.3397,-3.0421,-3.9132
1310591.0,-3.4093,12.9574,37.2729,-2.3131,-2.6829,-3.4236
1310601.0,-3.4764,15.0547,36.8516,-2.3189,-2.5243,-2.7808
1310611.0,-3.5913,15.5144,37.6752,-2.4493,-2.3056,-2.0289
1310621.0,-3.2465,14.4706,39.0159,-2.1955,-2.113,-1.2451
1310631.0,-2.988,13.3309,39.466,-2.1721,-2.2061,-0.5252
1310641.0,-2.7581,12.22,40.2034,-2.0364,-2.3142,0.1458
1310651.0,-2.6145,11.4156,39.4756,-1.7836,-2.1886,0.854
1310661.0,-2.4229,9.8354,41.0079,-1.3952,-1.8587,1.5091
1310671.0,-2.9401,8.7149,42.1858,-1.119,-2.0231,2.0651
1310681.0,-3.0646,8.0445,42.0901,-1.1121,-2.5233,2.5802
1310691.0,-2.4708,7.8913,39.2841,-1.7288,-2.593,3.0506
1310701.0,-2.8922,5.7844,40.5769,-2.4584,-3.0596,3.3938
1310711.0,-3.1603,4.5969,38.9968,-3.4768,-3.8105,3.5769
1310721.0,-2.6624,3.984,36.8132,-4.3197,-4.0632,3.8307
1310731.0,-2.8443,3.6392,35.2043,-4.7587,-3.8993,4.2675
1310741.0,-2.9784,2.1835,34.8596,-4.7523,-3.6524,4.8188
1310751.0,-3.2178,0.3256,33.5859,-4.6751,-3.3991,5.4558
1310761.0,-2.1644,-3.1699,33.3464,-4.4431,-2.9777,5.9831
1310771.0,-0.5555,-6.0717,32.6186,-4.2585,-2.3386,6.3593
1310781.0,0.1149,-8.6862,34.601,-4.1191,-1.8315,6.5615
1310791.0,-0.2777,-10.1131,36.1046,-3.869,-1.6911,6.6908
1310801.0,-1.2067,-10.41,36.095,-4.109,-1.8118,6.7626
1310811.0,-1.9154,-9.912,35.5012,-4.4756,-2.2152,6.885
1310821.0,-2.5953,-9.4715,33.6816,-4.7475,-2.4004,7.1436
1310831.0,-3.1508,-9.6822,31.297,-4.648,-2.2556,7.6193
1310841.0,-3.4955,-11.8848,28.0984,-4.4197,-1.8273,8.1866
1310851.0,-2.3942,-15.9645,25.7137,-4.0472,-1.0722,8.6639
1310861.0,-0.8715,-21.0115,23.8654,-3.6258,0.1591,8.8421
1310871.0,-0.1724,-26.2404,23.3674,-3.4625,1.2962,8.6644
1310881.0,0.6033,-30.7224,26.2979,-3.3379,2.2221,8.0902
1310891.0,1.2929,-33.1166,27.9068,-3.173,2.8431,7.2623
1310901.0,1.2929,-33.8732,30.8277,-3.2448,3.1331,6.264
1310911.0,0.067,-32.4271,32.2547,-3.215,3.156,5.3217
1310921.0,-0.8428,-30.6458,32.9155,-2.966,3.3874,4.6964
1310931.0,-1.5131,-29.9467,34.0934,-2.5137,3.7615,4.2526
1310941.0,-2.1261,-30.6075,35.7694,-2.2418,3.8844,3.8818
1310951.0,-2.2314,-32.293,38.0678,-1.5618,3.8844,3.4438
1310961.0,-1.7047,-32.9442,38.4988,-0.7657,4.0308,2.8841
1310971.0,-1.9345,-32.2738,39.0829,-0.1197,4.0414,2.245
1310981.0,-2.375,-30.3202,39.3511,0.1804,3.795,1.5846
1310991.0,-2.059,-28.1175,39.5235,0.3001,3.4151,0.9738
1311001.0,-1.8196,-25.3402,39.1308,0.3672,2.7851,0.4214
1311011.0,-2.1835,-21.634,34.6585,0.2102,2.2727,0.0303
1311021.0,-1.8292,-18.9429,31.5939,0.1815,2.7063,-0.1607
1311031.0,-1.8387,-17.4777,30.732,0.4092,3.6109,-0.2682
1311041.0,-3.802,-15.524,32.6665,0.5044,4.2622,-0.3368
1311051.0,-4.9512,-13.283,35.166,0.6683,4.4485,-0.2852
1311061.0,-5.6024,-11.5975,38.0103,0.6678,4.4506,-0.1176
1311071.0,-6.8091,-10.5441,41.3622,0.828,4.0185,0.0729
1311081.0,-7.8434,-9.4427,42.0805,1.1898,3.5795,0.3688
1311091.0,-8.169,-9.347,42.6838,2.0258,3.6934,0.7524
1311101.0,-8.1594,-9.7396,43.9958,2.9793,4.0802,1.119
1311111.0,-8.8681,-10.2376,46.2847,3.6764,4.1994,1.3367
1311121.0,-9.481,-9.2895,49.1482,3.968,4.0159,1.409
1311131.0,-10.7739,-7.7285,51.5136,3.6349,3.2177,1.4777
1311141.0,-11.4826,-5.4779,52.3756,2.9091,2.0694,1.624
1311151.0,-12.8712,-4.0893,51.4562,2.2519,1.259,1.9401
1311161.0,-13.034,-5.6024,52.2798,2.2439,1.1095,2.4818
1311171.0,-13.4171,-8.1786,53.247,2.6765,0.8647,2.8739
1311181.0,-12.9,-10.8409,54.7793,2.8388,0.4773,2.9665
1311191.0,-13.3118,-11.6358,54.1185,2.8127,-0.2315,2.949
1311201.0,-13.1873,-13.0532,54.1281,2.6015,-0.9264,2.9053
1311211.0,-13.1681,-14.8153,53.18,2.6377,-1.5926,2.8181
1311221.0,-12.967,-17.1808,51.7531,2.8505,-2.2865,2.6302
1311231.0,-13.3596,-18.4449,48.2767,3.4295,-2.5882,2.3679
1311241.0,-13.5512,-17.8703,43.9863,3.7482,-2.5063,2.1465
1311251.0,-13.8002,-18.1289,40.8547,3.7344,-2.3503,1.9321
1311261.0,-13.532,-17.9661,38.0965,3.1123,-2.5222,1.6873
1311271.0,-12.2966,-19.1249,34.352,1.8283,-2.7925,1.409
1311281.0,-9.9024,-22.8503,32.5707,0.6971,-2.8223,0.9211
1311291.0,-7.7189,-25.8286,30.2244,0.2373,-2.5063,0.2075
1311301.0,-6.6655,-27.179,29.1901,0.0729,-1.9725,-0.6508
1311311.0,-6.4165,-25.5797,28.7496,0.2426,-1.7331,-1.467
1311321.0,-6.177,-22.5342,26.9779,0.6529,-1.4692,-1.9789
1311331.0,-5.0853,-19.4601,23.7984,1.0531,-0.7221,-2.1907
1311341.0,-5.6982,-17.0276,21.1935,0.9349,0.0149,-2.2285
1311351.0,-5.2864,-16.4242,20.6763,0.4113,0.6306,-2.2439
1311361.0,-4.3191,-15.9358,19.0962,-0.3166,1.1978,-2.2902
1311371.0,-4.7692,-15.5527,18.9046,-1.358,1.6948,-2.3961
1311381.0,-4.7884,-17.1521,20.5997,-1.9018,2.3562,-2.3871
1311391.0,-4.9512,-19.393,21.9405,-1.8682,2.8154,-2.5094
1311401.0,-5.5258,-20.1592,21.3275,-1.9672,3.2501,-2.7292
1311411.0,-4.8459,-21.3275,21.5478,-1.4452,4.2777,-2.8585
1311421.0,-5.9185,-22.314,21.701,-0.994,5.6947,-3.0176
1311431.0,-7.4603,-24.6794,26.0489,-0.7875,6.785,-3.2959
1311441.0,-8.5712,-27.3801,31.5843,-0.339,7.4661,-3.7557
1311451.0,-10.1418,-29.1901,36.1716,-0.4182,7.5565,-4.4841
1311461.0,-11.5401,-30.9522,41.4197,-0.315,7.307,-5.3552
1311471.0,-12.4115,-30.7224,43.1914,-0.9376,7.0414,-6.487
1311481.0,-14.1928,-29.9563,48.5736,-1.7959,6.6381,-7.6906
1311491.0,-16.7498,-27.2364,54.7889,-2.3679,5.7846,-8.8485
1311501.0,-19.1057,-22.3427,60.4775,-2.5967,4.3979,-9.8106
1311511.0,-21.1264,-15.7347,63.274,-2.643,2.7702,-10.3459
1311521.0,-22.0362,-10.0173,65.4,-1.9763,1.5889,-10.3666
1311531.0,-21.9022,-4.3862,65.965,-0.9104,0.63,-10.1101
1311541.0,-23.0897,2.2027,65.9555,-0.2692,-0.7567,-9.6451
1311551.0,-23.0418,8.8777,63.5996,-0.1548,-2.3913,-8.881
1311561.0,-22.0745,14.1162,60.2956,-0.1884,-3.6471,-7.7954
1311571.0,-21.452,16.9222,57.1448,-0.1208,-4.6948,-6.5189
1311581.0,-19.7761,18.3779,51.935,-0.2033,-5.7825,-5.3073
1311591.0,-17.5447,18.5407,45.0589,-0.654,-6.4348,-4.2165
1311601.0,-14.9877,17.6884,38.4221,-1.5628,-6.587,-3.3406
1311611.0,-12.5552,16.9701,33.9689,-2.1034,-6.1576,-2.6377
1311621.0,-11.1666,17.7841,31.2204,-2.6611,-5.3802,-1.9172
1311631.0,-11.0804,17.9948,32.111,-2.9426,-4.8406,-1.1009
1311641.0,-9.7683,18.7705,31.6897,-2.9958,-4.4415,-0.1884
1311651.0,-8.9256,18.4737,31.2491,-3.1581,-4.2159,0.8131
1311661.0,-7.6902,17.6596,29.9563,-3.2964,-4.0989,1.8464
1311671.0,-5.8131,16.9031,27.3418,-3.5556,-3.8504,2.9346
1311681.0,-5.2002,14.9015,24.9859,-3.9552,-3.2943,4.1106
1311691.0,-4.6831,10.9942,23.2333,-4.2335,-2.7116,5.2839
1311701.0,-4.0414,5.2672,21.701,-4.3527,-2.112,6.3077
1311711.0,-3.5243,-0.7087,19.6612,-4.3404,-1.3138,7.1058
1311721.0,-2.4134,-7.3358,18.6269,-4.052,-0.1979,7.6161
1311731.0,-1.5514,-13.9917,19.2015,-3.7163,1.0413,7.7508
1311741.0,-1.1205,-19.7857,20.8774,-3.2597,2.0407,7.523
1311751.0,-0.4884,-23.6739,22.812,-2.8202,2.7356,6.9334
1311761.0,-1.3024,-24.1527,22.2852,-2.767,3.2214,6.3417
1311771.0,-1.8771,-25.2157,22.6491,-3.1719,3.5928,5.8623
1311781.0,-2.4708,-27.5237,23.1663,-3.4013,4.1659,5.4536
1311791.0,-2.0016,-31.5173,25.1487,-2.9915,5.1375,4.9486
1311801.0,-2.241,-34.2562,29.2188,-2.1114,5.9107,4.2228
1311811.0,-3.122,-34.6968,33.1645,-1.2526,5.9469,3.3332
1311821.0,-3.9648,-32.858,34.2467,-0.357,5.625,2.5345
1311831.0,-4.4149,-29.2476,33.0113,0.3555,5.658,1.8677
1311841.0,-5.8802,-24.124,31.2204,0.688,6.2837,1.4867
1311851.0,-8.6957,-19.4313,32.8101,0.4629,6.7807,1.4058
1311861.0,-11.1282,-15.773,35.8268,-0.0223,7.2287,1.5415
1311871.0,-13.7236,-14.2886,42.1475,-0.1745,7.6789,1.881
1311881.0,-15.9262,-14.461,52.1074,0.4539,7.9109,2.2907
1311891.0,-18.8472,-14.9111,62.843,1.9422,7.1463,2.7053
1311901.0,-20.0634,-14.6142,68.1773,3.5721,5.4377,3.007
1311911.0,-20.3699,-12.5169,67.957,4.921,3.6897,3.2619
1311921.0,-20.9541,-8.916,64.5956,5.3488,2.4238,3.5481
1311931.0,-21.8255,-5.9951,59.9987,4.7858,1.2861,3.8796
1311941.0,-22.5821,-4.6256,57.2023,3.5401,0.4145,4.2452
1311951.0,-22.7066,-5.6407,56.0531,2.3307,-0.1857,4.6203
1311961.0,-22.1703,-8.4563,57.2885,1.6389,-0.7189,4.8757
1311971.0,-21.6723,-11.2911,58.8591,1.7608,-1.4521,4.9753
1311981.0,-21.1456,-11.8944,58.3132,2.1173,-2.105,5.0998
1311991.0,-21.452,-11.4443,57.0203,2.4067,-2.7814,5.3621
1312001.0,-21.4904,-12.3637,55.4497,2.6999,-3.4194,5.7878
1312011.0,-21.0498,-15.1697,51.8584,2.8798,-3.9632,6.1193
1312021.0,-19.7474,-19.7761,49.56,3.0591,-4.1867,6.2454
1312031.0,-18.2342,-24.4113,47.2615,3.273,-4.292,6.0187
1312041.0,-16.3763,-28.9315,46.0644,3.629,-4.432,5.4632
1312051.0,-14.1641,-31.0959,43.1148,3.885,-4.5182,4.6922
1312061.0,-13.283,-32.0919,40.1747,3.9275,-4.4953,3.8536
1312071.0,-12.5935,-31.7184,35.9034,3.4997,-4.4586,2.9325
1312081.0,-11.9327,-30.6075,31.3353,2.6031,-4.242,1.9976
1312091.0,-10.9463,-29.1135,27.0832,1.0834,-3.7493,1.1627
1312101.0,-10.2185,-29.4008,26.4128,-0.1176,-3.0815,0.3858
1312111.0,-9.8162,-29.7647,26.0393,-0.8806,-2.1721,-0.3406
1312121.0,-9.845,-29.9467,28.424,-0.945,-1.2813,-0.986
1312131.0,-10.2663,-28.9986,30.3776,-0.6231,-0.6252,-1.5261
1312141.0,-10.41,-27.3705,31.8237,-0.2384,-0.2288,-1.9092
1312151.0,-10.6973,-26.8342,33.8827,0.3735,0.274,-2.2599
1312161.0,-10.9271,-25.4264,34.9553,1.1387,0.7657,-2.5972
1312171.0,-12.2392,-23.4536,37.091,1.6001,0.977,-2.8782
1312181.0,-13.1202,-21.3754,38.4317,1.7911,0.9062,-3.0847
1312191.0,-13.4075,-19.6516,38.9201,1.5793,0.8519,-3.3172
1312201.0,-14.1641,-18.8663,41.6591,1.3803,0.6758,-3.562
1312211.0,-14.5855,-17.1138,42.3486,1.0467,0.3171,-3.811
1312221.0,-14.8632,-14.8536,43.7756,0.7732,-0.1155,-4.0233
1312231.0,-14.8345,-12.0572,43.7373,0.4454,-0.5789,-4.1148
1312241.0,-15.0452,-9.8354,43.8043,0.1245,-0.9929,-4.0425
1312251.0,-14.6621,-8.5617,43.8139,-0.0213,-1.1132,-3.8871
1312261.0,-15.6102,-7.8913,45.3653,0.1447,-1.1377,-3.6982
1312271.0,-16.2231,-8.3989,47.6829,0.6811,-1.1158,-3.5093
1312281.0,-16.3285,-7.9583,49.5025,1.2505,-1.3936,-3.4678
1312291.0,-15.8305,-6.8666,49.6079,1.2595,-2.0428,-3.4901
1312301.0,-15.7347,-5.047,49.4929,0.8987,-2.8793,-3.5827
1312311.0,-14.4227,-3.1029,48.631,0.381,-3.5433,-3.6019
1312321.0,-14.0683,-0.7183,45.9782,-0.1139,-4.0632,-3.488
1312331.0,-13.4458,0.3543,45.1546,-0.3916,-4.3298,-3.2523
1312341.0,-12.785,1.5802,42.7987,-0.3986,-4.4149,-2.9027
1312351.0,-13.0723,1.8579,41.4101,-0.2677,-4.2452,-2.4562
1312361.0,-11.9614,0.929,40.2705,-0.0245,-3.869,-2.0694
1312371.0,-10.8122,-0.5938,40.7493,0.1421,-3.6248,-1.8076
1312381.0,-9.7396,-0.6321,41.1037,0.1564,-3.6248,-1.6618
1312391.0,-8.5617,0.2586,41.4388,0.2655,-3.5955,-1.4415
1312401.0,-7.604,0.9768,42.0518,0.8296,-3.3922,-1.0243
1312411.0,-6.9719,1.494,41.0845,1.3771,-3.1299,-0.5827
1312421.0,-7.1251,1.7238,40.2226,1.6325,-2.8527,-0.1469
1312431.0,-7.0581,1.1971,39.8204,1.5484,-2.4945,0.1368
1312441.0,-7.2209,0.7374,41.5633,1.1403,-2.0832,0.2538
1312451.0,-8.3701,0.5171,44.5705,0.4757,-2.3471,0.257
1312461.0,-8.102,0.9002,46.3422,-0.2517,-3.0032,0.199
1312471.0,-7.604,2.3942,46.572,-0.9019,-3.5588,0.2214
1312481.0,-8.2935,3.8978,47.4914,-1.3452,-3.9137,0.4496
1312491.0,-8.6,4.4628,48.5161,-0.9748,-4.226,0.9019
1312501.0,-8.5808,4.2808,48.4682,-0.0995,-4.342,1.5272
1312511.0,-8.2648,2.7198,48.8896,1.1355,-4.1595,2.1902
1312521.0,-7.8147,0.8236,49.3684,2.262,-4.0169,2.6058
1312531.0,-7.6614,0.4405,49.7036,2.5648,-4.4112,2.7931
1312541.0,-7.6614,1.2067,49.0141,1.9427,-5.4238,2.8633
1312551.0,-6.9719,1.7717,46.6678,0.7684,-6.5923,2.8931
1312561.0,-5.7652,1.6472,42.9616,-0.4496,-7.3522,2.9543
1312571.0,-4.8554,1.6472,38.8531,-1.6134,-7.6528,2.9953
1312581.0,-3.9648,0.5171,36.842,-2.5701,-7.6369,3.1331
1312591.0,-3.3232,-0.9098,35.6353,-3.2805,-7.7582,3.2666
1312601.0,-2.6145,-2.5187,33.7199,-4.0808,-8.0354,3.2927
1312611.0,-0.9577,-4.3383,31.1342,-4.6948,-8.1839,3.2581
1312621.0,-0.6704,-6.5027,29.6115,-5.0269,-8.1972,3.165
1312631.0,0.1437,-7.8913,27.0162,-5.2956,-8.1993,2.9633
1312641.0,0.6321,-9.3853,24.2581,-5.551,-8.186,2.6866
1312651.0,1.8292,-9.6822,20.4273,-6.1608,-8.3254,2.2434
1312661.0,3.2848,-8.7628,15.7922,-6.9042,-8.3095,1.8326
1312671.0,3.802,-6.4548,10.4291,-7.6661,-7.9615,1.59
1312681.0,4.2713,-4.5011,5.363,-8.2195,-7.217,1.7251
1312691.0,5.8419,-4.6256,1.5706,-8.1307,-5.8048,2.1545
1312701.0,7.3646,-6.0525,-2.0399,-7.4459,-3.8089,2.7159
1312711.0,8.0637,-9.2608,-1.6568,-6.5338,-1.5484,3.2342
1312721.0,8.2169,-12.9095,1.1109,-5.1594,0.5167,3.6444
1312731.0,7.8147,-16.4242,4.7309,-3.7849,2.0055,3.9355
1312741.0,8.9735,-19.7474,7.9009,-2.4711,3.2539,4.0574
1312751.0,9.0692,-21.2605,10.6015,-1.1988,4.3607,4.0047
1312761.0,7.4986,-20.9253,11.7603,-0.4502,5.2014,3.8786
1312771.0,5.8323,-20.5518,15.3133,0.2847,6.0097,3.9052
1312781.0,4.865,-21.4233,19.5367,1.4771,6.9622,4.0339
1312791.0,4.8937,-23.4249,23.3004,2.5068,7.5948,3.9818
1312801.0,3.869,-25.0721,27.2077,3.1618,7.7901,3.7062
1312811.0,4.4245,-26.6523,30.2723,3.5811,7.7236,3.2427
1312821.0,4.798,-26.8725,30.7894,3.073,7.3187,2.5015
1312831.0,3.9361,-25.3594,31.1438,1.6751,6.7296,1.6655
1312841.0,3.237,-22.2757,31.546,0.0229,6.2012,0.9796
1312851.0,1.312,-19.824,32.5228,-1.1717,5.9022,0.5922
1312861.0,-0.8811,-18.2821,33.2028,-1.8188,5.9038,0.4363
1312871.0,-2.0686,-18.397,36.1908,-1.6011,6.1826,0.3411
1312881.0,-2.8826,-17.5447,38.4605,-0.6614,6.5152,0.2554
1312891.0,-3.6296,-16.0795,40.9313,0.4837,6.7467,0.1777
1312901.0,-4.2329,-13.398,41.8028,1.4511,6.753,0.1745
1312911.0,-4.7597,-9.1267,41.8794,1.7075,6.5429,0.3155
1312921.0,-5.4013,-5.2672,41.3814,1.5011,6.421,0.7173
1312931.0,-6.5984,-3.8116,41.9273,0.9073,6.3109,1.3319
1312941.0,-7.5944,-4.8171,43.3638,0.5124,6.1773,1.9257
1312951.0,-8.2456,-7.0006,45.8059,0.2916,6.0773,2.3589
1312961.0,-8.6191,-10.1323,47.8553,0.2176,5.7399,2.5499
1312971.0,-8.0445,-12.4307,48.9183,0.1527,5.2296,2.4472
1312981.0,-7.3454,-12.8904,48.9854,-0.0341,4.7901,2.1716
1313081.0,-12.153,-3.4477,49.5312,-0.0984,2.0779,2.9665
1313091.0,-12.8808,-1.5131,48.0851,-0.5981,2.1125,3.3326
1313101.0,-13.6086,-1.2258,48.5736,-1.0147,2.2668,3.8105
1313111.0,-14.6621,-2.1165,50.1537,-1.2813,2.1694,4.3075
1313121.0,-14.8153,-3.7828,52.1266,-1.3675,1.7975,4.756
1313131.0,-15.093,-5.9568,53.1321,-1.2063,1.2675,5.1237
1313141.0,-13.781,-8.169,53.496,-0.8721,0.6204,5.3185
1313151.0,-13.781,-9.8641,52.1457,-0.4502,-0.0676,5.4116
1313161.0,-14.1545,-11.1857,49.9814,-0.2559,-0.6274,5.4435
1313171.0,-13.9726,-13.1106,48.6406,-0.0106,-0.9615,5.4855
1313181.0,-13.8098,-15.2367,47.3382,0.381,-1.168,5.4893
1313191.0,-14.03,-17.0659,45.6909,0.5023,-1.2553,5.3802
1313201.0,-13.3884,-18.9908,46.5241,0.5268,-1.2686,5.2376
1313211.0,-13.8193,-21.6436,48.5831,0.97,-1.7608,5.095
1313221.0,-13.1777,-24.2868,48.2575,1.5894,-2.3216,4.8231
1313231.0,-12.4115,-26.3745,46.1506,2.3605,-2.6781,4.4346
1313241.0,-12.0285,-27.4854,43.8043,3.0171,-2.759,3.9334
1313251.0,-11.7795,-27.2747,42.1763,3.6891,-2.6834,3.4523
1313261.0,-12.3253,-26.7959,39.5139,4.1781,-2.5196,3.0384
1313271.0,-11.8657,-26.4416,38.1732,4.3942,-2.1077,2.6776
1313281.0,-11.8657,-26.8629,37.7135,4.4815,-1.7666,2.2641
1313291.0,-11.3294,-27.4567,37.838,4.2702,-1.6746,1.7906
1313301.0,-10.5728,-28.9507,37.5602,4.1595,-1.7661,1.2286
1313311.0,-9.8162,-30.0329,36.8037,4.3415,-1.5974,0.4911
1313321.0,-9.3278,-29.6977,36.1524,4.5442,-1.2302,-0.3022
1313331.0,-9.73,-28.9507,35.9418,4.6225,-1.1903,-1.1483
1313341.0,-10.2376,-27.0162,34.17,4.3633,-1.1738,-2.0492
1313351.0,-9.6438,-25.618,33.605,3.9483,-0.7732,-2.8739
1313361.0,-9.7492,-24.7848,35.4246,3.7035,-0.439,-3.711
1313371.0,-11.3868,-21.9692,36.1524,3.1788,-0.5848,-4.5873
1313381.0,-11.8944,-18.0523,36.842,2.7132,-0.9253,-5.2679
1313391.0,-12.8233,-12.967,36.3727,2.336,-1.085,-5.6835
1313401.0,-13.5703,-8.4276,35.5587,1.7836,-1.0179,-5.7787
1313411.0,-13.5225,-5.5162,34.9266,1.3191,-0.8876,-5.6042
1313421.0,-12.9478,-3.8595,35.0128,0.4065,-0.6816,-5.3621
1313431.0,-12.9,-3.7158,37.1101,-0.4491,-0.5885,-5.1594
1313441.0,-13.7236,-3.7924,39.9353,-1.061,-0.8242,-4.9965
1313451.0,-13.5225,-4.3,42.8179,-1.1621,-1.0903,-4.7911
1313461.0,-12.9766,-4.4724,44.7524,-0.6204,-1.1041,-4.5586
1313471.0,-13.2256,-4.1659,46.8976,0.1117,-1.4899,-4.3383
1313481.0,-12.0955,-2.4517,46.7923,0.7152,-2.096,-4.126
1313491.0,-11.2336,-0.6512,44.5513,1.2781,-2.6207,-3.7828
1313501.0,-10.161,0.8332,39.2936,1.1973,-2.8074,-3.53
1313511.0,-8.1211,1.9441,34.103,0.1953,-2.6121,-3.4688
1313521.0,-7.5369,3.1603,31.7758,-1.5623,-2.2109,-3.5534
1313531.0,-7.671,4.3479,32.0536,-3.3257,-2.0045,-3.6061
1313541.0,-6.857,5.6312,32.6473,-4.9077,-1.9092,-3.6099
1313551.0,-7.0102,7.1826,34.2371,-5.9368,-1.7171,-3.389
1313561.0,-7.0868,8.6574,35.9418,-6.1087,-1.5064,-2.9229
1313571.0,-6.9145,10.0748,36.9186,-5.8889,-1.292,-2.2572
1313581.0,-7.0294,11.0804,36.7366,-5.335,-1.0802,-1.3803
1313591.0,-7.0485,10.2951,37.1293,-4.4964,-0.7412,-0.3831
1313601.0,-5.7748,7.7189,36.5834,-3.4933,-0.4268,0.4975
1313611.0,-5.047,5.2577,35.1277,-3.0453,-0.1128,1.0499
1313621.0,-5.1811,3.6392,34.5052,-2.8489,0.1841,1.4085
1313631.0,-4.6256,2.5091,33.8444,-2.759,0.5539,1.6719
1313641.0,-4.9799,2.6719,34.2084,-2.8894,0.8232,1.9092
1313651.0,-5.6216,2.873,34.534,-3.0852,1.0142,2.2072
1313661.0,-5.6886,2.1069,36.5451,-2.8069,1.1611,2.5972
1313671.0,-5.9185,1.5323,36.6121,-2.5137,1.2723,2.974
1313681.0,-6.292,0.4405,37.5507,-2.0571,1.4899,3.4204
1313691.0,-7.173,-1.7334,39.7054,-1.3383,1.7608,3.9477
1313701.0,-6.6367,-5.612,41.3814,-0.298,1.9151,4.3298
1313711.0,-5.7365,-9.3087,41.525,0.5587,1.996,4.3569
1313721.0,-5.1044,-10.8026,40.7972,0.6896,2.0029,4.0286
1313731.0,-5.2194,-9.7109,41.1898,0.63,2.0007,3.6806
1313741.0,-6.3015,-7.1826,40.5769,0.3778,1.9316,3.4859
1313751.0,-7.7381,-4.6735,40.0502,-0.0857,2.0215,3.562
1313761.0,-8.7819,-4.3766,41.3814,-0.3432,2.5031,3.8466
1313771.0,-9.6822,-6.5888,45.6814,-0.0798,2.9852,4.1271
1313781.0,-10.094,-9.0692,50.556,0.2613,2.8761,4.2165
1313791.0,-11.0612,-9.7205,54.2813,0.473,2.2833,4.2505
1313801.0,-11.5975,-10.6781,57.9493,1.0004,1.6043,4.3564
1313811.0,-12.469,-11.3102,58.6005,1.5479,0.7146,4.4437
1313821.0,-12.3828,-11.9519,58.6962,1.6868,-0.2384,4.424
1313831.0,-12.469,-12.1147,55.9669,1.5351,-1.1063,4.3963
1313841.0,-12.0955,-13.1394,54.0515,0.9472,-1.6778,4.2782
1313851.0,-12.0955,-14.8728,52.4905,0.3288,-2.1556,4.0435
1313861.0,-12.2487,-17.0754,52.7682,-0.2474,-2.5994,3.7408
1313871.0,-12.4211,-19.1823,52.8831,-0.4055,-3.0325,3.3518
1313881.0,-11.7316,-20.389,53.0459,-0.3565,-3.3523,2.9671
1313891.0,-11.9614,-20.3316,52.2894,-0.1096,-3.7349,2.5776
1313901.0,-11.8178,-19.8048,51.2263,0.016,-4.1478,2.3009
1313911.0,-11.1282,-19.8815,48.9375,0.2613,-4.4266,2.08
1313921.0,-10.1323,-20.2549,46.8497,0.3496,-4.5357,1.8246
1313931.0,-9.1171,-20.7817,44.8482,0.3932,-4.5038,1.5192
1313941.0,-7.4508,-21.5382,43.0669,0.2756,-4.4735,1.118
1313951.0,-6.9336,-22.1607,41.6878,0.0559,-4.3639,0.6258
1313961.0,-6.4452,-21.883,40.4907,-0.2065,-4.2393,0.1128
1313971.0,-6.4452,-21.2509,39.7725,-0.5167,-4.1542,-0.3235
1313981.0,-6.11,-21.1935,40.0311,-0.3698,-3.8498,-0.6588
1313991.0,-5.5258,-21.3275,39.8587,0.1266,-3.3677,-0.9365
1314001.0,-5.1332,-20.8966,40.3567,0.5013,-3.0261,-1.2542
1314011.0,-4.7214,-20.073,41.2473,0.6886,-2.9303,-1.6123
1314021.0,-4.3191,-19.2685,42.0422,0.5928,-2.925,-2.0055
1314031.0,-4.367,-17.6405,43.0573,0.4342,-3.2698,-2.4025
1314041.0,-4.3383,-16.1752,41.5921,0.0176,-3.7429,-2.7042
1314051.0,-3.4955,-15.6677,40.529,-0.2549,-3.8365,-3.007
1314061.0,-4.5011,-14.1833,38.7382,-0.5853,-3.8046,-3.2954
1314071.0,-3.7254,-13.1394,38.3647,-1.2095,-3.7604,-3.4901
1314081.0,-3.0263,-13.0723,39.1979,-1.2409,-3.6955,-3.5705
1314091.0,-2.0303,-13.7714,39.2649,-1.0674,-3.5263,-3.7652
1314101.0,-0.814,-14.1066,39.4469,-0.7396,-3.272,-3.9712
1314111.0,-0.8715,-13.6469,40.5003,-0.5539,-3.0932,-4.2287
1314121.0,-1.5419,-12.8042,41.1037,-0.4619,-3.0501,-4.5559
1314131.0,-2.3367,-11.1378,42.5785,-0.3065,-3.1458,-4.8433
1314141.0,-3.0646,-8.3797,42.9232,-0.1431,-3.4438,-4.9933
1314151.0,-2.8347,-5.8323,41.8123,-0.3001,-3.6168,-5.0439
1314161.0,-2.5857,-3.9265,40.9887,-0.5337,-3.687,-4.9827
1314171.0,-1.3695,-2.5283,40.1747,-1.06,-3.8653,-4.8917
1314181.0,0.4118,-2.6911,40.2322,-1.2691,-3.8195,-4.8108
1314191.0,1.0247,-1.8292,39.5905,-1.2946,-3.1863,-4.7917
1314201.0,-0.4597,-0.5363,41.6687,-1.3516,-2.9899,-4.7448
1314211.0,-0.9002,1.8771,43.3829,-1.8177,-3.3012,-4.6198
1314221.0,-0.8619,3.8499,44.2927,-2.1013,-3.6636,-4.2968
1314231.0,-0.7566,5.4875,45.4324,-2.3636,-3.9036,-3.8434
1314241.0,-0.7374,6.1579,46.4092,-2.4083,-4.4799,-3.2539
1314251.0,0.3256,6.2345,45.5856,-2.3168,-4.9215,-2.5834
1314261.0,1.9632,4.7884,44.6758,-2.0034,-4.946,-1.9018
1314271.0,2.5283,2.375,44.5609,-1.6501,-4.8704,-1.383
1314281.0,2.873,0.814,44.0342,-1.6911,-5.1588,-1.1025
1314291.0,3.371,-0.1628,42.9041,-1.8847,-5.5537,-0.9599
1314301.0,4.0989,-0.2969,42.1284,-1.997,-5.7261,-0.8056
1314311.0,4.4436,-0.0766,41.6495,-2.0651,-5.7271,-0.6428
1314321.0,4.4436,0.1532,41.6878,-1.988,-5.9932,-0.4188
1314331.0,4.6064,0.9194,39.9544,-2.0369,-6.3018,-0.1634
1314341.0,5.7748,0.9577,37.225,-2.1327,-6.413,0.157
1314351.0,7.1347,0.4118,35.0607,-2.3732,-6.2337,0.3698
1314361.0,7.6423,0.4788,34.4957,-2.693,-5.9916,0.522
1314371.0,7.604,1.1013,34.0072,-3.0091,-5.9373,0.7189
1314381.0,7.7572,2.7773,32.4366,-3.4215,-5.9437,1.0632
1314391.0,7.4124,3.5721,32.0057,-3.7902,-5.9362,1.6182
1314401.0,7.6423,2.7198,31.0289,-4.0238,-6.0155,2.3823
1314411.0,9.0214,-1.4269,31.0384,-3.5896,-5.999,3.2225
1314421.0,10.8793,-6.7038,28.807,-2.4046,-5.6893,3.9132
1314431.0,12.9478,-11.8369,26.3171,-0.9493,-4.8688,4.3186
1314441.0,13.6086,-15.4953,23.7696,0.39,-4.0637,4.483
1314451.0,14.4418,-18.0236,21.7585,1.119,-3.2879,4.4197
1314461.0,15.0069,-18.8759,20.1496,1.8321,-2.4073,4.3543
1314471.0,14.5089,-20.0251,19.7761,2.3493,-1.666,4.3612
1314481.0,14.9302,-21.8447,18.7131,2.7462,-0.9988,4.3521
1314491.0,16.0412,-25.685,19.0291,3.2634,-0.158,4.2367
1314501.0,17.2766,-29.3338,19.6229,3.9994,0.7801,3.8903
1314511.0,18.3396,-32.8293,21.4808,4.7986,1.7342,3.247
1314521.0,18.4066,-33.6816,22.7162,5.154,2.3307,2.3823
1314531.0,17.3723,-33.0687,25.4264,5.3456,2.5983,1.491
1314541.0,16.8169,-30.4447,26.8629,5.3536,2.784,0.7205
1314551.0,15.6772,-27.7057,28.2228,5.0705,2.7367,0.1043
1314561.0,14.6717,-25.6275,29.0081,4.5288,2.4216,-0.3608
1314571.0,14.8919,-24.6986,28.9698,4.2133,2.3205,-0.7306
1314581.0,15.4187,-24.7752,28.5963,3.7269,2.6542,-1.1536
1314591.0,15.3516,-25.2445,29.7168,3.0618,2.8463,-1.6735
1314601.0,15.1601,-25.5605,31.6322,2.2514,2.7888,-2.3147
1314611.0,14.7387,-25.0242,34.352,1.6554,2.6366,-2.9899
1314621.0,13.8768,-23.1471,36.7175,1.2191,2.3817,-3.5556
1314631.0,13.149,-20.9445,38.5371,1.1025,2.0901,-3.9525
1314641.0,12.4786,-18.8376,39.6097,1.2574,1.7022,-4.1835
1314651.0,11.8848,-15.9262,40.2705,1.6192,1.3957,-4.2888
1314661.0,11.5592,-13.5033,39.6863,2.154,1.1994,-4.209
1314671.0,10.8409,-12.1242,40.7972,2.9192,1.1228,-3.9653
1314681.0,10.9942,-10.9176,39.5522,3.8642,0.9972,-3.7046
1314691.0,10.5728,-9.9599,37.7709,4.5804,0.9535,-3.4784
1314701.0,10.9654,-8.6957,34.285,4.7927,1.0174,-3.356
1314711.0,11.0708,-8.0349,32.2355,4.5421,1.2803,-3.3433
1314721.0,11.1282,-7.7476,29.9467,3.6407,1.6144,-3.463
1314731.0,10.8697,-7.5944,30.8948,2.5919,1.8379,-3.7062
1314741.0,10.6781,-7.3454,32.0631,1.7602,2.1316,-4.0164
1314751.0,10.2568,-7.2784,35.3097,1.433,2.4525,-4.226
1314761.0,9.6917,-6.9719,37.8284,1.4825,2.6675,-4.416
1314771.0,9.2703,-7.4795,42.4923,2.0742,2.8181,-4.5512
1314781.0,8.9735,-6.6942,44.58,2.7372,2.361,-4.7603
1314791.0,8.4946,-4.7214,44.5034,2.8617,1.6543,-4.9854
1314801.0,8.2839,-1.9441,42.1092,2.7297,1.0616,-5.0902
1314811.0,7.6519,0.182,39.4277,2.187,0.7545,-5.0897
1314821.0,8.5329,1.312,36.6792,1.2185,0.7865,-5.0795
1314831.0,9.414,1.3791,36.7366,0.0889,0.8572,-5.1237
1314841.0,9.098,1.6089,37.9625,-0.8482,0.9051,-5.1248
1314851.0,8.8107,1.2929,40.0406,-0.9057,0.9184,-5.029
1314861.0,9.0405,1.245,40.9887,-0.5417,0.9865,-4.897
1314871.0,8.5617,1.4078,41.8219,-0.0069,0.9344,-4.7193
1314881.0,8.169,2.1835,41.4771,0.3938,0.8141,-4.524
1314891.0,8.2456,2.9592,39.4564,0.5757,0.7168,-4.3005
1314901.0,8.9735,3.5051,38.1157,0.2841,0.6284,-4.1207
1314911.0,9.4523,3.7158,36.8707,-0.0979,0.5167,-3.936
1314921.0,10.659,3.62,36.3631,-0.2826,0.4736,-3.7642
1314931.0,11.3389,3.4668,36.0758,0.0814,0.613,-3.5391
1314941.0,11.2719,4.1276,35.2905,0.8785,0.9402,-3.1953
1314951.0,11.5209,4.7884,32.3217,1.4112,1.2984,-2.7978
1314961.0,11.7507,4.0223,29.6689,1.1217,1.6485,-2.5446
1314972.0,12.0476,2.3655,27.3226,0.1868,1.9933,-2.4642
1314981.0,12.1434,0.6608,26.7768,-0.687,2.4616,-2.5408
1314991.0,12.22,-0.8715,27.2364,-1.3691,3.1192,-2.6978
1315001.0,11.5401,-2.49,29.1518,-1.6825,3.6875,-2.9532
1315011.0,10.9559,-3.237,30.5404,-1.492,4.1883,-3.2368
1315021.0,9.845,-3.2274,32.1206,-0.9429,4.9173,-3.4774
1315031.0,8.7724,-2.806,33.5284,-0.1421,5.6164,-3.7019
1315041.0,6.7325,-1.5323,35.3863,0.2916,6.0283,-3.9163
1315051.0,5.9664,-0.2298,36.4493,0.456,6.1635,-4.0435
1315061.0,5.3439,1.1205,36.4685,0.0016,6.2481,-4.2037
1315071.0,3.6296,1.9058,38.0678,-0.6439,6.2678,-4.3154
1315081.0,2.7102,2.7869,39.2841,-1.2196,6.2129,-4.4405
1315091.0,1.9824,3.6105,40.644,-1.6096,6.2858,-4.5261
1315101.0,0.1724,5.2768,41.707,-1.8172,6.3635,-4.5677
1315111.0,-1.2163,6.4069,45.078,-1.5586,6.7451,-4.4123
1315121.0,-2.6719,6.8666,49.5791,-0.5316,6.9941,-4.1441
1315131.0,-4.3479,7.7093,51.9733,-0.0521,6.4955,-3.9041
1315141.0,-5.1427,8.5617,52.366,-0.1091,5.734,-3.6492
1315151.0,-5.296,8.7245,52.6341,-0.5497,5.17,-3.4859
1315161.0,-5.1523,8.4851,52.5096,-1.011,4.6853,-3.3747
1315171.0,-5.4205,8.667,53.3428,-1.4282,4.1574,-3.3252
1315181.0,-5.2385,9.4619,52.5192,-1.6022,3.637,-3.2374
1315191.0,-5.114,11.4251,52.3372,-1.5719,3.1804,-3.0495
1315201.0,-5.2002,14.3173,49.1386,-1.7485,2.9639,-2.6063
1315211.0,-5.8514,15.342,47.635,-1.9007,3.1405,-1.9092
1315221.0,-6.0908,12.7946,48.7938,-1.7432,3.438,-1.1414
1315231.0,-4.7788,8.2456,50.1537,-1.3159,3.5151,-0.655
1315241.0,-4.2808,4.5107,50.4602,-1.5335,3.3294,-0.5763
1315251.0,-3.7828,1.4653,52.5001,-1.5389,2.8314,-0.6747
1315261.0,-3.4285,0.4884,51.8776,-1.1494,2.5903,-0.7705
1315271.0,-4.2329,0.6704,51.0731,-0.7471,2.5031,-0.8003
1315281.0,-5.1427,0.067,51.0061,-0.3241,2.4099,-0.7338
1315291.0,-5.8227,-1.4174,50.2016,0.2043,2.4057,-0.6737
1315301.0,-5.1332,-3.8978,50.2304,0.5853,2.7819,-0.7662
1315311.0,-5.5067,-6.7038,52.0116,0.6407,3.0714,-1.168
1315321.0,-6.1866,-8.6574,56.1488,0.2847,2.7223,-1.7895
1315331.0,-6.924,-9.4236,60.6308,0.1165,1.8273,-2.4738
1315341.0,-7.853,-8.1882,62.4408,-0.0085,0.6215,-3.1198
1315351.0,-8.3606,-6.6176,62.345,-0.2283,-0.5859,-3.6029
1315361.0,-8.6862,-5.2289,61.3299,-0.1655,-1.541,-3.9392
1315371.0,-8.667,-3.9552,59.1942,-0.0995,-2.1806,-4.1883
1315381.0,-9.2799,-2.7485,57.2501,-0.1447,-2.7505,-4.4043
1315391.0,-10.0556,-1.6281,55.7849,-0.1735,-3.2358,-4.598
1315401.0,-10.5058,-1.1971,55.3635,-0.0309,-3.4667,-4.7486
1315411.0,-11.2432,-1.1301,55.3061,0.0208,-3.5433,-4.9673
1315421.0,-12.5935,-0.7661,59.1655,0.2975,-4.0808,-5.22
1315431.0,-12.6318,1.3024,60.0562,0.3613,-4.8231,-5.4994
1315441.0,-12.5839,3.869,60.535,-0.0383,-5.9799,-5.7473
1315451.0,-11.7507,7.6327,60.6403,-0.7088,-7.0446,-5.8272
1315461.0,-11.6933,11.0038,60.6882,-1.4692,-8.4287,-5.6883
1315471.0,-11.722,13.034,60.1711,-2.021,-9.9707,-5.3328
1315481.0,-10.8409,14.2407,55.7274,-1.9646,-11.1525,-4.8348
1315491.0,-10.2568,14.0492,52.366,-1.3074,-11.4968,-4.193
1315501.0,-8.1307,13.2926,49.1482,0.1341,-11.4287,-3.5316
1315511.0,-7.2401,14.4993,44.3406,0.4129,-11.7501,-3.123
1315521.0,-6.0621,16.2327,40.462,-0.0394,-12.4158,-2.7148
1315531.0,-3.9552,18.4354,34.5435,-1.06,-12.8782,-2.2189
1315541.0,-1.9249,19.1728,30.2531,-1.7102,-13.0623,-1.5484
1315551.0,0.929,19.6899,24.4304,-2.2067,-12.5669,-0.7854
1315561.0,2.8635,18.2342,21.5957,-1.8118,-11.4644,0.1181
1315571.0,5.5067,16.9509,19.7474,-0.8333,-10.2272,0.9988
1315581.0,8.0349,15.6868,18.0714,0.1767,-9.1646,1.8581
1315591.0,10.4196,13.963,17.0467,1.7464,-7.9663,2.6627
1315601.0,11.2049,12.7276,15.2271,2.8181,-6.8201,3.3278
1315611.0,12.7372,9.9886,14.777,4.027,-5.8447,3.9908
1315621.0,15.7634,7.1156,11.5017,4.4985,-4.6326,4.3543
1315631.0,18.0236,4.4628,9.7875,4.0882,-3.555,4.3761
1315641.0,19.7857,3.4572,8.9639,2.5786,-2.8473,4.1505
1315651.0,20.9062,2.1835,10.2472,1.0791,-2.287,3.919
1315661.0,20.82,1.6376,11.0612,-0.0553,-1.467,3.7535
1315671.0,20.8391,-1.0918,13.2735,-0.7237,-0.6231,3.6982
1315681.0,21.0115,-4.3479,16.1465,-0.9264,-0.0399,3.4508
1315691.0,22.0841,-5.9376,16.9414,-1.375,0.1644,2.9862
1315701.0,22.7736,-6.3207,17.8512,-1.8198,0.3006,2.5158
1315711.0,22.8694,-4.7597,18.1385,-1.7868,0.4592,2.2615
1315721.0,22.6013,-3.0071,15.5049,-1.698,0.7827,2.2971
1315731.0,23.0514,-3.7924,13.1106,-1.3585,1.5708,2.4961
1315741.0,23.693,-5.5737,10.908,-1.0509,2.6632,2.6084
1315751.0,23.3483,-7.604,9.3853,-1.1834,3.7094,2.4951
1315761.0,22.4576,-9.3565,7.7955,-1.6368,4.5953,2.2067
1315771.0,21.2988,-11.7029,9.0118,-1.988,5.6074,1.7437
1315781.0,19.0578,-13.0915,9.0597,-1.7602,6.4327,1.0898
1315791.0,17.1808,-12.4498,9.2703,-0.9371,7.4453,0.3975
1315801.0,14.1449,-8.0254,8.1116,1.4495,9.1582,0.0064
1315811.0,11.3677,-3.1891,5.047,4.2782,11.6894,-0.0378
1315821.0,7.92,1.8387,1.8387,6.57,14.7347,-0.0825
1315831.0,3.7062,9.5672,-2.4134,5.9001,17.3607,-0.1655
1315841.0,-1.7909,13.6661,4.6639,3.3199,17.4357,-0.2597
1315851.0,-7.9583,18.1289,15.6389,0.3001,17.4357,-0.2442
1315861.0,-14.0971,21.7298,31.6513,-2.2748,17.4357,0.1266
1315871.0,-17.8512,23.9229,50.6038,-3.156,17.4357,0.944
1315881.0,-20.6572,27.993,66.7408,-3.2289,17.4357,2.1455
1315891.0,-23.9037,30.0329,78.4508,-3.2895,17.4357,3.7892
1315901.0,-24.2006,26.4416,78.4508,-1.7608,14.9305,5.6798
1315911.0,-26.5661,22.2661,78.4508,-0.2543,11.9757,7.3793
1315921.0,-25.4073,12.8138,78.4508,2.5972,9.5663,8.9044
1315931.0,-23.7696,6.0334,78.4508,4.9641,7.084,9.6871
1315941.0,-22.8407,-0.067,78.4508,5.3578,4.2244,9.8244
1315951.0,-19.9102,-4.9704,71.3472,5.0902,2.7095,9.4051
1315961.0,-18.2917,-8.3031,58.0929,3.2555,2.7824,8.5532
1315971.0,-17.5064,-12.3158,54.923,1.4543,3.3124,7.4602
1315981.0,-17.7841,-14.4418,55.5934,0.9312,4.2691,6.4151
1315991.0,-18.6365,-16.089,61.4927,1.6495,5.5302,5.6122
1316001.0,-20.3603,-17.8129,70.1022,3.2885,6.1922,4.8066
1316011.0,-21.8543,-17.4202,78.2425,4.5389,5.4584,3.8381
1316021.0,-22.2469,-13.9151,78.4508,5.1599,3.8051,2.7734
1316031.0,-21.8638,-7.6614,78.4508,4.8199,1.9113,1.7155
1316041.0,-22.0458,-0.1628,78.4508,3.6641,-0.4709,0.9307
1316051.0,-22.8311,5.861,78.4508,2.4706,-2.9458,0.5603
1316061.0,-22.4672,10.8601,78.4508,1.6235,-5.476,0.5805
1316071.0,-22.5438,14.5089,78.051,0.8365,-7.4246,0.8689
1316081.0,-21.8447,16.0699,73.9329,0.5486,-9.304,1.3739
1316091.0,-21.4999,16.9797,68.8668,0.3757,-11.2286,1.9811
1316101.0,-19.824,15.6772,61.6076,0.4326,-12.8872,2.6877
1316111.0,-17.4394,12.9574,52.2511,1.052,-13.9036,3.3113
1316121.0,-14.9302,9.9503,42.4444,1.7251,-14.1989,3.77
1316131.0,-11.2719,7.2113,34.3999,2.6276,-13.6897,4.0935
1316141.0,-8.3222,6.9719,24.7944,3.0543,-12.8984,4.1537
1316151.0,-5.7269,8.2169,17.4394,2.022,-11.9241,4.0866
1316161.0,-3.1699,8.9639,15.6485,1.0264,-10.7183,4.1021
1316171.0,-1.2737,9.3853,14.0588,-0.2528,-9.752,4.1638
1316181.0,0.8236,6.3686,16.2135,-0.9684,-9.1332,4.2947
1316191.0,3.1029,3.1125,16.9701,-0.6151,-8.2036,4.3639
1316201.0,5.296,-1.4461,20.9253,1.1696,-6.8238,4.3271
1316211.0,7.0294,-2.4612,23.2621,3.5316,-5.5898,4.1127
1316221.0,7.2209,0.814,23.3099,5.0444,-5.0561,3.8775
1316231.0,7.9871,6.5218,22.3235,5.386,-5.0849,3.8067
1316241.0,8.4755,11.9231,18.397,4.7975,-5.154,3.9722
1316251.0,8.7628,16.4721,13.9151,3.4034,-4.9545,4.3069
1316261.0,9.1267,18.2438,10.7069,1.6134,-4.3745,4.7683
1316271.0,8.8107,18.1289,10.5153,0.489,-3.3401,5.3036
1316281.0,8.8681,16.4434,12.2966,0.0192,-2.0183,5.8729
1316291.0,8.8969,13.0149,16.7211,0.0521,-0.9711,6.388
1316301.0,8.5904,9.912,18.8855,0.1266,-0.7093,6.6754
1316311.0,9.6343,7.8434,20.2166,0.4108,-0.5119,6.8158
1316321.0,10.1706,8.5712,18.1959,0.8487,0.0335,6.9701
1316331.0,9.5768,9.5002,15.9454,1.1233,0.6891,7.1803
1316341.0,9.5864,10.6686,12.3349,0.7764,1.4782,7.4379
1316351.0,9.0405,10.6111,9.1267,0.1878,2.6622,7.7422
1316361.0,8.1403,9.1842,8.6287,-0.3799,4.1936,8.0365
1316371.0,6.7421,7.7285,10.3717,-0.5694,5.6973,8.2717
1316381.0,5.3439,6.5984,12.3158,-0.6917,7.0244,8.5526
1316391.0,2.9497,4.8363,15.342,-0.6481,8.0333,8.865
1316401.0,1.5227,2.3846,16.6349,-0.6992,9.0294,9.1742
1316411.0,0.1149,-2.2218,19.0578,-0.7705,9.8004,9.2848
1316421.0,-0.6416,-6.0621,19.2302,-1.1866,10.2229,9.0502
1316431.0,-1.5227,-8.7245,17.4872,-1.8816,10.7928,8.6128
1316441.0,-3.7637,-10.41,15.524,-2.6872,11.7427,8.119
1316451.0,-5.7748,-13.5608,16.9893,-2.7031,13.2352,7.672
1316461.0,-8.0445,-17.6501,20.5422,-2.0034,15.0604,7.1692
1316471.0,-9.7492,-21.7968,27.1024,-0.9099,16.173,6.3869
1316481.0,-11.0038,-23.4632,31.364,-0.4353,16.2321,5.269
1316491.0,-12.9,-21.4425,30.4447,-0.8695,15.4084,4.052
1316501.0,-14.3173,-16.6828,23.377,-2.3094,15.1163,3.0453
1316511.0,-17.8703,-12.3637,16.5487,-4.441,15.6617,2.345
1316521.0,-21.4233,-11.3102,12.7084,-6.6312,17.3192,2.1843
1316531.0,-23.8558,-20.2741,22.3427,-6.9526,17.4357,2.0891
1316541.0,-27.4854,-28.3857,40.395,-5.1115,17.4357,1.7613
1316551.0,-29.2763,-36.66,65.3809,-0.4113,17.4357,1.1398
1316561.0,-28.7591,-36.5355,76.9209,4.176,17.4357,-0.0112
1316571.0,-25.5509,-31.3353,77.2274,6.0533,16.894,-1.3388
1316581.0,-22.9556,-24.938,71.8165,5.2434,14.673,-2.7345
1316591.0,-23.2908,-16.5775,65.3234,0.853,12.1779,-4.184
1316601.0,-26.9108,-14.1928,70.945,-3.5907,8.9629,-5.1173
1316611.0,-28.922,-14.1641,71.6154,-4.722,6.1507,-5.4637
1316621.0,-28.3473,-15.955,65.6394,-3.3528,5.3499,-5.4153
1316631.0,-26.7289,-19.8815,58.6962,-1.2164,5.9815,-5.5489
1316641.0,-26.5182,-23.8462,58.8495,0.6391,6.4694,-6.1347
1316651.0,-27.2939,-24.7752,56.9245,1.4489,5.4967,-7.084
1316661.0,-27.1407,-23.626,53.611,1.6213,4.8199,-8.1397
1316671.0,-27.2556,-21.2988,52.3756,1.9098,5.0375,-9.1252
1316681.0,-29.5636,-18.2917,52.5958,2.0896,4.805,-9.9931
1316691.0,-30.5309,-14.8728,53.2758,1.8491,4.1696,-10.7343
1316701.0,-31.3162,-12.153,52.5384,1.5894,3.5763,-11.3798
1316711.0,-31.9291,-9.5385,53.3811,1.2978,3.4061,-11.939
1316721.0,-33.7487,-7.8626,57.3938,1.4825,3.1006,-12.3445
1316731.0,-35.3097,-5.5641,63.2452,2.0912,2.3179,-12.651
1316741.0,-37.2825,-2.4134,66.329,2.8947,0.8833,-12.7835
1316751.0,-38.0582,2.2314,66.0321,2.9186,-0.7795,-12.8032
1316761.0,-38.4892,5.2864,66.3385,2.8165,-2.5818,-12.5956
1316771.0,-38.0678,8.1116,64.7201,3.0346,-4.0542,-12.2471
1316781.0,-36.842,10.1706,60.1423,3.1932,-5.2301,-11.7725
1316791.0,-35.4438,10.3525,55.7466,3.0118,-6.0645,-11.3308
1316801.0,-34.5244,10.0844,53.1321,2.966,-6.4487,-10.9493
1316811.0,-34.4957,10.4004,50.0963,2.8665,-6.9063,-10.6699
1316821.0,-33.7295,11.8657,48.6693,2.4387,-7.1117,-10.356
1316831.0,-32.7527,12.0572,51.6573,3.4332,-6.7456,-9.7637
1316841.0,-32.4366,13.3788,54.9134,4.9625,-6.7679,-8.9395
1316851.0,-32.4558,13.5512,57.8439,5.6963,-7.7539,-8.0413
1316861.0,-29.9179,12.7372,57.4225,6.7419,-9.2465,-7.2075
1316871.0,-28.0505,14.6142,49.5025,6.2294,-10.6332,-6.586
1316881.0,-26.116,14.7674,44.2832,4.9492,-11.2824,-6.1831
1316891.0,-24.0761,16.9126,38.8052,3.7775,-11.1563,-5.9049
1316901.0,-24.2772,19.0483,38.0295,1.8507,-11.0876,-5.5819
1316911.0,-24.9763,19.8815,39.5235,0.3906,-11.7107,-5.0716
1316921.0,-22.6108,18.2438,42.0039,0.1064,-11.7134,-4.3335
1316931.0,-19.9868,14.9877,43.7277,1.4516,-11.3287,-3.5167
1316941.0,-18.6652,12.2104,44.7045,2.3578,-11.5005,-2.9383
1316951.0,-17.1712,9.8354,43.4308,3.2273,-12.2184,-2.5579
1316961.0,-15.1984,10.1514,38.3455,3.4332,-12.7787,-2.3918
1316971.0,-13.7523,12.7946,33.5284,3.5385,-12.4381,-2.1529
1316981.0,-11.971,15.4378,33.6337,4.0441,-11.1962,-1.5649
1316991.0,-11.5879,17.7362,34.8787,4.3937,-10.7811,-0.8514
1317001.0,-11.4251,19.7665,34.534,3.3912,-11.3915,-0.1229
1317011.0,-8.9352,20.9445,31.6801,1.9247,-12.0672,0.6662
1317021.0,-6.6846,19.9772,30.5309,0.671,-12.1066,1.5053
1317031.0,-4.7214,17.1712,29.171,0.1958,-11.9034,2.3264
1317041.0,-4.0893,14.5759,27.8589,0.0319,-11.5415,3.049
1317051.0,-1.9345,11.3102,28.0792,0.8019,-10.7205,3.6918
1317061.0,0.0287,10.5632,27.2364,1.9842,-9.5562,4.2798
1317071.0,0.5746,10.3717,28.175,2.4887,-8.6532,4.8396
1317081.0,0.9673,10.7739,28.4814,2.5408,-8.4425,5.3903
1317091.0,1.7334,10.8601,28.74,2.0444,-8.3206,6.0006
1317101.0,3.0646,10.3046,27.4471,1.6022,-8.1435,6.6009
1317111.0,3.869,8.4372,26.8438,0.7918,-7.9508,7.1665
1317121.0,5.2481,5.296,26.0106,0.4326,-7.6119,7.6614
1317131.0,5.5545,2.2889,25.503,0.4762,-7.0462,8.0104
1317141.0,7.5944,-0.6608,25.8095,1.1669,-6.1267,8.1669
1317151.0,8.3222,-0.8906,25.1391,2.0705,-4.8917,8.2775
1317161.0,8.1116,-0.7661,26.4894,2.2594,-4.2138,8.4021
1317171.0,9.0405,-0.8811,26.5182,2.0481,-4.1952,8.5037
1317181.0,10.2089,-1.0726,24.6028,1.5814,-3.993,8.6048
1317191.0,10.8122,-2.2122,22.2852,1.176,-3.5566,8.7495
1317201.0,12.0859,-4.0223,20.0538,0.4007,-2.9894,8.7788
1317211.0,13.3788,-6.2824,18.4354,-0.3092,-2.3408,8.6458
1317221.0,14.4897,-6.9145,17.0084,-0.6343,-1.351,8.3637
1317231.0,13.2351,-6.043,17.1999,-0.7082,-0.166,8.2201
1317241.0,11.7603,-5.5258,18.4928,-0.1389,1.0238,8.3584
1317251.0,10.975,-6.043,18.6652,0.4209,2.328,8.6213
1317261.0,10.9176,-7.6902,19.01,0.4422,3.5636,8.8049
1317271.0,10.7164,-10.5824,22.3618,0.1522,4.5198,8.7527
1317281.0,9.7875,-12.1338,24.689,-0.5944,4.9066,8.5026
1317291.0,9.8162,-13.9438,26.7193,-1.4431,4.8316,8.1839
1317301.0,9.979,-15.4665,27.6195,-2.2897,4.8454,7.8018
1317311.0,9.1171,-17.2957,29.305,-2.2865,4.9705,7.4347
1317321.0,8.2456,-18.7897,30.0233,-1.3941,5.3908,7.084
1317331.0,7.7572,-19.7474,29.4008,-0.0761,5.85,6.6993
1317341.0,8.5521,-20.1496,27.0641,0.9684,6.7131,6.1959
1317351.0,8.3414,-19.6612,25.3115,1.0115,7.6427,5.5388
1317361.0,7.0773,-19.1536,26.4799,-0.0223,8.3292,4.7965
1317371.0,5.4588,-19.259,31.7758,-1.1047,8.5856,4.1255
1317381.0,4.7597,-19.2685,37.5507,-1.6283,8.3409,3.4992
1317391.0,3.6488,-18.2534,40.2417,-1.7464,7.8481,2.9937
1317401.0,2.4134,-16.52,41.276,-1.7384,7.3102,2.6318
