time_ms,ax,ay,az,gx,gy,gz
476061.0,-0.2155,0.2969,8.1882,-0.5912,-0.7482,0.2453
476071.0,0.7039,-0.4262,8.157,-0.4773,-0.687,0.3416
476081.0,1.0463,-0.4429,11.3988,-0.1399,-0.423,0.3022
476091.0,-1.6927,0.2227,7.6471,0.6178,-0.3129,0.4704
476101.0,1.0199,-2.2242,8.4994,0.3656,-0.6082,0.513
476111.0,1.3743,-0.3926,6.4739,0.5965,-0.3097,0.4092
476121.0,0.8547,-0.5818,8.2313,0.4635,-0.0724,0.3656
476131.0,0.6608,-0.4286,7.8985,0.5433,0.0186,0.3725
476141.0,0.9553,-0.3567,7.2544,0.5683,0.149,0.3661
476151.0,0.8667,-0.2227,7.2281,0.4528,0.3757,0.3193
476161.0,0.3591,0.316,7.7045,0.2102,0.6029,0.2661
476171.0,-0.1077,0.3041,9.323,-0.066,0.7716,0.257
476181.0,-0.3855,-0.0838,11.0732,-0.1336,0.903,0.299
476191.0,-0.5626,-0.6369,12.5432,-0.0436,0.9206,0.3459
476201.0,-0.5794,-1.1612,13.623,0.1703,0.8503,0.3688
476211.0,-0.5986,-1.3647,13.9558,0.4544,0.7247,0.3608
476221.0,-0.4597,-1.2881,13.4387,0.6258,0.5055,0.3139
476231.0,-0.2394,-0.9888,12.5313,0.6327,0.2916,0.2379
476241.0,-0.4884,-0.5794,11.892,0.5481,0.1942,0.1655
476251.0,-0.7542,-0.3232,11.5233,0.4539,0.1618,0.1245
476261.0,-0.6728,-0.249,11.4156,0.4033,0.1458,0.1054
476271.0,-0.9313,-0.0862,11.2001,0.423,0.1655,0.1048
476281.0,-0.8475,-0.1915,11.2599,0.4784,0.1995,0.1266
476291.0,-0.1844,-0.5507,11.4419,0.5938,0.257,0.1437
476301.0,-0.735,-0.6919,11.4012,0.7295,0.3225,0.1266
476311.0,-1.0534,-0.7829,11.3054,0.746,0.3097,0.0612
476321.0,-0.8715,-0.6871,11.6598,0.6423,0.2581,-0.0394
476331.0,-0.7111,-0.7278,12.706,0.539,0.215,-0.1362
476341.0,-1.2641,-0.4501,13.2064,0.4757,0.0654,-0.232
476351.0,-1.4485,-0.1844,13.4602,0.3544,-0.2373,-0.3326
476361.0,-1.5083,0.3711,13.046,0.331,-0.4683,-0.4055
476371.0,-1.6113,0.8284,12.6174,0.2613,-0.6609,-0.4459
476381.0,-1.561,1.0894,12.2344,0.1245,-0.8349,-0.4677
476391.0,-1.5107,1.0989,12.2559,-0.0495,-0.9828,-0.4784
476401.0,-1.3503,1.0534,12.2344,-0.2421,-1.1728,-0.497
476411.0,-1.3144,1.0199,12.062,-0.4528,-1.3952,-0.531
476421.0,-1.3264,1.0367,12.0452,-0.5832,-1.5825,-0.5646
476431.0,-1.3599,1.2594,11.8896,-0.5986,-1.7272,-0.5768
476441.0,-1.2306,1.5754,11.4012,-0.5587,-1.873,-0.5598
476451.0,-0.9768,1.7765,10.659,-0.53,-1.997,-0.5151
476461.0,-0.68,1.798,9.9814,-0.5672,-2.0843,-0.4619
476471.0,-0.3735,1.6472,9.5146,-0.6667,-2.1497,-0.415
476481.0,-0.249,1.2617,9.323,-0.7811,-2.2003,-0.3831
476491.0,-0.2274,0.9146,8.9328,-0.8902,-2.2764,-0.3688
476501.0,-0.0048,0.6009,8.2552,-1.0355,-2.3887,-0.3911
476511.0,0.2945,0.5746,7.58,-1.1962,-2.4722,-0.4411
476521.0,0.5195,0.5914,7.4603,-1.2787,-2.4312,-0.4778
476531.0,0.7111,0.6728,7.6758,-1.2026,-2.3275,-0.4784
476541.0,1.1181,0.7159,7.8003,-0.9892,-2.2492,-0.4401
476551.0,1.5826,0.8691,7.2856,-0.712,-2.1955,-0.3773
476561.0,2.0279,0.9792,6.2632,-0.5353,-2.1572,-0.3113
476571.0,2.3367,1.1109,5.2457,-0.5007,-2.0774,-0.2533
476581.0,2.4469,1.0942,4.604,-0.5614,-1.9364,-0.1974
476591.0,2.6504,0.8643,4.8171,-0.5523,-1.6942,-0.1293
476601.0,2.7533,0.7183,5.3199,-0.3459,-1.3909,-0.0447
476611.0,2.9592,0.6105,5.9256,0.0037,-1.1126,0.0537
476621.0,3.3016,0.6416,6.1172,0.431,-0.8626,0.1634
476631.0,3.644,0.6416,6.0932,0.7412,-0.7008,0.265
476641.0,4.0007,0.5555,5.6192,0.8679,-0.6215,0.3352
476651.0,4.1492,0.4693,5.1116,0.7662,-0.6002,0.3544
476661.0,4.2377,0.4262,4.4388,0.497,-0.6295,0.3278
476671.0,4.2952,0.4334,3.6559,0.1628,-0.654,0.2714
476681.0,4.4939,0.5435,2.8922,-0.166,-0.6119,0.2033
476691.0,4.4628,0.7781,2.4325,-0.4289,-0.4842,0.1517
476701.0,4.4939,1.0774,2.2984,-0.5593,-0.3028,0.1479
476711.0,4.4628,1.3192,1.81,-0.4715,-0.0761,0.2065
476721.0,4.4005,1.5179,0.7494,-0.2299,0.2102,0.3044
476731.0,4.1108,1.7142,-0.7805,0.0197,0.5779,0.4076
476741.0,3.462,1.7454,-2.0159,0.1309,1.0355,0.4922
476751.0,3.4788,1.7142,-2.8371,0.1043,1.5399,0.5459
476761.0,4.7357,2.162,-1.5945,0.0213,2.154,0.5491
476771.0,0.4741,3.2465,-0.5866,0.1213,2.8596,0.621
476781.0,-0.6249,2.3822,0.4525,0.1628,3.1879,0.8242
476791.0,1.1827,1.5874,1.0056,0.2708,3.4805,0.9876
476801.0,-0.3448,1.652,1.8579,0.6566,4.1654,1.1142
476811.0,-2.1811,0.838,4.2258,0.9328,4.6395,1.2244
476821.0,-2.3798,0.3735,5.2529,1.202,4.8279,1.2771
476831.0,-3.1987,0.0072,6.2106,1.4271,5.0732,1.2749
476841.0,-4.0079,-0.3448,7.4077,1.5043,5.2716,1.2249
476851.0,-4.6543,-0.5746,8.4443,1.4016,5.3328,1.1339
476861.0,-5.363,-0.8571,9.6989,1.1403,5.294,1.0217
476871.0,-5.928,-1.075,11.0708,0.8897,5.178,0.9062
476881.0,-6.7421,-0.8643,12.3541,0.9019,5.0859,0.8115
476891.0,-7.4148,-0.3519,13.2136,1.2563,5.0615,0.7646
476901.0,-7.8721,0.3089,12.7587,1.7395,5.0396,0.754
476911.0,-8.3845,0.5195,12.5863,1.9784,5.0343,0.7242
476921.0,-8.8705,0.4573,13.1968,1.9709,5.1136,0.6598
476931.0,-9.4475,0.3687,14.8943,1.6102,5.0093,0.5209
476941.0,-9.754,0.4693,16.2782,1.0791,4.6246,0.356
476951.0,-9.9455,0.5866,17.1736,0.596,4.1329,0.2261
476961.0,-9.9742,0.6584,17.2167,0.3065,3.6572,0.1548
476971.0,-10.3094,0.6991,16.5176,0.1894,3.2693,0.1171
476981.0,-10.5943,0.5028,16.0483,0.1016,2.999,0.0899
476991.0,-10.5584,-0.3136,16.8217,0.1373,2.9309,0.0819
477001.0,-11.1354,-1.1301,18.5455,0.331,2.8819,0.0447
477011.0,-10.3645,-2.0973,20.152,0.5768,2.6217,-0.0644
477021.0,-10.5273,-2.241,20.5877,0.8051,2.1689,-0.2905
477031.0,-10.5896,-1.9082,20.0371,0.8434,1.5766,-0.588
477041.0,-10.6255,-1.1157,19.0746,0.6667,0.9482,-0.912
477051.0,-10.5417,-0.1293,17.8631,0.3709,0.4236,-1.2042
477061.0,-10.2232,0.7614,16.9749,-0.0649,-0.0255,-1.4521
477071.0,-10.5824,1.2881,16.9916,-0.4832,-0.3602,-1.6362
477081.0,-10.8912,1.8651,16.86,-0.6811,-0.6098,-1.731
477091.0,-11.0061,1.64,18.184,-0.7184,-0.8003,-1.7224
477101.0,-11.0349,1.3384,19.3451,-0.4092,-1.0248,-1.648
477111.0,-11.2839,1.6017,19.0794,0.0644,-1.4069,-1.5687
477121.0,-11.2504,1.9106,17.6477,0.4028,-1.9247,-1.4952
477131.0,-10.0365,2.3918,15.2415,0.531,-2.3887,-1.4234
477141.0,-9.6103,2.466,13.4746,0.3741,-2.6739,-1.3649
477151.0,-9.3015,2.217,12.548,0.0761,-2.8723,-1.3303
477161.0,-8.8514,1.8747,11.9016,-0.2192,-3.0288,-1.3191
477171.0,-8.667,1.324,11.6981,-0.4363,-3.1379,-1.3292
477181.0,-8.7005,0.8284,12.1673,-0.506,-3.1815,-1.3601
477191.0,-8.7221,0.8667,13.0604,-0.3278,-3.1948,-1.3893
477201.0,-8.5305,1.4509,13.1274,-0.049,-3.414,-1.3909
477211.0,-8.0397,1.9441,12.0141,0.2123,-3.7423,-1.3218
477221.0,-7.6255,2.296,10.4363,0.4246,-3.9355,-1.2015
477231.0,-7.1563,2.3104,9.0597,0.5013,-4.0169,-1.0701
477241.0,-6.3853,2.0782,7.9224,0.4443,-4.0483,-0.9578
477251.0,-5.6,1.6089,7.1443,0.2613,-4.0542,-0.8854
477261.0,-4.9728,1.0151,6.7277,0.0005,-4.0238,-0.8642
477271.0,-4.5729,0.4429,6.7971,-0.2671,-3.9898,-0.8987
477281.0,-4.5466,0.012,7.7979,-0.4193,-3.9467,-0.9621
477291.0,-4.1851,-0.0862,8.7269,-0.2501,-3.9265,-1.0105
477301.0,-3.9289,0.1197,8.9447,0.1916,-3.9414,-1.0137
477311.0,-3.6344,0.4693,8.4396,0.7492,-3.9664,-0.9594
477321.0,-3.1675,0.9673,7.1323,1.2239,-4.01,-0.8737
477331.0,-2.2889,1.2067,5.3391,1.4282,-4.0632,-0.7875
477341.0,-1.2641,1.7071,3.3902,1.3271,-4.0664,-0.7572
477351.0,-0.4238,2.2936,1.9154,0.9472,-3.9467,-0.7551
477361.0,0.17,2.4708,1.3815,0.4001,-3.7439,-0.7492
477371.0,0.6847,2.4157,1.5682,-0.066,-3.4619,-0.7439
477381.0,1.3647,2.4086,2.059,-0.3411,-3.1725,-0.7423
477391.0,2.0303,2.4253,2.5115,-0.4188,-2.9133,-0.7242
477401.0,2.5379,2.5379,2.6193,-0.29,-2.6223,-0.6689
477411.0,2.9018,2.648,2.3583,-0.1133,-2.3647,-0.589
477421.0,3.395,2.6983,1.834,0.0223,-2.1497,-0.5055
477431.0,3.8427,2.8108,1.1564,0.1128,-1.905,-0.4305
477441.0,4.0558,2.9377,0.4286,0.1059,-1.6357,-0.3757
477451.0,4.2042,3.1364,-0.0503,0.009,-1.3516,-0.3342
477461.0,4.367,3.2417,-0.3352,-0.1564,-1.0525,-0.2895
477471.0,4.6448,3.2561,-0.2203,-0.3251,-0.7322,-0.2389
477481.0,4.889,3.158,0.2753,-0.4188,-0.3868,-0.1783
477491.0,4.9632,2.9975,0.7135,-0.4087,-0.0468,-0.1149
477501.0,4.8219,2.8323,1.1372,-0.3118,0.2831,-0.0511
477511.0,4.6783,2.806,1.3312,-0.1426,0.6039,0.0138
477521.0,4.3886,2.727,1.5634,0.0516,0.9301,0.0835
477531.0,4.051,2.6719,1.7861,0.2629,1.2739,0.1559
477541.0,3.8451,2.4972,1.9321,0.4001,1.5735,0.2176
477551.0,3.7613,2.217,2.0255,0.4363,1.8395,0.2554
477561.0,3.4572,1.8962,2.2194,0.4028,2.1253,0.2645
477571.0,2.9425,1.4676,2.7988,0.3219,2.4254,0.2405
477581.0,2.5498,1.087,3.6536,0.2581,2.7143,0.1862
477591.0,2.138,1.0463,4.6184,0.265,2.982,0.1064
477601.0,1.4293,1.2761,5.7293,0.3443,3.2198,0.0309
477611.0,0.723,1.7214,6.7038,0.464,3.3949,-0.0176
477621.0,0.3591,2.1213,7.0725,0.5225,3.4598,-0.0325
477631.0,-0.0479,2.2338,7.1874,0.4321,3.4758,-0.0282
477641.0,-0.6105,2.0327,7.604,0.2309,3.537,-0.0197
477651.0,-1.1301,1.47,8.7771,0.0293,3.6317,-0.0202
477661.0,-1.6209,0.9266,10.1849,-0.0484,3.6854,-0.042
477671.0,-2.047,0.6895,11.3054,0.049,3.6774,-0.0825
477681.0,-2.3224,0.7254,11.734,0.2304,3.5923,-0.141
477691.0,-2.5259,1.1013,11.2839,0.3485,3.4449,-0.2134
477701.0,-3.0263,1.4748,10.5848,0.3347,3.3422,-0.2873
477711.0,-3.8164,1.6664,10.8098,0.2841,3.4247,-0.3421
477721.0,-4.4508,1.6424,12.572,0.3283,3.6295,-0.3688
477731.0,-4.6687,1.6376,14.9422,0.5098,3.7397,-0.3874
477741.0,-4.5466,2.0159,16.8384,0.7152,3.5843,-0.4188
477751.0,-5.1643,2.9616,17.6405,0.8046,3.1746,-0.4491
477761.0,-4.9608,3.6081,17.2861,0.7503,2.6334,-0.4342
477771.0,-4.7501,4.0725,16.4003,0.5954,2.188,-0.3948
477781.0,-4.7716,4.2138,15.5815,0.2879,1.8246,-0.3592
477791.0,-4.774,4.2018,14.9039,-0.0745,1.5266,-0.3278
477801.0,-5.0709,4.221,14.5496,-0.39,1.3287,-0.2948
477811.0,-5.2194,4.0318,15.1266,-0.5561,1.2361,-0.2256
477821.0,-5.3941,3.7637,15.9119,-0.4597,1.1861,-0.1086
477831.0,-5.5378,3.3854,16.0627,-0.2011,1.052,0.0266
477841.0,-5.3415,2.9664,15.3899,0.067,0.887,0.1266
477851.0,-5.1739,2.7246,14.4969,0.241,0.7854,0.1639
477861.0,-5.0877,2.7007,14.0659,0.2756,0.7476,0.1405
477871.0,-4.9536,2.8754,13.9438,0.2006,0.7061,0.0798
477881.0,-4.8243,3.1651,13.9893,0.0596,0.6343,0.0122
477891.0,-4.8674,3.4429,14.212,-0.1101,0.5225,-0.0383
477901.0,-4.9608,3.5123,14.7962,-0.2368,0.3863,-0.0511
477911.0,-5.023,3.3208,15.5264,-0.1772,0.281,-0.017
477921.0,-5.2409,3.1603,15.7419,0.0181,0.1437,0.0309
477931.0,-5.102,3.1005,15.0907,0.1203,-0.1304,0.0399
477941.0,-5.0996,3.2777,14.0492,0.0388,-0.4103,-0.0037
477951.0,-5.0542,3.5913,13.4841,-0.1756,-0.6125,-0.0644
477961.0,-4.9273,3.8642,13.3237,-0.406,-0.7641,-0.1032
477971.0,-4.9608,4.0223,13.125,-0.5582,-0.9009,-0.099
477981.0,-4.8674,4.0103,12.8688,-0.6534,-1.0339,-0.0591
477991.0,-4.6735,3.802,12.6988,-0.6886,-1.1345,0.0085
478001.0,-4.4652,3.4884,12.6007,-0.6742,-1.2388,0.0745
478011.0,-4.3694,3.1891,12.4307,-0.63,-1.3505,0.1266
478021.0,-4.288,3.0167,12.1721,-0.5587,-1.4537,0.1703
478031.0,-4.1276,2.897,11.7148,-0.48,-1.566,0.2118
478041.0,-3.948,2.7366,11.066,-0.4284,-1.6639,0.249
478051.0,-3.7206,2.6624,10.4507,-0.4246,-1.7299,0.2735
478061.0,-3.4237,2.5283,9.9096,-0.4933,-1.7836,0.2863
478071.0,-3.2872,2.3272,9.5337,-0.6029,-1.8182,0.2927
478081.0,-3.0215,1.968,9.5624,-0.7178,-1.8432,0.2916
478091.0,-2.8156,1.6616,9.596,-0.7402,-1.8416,0.2815
478101.0,-2.6384,1.3671,9.7636,-0.7231,-1.8603,0.2586
478111.0,-2.4852,1.1899,9.9048,-0.6375,-1.8768,0.2283
478121.0,-2.3415,1.245,10.058,-0.4885,-1.889,0.2027
478131.0,-2.1332,1.4461,10.0102,-0.3171,-1.93,0.1974
478141.0,-1.9489,1.5562,9.6989,-0.1676,-1.9922,0.224
478151.0,-1.7621,1.4533,9.2895,-0.0569,-2.0252,0.2703
478161.0,-1.6951,1.2929,9.1195,0.0298,-2.0093,0.3086
478171.0,-1.6281,1.087,9.1985,0.1016,-1.9922,0.3304
478181.0,-1.4269,0.8236,9.2177,0.1868,-2.0162,0.3374
478191.0,-1.2474,0.7638,8.9208,0.3166,-2.0502,0.3198
478201.0,-0.9146,0.9002,8.3606,0.4534,-2.0848,0.2841
478211.0,-0.4956,1.1612,7.6423,0.5454,-2.0779,0.2395
478221.0,-0.2562,1.5586,7.2137,0.5704,-2.0077,0.1974
478231.0,0.012,2.0087,7.003,0.5188,-1.9507,0.1751
478241.0,0.2514,2.4253,6.7469,0.4044,-1.9284,0.1767
478251.0,0.4741,2.7222,6.5242,0.2645,-1.9113,0.2102
478261.0,0.644,2.8683,6.2896,0.1554,-1.8826,0.2724
478271.0,0.7829,2.8874,5.9568,0.1011,-1.8289,0.3512
478281.0,1.008,2.8132,5.5929,0.1128,-1.7358,0.4427
478291.0,1.2234,2.6456,5.2816,0.1873,-1.5841,0.5396
478301.0,1.5706,2.4565,4.9895,0.2682,-1.4266,0.622
478311.0,1.822,2.4373,4.5538,0.3209,-1.2643,0.6715
478321.0,1.992,2.4541,4.1372,0.2921,-1.1121,0.6955
478331.0,2.1117,2.5091,3.8211,0.191,-0.9599,0.7088
478341.0,2.1715,2.6695,3.2968,0.017,-0.8269,0.7205
478351.0,2.466,2.6432,2.7701,-0.2767,-0.7391,0.7317
478361.0,2.624,2.6217,2.1596,-0.605,-0.6061,0.7423
478371.0,2.4541,2.4541,2.1117,-0.8908,-0.3852,0.7657
478381.0,2.2841,2.1739,2.4397,-1.0339,-0.1048,0.8141
478391.0,2.3008,1.8364,2.8132,-1.028,0.158,0.8721
478401.0,2.3535,1.585,3.0263,-0.8626,0.4395,0.9216
478411.0,2.4349,1.5083,3.0861,-0.63,0.7125,0.9599
478421.0,2.5283,1.7502,2.8754,-0.4012,0.9732,0.9913
478431.0,2.4229,1.9992,2.5235,-0.2959,1.1994,1.0307
478441.0,2.0662,2.0997,2.138,-0.315,1.4351,1.1015
478451.0,1.573,1.8364,2.229,-0.3906,1.7421,1.1988
478461.0,1.0223,1.336,2.988,-0.4305,2.0875,1.2973
478471.0,0.498,0.7207,3.9672,-0.3475,2.4254,1.3814
478481.0,-0.2658,0.2873,5.0685,-0.1176,2.7505,1.4415
478491.0,-0.747,-0.103,6.0406,0.2043,3.0139,1.474
478501.0,-1.0439,-0.3615,6.6032,0.5348,3.1879,1.4681
478511.0,-1.4413,-0.2897,6.4763,0.7625,3.2911,1.4175
478521.0,-1.7909,-0.2921,5.9831,0.7593,3.3438,1.3372
478531.0,-2.1787,-0.3496,5.454,0.4816,3.3789,1.2398
478541.0,-2.7869,-0.7254,5.7269,0.0186,3.4593,1.144
478551.0,-3.4285,-1.3767,6.6942,-0.4459,3.5396,1.0504
478561.0,-3.9193,-2.0877,8.2648,-0.7199,3.6418,0.9578
478571.0,-4.5945,-2.4612,9.9479,-0.6753,3.7349,0.861
478581.0,-5.0949,-2.5786,11.0708,-0.3427,3.7711,0.7817
478591.0,-5.5498,-2.5929,11.406,0.1602,3.7998,0.721
478601.0,-5.8012,-2.6169,11.3749,0.6061,3.8089,0.654
478611.0,-6.1028,-2.5666,11.0397,0.8913,3.8259,0.5667
478621.0,-7.039,-2.6049,11.1115,0.9594,3.8349,0.4268
478631.0,-8.0493,-2.5474,11.1282,0.8423,3.7727,0.2437
478641.0,-8.5281,-2.6504,11.813,0.6321,3.7072,0.05
478651.0,-8.9615,-2.8323,13.1346,0.5364,3.6955,-0.1399
478661.0,-9.3398,-2.6911,14.7698,0.6194,3.6753,-0.3246
478671.0,-9.6343,-2.4708,16.4553,0.8375,3.5838,-0.4746
478681.0,-9.7276,-2.2314,17.6596,1.0637,3.3129,-0.6018
478691.0,-10.137,-1.9417,17.9972,1.2244,2.9064,-0.7258
478701.0,-10.0676,-1.7717,17.9828,1.259,2.4477,-0.8599
478711.0,-10.228,-1.1923,17.7123,1.2659,2.0412,-1.0158
478721.0,-9.9838,-1.0463,17.5088,1.1957,1.6559,-1.184
478731.0,-10.3118,-0.2945,16.9629,1.0706,1.3138,-1.3776
478741.0,-10.5441,0.2753,17.3891,0.8673,1.0036,-1.5463
478751.0,-10.6901,0.8475,17.9445,0.7061,0.654,-1.6778
478761.0,-10.8026,1.5347,18.0499,0.6018,0.2293,-1.7703
478771.0,-10.8577,2.1213,17.844,0.5593,-0.1873,-1.8113
478781.0,-10.7691,2.6719,17.2837,0.547,-0.5731,-1.806
478791.0,-10.5465,3.0382,16.4266,0.5076,-0.9355,-1.7762
478801.0,-10.343,3.3279,15.3373,0.4001,-1.2606,-1.7443
478811.0,-10.0533,3.5291,14.4442,0.2166,-1.5378,-1.7155
478821.0,-9.7276,3.7014,13.7092,0.0043,-1.7634,-1.69
478831.0,-9.4164,3.8331,13.3596,-0.1559,-1.9108,-1.6458
478841.0,-9.3302,4.0175,13.2735,-0.2081,-2.0194,-1.5676
478851.0,-9.0309,4.13,12.797,-0.1942,-2.1801,-1.4442
478861.0,-8.4587,4.1132,12.0596,-0.1495,-2.3189,-1.2962
478871.0,-7.9009,4.0845,11.3485,-0.1016,-2.4051,-1.1419
478881.0,-7.3622,3.9409,10.5824,-0.0803,-2.4509,-0.986
478891.0,-6.8546,3.6607,9.9407,-0.0819,-2.4584,-0.8407
478901.0,-6.3231,3.2848,9.2129,-0.1208,-2.4498,-0.7173
478911.0,-5.7365,2.8108,8.5808,-0.2123,-2.4073,-0.6274
478921.0,-5.4492,2.4517,8.3558,-0.3576,-2.3328,-0.5805
478931.0,-5.1547,2.0207,8.8322,-0.5018,-2.2524,-0.5491
478941.0,-4.9584,1.6137,9.6247,-0.5263,-2.1955,-0.5146
478951.0,-4.7692,1.336,10.2879,-0.3868,-2.2109,-0.4768
478961.0,-4.5945,1.3336,10.1873,-0.0676,-2.2423,-0.4252
478971.0,-4.0582,1.324,9.5816,0.3022,-2.2652,-0.3592
478981.0,-3.5889,1.4222,8.7652,0.6199,-2.2269,-0.298
478991.0,-3.1651,1.6185,7.7165,0.7497,-2.1742,-0.2575
479001.0,-2.648,1.6328,6.7588,0.5901,-2.1588,-0.2533
479011.0,-2.2194,1.5682,6.1339,0.2272,-2.1056,-0.2868
479021.0,-1.9848,1.3264,6.1651,-0.2219,-1.9842,-0.3507
479031.0,-1.9225,1.0894,6.9959,-0.6306,-1.8395,-0.4305
479041.0,-1.8579,0.9361,8.4084,-0.8764,-1.7379,-0.5007
479051.0,-1.8938,1.0032,9.7779,-0.8466,-1.6921,-0.5268
479061.0,-1.8842,1.1037,10.568,-0.5523,-1.7347,-0.4837
479071.0,-1.7047,1.2498,10.2161,-0.0809,-1.814,-0.3868
479081.0,-1.2546,1.3288,9.2273,0.4108,-1.8432,-0.2655
479091.0,-0.7254,1.3695,7.853,0.7471,-1.8156,-0.1607
479101.0,-0.3112,1.4245,6.5721,0.7907,-1.7655,-0.1064
479111.0,0.012,1.4533,5.8227,0.5614,-1.6889,-0.1038
479121.0,0.3041,1.403,5.6096,0.1767,-1.5926,-0.1389
479131.0,0.5267,1.3431,6.0047,-0.2112,-1.4952,-0.1841
479141.0,0.6225,1.245,6.7397,-0.4832,-1.4074,-0.2155
479151.0,0.6321,1.1971,7.4867,-0.5678,-1.3452,-0.2086
479161.0,0.735,1.0582,7.8745,-0.4576,-1.3058,-0.1628
479171.0,0.972,0.917,7.683,-0.2171,-1.2866,-0.099
479181.0,1.3695,0.8284,7.0054,0.0394,-1.268,-0.0468
479191.0,1.9106,0.8452,6.3039,0.2214,-1.2079,-0.0202
479201.0,2.0853,0.9457,5.7078,0.2794,-1.1196,-0.016
479211.0,2.2553,1.087,5.1547,0.1687,-1.0823,-0.0287
479221.0,2.4373,1.1468,4.695,-0.0559,-1.0525,-0.0447
479231.0,2.5283,1.1588,4.3886,-0.3262,-1.0068,-0.0607
479241.0,2.6911,1.0367,4.0725,-0.5773,-0.9482,-0.074
479251.0,2.7916,0.9074,3.7182,-0.7577,-0.8402,-0.083
479261.0,2.8778,0.7901,3.4524,-0.8508,-0.6768,-0.0915
479271.0,2.8491,0.8452,3.1053,-0.8285,-0.4353,-0.0958
479281.0,2.7629,0.8859,2.9544,-0.7205,-0.1325,-0.0825
479291.0,2.6695,1.0151,2.7629,-0.5364,0.2182,-0.0394
479301.0,2.727,1.0678,2.806,-0.3193,0.597,0.0255
479311.0,2.5738,1.0726,2.885,-0.0995,0.9881,0.099
479321.0,2.2242,1.0247,2.873,0.0532,1.3521,0.1692
479331.0,1.7837,0.8739,3.2178,0.157,1.7363,0.2331
479341.0,1.3479,0.6416,3.9696,0.2591,2.1391,0.2884
479351.0,0.8356,0.4621,5.0973,0.4055,2.5116,0.3304
479361.0,0.2705,0.4405,6.1292,0.6231,2.8218,0.3597
479371.0,-0.1963,0.4956,7.1946,0.8865,3.0745,0.3789
479381.0,-0.7111,0.7494,7.9057,1.1275,3.2565,0.3874
479391.0,-1.0104,1.0439,8.248,1.2063,3.3012,0.3842
479401.0,-1.403,1.1588,8.3127,1.0568,3.2368,0.3634
479411.0,-1.8435,1.1468,8.4228,0.7157,3.1496,0.3209
479421.0,-2.2673,0.8835,8.928,0.2953,3.0804,0.2655
479431.0,-2.5187,0.4669,9.9288,-0.0383,3.0378,0.1979
479441.0,-2.9497,0.316,11.2288,-0.1155,3.0602,0.1208
479451.0,-3.4979,0.6225,12.1554,0.0245,3.0453,0.0468
479461.0,-3.8714,1.1468,12.4546,0.1985,2.9101,-0.0138
479471.0,-4.0223,1.6831,12.0835,0.2751,2.7058,-0.0442
479481.0,-4.2808,1.8268,11.5113,0.165,2.5084,-0.0623
479491.0,-4.7573,1.7789,11.1953,-0.0899,2.3695,-0.0921
479501.0,-5.1691,1.6233,11.813,-0.3576,2.3285,-0.1314
479511.0,-5.5354,1.6257,13.4003,-0.4486,2.3679,-0.1586
479521.0,-5.9592,1.8459,15.0787,-0.3294,2.3237,-0.1495
479531.0,-6.2513,2.0303,15.943,-0.1038,2.104,-0.0995
479541.0,-6.3853,1.9968,16.0076,0.1575,1.8007,-0.0335
479551.0,-6.3686,2.0087,15.3325,0.3544,1.5059,-0.0005
479561.0,-6.3997,2.0638,14.2335,0.3906,1.251,-0.0245
479571.0,-6.4476,2.0997,13.2232,0.2065,1.0339,-0.1016
479581.0,-6.7325,2.1452,12.7874,-0.1075,0.903,-0.2118
479591.0,-7.2185,2.1524,13.2735,-0.3927,0.8551,-0.3171
479601.0,-7.6399,2.3487,14.1713,-0.5156,0.8093,-0.39
479611.0,-7.7572,2.5762,15.0547,-0.4491,0.7168,-0.415
479621.0,-7.8386,2.9185,15.5456,-0.2543,0.5694,-0.398
479631.0,-7.7117,3.2825,15.4306,-0.0708,0.356,-0.3661
479641.0,-7.5896,3.6895,15.0667,0.0346,0.1266,-0.3288
479651.0,-7.5848,4.1587,14.7196,0.0208,-0.1016,-0.2804
479661.0,-7.5417,4.537,14.5663,-0.0686,-0.3379,-0.207
479671.0,-7.4053,4.7525,14.3796,-0.1687,-0.5912,-0.1054
479681.0,-7.2951,4.8985,14.0899,-0.2309,-0.8115,0.0277
479691.0,-7.0437,4.944,13.5392,-0.3145,-1.044,0.1703
479701.0,-6.4859,4.7285,12.8473,-0.4746,-1.3026,0.3044
479711.0,-6.1603,4.5442,11.9279,-0.6433,-1.4819,0.4252
479721.0,-5.8873,4.1444,11.3749,-0.8487,-1.6096,0.5199
479731.0,-5.6479,3.6033,10.7739,-1.0781,-1.7336,0.5912
479741.0,-5.2577,3.1843,10.5919,-1.235,-1.7618,0.6359
479751.0,-5.0374,2.8898,11.0061,-1.2888,-1.7448,0.6699
479761.0,-4.7381,2.7485,11.0061,-1.3026,-1.8198,0.7157
479771.0,-4.537,2.5642,11.0923,-1.3063,-1.8986,0.7854
479781.0,-4.2042,2.296,11.1139,-1.2829,-1.9731,0.878
479791.0,-3.8786,2.0039,10.9319,-1.243,-2.063,0.9706
479801.0,-3.7278,1.719,10.556,-1.2095,-2.1582,1.0573
479811.0,-3.304,1.3767,10.3214,-1.1478,-2.1795,1.135
479821.0,-3.1053,1.2498,10.477,-1.0142,-2.1061,1.2137
479831.0,-2.9736,1.1085,10.5321,-0.9099,-2.1045,1.3042
479841.0,-2.7198,0.893,10.4555,-0.8482,-2.1444,1.4069
479851.0,-2.5163,0.5171,10.3908,-0.8413,-2.1939,1.5096
479861.0,-2.3463,-0.012,10.2831,-0.8737,-2.2721,1.6011
479871.0,-1.9417,-0.747,10.2017,-0.9216,-2.3972,1.6655
479881.0,-1.6783,-1.4796,9.9623,-0.9152,-2.4844,1.6831
479891.0,-1.4772,-2.059,9.8378,-0.862,-2.5547,1.641
479901.0,-1.166,-2.2697,9.6702,-0.7354,-2.5967,1.5511
479911.0,-0.917,-2.1524,9.402,-0.5683,-2.6079,1.4511
479921.0,-0.6752,-1.8387,8.7676,-0.4677,-2.6606,1.3718
479931.0,-0.3639,-1.6951,8.1259,-0.5002,-2.7287,1.3266
479941.0,-0.0718,-1.743,7.6136,-0.6055,-2.7436,1.3085
479951.0,0.3759,-1.9297,7.2161,-0.7545,-2.7702,1.2882
479961.0,0.6847,-2.2051,6.7971,-0.8897,-2.8053,1.2547
479971.0,0.917,-2.5307,6.3207,-0.9472,-2.7782,1.2116
479981.0,1.1229,-2.818,6.2896,-0.9078,-2.6941,1.1494
479991.0,1.2546,-2.7294,6.1699,-0.7529,-2.6095,1.0828
480001.0,1.4509,-2.6193,5.7964,-0.5731,-2.5658,1.0307
480011.0,1.6424,-2.3703,5.1332,-0.3996,-2.5339,0.9961
480021.0,1.8483,-2.1955,4.118,-0.3028,-2.4988,0.9802
480031.0,2.1859,-2.241,3.0694,-0.2927,-2.3924,0.9764
480041.0,2.3894,-2.2266,2.4014,-0.3725,-2.2029,0.9647
480051.0,2.4086,-2.332,1.9728,-0.5316,-2.0013,0.945
480061.0,2.5738,-2.4972,1.834,-0.7077,-1.782,0.9174
480071.0,2.4181,-2.569,1.6903,-0.8232,-1.5511,0.8732
480081.0,2.3679,-2.3727,1.3647,-0.8567,-1.3074,0.8269
480091.0,2.7342,-2.1548,0.9505,-0.82,-1.0435,0.7944
480101.0,3.3399,-1.9417,0.6321,-0.712,-0.7173,0.7881
480111.0,3.9337,-1.81,0.2729,-0.563,-0.3491,0.8104
480121.0,4.3766,-1.8651,-0.3639,-0.3938,0.0548,0.8588
480131.0,4.3167,-2.1835,-0.407,-0.1394,0.6348,0.9136
480141.0,3.9049,-2.5235,0.1652,0.1937,1.2904,0.9445
480151.0,3.5051,-2.9161,0.8212,0.4805,1.7762,0.9174
480161.0,3.0885,-2.9688,1.0439,0.746,2.1902,0.8359
480171.0,2.7773,-2.7964,1.1157,0.9823,2.5972,0.737
480181.0,2.0901,-2.5522,0.9768,1.1286,2.9873,0.6391
480191.0,0.905,-2.478,1.0582,1.2361,3.4582,0.5779
480201.0,-0.3711,-2.7174,1.8004,1.3329,4.0201,0.539
480211.0,-1.2306,-2.9784,3.3854,1.4505,4.5581,0.4789
480221.0,-1.7334,-3.1077,5.1643,1.6203,4.9689,0.3852
480231.0,-2.0997,-3.1173,6.8259,1.8177,5.1929,0.2586
480241.0,-2.6959,-2.9449,7.9511,2.0364,5.2567,0.1139
480251.0,-3.5267,-2.7438,8.4851,2.2891,5.2551,-0.0234
480261.0,-4.4796,-2.7078,8.6167,2.4765,5.2073,-0.1548
480271.0,-5.5043,-2.8012,8.5042,2.5031,5.1163,-0.3166
480281.0,-6.3758,-2.9784,9.1842,2.4493,5.1216,-0.5108
480291.0,-6.7995,-2.9688,10.671,2.4435,5.1689,-0.7295
480301.0,-7.094,-2.5355,12.5025,2.535,5.0843,-0.9679
480311.0,-7.4651,-1.6855,13.6924,2.742,4.8507,-1.1818
480321.0,-7.8721,-0.5363,13.6877,2.908,4.4724,-1.3542
480331.0,-8.5952,0.4836,12.8329,2.8628,4.0425,-1.4771
480341.0,-9.165,1.2641,12.141,2.5972,3.7317,-1.5559
480351.0,-9.7348,1.8435,12.5025,2.2067,3.5534,-1.608
480361.0,-10.1011,2.387,13.8648,1.8172,3.3869,-1.6325
480371.0,-10.3501,3.0215,15.433,1.5543,3.1496,-1.608
480381.0,-10.5919,3.6368,16.7714,1.4053,2.7893,-1.5245
480391.0,-10.6877,4.1156,17.2837,1.317,2.3062,-1.3819
480401.0,-10.726,4.2186,16.836,1.2127,1.782,-1.2047
480411.0,-10.8673,3.9768,16.0675,1.0786,1.3329,-1.0387
480421.0,-11.066,3.6009,15.5839,0.9472,1.0302,-0.9057
480431.0,-10.9391,3.2202,15.6581,0.8418,0.821,-0.8136
480441.0,-10.7045,2.976,16.0962,0.7689,0.5795,-0.7593
480451.0,-10.3813,2.7701,16.0962,0.6992,0.2128,-0.7263
480461.0,-9.9838,2.4588,15.4785,0.6247,-0.1932,-0.7136
480471.0,-9.9168,2.1739,14.4921,0.5199,-0.5513,-0.7343
480481.0,-9.8354,1.8794,13.3884,0.3315,-0.8732,-0.7976
480491.0,-9.6199,1.6783,12.6127,0.1128,-1.0738,-0.8977
480501.0,-9.7157,1.7909,12.2032,-0.0697,-1.1754,-1.0142
480511.0,-9.7516,2.0231,12.3397,-0.2017,-1.2675,-1.1121
480521.0,-9.7324,2.3439,12.5983,-0.1703,-1.3223,-1.1467
480531.0,-9.5289,2.66,12.7802,-0.0021,-1.3877,-1.1079
480541.0,-9.2799,2.8395,12.5887,0.2565,-1.4617,-1.0169
480551.0,-8.9471,2.9712,11.995,0.4858,-1.5618,-0.9003
480561.0,-8.4659,2.9712,11.1905,0.5896,-1.6559,-0.7886
480571.0,-8.0589,2.909,10.2783,0.5337,-1.7368,-0.7008
480581.0,-7.6207,2.7007,9.5146,0.2943,-1.823,-0.6561
480591.0,-7.2209,2.5211,9.1937,-0.0287,-1.8581,-0.6449
480601.0,-6.7469,2.2505,9.2703,-0.3358,-1.881,-0.6481
480611.0,-6.4093,1.98,9.663,-0.5662,-1.922,-0.6614
480621.0,-6.3398,1.8292,9.9455,-0.6534,-1.9752,-0.6625
480631.0,-6.1603,1.6903,9.9623,-0.5965,-2.0242,-0.6353
480641.0,-6.019,1.5155,9.7396,-0.4129,-2.0194,-0.5779
480651.0,-5.7844,1.3001,9.4308,-0.1623,-1.9619,-0.5082
480661.0,-5.4396,1.0271,9.0094,0.0851,-1.8821,-0.4512
480671.0,-5.0566,0.8212,8.6143,0.2597,-1.8076,-0.4294
480681.0,-4.6759,0.7254,8.1666,0.3182,-1.7379,-0.4518
480691.0,-4.2784,0.7087,7.9272,0.241,-1.6847,-0.5124
480701.0,-4.2138,0.8236,7.8889,0.0692,-1.6394,-0.5954
480711.0,-4.0175,0.8906,8.3222,-0.1075,-1.5889,-0.6678
480721.0,-3.8786,0.9361,8.9974,-0.1809,-1.5155,-0.7184
480731.0,-3.8666,1.0798,9.7133,-0.1506,-1.4841,-0.7455
480741.0,-3.7062,1.1779,10.2472,-0.0436,-1.5006,-0.7444
480751.0,-3.6559,1.3815,10.5943,0.1117,-1.525,-0.7178
480761.0,-3.5051,1.5155,10.7715,0.2373,-1.6224,-0.6747
480771.0,-3.3088,1.6137,10.6973,0.3416,-1.731,-0.6247
480781.0,-3.2537,1.7214,10.4651,0.4087,-1.848,-0.5789
480791.0,-3.1101,1.7166,10.137,0.4135,-1.9773,-0.5332
480801.0,-2.8874,1.7071,9.8162,0.414,-2.0593,-0.4869
480811.0,-2.6193,1.5897,9.505,0.4044,-2.1194,-0.447
480841.0,-1.4676,1.6185,8.1068,0.1745,-2.2945,-0.4448
480851.0,-1.1803,1.7095,7.5824,-0.0021,-2.3631,-0.464
480861.0,-0.8332,1.7717,6.8881,-0.1799,-2.3961,-0.4752
480871.0,-0.5171,1.8052,6.4356,-0.3139,-2.3408,-0.4699
480881.0,-0.1867,1.7813,6.0358,-0.397,-2.2466,-0.4432
480891.0,0.1939,1.6807,5.7293,-0.4326,-2.121,-0.3996
480901.0,0.51,1.5658,5.533,-0.4119,-1.9646,-0.3501
480911.0,0.8523,1.4772,5.138,-0.3842,-1.8262,-0.3022
480921.0,1.1803,1.3599,4.6519,-0.3805,-1.699,-0.265
480931.0,1.4988,1.2761,3.9792,-0.4193,-1.574,-0.2464
480941.0,1.7789,1.221,3.213,-0.5231,-1.45,-0.2458
480951.0,2.0231,1.1516,2.3152,-0.6651,-1.2829,-0.2602
480961.0,2.2242,1.0918,1.5826,-0.8093,-1.0222,-0.2804
480971.0,2.2817,1.0726,1.1133,-0.9073,-0.6513,-0.2985
480981.0,2.2146,1.0127,1.1301,-0.9296,-0.1862,-0.2996
480991.0,2.2314,0.929,1.5275,-0.8604,0.3203,-0.2767
481001.0,2.2386,0.8045,2.2529,-0.688,0.8258,-0.2379
481011.0,2.047,0.7326,3.0311,-0.4353,1.2941,-0.1942
481021.0,1.719,0.7446,3.7134,-0.1442,1.6937,-0.1479
481031.0,1.4245,0.7901,4.1946,0.141,2.0321,-0.1
481041.0,0.8715,0.9481,4.5753,0.4028,2.3482,-0.0553
481051.0,0.1053,1.0918,4.8674,0.6029,2.6478,-0.0106
481061.0,-0.5507,1.2091,5.3008,0.721,2.9123,0.0303
481071.0,-1.1325,1.4054,5.9041,0.771,3.1533,0.0644
481081.0,-1.4102,1.5706,6.9504,0.7615,3.3491,0.0974
481091.0,-1.2689,1.6089,8.5018,0.7322,3.4885,0.1314
481101.0,-1.5131,1.7454,9.9527,0.6907,3.5034,0.1575
481111.0,-1.9561,1.7909,10.92,0.5683,3.3252,0.1788
481121.0,-2.3559,1.7837,11.3318,0.4001,3.0708,0.1841
481131.0,-2.6025,1.8172,11.2887,0.1953,2.8117,0.1628
481141.0,-2.9808,1.9848,11.1809,-0.0474,2.5717,0.1229
481151.0,-3.6919,2.1644,11.1929,-0.3124,2.378,0.0995
481161.0,-4.4915,2.1069,12.0093,-0.4954,2.2982,0.1352
481171.0,-4.6974,1.7502,13.1537,-0.5513,2.2109,0.2235
481181.0,-4.3335,1.0678,14.2766,-0.4704,2.0598,0.3092
481191.0,-3.8164,0.4262,14.9709,-0.2804,1.8395,0.3278
481201.0,-3.5099,0.1269,15.1266,-0.0559,1.5756,0.265
481211.0,-3.7469,0.1676,14.8967,0.1016,1.2941,0.1458
481221.0,-4.1108,0.4166,14.3341,0.141,0.9855,0.0128
481231.0,-4.2928,0.6871,13.544,0.0846,0.6992,-0.1123
481241.0,-4.4963,0.9888,12.7563,0.0032,0.5098,-0.216
481251.0,-4.7022,1.2019,12.1242,-0.0681,0.4544,-0.2884
481261.0,-4.8411,1.3647,12.074,-0.1139,0.5071,-0.3342
481271.0,-4.9225,1.6305,12.4762,-0.1165,0.5875,-0.3549
481281.0,-4.8866,1.8866,13.034,-0.0681,0.6226,-0.3491
481291.0,-5.035,2.1859,13.5129,0.0463,0.6194,-0.3129
481301.0,-5.1188,2.3918,13.7188,0.182,0.5587,-0.2538
481311.0,-5.1691,2.5714,13.556,0.2969,0.464,-0.1852
481321.0,-5.2553,2.7198,13.1418,0.3406,0.3618,-0.1229
481331.0,-5.4612,2.8491,12.7802,0.3033,0.2959,-0.0734
481341.0,-5.8203,3.0023,13.149,0.2097,0.307,-0.0234
481351.0,-5.794,2.9281,14.2527,0.0878,0.2863,0.0346
481361.0,-5.8849,2.8898,15.3827,0.0117,0.1666,0.0931
481371.0,-5.8562,2.6624,16.3907,-0.0378,-0.1165,0.1362
481381.0,-5.9496,2.727,16.4075,-0.0122,-0.5007,0.1618
481391.0,-5.9185,2.7198,15.8089,0.0213,-0.8902,0.1825
481401.0,-5.9999,2.7773,14.7004,0.025,-1.2196,0.2043
481411.0,-5.8107,2.5977,13.7092,-0.0591,-1.4697,0.2182
481421.0,-5.9544,2.4062,13.307,-0.1729,-1.5958,0.2155
481431.0,-5.9735,2.1859,13.4267,-0.3315,-1.7363,0.1932
481441.0,-5.7748,2.0111,13.8289,-0.4491,-1.9044,0.1745
481451.0,-5.6383,1.8507,14.0085,-0.4922,-2.1402,0.1692
481461.0,-5.5258,1.652,13.4267,-0.4853,-2.4392,0.1692
481471.0,-5.3534,1.5826,12.3996,-0.4539,-2.7021,0.1575
481481.0,-5.1284,1.6017,11.2671,-0.4198,-2.8394,0.1378
481491.0,-4.8339,1.7597,10.4842,-0.4049,-2.8585,0.1224
481501.0,-4.4341,2.0399,10.1347,-0.4214,-2.8276,0.1245
481511.0,-3.9648,2.2769,9.9431,-0.4778,-2.8191,0.1623
481521.0,-3.6057,2.3846,9.7588,-0.5326,-2.8202,0.2395
481531.0,-3.201,2.3056,9.6103,-0.5832,-2.8479,0.3448
481541.0,-2.6097,2.0423,9.3326,-0.5912,-2.8702,0.4656
481551.0,-2.0758,1.7573,9.007,-0.5167,-2.8436,0.5933
481561.0,-1.6496,1.4389,8.6766,-0.389,-2.7829,0.7173
481571.0,-1.3743,1.1732,8.102,-0.248,-2.7138,0.8333
481581.0,-0.9242,0.7015,7.7979,-0.132,-2.6015,0.9323
481591.0,-0.4453,0.3711,7.9224,0.0197,-2.4094,0.9993
481601.0,0.0215,0.2274,7.9033,0.124,-2.3104,1.0334
481611.0,0.5219,0.182,7.4843,0.1304,-2.2854,1.0477
481621.0,0.8787,0.1556,7.0413,0.0623,-2.2429,1.0499
481631.0,1.2905,-0.0144,6.596,-0.0649,-2.195,1.0461
481641.0,1.6879,-0.1963,6.3111,-0.2017,-2.1141,1.0371
481651.0,1.8651,-0.4453,6.0932,-0.3182,-2.0071,1.0169
481661.0,2.2625,-0.8212,6.3398,-0.3906,-1.8773,0.9823
481671.0,2.5666,-1.0151,6.8139,-0.3624,-1.7224,0.9328
481681.0,2.8252,-1.0463,6.9384,-0.3342,-1.6916,0.8673
481691.0,3.1005,-0.9792,6.5122,-0.3347,-1.7358,0.8014
481701.0,3.3734,-0.8619,5.9376,-0.3629,-1.7405,0.7434
481711.0,3.3782,-0.6823,5.3917,-0.4379,-1.7203,0.6955
481721.0,3.5123,-0.6728,4.865,-0.5678,-1.7134,0.6635
481731.0,3.6703,-0.814,4.4843,-0.6737,-1.6602,0.6391
481741.0,3.8618,-1.0558,4.3574,-0.7003,-1.5282,0.613
481751.0,4.039,-1.1947,4.3694,-0.6396,-1.3611,0.5747
481761.0,4.3359,-1.2498,4.1779,-0.5454,-1.2286,0.5252
481771.0,4.6519,-1.1684,3.7086,-0.431,-1.0791,0.4768
481781.0,4.8674,-1.0487,3.2346,-0.3342,-0.8796,0.431
481791.0,5.0111,-0.8763,2.6743,-0.2645,-0.6556,0.3943
481801.0,5.1236,-0.7398,2.2386,-0.2134,-0.3842,0.365
481811.0,5.0709,-0.7135,1.9034,-0.183,-0.0756,0.3416
481821.0,4.9488,-0.7039,1.6424,-0.1761,0.2469,0.3203
481831.0,4.8961,-0.8164,1.5443,-0.1681,0.6055,0.2959
481841.0,4.6998,-0.9385,1.9393,-0.1203,1.0142,0.2623
481851.0,4.4101,-0.972,2.4014,-0.0208,1.409,0.2166
481861.0,4.0797,-0.7805,2.7414,0.1117,1.7405,0.1671
481871.0,3.8834,-0.5363,2.8587,0.2714,2.046,0.1362
481881.0,3.9217,-0.3926,2.988,0.4443,2.362,0.1219
481891.0,3.5554,-0.1867,2.7485,0.5757,2.6425,0.1123
481901.0,2.9544,-0.1006,2.2601,0.6502,2.9516,0.1117
481911.0,1.9393,-0.2011,2.2362,0.7237,3.4231,0.1176
481921.0,0.6752,-0.2825,3.1388,0.8205,3.985,0.1176
481931.0,-0.4669,-0.4214,4.5131,0.8998,4.424,0.1
481941.0,-1.4413,-0.2969,5.7078,0.9972,4.7262,0.0729
481951.0,-2.3008,-0.0838,6.8498,1.1009,4.9226,0.0474
481961.0,-2.909,0.1269,7.8147,1.1685,5.0354,0.0426
481971.0,-3.6176,0.0383,8.6862,1.1488,5.0641,0.049
481981.0,-4.6376,-0.4669,9.6582,1.0387,5.07,0.0357
481991.0,-5.8035,-1.0558,11.6909,0.953,5.1407,-0.0271
482001.0,-6.6439,-1.166,14.6094,1.0211,5.1695,-0.1389
482011.0,-6.9959,-0.747,17.3268,1.2499,4.971,-0.2528
482021.0,-6.8498,0.0144,19.0411,1.5506,4.5336,-0.323
482031.0,-6.7828,0.8882,19.1967,1.7608,3.9541,-0.3379
482041.0,-6.7325,1.3144,18.0666,1.6495,3.2528,-0.3219
482051.0,-6.9576,1.0343,16.1992,1.1951,2.5951,-0.3166
482061.0,-7.367,0.2538,15.4282,0.647,2.2407,-0.3576
482071.0,-7.6758,-0.486,16.0747,0.2464,2.0736,-0.4624
482081.0,-7.6878,-0.8308,17.2694,0.1383,1.9209,-0.6008
482091.0,-7.6878,-0.6776,17.9924,0.2889,1.698,-0.7359
482101.0,-7.5968,-0.2035,17.7219,0.4906,1.3393,-0.8551
482111.0,-7.4268,0.3903,16.5607,0.5954,0.9541,-0.9557
482121.0,-7.1874,0.8859,15.129,0.5289,0.613,-1.0472
482131.0,-7.106,1.3527,13.4506,0.2847,0.3187,-1.1408
482141.0,-7.4939,1.6927,11.6454,-0.1048,0.1197,-1.2308
482151.0,-8.0254,1.7214,11.6334,-0.4608,0.2347,-1.2781
482161.0,-8.2121,1.7502,13.9103,-0.5795,0.5135,-1.2643
482171.0,-7.8075,1.6496,16.532,-0.4401,0.4906,-1.1877
482181.0,-7.4891,1.7166,17.7458,0.0239,0.2357,-1.0674
482191.0,-7.3526,1.98,17.4465,0.6646,-0.0809,-0.9285
482201.0,-7.2377,2.3894,15.9669,1.1855,-0.4443,-0.8003
482211.0,-6.8666,2.739,13.9726,1.3856,-0.7779,-0.704
482221.0,-6.4787,2.9951,12.2846,1.2568,-1.0009,-0.6492
482231.0,-6.122,3.1005,11.0588,0.8508,-1.1808,-0.638
482241.0,-5.7221,2.9712,10.2376,0.2964,-1.3271,-0.6604
482251.0,-5.5593,2.7892,9.9623,-0.2373,-1.3877,-0.704
482261.0,-5.5857,2.6073,10.2687,-0.655,-1.3931,-0.7444
482271.0,-5.5019,2.3942,10.8721,-0.8721,-1.3851,-0.7535
482281.0,-5.4157,2.2075,11.7029,-0.829,-1.3755,-0.7231
482291.0,-5.0877,2.0494,12.0476,-0.58,-1.4149,-0.6625
482301.0,-4.9584,2.0327,11.6765,-0.216,-1.4521,-0.5928
482311.0,-4.8387,2.1476,10.8769,0.0947,-1.4883,-0.5279
482321.0,-4.6064,2.3343,9.8713,0.2496,-1.5064,-0.4762
482331.0,-4.3407,2.4397,9.2536,0.2405,-1.4724,-0.4379
482341.0,-4.221,2.4804,9.0764,0.1155,-1.4138,-0.4092
482351.0,-4.0725,2.3846,9.3589,-0.0346,-1.3643,-0.3826
482361.0,-3.869,2.1237,10.0509,-0.116,-1.3154,-0.3602
482371.0,-3.8235,2.0806,10.7835,-0.0819,-1.2702,-0.3475
482381.0,-3.814,2.162,11.6789,0.0096,-1.2888,-0.3352
482391.0,-3.7637,2.3822,12.074,0.0873,-1.4532,-0.3102
482401.0,-3.6943,2.4445,11.8489,0.1032,-1.6942,-0.2762
482411.0,-3.6895,2.4205,11.5975,0.1038,-1.864,-0.2464
482421.0,-3.5889,2.4828,11.6454,0.1048,-1.9741,-0.2251
482431.0,-3.5243,2.6671,11.5616,0.0628,-2.1306,-0.2001
482441.0,-3.3351,2.5618,11.7053,-0.0096,-2.2822,-0.158
482451.0,-3.2465,2.4565,12.1075,-0.0474,-2.403,-0.1043
482461.0,-2.8922,2.2146,12.39,-0.0745,-2.6542,-0.0575
482471.0,-2.5355,1.9848,12.0548,-0.0218,-2.9346,-0.0218
482481.0,-2.3535,1.9968,11.2863,0.1059,-3.1416,0.0032
482491.0,-2.2146,2.2577,10.1921,0.2033,-3.3151,0.0314
482501.0,-1.7238,2.4253,8.9759,0.1703,-3.4821,0.0708
482511.0,-1.2306,2.6456,7.9128,0.058,-3.5529,0.1235
482521.0,-0.7398,2.6049,7.0318,-0.1538,-3.621,0.1852
482531.0,-0.091,2.3655,6.1028,-0.3751,-3.6503,0.249
482541.0,0.5507,2.0063,5.3127,-0.5374,-3.5774,0.3038
482551.0,1.0918,1.6352,4.6064,-0.6481,-3.4513,0.3374
482561.0,1.6568,1.3958,4.0175,-0.7045,-3.2773,0.3501
482571.0,2.2745,1.2306,3.4596,-0.7066,-3.0453,0.3555
482581.0,2.8371,1.1444,3.0478,-0.6875,-2.776,0.3592
482591.0,3.3615,1.0846,2.8228,-0.6556,-2.4977,0.3661
482601.0,3.8092,1.0391,2.7222,-0.6024,-2.2109,0.381
482611.0,4.2784,0.9122,2.5307,-0.5459,-1.9417,0.3986
482621.0,4.6519,0.7949,2.2218,-0.4683,-1.6527,0.4161
482631.0,4.7669,0.7446,1.9585,-0.3879,-1.3399,0.4326
482641.0,4.8243,0.6488,1.6161,-0.323,-1.0201,0.4534
482651.0,4.9704,0.5171,1.4748,-0.274,-0.6816,0.4699
482661.0,5.1643,0.3735,1.5036,-0.2432,-0.3459,0.4715
482671.0,5.4253,0.2921,1.5251,-0.2373,-0.049,0.4571
482681.0,5.5881,0.2801,1.403,-0.2575,0.2203,0.4321
482691.0,5.6767,0.2059,1.2139,-0.298,0.4997,0.406
482701.0,5.4875,0.1101,1.0367,-0.3294,0.8333,0.381
482711.0,5.0709,-0.0431,1.2929,-0.3485,1.2058,0.3608
482721.0,4.5753,-0.2107,1.7023,-0.3251,1.6022,0.339
482731.0,4.1061,-0.3304,2.3367,-0.2453,1.9773,0.3155
482741.0,3.6368,-0.3232,2.9688,-0.1165,2.3003,0.2937
482751.0,3.1244,-0.2227,3.2705,0.0575,2.5786,0.2836
482761.0,2.7174,-0.0263,3.1699,0.2501,2.8425,0.2911
482771.0,2.5809,0.0814,3.055,0.4119,3.1325,0.3028
482781.0,2.071,0.2969,2.8515,0.5151,3.4444,0.3113
482791.0,1.1899,0.3543,2.7892,0.5018,3.7482,0.3246
482801.0,-0.2131,0.3591,2.8108,0.3948,4.0691,0.3501
482811.0,-1.6783,0.0407,3.6033,0.2496,4.4607,0.397
482821.0,-2.8419,-0.4908,5.3582,0.1729,4.8731,0.4539
482831.0,-3.5338,-1.1349,7.6543,0.2139,5.1642,0.4943
482841.0,-3.8858,-1.8148,9.9599,0.4145,5.3163,0.4837
482851.0,-4.2018,-2.2817,11.6861,0.7396,5.3004,0.4007
482861.0,-4.5131,-2.5929,12.5983,1.0919,5.137,0.2341
482871.0,-5.4061,-2.4828,12.6294,1.4117,4.9236,-0.008
482881.0,-6.2752,-2.1835,12.3948,1.59,4.7209,-0.3118
482891.0,-7.2496,-1.312,12.9335,1.6857,4.6868,-0.6417
482901.0,-8.3438,-0.1245,14.2838,1.6362,4.6347,-0.9424
482911.0,-9.2009,1.0151,16.4218,1.4181,4.457,-1.1701
482921.0,-9.7037,2.1428,19.1943,1.0701,4.0898,-1.3164
482931.0,-9.7085,2.9784,21.7226,0.6721,3.4247,-1.3814
482941.0,-9.8713,3.5817,22.9891,0.364,2.5839,-1.3814
482951.0,-10.228,4.1635,23.3985,0.2011,1.7187,-1.3452
482961.0,-10.3884,4.9033,22.5941,0.1532,0.9264,-1.267
482971.0,-10.1897,5.4157,21.0211,0.0319,0.1687,-1.1605
482981.0,-10.0413,5.7748,19.0938,-0.2022,-0.4757,-1.0344
482991.0,-9.9383,5.952,17.2167,-0.5082,-0.9551,-0.8892
483001.0,-9.7923,5.9256,16.1154,-0.7402,-1.2233,-0.7019
483011.0,-9.5457,5.8179,15.7227,-0.7466,-1.268,-0.4432
483021.0,-9.1051,5.4851,15.8041,-0.5731,-1.2765,-0.1245
483031.0,-8.5186,4.8363,15.5096,-0.3017,-1.3771,0.2107
483041.0,-7.9703,4.1132,14.6118,0.0106,-1.4841,0.514
483051.0,-7.4053,3.4165,13.3956,0.2272,-1.5596,0.7407
483061.0,-6.7708,2.7988,12.2846,0.2714,-1.6086,0.8828
483071.0,-6.189,2.1596,11.5784,0.1495,-1.6346,0.9381
483081.0,-5.6862,1.64,11.4946,-0.0383,-1.6059,0.9227
483091.0,-5.2337,1.2641,11.7412,-0.2379,-1.6059,0.8583
483101.0,-4.6783,0.984,12.1506,-0.398,-1.6698,0.7726
483111.0,-4.2521,0.8523,12.5408,-0.4629,-1.7703,0.6896
483121.0,-3.8092,0.8068,12.469,-0.4715,-1.9475,0.6146
483131.0,-3.4692,0.7997,12.062,-0.4528,-2.1354,0.547
483141.0,-3.2489,0.8164,11.2887,-0.4422,-2.2886,0.4832
483151.0,-2.9975,0.7542,10.805,-0.4518,-2.3865,0.4129
483161.0,-2.9042,0.8763,10.7356,-0.4119,-2.3844,0.3368
483171.0,-2.715,1.1349,10.805,-0.3618,-2.4158,0.2708
483181.0,-2.5115,1.5371,10.8074,-0.299,-2.4738,0.2373
483191.0,-2.2697,1.8579,10.5991,-0.2719,-2.5834,0.2458
483201.0,-1.9441,1.9752,10.0126,-0.2943,-2.7329,0.2879
483211.0,-1.4964,1.9441,9.2177,-0.3358,-2.8415,0.3406
483221.0,-1.1205,1.81,8.4755,-0.373,-2.8707,0.3884
483231.0,-0.917,1.6879,7.9727,-0.3624,-2.8101,0.431
483241.0,-0.6776,1.5036,8.1954,-0.2485,-2.6451,0.4762
483251.0,-0.5028,1.5251,8.9112,0.0021,-2.4403,0.5295
483261.0,-0.3376,1.6879,9.5217,0.2975,-2.3594,0.6013
483271.0,-0.0934,1.8866,9.2823,0.5353,-2.4195,0.6987
483281.0,0.3017,1.9537,8.5497,0.654,-2.5041,0.8099
483291.0,0.6177,1.8794,7.7452,0.6119,-2.5909,0.9046
483301.0,1.0127,1.6592,6.8785,0.4486,-2.6638,0.9615
483311.0,1.4988,1.4365,6.4165,0.2841,-2.6223,0.986
483321.0,1.6975,1.2785,6.6056,0.2054,-2.4727,0.9966
483331.0,1.9824,1.1109,6.8857,0.1671,-2.4057,0.9982
483341.0,2.2865,1.0965,6.6535,0.1969,-2.3855,0.9961
483351.0,2.5666,1.0798,6.201,0.2384,-2.3684,0.9924
483361.0,2.9401,1.1372,5.4253,0.2639,-2.3237,0.9881
483371.0,3.3471,1.1349,4.7716,0.2357,-2.2205,0.9828
483381.0,3.6775,1.0558,4.2258,0.1612,-2.0556,0.9754
483391.0,4.0725,0.8643,4.0366,0.0186,-1.8789,0.9413
483401.0,4.2689,0.7207,4.5131,-0.0921,-1.6714,0.8854
483411.0,4.4508,0.7015,5.0063,-0.0979,-1.5006,0.837
483421.0,4.5705,0.6393,5.3247,0.0128,-1.383,0.8125
483431.0,4.7333,0.6752,5.1882,0.2368,-1.276,0.8099
483441.0,4.9273,0.7661,4.3886,0.4709,-1.1797,0.8083
483451.0,5.2409,0.8619,3.2609,0.6247,-1.0504,0.7971
483461.0,5.5138,1.0127,2.3056,0.663,-0.829,0.7652
483471.0,5.7389,1.2139,1.5179,0.5912,-0.5449,0.7194
483481.0,5.8514,1.3647,0.9218,0.4193,-0.2341,0.6742
483491.0,5.6838,1.336,0.9433,0.2128,0.1383,0.6353
483501.0,5.3151,1.233,1.4724,0.0351,0.5177,0.597
483511.0,4.9704,1.1588,2.296,-0.0404,0.862,0.5651
483521.0,4.7309,1.1612,3.0885,0.0234,1.1643,0.5502
483531.0,4.6591,1.1564,3.3591,0.1575,1.3904,0.5454
483541.0,4.6807,1.2953,3.6129,0.2788,1.5745,0.5284
483551.0,4.3287,1.7142,3.3926,0.4246,1.7927,0.5204
483561.0,3.9504,2.0686,3.2513,0.4746,1.988,0.5385
483571.0,3.541,2.3894,3.1412,0.4496,2.188,0.5906
483581.0,2.8371,2.5211,3.3519,0.3757,2.4254,0.6731
483591.0,2.0279,2.296,3.9169,0.2528,2.6196,0.779
483601.0,1.5467,1.9369,4.5633,0.1564,2.7649,0.8886
483611.0,1.154,1.5467,5.2457,0.1447,2.891,0.9828
483621.0,0.9481,1.1779,5.6862,0.2043,2.9639,1.0477
483631.0,0.8595,0.8667,5.5402,0.29,3.0123,1.0818
483641.0,0.6297,0.6584,5.1763,0.348,3.0985,1.0802
483651.0,0.0503,0.5243,4.6424,0.3326,3.2326,1.0499
483661.0,-0.8499,0.2993,4.4772,0.2341,3.4257,1.0068
483671.0,-1.731,0.0024,4.7333,0.1133,3.6593,0.9519
483681.0,-2.3296,-0.2705,5.3846,-0.0043,3.8701,0.8796
483691.0,-2.8659,-0.4884,6.2728,-0.066,4.0568,0.7971
483701.0,-3.4237,-0.6033,6.9791,-0.075,4.1861,0.7082
483711.0,-3.8499,-0.6728,7.3741,-0.0968,4.225,0.605
483721.0,-4.5538,-0.6177,7.4891,-0.0947,4.2947,0.4917
483731.0,-5.7604,-0.2945,7.4699,-0.1793,4.3298,0.3672
483741.0,-7.1012,-0.0622,8.4467,-0.2565,4.458,0.2857
483751.0,-7.9655,0.2945,10.3022,-0.1479,4.6767,0.2799
483761.0,-8.4252,0.4956,12.9526,0.1868,4.8369,0.3406
483771.0,-8.8107,0.8116,14.777,0.6917,4.7778,0.4337
483781.0,-8.9519,0.9744,15.4737,1.2313,4.5836,0.5321
483791.0,-9.2464,1.166,15.1361,1.6054,4.3176,0.572
483801.0,-9.347,1.4988,14.3461,1.7075,4.0584,0.5364
483811.0,-9.7157,1.8316,14.3413,1.5383,3.911,0.4443
483821.0,-10.0341,2.2505,15.2989,1.2106,3.803,0.3352
483831.0,-10.2065,2.3296,17.4035,0.8711,3.6498,0.2528
483841.0,-10.6255,2.5043,19.5989,0.6391,3.3496,0.1985
483851.0,-10.726,2.5642,21.4329,0.5082,2.8511,0.1767
483861.0,-10.5872,2.5307,22.46,0.5066,2.2147,0.1756
483871.0,-10.3645,2.5618,22.4863,0.5853,1.5139,0.1628
483881.0,-10.0604,2.873,21.4305,0.6444,0.8104,0.1256
483891.0,-9.5122,3.2417,19.7474,0.588,0.1729,0.0718
483901.0,-9.323,3.7038,18.1289,0.3751,-0.3177,0.0037
483911.0,-9.1482,4.0414,17.2383,0.0495,-0.6731,-0.0553
483921.0,-8.9878,4.1132,17.1904,-0.249,-0.9323,-0.0772
483931.0,-9.0644,3.8307,17.2622,-0.4422,-1.2286,-0.066
483941.0,-8.9615,3.4141,16.7714,-0.5146,-1.5713,-0.0484
483951.0,-8.7293,3.0382,16.0555,-0.4757,-1.8512,-0.0452
483961.0,-8.4228,2.8204,15.129,-0.3906,-2.0752,-0.0585
483971.0,-7.9631,2.8084,14.0372,-0.3257,-2.2594,-0.0883
483981.0,-7.4508,2.8994,13.0125,-0.307,-2.3998,-0.125
483991.0,-6.869,3.0335,12.1554,-0.3363,-2.4935,-0.1591
484001.0,-6.4356,3.2489,11.6502,-0.3773,-2.5227,-0.1751
484011.0,-6.256,3.2944,12.1841,-0.3693,-2.4839,-0.1564
484021.0,-6.0382,3.2681,12.8736,-0.1405,-2.4286,-0.0809
484031.0,-5.8634,3.0909,12.9191,0.1884,-2.4914,0.0239
484041.0,-5.4157,2.9473,12.2272,0.5151,-2.601,0.1224
484051.0,-4.9081,2.8898,11.0564,0.7178,-2.6803,0.1926
484061.0,-4.3024,2.818,9.9503,0.7146,-2.7319,0.2134
484071.0,-3.8403,2.8036,9.1961,0.5406,-2.7218,0.19
484081.0,-3.4836,2.3559,9.2153,0.2613,-2.6781,0.1389
484091.0,-3.1316,2.3703,9.2081,0.0122,-2.6856,0.0351
484101.0,-2.9712,2.5426,9.7013,-0.1064,-2.6238,-0.0436
484111.0,-3.0287,2.7126,10.0533,-0.0399,-2.5041,-0.0479
484121.0,-3.5458,2.7007,10.3884,0.0835,-2.4743,-0.0261
484131.0,-2.9928,2.7318,10.1203,0.2112,-2.5403,0.0
484141.0,-2.2218,2.7581,9.5241,0.2565,-2.6329,0.0074
484151.0,-1.7933,2.8084,8.7628,0.2017,-2.685,-0.009
484161.0,-1.3815,2.9688,8.0373,0.0314,-2.7132,-0.0543
484171.0,-1.1995,3.2058,7.5753,-0.2277,-2.701,-0.1091
484181.0,-0.9936,3.3232,7.4077,-0.5316,-2.6999,-0.1575
484191.0,-0.9529,3.5123,7.3813,-0.7662,-2.6584,-0.1894
484201.0,-0.7566,3.5793,7.5441,-0.9083,-2.6207,-0.1868
484211.0,-0.5626,3.6775,7.4172,-0.9381,-2.5797,-0.1405
484221.0,-0.3376,3.6464,7.1227,-0.9014,-2.5217,-0.058
484231.0,-0.0072,3.462,6.8714,-0.8349,-2.4616,0.0468
484241.0,0.2873,3.213,6.5314,-0.737,-2.4036,0.157
484251.0,0.668,2.7845,6.3111,-0.5954,-2.3184,0.2629
484261.0,1.0175,2.5881,6.2297,-0.332,-2.1449,0.3608
484271.0,1.4102,2.4804,6.0454,-0.0282,-1.9672,0.4576
484281.0,1.7765,2.5163,5.6048,0.249,-1.7948,0.5539
484291.0,2.0734,2.5594,5.0206,0.4076,-1.6091,0.6481
484301.0,2.3631,2.4708,4.6519,0.3954,-1.4356,0.7343
484311.0,2.5115,2.332,4.537,0.2256,-1.2952,0.8014
484321.0,2.6576,2.0279,4.6495,-0.0229,-1.202,0.8498
484331.0,2.8587,1.6233,4.8267,-0.2703,-1.1659,0.8796
484341.0,2.7509,1.336,4.8746,-0.4401,-1.1584,0.8998
484351.0,2.976,0.893,4.5466,-0.4858,-1.1483,0.936
484361.0,3.2968,0.4788,4.1563,-0.3975,-1.0419,0.969
484371.0,3.5961,0.1987,3.6105,-0.2331,-0.8626,0.9871
484381.0,3.9863,-0.1077,3.1077,-0.0963,-0.6694,0.9823
484391.0,4.2952,-0.2873,2.6504,-0.0261,-0.4629,0.9392
484401.0,4.4484,-0.3184,2.1955,-0.0788,-0.2916,0.8546
484411.0,4.7214,-0.3136,1.6664,-0.248,-0.1463,0.7519
484421.0,4.7932,-0.2682,1.2546,-0.4704,0.0287,0.6529
484431.0,4.6256,-0.3376,1.0463,-0.663,0.2634,0.5779
484441.0,4.4891,-0.5148,1.1061,-0.7716,0.5502,0.5305
484451.0,4.2425,-0.747,1.2905,-0.7625,0.8897,0.4917
484461.0,4.0654,-0.9601,1.3623,-0.6566,1.243,0.4491
484471.0,4.039,-1.1851,1.4174,-0.5018,1.5937,0.3927
484481.0,3.96,-1.3455,1.5371,-0.2879,2.0061,0.3139
484491.0,3.7062,-1.3503,1.7621,-0.0436,2.4339,0.2118
484501.0,3.4261,-1.2737,1.8938,0.1474,2.7936,0.0878
484511.0,2.8778,-1.1181,1.8435,0.2687,3.1262,-0.0426
484521.0,1.8603,-0.972,1.719,0.3171,3.4715,-0.1655
484531.0,0.7087,-0.917,1.8914,0.3182,3.8599,-0.2623
484541.0,-0.4286,-0.9792,2.7557,0.3533,4.3027,-0.3326
484551.0,-1.3934,-1.1851,4.2665,0.4858,4.7209,-0.4049
484561.0,-2.3056,-1.1492,5.9544,0.7801,5.0652,-0.497
484571.0,-2.7031,-0.9768,7.4555,1.185,5.2663,-0.6098
484581.0,-3.0957,-0.5028,8.1858,1.5937,5.3195,-0.7577
484591.0,-3.8954,0.2394,8.2983,1.8885,5.3084,-0.9179
484601.0,-4.9943,1.1396,8.327,1.9933,5.3259,-1.0557
484611.0,-6.019,1.8028,9.6822,1.9284,5.4164,-1.1451
484621.0,-7.3023,2.648,12.2966,1.8842,5.5116,-1.1813
484631.0,-8.0349,3.4668,15.3373,1.9076,5.3834,-1.1611
484641.0,-8.3821,4.525,17.9709,2.0178,5.0588,-1.1041
484651.0,-8.3007,5.3079,19.8743,2.0061,4.424,-1.0318
484661.0,-7.8147,5.7102,20.4034,1.8039,3.5322,-0.9727
484671.0,-7.6806,6.0334,19.8838,1.4984,2.6685,-0.9365
484681.0,-7.762,6.1675,18.8496,1.0919,1.8789,-0.9253
484691.0,-7.8602,6.1938,17.1161,0.6109,1.1701,-0.9296
484701.0,-8.2959,6.0573,15.3827,0.0782,0.6401,-0.9349
484711.0,-8.6646,5.6192,14.7435,-0.3783,0.3597,-0.9094
484721.0,-8.5114,4.9871,14.9494,-0.6486,0.1948,-0.8445
484731.0,-8.1882,4.2808,15.0332,-0.7375,-0.0037,-0.7779
484741.0,-7.9128,3.7709,14.6118,-0.696,-0.2379,-0.7322
484751.0,-7.7069,3.3255,13.9055,-0.5821,-0.4166,-0.7104
484761.0,-7.7405,3.1556,13.0005,-0.4613,-0.5358,-0.7152
484771.0,-7.6926,3.0837,12.2009,-0.3773,-0.6024,-0.7364
484781.0,-7.604,3.0789,11.6909,-0.3022,-0.5906,-0.7609
484791.0,-7.4627,3.0933,11.5568,-0.2267,-0.5358,-0.7811
484801.0,-7.2664,3.225,11.5879,-0.1368,-0.4741,-0.7934
484811.0,-7.082,3.395,11.7507,-0.0357,-0.4214,-0.7928
484821.0,-6.9767,3.6943,11.9303,0.0708,-0.3906,-0.7748
484831.0,-6.8211,4.063,12.2918,0.1564,-0.3837,-0.7317
484841.0,-6.6535,4.379,12.6677,0.199,-0.4379,-0.6593
484851.0,-6.7062,4.5394,13.0292,0.2187,-0.5279,-0.5651
484861.0,-6.6032,4.6208,13.204,0.2315,-0.6694,-0.4571
484871.0,-6.5888,4.5777,13.2495,0.2267,-0.8349,-0.3533
484881.0,-6.4596,4.4628,13.3213,0.2139,-1.0057,-0.257
484891.0,-6.2608,4.3287,13.3884,0.2086,-1.184,-0.1703
484901.0,-6.2393,4.197,13.2399,0.215,-1.3654,-0.0894
484911.0,-6.0813,3.9361,12.9838,0.1979,-1.5633,-0.0117
484921.0,-5.9328,3.5698,12.7228,0.1729,-1.7352,0.0484
484931.0,-5.6695,3.1484,12.4163,0.1309,-1.9204,0.0772
484941.0,-5.4588,2.8587,11.8537,0.0798,-2.0997,0.0697
484951.0,-5.284,2.5833,11.2456,0.0016,-2.2578,0.0346
484961.0,-4.9608,2.3535,10.6159,-0.0644,-2.3583,-0.0176
484971.0,-4.8123,2.2098,10.24,-0.1006,-2.37,-0.0825
484981.0,-4.5203,2.1644,10.4651,-0.0889,-2.3376,-0.1495
484991.0,-4.221,2.2601,10.6494,0.0032,-2.3163,-0.2049
485001.0,-3.8307,2.375,10.5872,0.1091,-2.3525,-0.2437
485011.0,-3.4812,2.5714,10.0844,0.1772,-2.4036,-0.273
485021.0,-3.122,2.7318,9.6582,0.1618,-2.4344,-0.2975
485031.0,-2.7007,2.6839,9.3302,0.0777,-2.4594,-0.3182
485041.0,-2.1763,2.5786,9.1746,0.0138,-2.4435,-0.3565
485051.0,-1.8411,2.7869,9.4523,0.0282,-2.353,-0.4209
485061.0,-1.719,3.134,10.1706,0.0654,-2.2854,-0.4837
485071.0,-1.5634,3.6152,10.4052,0.0585,-2.3775,-0.5268
485081.0,-1.2713,4.0438,10.2232,-0.0255,-2.5701,-0.5433
485091.0,-1.0391,4.3886,9.8689,-0.1383,-2.7313,-0.5257
485101.0,-0.7183,4.4867,9.2799,-0.2879,-2.8984,-0.4885
485111.0,-0.2825,4.3287,8.6742,-0.4209,-2.9953,-0.4613
485121.0,-0.0838,4.3838,8.3414,-0.4778,-2.9612,-0.4624
485131.0,-0.0096,4.5059,8.4874,-0.4986,-2.8947,-0.4752
485141.0,-0.1939,4.7453,8.6407,-0.4938,-2.867,-0.4794
485151.0,-0.4022,4.9033,8.8921,-0.4528,-2.8761,-0.456
485161.0,-0.3184,4.9632,8.837,-0.3411,-2.9261,-0.3996
485171.0,0.1413,5.0302,8.272,-0.1378,-2.95,-0.3193
485181.0,0.4741,5.0853,7.2808,0.0798,-2.9107,-0.2357
485191.0,1.0463,5.2696,6.1866,0.2235,-2.7963,-0.1485
485201.0,1.5012,5.3582,5.4588,0.2687,-2.5813,-0.0506
485211.0,1.9058,5.3223,5.1451,0.2469,-2.3386,0.058
485221.0,2.2314,5.2577,5.2433,0.2426,-2.0646,0.1788
485231.0,2.2913,5.0374,5.5234,0.3033,-1.7868,0.3161
485241.0,2.3583,4.7046,5.4779,0.3693,-1.6123,0.4539
485251.0,2.6432,4.3383,5.5378,0.4635,-1.4314,0.5811
485261.0,2.8443,4.1276,5.5713,0.646,-1.1866,0.6971
485271.0,3.2034,3.8978,5.6455,0.8354,-0.9876,0.8125
485281.0,3.6416,3.7254,5.8155,1.0584,-0.7955,0.9371
485291.0,3.9816,3.5099,5.8634,1.3335,-0.6199,1.077
485301.0,4.2425,3.1364,5.4588,1.6256,-0.4975,1.226
485311.0,4.3598,2.794,4.5442,1.881,-0.3704,1.3505
485321.0,4.3981,2.4038,3.4572,1.9752,-0.2331,1.4239
485331.0,4.4724,2.0614,2.4014,1.8438,-0.0947,1.4298
485341.0,4.5035,1.8459,1.652,1.5016,0.0314,1.3739
485351.0,4.6232,1.5969,1.1349,1.0201,0.1309,1.2808
485361.0,4.6471,1.3647,0.6536,0.5199,0.2405,1.176
485371.0,4.5011,1.1564,0.4884,0.1022,0.4214,1.0754
485381.0,4.2808,0.9625,0.68,-0.1644,0.6641,0.9887
485391.0,4.0941,0.8188,0.7949,-0.249,0.9408,0.9285
485401.0,4.0893,0.5914,1.0894,-0.1708,1.2553,0.8902
485411.0,3.8978,0.5219,1.1732,0.0165,1.5873,0.8498
485421.0,3.5674,0.3424,1.1133,0.1921,1.8847,0.8141
485431.0,3.1556,0.2203,0.8356,0.2964,2.1694,0.7668
485441.0,2.9233,0.0431,0.4932,0.2666,2.4461,0.6939
485451.0,2.5402,-0.1891,0.2394,0.0942,2.7106,0.5901
485461.0,2.0877,-0.4142,0.0503,-0.1841,2.9889,0.4512
485471.0,1.6305,-0.4932,0.0934,-0.497,3.306,0.2889
485481.0,1.1349,-0.5171,0.4334,-0.829,3.637,0.1266
485491.0,-0.1197,-0.2849,1.0151,-1.1031,3.9951,-0.0016
485501.0,-1.6855,-0.2514,1.9728,-1.2776,4.3697,-0.041
485511.0,-3.1364,-0.5483,3.4955,-1.2494,4.7965,0.0138
485521.0,-4.1731,-1.0223,5.4492,-0.9812,5.2269,0.1112
485531.0,-4.9105,-1.6352,7.6255,-0.4959,5.6133,0.2017
485541.0,-5.5091,-2.0183,9.9718,0.1804,5.9203,0.224
485551.0,-6.3614,-1.9537,12.129,0.9972,6.1033,0.1559
485561.0,-6.9408,-1.4772,13.781,1.839,6.0969,0.017
485571.0,-6.9959,-0.6488,14.4466,2.5696,5.899,-0.1841
485581.0,-7.0581,0.6632,14.3532,3.0107,5.6234,-0.4374
485591.0,-7.7572,2.5881,13.6613,2.9138,5.2136,-0.7093
485601.0,-8.4324,3.9289,14.1545,2.2753,4.7704,-0.912
485611.0,-8.8538,4.6735,16.0124,1.5032,4.4054,-1.0291
485621.0,-9.0094,5.0206,18.6652,0.9025,3.9855,-1.0887
485631.0,-9.1506,5.4253,20.8679,0.5832,3.4401,-1.1169
485641.0,-9.0908,5.9999,21.8064,0.3911,2.7026,-1.1238
485651.0,-9.0764,6.4236,21.7633,0.1506,1.8533,-1.1084
485661.0,-9.1099,6.5601,20.9086,-0.1777,0.9833,-1.0674
485671.0,-9.1866,6.3279,19.7019,-0.4826,0.2389,-1.0057
485681.0,-9.2225,5.8395,18.591,-0.6588,-0.3113,-0.9301
485691.0,-8.995,5.2792,17.3316,-0.7024,-0.7418,-0.8599
485701.0,-8.6526,4.7932,15.7658,-0.7136,-1.0765,-0.8232
485711.0,-8.2265,4.3718,14.2024,-0.8051,-1.3388,-0.8386
485721.0,-7.8243,4.063,12.8425,-0.9855,-1.5176,-0.8966
485731.0,-7.6136,3.8092,11.995,-1.1738,-1.5889,-0.97
485741.0,-7.4843,3.6751,11.5233,-1.2654,-1.5633,-1.035
485751.0,-7.4005,3.62,11.5257,-1.2031,-1.458,-1.0706
485761.0,-7.2856,3.6679,11.7244,-0.9817,-1.326,-1.0679
485771.0,-7.027,3.7828,11.892,-0.6492,-1.1935,-1.0238
485781.0,-6.9001,4.0175,12.0045,-0.2799,-1.085,-0.9519
485791.0,-6.6224,4.2832,11.892,0.0234,-1.0488,-0.8668
485801.0,-6.359,4.6232,11.7412,0.2309,-1.035,-0.7801
485811.0,-6.1651,4.8818,11.7292,0.348,-1.028,-0.6848
485821.0,-6.0262,5.1092,11.7914,0.3884,-1.0818,-0.5848
485831.0,-5.8969,5.3343,11.7962,0.4065,-1.1414,-0.473
485841.0,-5.6216,5.4324,11.8274,0.3767,-1.2292,-0.3533
485851.0,-5.3079,5.3989,11.8872,0.3294,-1.3037,-0.2325
485861.0,-5.3415,5.2672,11.995,0.2554,-1.3984,-0.1165
485871.0,-5.1643,4.9297,12.3756,0.1676,-1.5351,-0.0005
485881.0,-4.877,4.5825,12.536,0.1474,-1.6852,0.1112
485891.0,-4.6831,4.118,12.4498,0.1261,-1.8986,0.2027
485901.0,-4.4508,3.7709,11.9279,0.091,-2.1332,0.2586
485911.0,-4.0797,3.5147,11.1666,0.0064,-2.3493,0.2783
485921.0,-3.7589,3.2872,10.4148,-0.1692,-2.5499,0.2687
485931.0,-3.237,2.976,9.7755,-0.4039,-2.7085,0.2341
485941.0,-2.9209,2.7557,9.6869,-0.6306,-2.7771,0.1767
485951.0,-2.7031,2.5857,9.4499,-0.8966,-2.9282,0.1048
485961.0,-2.1907,2.2266,9.1075,-1.1941,-3.1325,0.0266
485971.0,-1.9369,1.9992,8.691,-1.3989,-3.2273,-0.0553
485981.0,-1.5586,1.6616,8.2289,-1.5596,-3.3177,-0.132
485991.0,-1.2977,1.3384,7.8578,-1.64,-3.3273,-0.2081
486001.0,-0.9002,1.0582,7.6638,-1.6538,-3.2783,-0.2852
486011.0,-0.3974,0.9242,7.4412,-1.6501,-3.2571,-0.3725
486021.0,0.0144,0.8835,7.0509,-1.6533,-3.2576,-0.4683
486031.0,0.3855,0.9002,6.5481,-1.6597,-3.2411,-0.5577
486041.0,0.7278,1.0199,6.1148,-1.6277,-3.1538,-0.6268
486051.0,0.826,1.2019,5.8251,-1.5346,-2.9963,-0.6619
486061.0,1.2785,1.2833,5.5402,-1.3936,-2.8239,-0.655
486071.0,1.7669,1.3767,5.2409,-1.2068,-2.6042,-0.6258
486081.0,2.3128,1.5036,4.9799,-1.0264,-2.3706,-0.5827
486091.0,2.8491,1.6831,4.6807,-0.8748,-2.1285,-0.5268
486101.0,3.1819,1.8076,4.3958,-0.8093,-1.9236,-0.464
486111.0,3.5698,1.8866,4.0462,-0.8088,-1.7336,-0.3948
486121.0,3.7517,1.8866,3.8211,-0.8285,-1.5059,-0.3182
486131.0,3.9121,1.7837,3.5195,-0.8615,-1.2941,-0.2363
486141.0,4.1156,1.6017,3.2705,-0.8599,-1.0424,-0.1543
486151.0,4.2641,1.4389,3.1723,-0.7881,-0.729,-0.0734
486161.0,4.4484,1.3431,3.0933,-0.6582,-0.4188,0.008
486171.0,4.6184,1.2498,2.8706,-0.489,-0.1096,0.0921
486181.0,4.628,1.1181,2.6217,-0.2996,0.2155,0.1846
486191.0,4.5322,0.9361,2.3032,-0.1128,0.5231,0.2804
486201.0,4.5322,0.9361,2.3032,-0.1128,0.5231,0.2804
486211.0,4.4293,0.6536,1.8124,0.0596,0.8381,0.3624
486221.0,4.1061,0.4812,1.2115,0.2075,1.201,0.4119
486231.0,3.8834,0.3376,0.6369,0.2581,1.5612,0.4236
486241.0,3.6871,0.2634,0.17,0.2097,1.9273,0.4033
486251.0,3.1436,0.1748,0.0742,0.0937,2.3227,0.3672
486261.0,2.545,0.0742,0.2011,-0.017,2.734,0.3278
486271.0,1.6879,-0.0431,0.644,-0.0665,3.157,0.2948
486281.0,0.5746,-0.1101,1.1923,-0.0138,3.5705,0.281
486291.0,-0.4741,-0.2466,1.901,0.1607,4.0063,0.2932
486301.0,-1.3575,-0.3974,2.9736,0.4613,4.4655,0.3166
486311.0,-2.5163,-0.4764,4.8602,1.2425,5.22,0.281
486321.0,-2.5163,-0.4764,4.8602,1.2425,5.22,0.281
486331.0,-3.7086,-0.0335,5.8035,1.6362,5.5664,0.215
486341.0,-4.7645,0.5339,6.7876,1.9018,5.7819,0.1447
486351.0,-5.9448,1.3216,7.8506,2.0375,5.9049,0.0862
486361.0,-7.1706,2.0303,9.2464,2.0385,5.9357,0.0623
486371.0,-8.0661,2.3703,10.9822,1.9848,5.8703,0.091
486381.0,-8.8131,2.4876,12.9598,2.0013,5.758,0.1405
486391.0,-9.6941,2.648,14.9997,2.138,5.5882,0.1729
486401.0,-10.1825,2.9928,16.678,2.3674,5.2849,0.1618
486411.0,-10.2903,3.8499,17.662,2.6004,4.8805,0.0995
486421.0,-10.3717,5.102,18.0259,2.659,4.3867,0.0138
486431.0,-10.4004,6.3159,17.9206,2.3732,3.7674,-0.0564
486441.0,-10.6446,7.1802,17.844,1.7741,3.1187,-0.0979
486451.0,-11.1187,7.513,18.512,1.052,2.5307,-0.0921
486461.0,-11.3222,7.2329,19.5558,0.4071,1.9247,-0.0266
486471.0,-11.2336,6.4715,20.2765,-0.0506,1.2648,0.0623
486481.0,-10.9176,5.5402,20.3172,-0.3342,0.58,0.1208
486491.0,-10.4818,4.7716,19.642,-0.5433,-0.1266,0.1187
486501.0,-9.8067,4.1252,18.2079,-0.7615,-0.8487,0.0623
486511.0,-9.0812,3.723,16.271,-0.9493,-1.409,-0.0282
486521.0,-8.5401,3.4285,14.5017,-1.1536,-1.7863,-0.1389
486531.0,-8.1163,3.1675,12.9407,-1.4106,-2.0689,-0.2581
486541.0,-7.5513,2.8371,11.8441,-1.682,-2.2359,-0.3767
486551.0,-7.1299,2.5091,11.2264,-1.8938,-2.295,-0.489
486561.0,-6.7684,2.15,10.7524,-2.0396,-2.3307,-0.5944
486571.0,-6.3494,1.9345,10.3501,-2.0864,-2.3147,-0.6875
486581.0,-6.0334,1.8483,10.2161,-2.0236,-2.2423,-0.7556
486591.0,-5.6958,1.8364,9.9503,-1.881,-2.1513,-0.7907
486601.0,-5.2744,1.8818,9.8785,-1.6607,-2.0284,-0.7881
486611.0,-5.0805,2.0494,9.9742,-1.3702,-1.8635,-0.7492
486621.0,-4.9033,2.1668,10.1993,-1.0706,-1.7528,-0.6742
486631.0,-4.7549,2.2745,10.2017,-0.7572,-1.673,-0.5763
486641.0,-4.64,2.3272,10.0245,-0.456,-1.6144,-0.4624
486651.0,-4.3622,2.3176,9.8761,-0.1628,-1.5469,-0.3411
486661.0,-4.1731,2.3607,9.5672,0.1064,-1.467,-0.2293
486671.0,-3.8954,2.3583,9.1411,0.2959,-1.4053,-0.1282
486681.0,-3.6176,2.4301,8.7317,0.3948,-1.3223,-0.0442
486691.0,-3.3088,2.4301,8.4659,0.3645,-1.2526,0.0202
486701.0,-2.8946,2.3032,8.6048,0.2075,-1.2106,0.0633
486711.0,-2.6791,2.1237,8.7987,-0.0181,-1.2127,0.0873
486721.0,-2.6504,1.8387,9.0692,-0.2873,-1.2925,0.0926
486731.0,-2.7438,1.5658,9.4882,-0.4581,-1.3266,0.0995
486741.0,-2.9712,1.2378,10.082,-0.481,-1.3239,0.1171
486751.0,-2.9616,0.9409,10.7021,-0.3368,-1.3133,0.141
486761.0,-2.8515,0.8619,10.975,-0.0883,-1.3122,0.1458
486771.0,-2.5762,1.0918,10.7619,0.0931,-1.3697,0.125
486781.0,-2.1284,1.3958,10.2831,0.0521,-1.4915,0.0899
486791.0,-1.7142,1.6281,9.7755,-0.2533,-1.6607,0.0479
486801.0,-1.4557,1.4772,9.8521,-0.7327,-1.8257,-0.0032
486811.0,-1.5826,1.166,10.9247,-1.1547,-1.9326,-0.0601
486821.0,-1.9178,0.9864,12.0835,-1.3399,-2.0774,-0.091
486831.0,-1.9848,0.7302,13.0963,-1.1834,-2.2248,-0.0585
486841.0,-1.9489,0.589,13.2519,-0.7221,-2.3578,0.0208
486851.0,-1.7382,0.5387,12.323,-0.2198,-2.5371,0.1075
486861.0,-1.2354,0.6057,10.8769,0.1059,-2.7154,0.1628
486871.0,-0.6249,0.7374,9.1674,0.1304,-2.8867,0.1666
486881.0,0.0096,0.8236,7.525,-0.1479,-3.0293,0.1187
486891.0,0.4932,0.8667,6.3231,-0.6103,-3.082,0.0335
486901.0,0.8619,0.7997,5.7628,-1.0871,-3.024,-0.0623
486911.0,1.0894,0.7015,5.715,-1.4447,-2.9128,-0.1458
486921.0,1.3599,0.5938,5.7652,-1.591,-2.75,-0.1948
486931.0,1.6472,0.3807,6.0071,-1.5117,-2.5142,-0.1969
486941.0,2.1069,0.1077,6.1316,-1.2781,-2.2732,-0.174
486951.0,2.3367,-0.0048,6.0166,-0.9924,-2.0391,-0.158
486961.0,2.5953,0.0551,5.8155,-0.763,-1.8464,-0.1596
486971.0,2.8563,0.3496,5.4684,-0.5981,-1.6442,-0.1623
486981.0,3.0813,0.6464,5.205,-0.5502,-1.467,-0.1596
486991.0,3.2633,0.929,4.9847,-0.5731,-1.2904,-0.1399
487001.0,3.5051,1.1372,4.9967,-0.6098,-1.0844,-0.0889
487011.0,3.7445,1.166,5.1404,-0.6231,-0.862,-0.0133
487021.0,3.8068,1.0415,5.5162,-0.5922,-0.6146,0.0766
487031.0,3.8618,0.7925,6.0861,-0.5177,-0.3698,0.1767
487041.0,3.9433,0.5148,6.6295,-0.4427,-0.1857,0.2719
487051.0,3.8618,0.2705,7.1635,-0.3512,-0.0298,0.3544
487061.0,3.723,0.067,7.7883,-0.2331,0.0968,0.4353
487071.0,3.5219,-0.0958,8.2911,-0.0729,0.2017,0.522
487081.0,3.5314,-0.3232,8.7436,0.1474,0.307,0.6236
487091.0,3.2729,-0.5914,8.9519,0.3767,0.3991,0.7247
487101.0,3.2609,-1.1444,9.3158,0.5726,0.4938,0.812
487111.0,3.395,-1.7166,9.6031,0.6955,0.5497,0.8524
487121.0,3.5362,-2.4588,9.9623,0.6992,0.5252,0.8168
487131.0,3.6464,-3.0526,10.2017,0.6055,0.4166,0.6896
487141.0,3.7852,-3.304,10.1394,0.4534,0.2613,0.4778
487151.0,3.6081,-3.1484,9.9455,0.2948,0.1181,0.2187
487161.0,3.3423,-2.6312,9.5696,0.1469,0.0261,-0.0303
487171.0,2.9664,-1.9393,9.3302,0.0064,0.017,-0.2347
487182.0,2.715,-0.9649,10.2137,-0.2959,0.0846,-0.4656
487191.0,2.715,-0.9649,10.2137,-0.2959,0.0846,-0.4656
487201.0,2.7964,-0.6919,10.9583,-0.439,0.0404,-0.5252
487211.0,2.9329,-0.3735,11.4347,-0.5635,-0.0883,-0.5635
487221.0,3.0406,-0.0335,11.6646,-0.6768,-0.2778,-0.5843
487231.0,3.0143,0.316,11.4898,-0.7588,-0.4778,-0.5763
487241.0,2.9257,0.5794,11.1953,-0.77,-0.6316,-0.5268
487251.0,2.9425,0.723,10.8457,-0.6572,-0.6987,-0.4289
487261.0,3.0885,0.759,10.2999,-0.4475,-0.6971,-0.2996
487271.0,3.1675,0.8092,9.505,-0.2283,-0.6284,-0.165
487281.0,3.3016,0.6297,9.0597,-0.0883,-0.5071,-0.0341
487291.0,3.6033,0.2921,8.9878,-0.0426,-0.3778,0.0628
487301.0,3.8714,0.012,9.0333,-0.1187,-0.3097,0.1006
487311.0,3.9792,-0.1628,9.098,-0.2964,-0.3022,0.0814
487321.0,3.9456,-0.2107,9.3326,-0.5268,-0.3193,0.0394
487331.0,3.7326,-0.1939,9.6654,-0.7285,-0.3432,0.0069
487341.0,3.5195,-0.2107,10.0796,-0.8285,-0.3592,0.0043
487351.0,3.3471,-0.2897,10.2544,-0.7934,-0.3464,0.0426
487361.0,3.371,-0.4764,10.2592,-0.688,-0.3294,0.1
487371.0,3.6368,-0.6536,10.1921,-0.5704,-0.3049,0.1522
487381.0,3.7804,-0.7566,10.0628,-0.4869,-0.2767,0.1783
487391.0,3.8714,-0.7518,9.8354,-0.4629,-0.274,0.1857
487401.0,3.9073,-0.7183,9.7851,-0.473,-0.2543,0.1963
487411.0,3.8858,-0.7781,9.8641,-0.4699,-0.2123,0.2224
487421.0,3.7924,-0.9002,9.8952,-0.447,-0.1804,0.2575
487431.0,3.6416,-1.0654,9.8378,-0.39,-0.1431,0.3012
487441.0,3.644,-1.245,9.7851,-0.3076,-0.0963,0.3496
487451.0,3.7828,-1.5514,9.5385,-0.2102,-0.0468,0.3927
487461.0,3.8618,-1.8531,9.2153,-0.1192,0.0112,0.4145
487471.0,3.8188,-1.9896,9.0597,-0.0442,0.1064,0.4103
487481.0,4.0893,-2.2051,9.074,0.0074,0.2049,0.3805
487491.0,4.0677,-2.1356,9.0621,0.041,0.2868,0.3225
487501.0,3.8882,-1.992,9.2201,0.0596,0.3778,0.2708
