time_ms,ax,ay,az,gx,gy,gz
1347471.0,-0.2394,3.0646,38.4509,-0.2059,0.2474,-0.107
1347481.0,-0.4405,3.2753,38.8818,-0.05,0.3666,-0.0686
1347491.0,-0.5363,3.6583,38.2019,-0.0053,0.4182,0.008
1347501.0,-0.498,3.6966,37.5124,0.0639,0.4544,0.075
1347511.0,-0.8715,3.7637,36.9473,0.1761,0.5949,0.2049
1347521.0,-1.2163,4.1372,35.9034,0.3017,0.9812,0.3225
1347531.0,-1.7238,3.7828,36.7079,0.7386,1.5335,0.4608
1347541.0,-2.0686,3.8211,37.5411,1.4803,2.1231,0.6465
1347551.0,-1.8483,3.4477,37.7901,2.1923,2.569,0.8801
1347561.0,-1.1492,3.62,38.0391,2.809,2.8021,1.069
1347571.0,0.5171,3.8403,37.589,2.9,2.8356,1.2611
1347581.0,1.2641,3.2753,37.5315,2.195,2.5376,1.3564
1347591.0,1.5131,1.063,39.4564,1.4191,1.922,1.3244
1347601.0,0.8715,-0.929,39.2841,0.837,1.243,1.1329
1347611.0,0.0575,-2.308,37.8667,0.0591,0.9493,0.8934
1347621.0,0.4118,-4.6639,38.3743,0.2426,1.0568,0.5678
1347631.0,0.5746,-5.5067,36.411,0.5295,1.6778,0.0984
1347641.0,-0.5459,-7.2305,37.2346,1.0419,2.4254,-0.4943
1347651.0,-1.2546,-6.3494,35.9609,1.2004,3.1474,-1.1563
1347661.0,-2.1452,-3.5913,36.3344,0.6247,3.6067,-1.6985
1347671.0,-3.4093,-1.7717,39.4373,0.1192,3.9988,-2.0689
1347681.0,-4.9416,0.2011,42.0326,0.3054,4.3165,-2.2604
1347691.0,-6.5314,2.3655,43.3159,-0.1181,4.7273,-2.3009
1347701.0,-7.3933,2.7007,47.5872,-0.29,5.0093,-2.2476
1347711.0,-7.7189,2.8347,51.4658,-0.273,5.0774,-2.1535
1347721.0,-8.849,1.8387,56.0339,-0.2682,4.7411,-2.1625
1347731.0,-8.5617,0.9002,60.9181,-0.1155,3.8738,-2.2311
1347741.0,-8.5138,1.6568,63.2069,-0.1383,2.6223,-2.3833
1347751.0,-8.3701,2.7485,64.4136,-0.3688,1.2042,-2.5355
1347761.0,-7.2592,3.3423,63.1973,-0.68,-0.2155,-2.6467
1347771.0,-10.3046,3.9265,61.5214,-0.7897,-1.4223,-2.6292
1347781.0,-10.4962,4.6064,57.1065,-1.3606,-2.2024,-2.6026
1347791.0,-9.0501,3.6679,55.4306,-1.6969,-2.6265,-2.5573
1347801.0,-7.1443,2.7198,52.4139,-1.6958,-2.6345,-2.5887
1347811.0,-9.232,1.4653,50.805,-2.0465,-2.4302,-2.668
1347821.0,-7.2688,-2.2122,52.2032,-1.732,-2.1998,-2.9612
1347831.0,-6.8187,-2.5953,52.7395,-1.0903,-2.08,-3.381
1347841.0,-8.9543,0.2969,51.7339,-1.0025,-2.0923,-3.6631
1347851.0,-7.7189,1.4174,53.7163,-1.0589,-2.1535,-3.8796
1347861.0,-8.4659,3.7828,54.1185,-0.8253,-2.5243,-3.8866
1347871.0,-7.106,5.7748,52.8161,-1.1728,-2.7649,-3.8296
1347881.0,-7.7859,6.6463,53.7738,-1.3862,-3.1091,-3.6668
1347891.0,-7.106,5.9472,55.0188,-1.4026,-3.4055,-3.5141
1347901.0,-7.288,3.304,57.0299,-1.1483,-3.7966,-3.4896
1347911.0,-7.2209,1.6281,58.1121,-0.8711,-4.4266,-3.7205
1347921.0,-7.3358,2.0303,58.5334,-0.6811,-5.3413,-3.9797
1347931.0,-6.6559,3.9935,56.6468,-0.6401,-6.3023,-4.1606
1347941.0,-6.9145,5.7844,53.8025,-0.8003,-7.1569,-4.291
1347951.0,-5.6695,7.9392,50.1537,-1.0009,-7.8268,-4.3314
1347961.0,-4.4915,9.73,46.8785,-1.2797,-8.1046,-4.2463
1347971.0,-3.9169,11.722,43.9863,-1.4622,-8.236,-3.9994
1347981.0,-3.0167,13.4267,41.3335,-1.8379,-8.2419,-3.6253
1347991.0,-2.3463,13.7523,39.6097,-2.2482,-8.1227,-3.1788
1348001.0,-2.2122,13.5799,38.7669,-2.2099,-7.9796,-2.6164
1348011.0,0.0096,12.718,37.3879,-2.0087,-7.7896,-2.0454
1348021.0,-0.1341,10.0844,37.5219,-1.6464,-7.4389,-1.607
1348031.0,1.743,8.6766,34.6393,-1.235,-7.3474,-1.2302
1348041.0,2.5666,7.106,32.8293,-1.5793,-7.1558,-0.9631
1348051.0,3.0358,4.5777,30.8469,-1.6203,-7.0702,-0.8727
1348061.0,5.114,3.553,28.0409,-1.922,-6.7307,-0.8695
1348071.0,6.2728,2.3846,28.0888,-1.6937,-6.2082,-0.9376
1348081.0,6.541,3.4285,25.3402,-1.4096,-5.5707,-0.9924
1348091.0,8.0062,4.3479,25.1774,-1.1254,-4.8507,-0.9312
1348101.0,9.1267,5.2385,24.2389,-0.505,-4.0451,-0.7827
1348111.0,9.1171,5.5929,23.0993,0.0644,-3.2273,-0.5901
1348121.0,9.2033,6.0238,22.4385,0.3006,-2.5089,-0.3677
1348131.0,9.8737,5.4396,22.4672,0.3129,-1.8145,-0.1799
1348141.0,10.908,4.5298,23.195,0.5678,-1.1323,-0.0915
1348151.0,12.2583,4.8171,23.1471,0.8083,-0.448,-0.0537
1348161.0,13.6565,5.6695,23.4153,0.6045,0.075,0.0106
1348171.0,14.0588,5.7078,24.2197,0.1618,0.4284,-0.025
1348181.0,13.9343,6.5505,25.1104,-0.1479,0.7854,-0.0388
1348191.0,13.6086,7.106,26.8629,-0.2751,1.1935,0.016
1348201.0,12.536,7.6136,28.1558,-0.3677,1.4181,0.1149
1348211.0,11.0421,7.671,30.7511,-0.5098,1.3431,0.216
1348221.0,9.2416,8.2552,31.4694,-0.5832,0.9264,0.3773
1348231.0,8.6479,8.9256,31.1821,-0.8578,0.5507,0.6008
1348241.0,7.9871,9.1554,29.0369,-1.0642,0.3469,0.9057
1348251.0,7.8721,9.1171,25.9531,-1.3585,0.5316,1.2191
1348261.0,6.7804,8.6862,23.6643,-1.5719,1.0733,1.5011
1348271.0,6.1387,8.2839,21.7489,-1.8134,1.8023,1.7512
1348281.0,5.0566,7.5082,21.4904,-2.0933,2.7127,1.9933
1348291.0,3.4189,6.7325,22.3523,-2.0146,3.6545,2.2429
1348301.0,2.9401,6.11,22.8598,-1.9417,4.6235,2.5142
1348311.0,2.624,5.1427,24.7177,-1.9241,5.5281,2.7297
1348321.0,1.8292,4.051,27.0641,-1.8198,6.3061,2.9096
1348331.0,0.8332,3.1795,29.1518,-1.724,7.018,3.0447
1348341.0,-0.2873,2.1356,32.5324,-1.5144,7.6374,3.1421
1348351.0,-1.2067,1.9632,36.1524,-1.0068,8.078,3.2336
1348361.0,-2.0494,2.2122,38.585,-0.6465,8.2983,3.2986
1348371.0,-3.1699,2.6624,41.5921,-0.4603,8.2568,3.3949
1348381.0,-4.7692,2.8347,43.5936,-0.4539,7.9168,3.4747
1348391.0,-5.2481,2.8635,45.4132,-0.7072,7.4746,3.5891
1348401.0,-5.2864,2.2122,46.2464,-0.8945,7.1378,3.6838
1348411.0,-5.3534,1.7142,46.5912,-1.0254,7.0367,3.7668
1348421.0,-5.6982,0.9002,49.6079,-0.8636,7.0361,3.7833
1348431.0,-5.9472,1.2354,52.0978,-0.4624,6.7616,3.8099
1348441.0,-6.8666,2.1452,53.6205,-0.6141,6.1134,3.9137
1348451.0,-7.3837,2.1069,55.2773,-0.8445,5.0253,4.019
1348461.0,-7.6231,2.3176,54.2813,-1.441,3.7833,4.1319
1348471.0,-7.6806,1.4365,52.682,-2.2056,2.6723,4.2707
1348481.0,-7.6902,-0.1915,50.5847,-2.5738,1.9534,4.3378
1348491.0,-7.6998,-1.3695,48.1618,-2.6723,1.7352,4.3431
1348501.0,-7.7381,-2.6528,47.8745,-2.4834,1.7874,4.3431
1348511.0,-8.1786,-3.3998,47.7308,-1.6453,1.9119,4.3165
1348521.0,-8.5234,-2.9018,48.6693,-0.5811,2.1226,4.3239
1348531.0,-9.2799,-1.6855,48.2384,0.547,2.1684,4.4687
1348541.0,-8.983,-0.7278,46.505,0.9833,2.08,4.6459
1348551.0,-8.9352,-0.4214,44.6854,0.7795,1.8906,4.8199
1348561.0,-9.5481,-0.3543,42.3869,0.041,1.7336,4.9673
1348571.0,-9.098,-0.9385,40.7206,-1.0664,1.8374,5.1024
1348581.0,-8.6095,-2.4612,40.8547,-1.9273,2.1865,5.2035
1348591.0,-8.849,-4.7692,43.1339,-2.1944,2.7308,5.203
1348601.0,-9.4044,-6.4739,47.3477,-1.6256,3.2555,5.186
1348611.0,-9.8162,-6.6559,51.0348,-0.6268,3.5151,5.1429
1348621.0,-10.2376,-6.4548,54.0898,0.406,3.4124,5.1705
1348631.0,-10.5632,-5.6599,55.0571,1.1675,2.9261,5.2057
1348641.0,-10.8218,-4.9129,53.7833,1.1185,2.2194,5.2498
1348651.0,-10.6303,-5.363,53.5152,0.6332,1.4904,5.2535
1348661.0,-10.2759,-6.2632,52.2702,0.1394,0.8732,5.1849
1348671.0,-9.5672,-7.7093,51.0827,-0.6646,0.3523,5.0205
1348681.0,-9.3661,-9.1459,51.868,-1.1738,-0.133,4.7778
1348691.0,-8.9256,-9.596,51.1689,-1.5836,-0.6018,4.4788
1348701.0,-8.3989,-10.1993,51.5041,-1.8949,-1.085,4.192
1348711.0,-8.0254,-10.2759,51.8871,-1.8134,-1.6118,3.9376
1348721.0,-8.5329,-10.3046,50.2878,-1.7538,-2.0944,3.7264
1348731.0,-8.7532,-10.6207,49.5504,-1.2563,-2.4961,3.5785
1348741.0,-8.3031,-10.4866,47.884,-0.5076,-2.5919,3.4162
1348751.0,-7.9775,-10.4579,46.505,0.6476,-2.4504,3.3188
1348761.0,-7.3454,-9.1746,44.6183,1.8518,-2.1194,3.2411
1348771.0,-6.7133,-7.9583,41.2282,2.2854,-1.7767,3.2081
1348781.0,-6.4835,-7.0868,39.4469,1.9885,-1.4755,3.1368
1348791.0,-6.5122,-6.8666,38.6903,1.1925,-1.259,3.0682
1348801.0,-6.1387,-7.6614,39.9832,0.2512,-1.1456,2.9383
1348811.0,-6.0717,-9.0214,42.2146,-0.1431,-1.1345,2.7473
1348821.0,-5.8993,-9.9886,44.4747,0.0394,-1.1962,2.5238
1348831.0,-6.2058,-10.477,47.003,0.8083,-1.376,2.2961
1348841.0,-5.6599,-8.7436,46.0453,1.458,-1.6229,2.1396
1348851.0,-5.5258,-7.039,44.2353,1.5777,-1.8358,2.0907
1348861.0,-5.296,-5.9759,43.4308,1.6011,-1.9513,2.1567
1348871.0,-4.8554,-5.43,41.7357,1.3601,-1.9539,2.2487
1348881.0,-5.4779,-5.8514,41.4005,0.7045,-1.9747,2.3525
1348891.0,-4.7597,-7.6423,41.4197,-0.0905,-2.1402,2.3179
1348901.0,-3.7062,-9.5385,42.4444,-0.8333,-2.3424,2.1386
1348911.0,-3.2657,-11.6071,44.1491,-0.9168,-2.5664,1.8784
1348921.0,-3.122,-12.5839,44.015,-0.7306,-2.759,1.5277
1348931.0,-3.0933,-12.6797,43.8139,-0.5433,-2.9585,1.1286
1348941.0,-2.7964,-11.9902,42.7796,-0.3783,-3.0916,0.7774
1348951.0,-2.4134,-10.1993,41.3718,-0.3134,-3.1602,0.5135
1348961.0,-2.7294,-8.7053,40.0885,-0.4001,-3.1304,0.3592
1348971.0,-3.2178,-8.3701,38.652,-0.5763,-3.0527,0.2389
1348981.0,-2.806,-9.2033,39.1404,-0.5215,-2.858,0.1022
1348991.0,-1.7334,-10.8314,38.3743,-0.2847,-2.618,-0.0937
1349001.0,-0.0192,-12.2009,38.8627,-0.3108,-2.3131,-0.5071
1349011.0,0.2203,-12.8617,39.3703,-0.1804,-2.2162,-1.0169
1349021.0,-0.2586,-13.3884,39.8395,-0.3432,-2.2274,-1.591
1349031.0,-0.182,-11.6454,40.7876,-0.1804,-2.3072,-2.163
1349041.0,-0.0862,-9.1746,39.5714,-0.2506,-2.3056,-2.5084
1349051.0,-0.5363,-7.3837,40.3184,-0.3528,-2.3567,-2.7383
1349061.0,-0.5076,-5.6695,41.2569,-0.0974,-2.4216,-2.8569
1349071.0,-0.4214,-4.0223,41.1132,0.1394,-2.5584,-2.8926
1349081.0,-0.5459,-2.4134,40.5482,0.2011,-2.7787,-2.826
1349091.0,-0.5555,-1.1109,39.6863,0.1527,-3.007,-2.6957
1349101.0,0.2586,-0.4597,38.7573,0.0596,-3.1682,-2.4983
1349111.0,0.4884,-0.4405,37.9242,0.1304,-3.2507,-2.303
1349121.0,1.0247,-0.8045,35.7119,0.1128,-3.2693,-2.1311
1349131.0,1.8579,-1.1971,33.9306,-0.2176,-3.1943,-2.0316
1349141.0,1.7334,-2.1356,32.9059,-0.4278,-3.1192,-2.0391
1349151.0,2.9688,-2.0782,31.3832,-0.6215,-2.8814,-2.0327
1349161.0,3.4668,-3.055,31.1821,-0.8599,-2.477,-2.0156
1349171.0,3.6392,-4.5681,32.0631,-0.332,-2.0146,-2.0587
1349181.0,5.0949,-4.9704,30.1286,-0.0883,-1.4697,-2.1593
1349191.0,5.8323,-6.1196,30.9139,-0.0458,-0.9679,-2.3722
1349201.0,5.8706,-6.1387,30.1765,-0.1101,-0.647,-2.6563
1349211.0,5.6982,-6.11,30.3106,-0.6838,-0.3751,-2.9309
1349221.0,5.5737,-5.3726,31.4119,-1.0536,-0.2469,-3.2076
1349231.0,5.8419,-4.6831,31.8716,-1.4021,-0.0532,-3.3927
1349241.0,5.2002,-4.3287,33.4997,-1.3415,0.1298,-3.4837
1349251.0,5.2864,-4.2138,34.3712,-0.8998,0.3374,-3.5471
1349261.0,5.8227,-3.9265,34.103,-0.3938,0.5949,-3.5843
1349271.0,6.1196,-4.0893,33.4901,-0.0043,0.8982,-3.6263
1349281.0,6.0525,-4.0127,33.0017,0.1564,1.1611,-3.7253
1349291.0,5.6599,-3.4285,32.9729,0.1564,1.3526,-3.8131
1349301.0,5.1523,-2.6624,32.475,-0.1352,1.4138,-3.8115
1349311.0,5.0278,-2.8826,31.5173,-0.9844,1.5075,-3.8147
1349321.0,5.4492,-4.0223,32.6569,-1.5064,1.6719,-3.8913
1349331.0,5.8897,-4.3574,32.1206,-1.7102,2.1295,-4.0377
1349341.0,5.4588,-4.9704,33.6146,-1.5633,2.8133,-4.1962
1349351.0,4.9512,-5.5833,36.3823,-0.9275,3.5636,-4.3016
1349361.0,4.6735,-6.2345,39.7821,0.1815,4.06,-4.4735
1349371.0,3.9648,-5.2672,41.027,0.7822,4.1436,-4.6666
1349381.0,3.1125,-4.4915,43.268,0.8727,3.8137,-4.8342
1349391.0,2.7581,-3.3519,43.268,0.7402,3.2746,-4.9721
1349401.0,2.6336,-2.3942,41.4771,0.1538,2.8495,-5.0827
1349411.0,2.624,-2.2218,40.395,-0.5438,2.6372,-5.2488
1349421.0,2.3559,-1.8866,39.3798,-1.0967,2.6999,-5.3988
1349431.0,1.3216,-1.6855,39.6767,-1.45,2.9506,-5.4946
1349441.0,0.7374,-1.6759,42.0326,-1.1222,3.2454,-5.5462
1349451.0,0.2969,-1.0247,43.0573,-0.5225,3.4699,-5.56
1349461.0,0.0287,-0.6033,43.9097,-0.1059,3.5247,-5.5611
1349471.0,-0.6033,-0.3065,43.8235,0.1453,3.5524,-5.5771
1349481.0,-1.1205,0.2777,43.4212,0.1064,3.5907,-5.5893
1349491.0,-1.561,0.7087,43.699,-0.0623,3.7498,-5.6101
1349501.0,-2.2314,0.7853,43.9671,-0.2985,3.902,-5.6319
1349511.0,-3.4572,0.7949,46.3613,-0.4927,4.0132,-5.6436
1349521.0,-4.3096,0.1437,49.2535,-0.19,3.9504,-5.6569
1349531.0,-5.296,-0.3352,50.7858,0.0176,3.7615,-5.7245
1349541.0,-5.1619,-2.4134,52.8544,0.2645,3.3816,-5.916
1349551.0,-5.1523,-2.8252,53.2087,0.2442,2.8569,-6.2949
1349561.0,-5.7844,-3.0358,53.2949,-0.3102,2.3386,-6.7855
1349571.0,-6.7229,-2.1261,55.0571,-0.8737,1.8704,-7.2862
1349581.0,-7.853,0.431,56.2542,-0.9456,1.3133,-7.605
1349591.0,-9.2225,2.7869,57.5087,-0.9642,0.8716,-7.7018
1349601.0,-10.2951,4.9321,59.8359,-0.2075,0.3805,-7.5789
1349611.0,-10.2089,8.5042,59.0314,0.3294,-0.1612,-7.2974
1349621.0,-10.2185,9.5864,60.0178,0.7513,-0.7343,-6.8052
1349631.0,-9.7205,11.0325,58.7633,1.4223,-1.4037,-6.2034
1349641.0,-9.2703,11.8752,56.2542,1.3633,-1.8917,-5.5563
1349651.0,-7.6327,11.157,54.923,1.2717,-2.3642,-4.9055
1349661.0,-6.6463,9.4715,52.9885,1.0557,-2.7015,-4.4368
1349671.0,-5.5929,7.9871,51.7052,0.4816,-3.024,-4.1664
1349681.0,-5.1427,6.8666,50.8912,-0.1868,-3.421,-4.0137
1349691.0,-4.6831,6.0813,52.1074,-0.5396,-3.7908,-3.8828
1349701.0,-3.8978,6.0908,52.7491,0.0245,-4.1792,-3.6913
1349711.0,-3.3327,6.0908,50.4602,0.5848,-4.5219,-3.4316
1349721.0,-2.4708,4.549,48.9662,1.1116,-4.731,-3.2438
1349731.0,-1.4844,3.8211,46.1698,1.6017,-4.8204,-3.1629
1349741.0,-0.0479,3.1125,43.3159,1.5756,-4.7225,-3.2422
1349751.0,0.5459,3.4572,40.1747,1.3388,-4.6709,-3.3225
1349761.0,0.9481,3.869,37.6656,0.3592,-4.4495,-3.4928
1349771.0,1.2737,4.2713,37.1867,-0.3868,-4.2777,-3.6583
1349781.0,1.4078,5.7748,36.411,-1.2563,-3.9557,-3.7642
1349791.0,1.1109,5.6695,39.5714,-1.1813,-3.5401,-3.7849
1349801.0,1.4557,6.359,41.4484,-0.0314,-3.1863,-3.6913
1349811.0,1.7334,7.0581,42.3869,1.1573,-2.8734,-3.5997
1349821.0,2.1644,8.9064,40.3184,2.2625,-2.8766,-3.3273
1349831.0,2.3463,9.2608,38.47,2.4126,-2.7845,-3.0804
1349841.0,2.6528,8.6957,38.1444,2.6302,-2.7659,-2.9649
1349851.0,3.4381,10.477,34.5914,2.2061,-2.594,-2.8835
1349861.0,3.7254,10.41,34.3233,1.3936,-2.2796,-2.8106
1349871.0,3.6583,11.7124,34.4286,0.9051,-1.98,-2.7388
1349881.0,3.7158,13.3596,34.7255,0.1373,-1.7193,-2.5962
1349891.0,3.0646,14.2216,36.0663,-0.3102,-1.5469,-2.3477
1349901.0,2.6528,15.0069,36.7366,-0.5545,-1.3564,-2.0023
1349911.0,3.0837,15.4953,37.8858,-0.6689,-1.1222,-1.5852
1349921.0,2.9305,16.0316,39.0446,-0.448,-0.8673,-1.1478
1349931.0,3.5721,17.7458,38.6999,-0.472,-0.7753,-0.5896
1349941.0,3.8595,17.8416,40.0885,-0.6699,-0.8067,0.0106
1349951.0,3.5626,17.5256,40.9792,-0.3698,-0.9386,0.622
1349961.0,3.7733,17.4585,40.4141,-0.3826,-1.0046,1.2372
1349971.0,3.6966,16.4625,39.2745,-0.3868,-1.0924,1.8736
1349981.0,4.3574,14.1354,38.7478,-0.4395,-1.0195,2.4073
1349991.0,5.0374,11.4156,39.6097,-0.3943,-0.8998,2.7787
1350001.0,5.3247,9.7875,39.5905,-0.3017,-0.878,3.0474
1350011.0,5.9759,7.853,40.3854,-0.3363,-0.9658,3.2049
1350021.0,6.9336,6.6176,39.715,-0.4326,-1.2941,3.33
1350031.0,7.173,4.6831,39.6576,-0.7434,-1.7001,3.3002
1350041.0,6.9528,2.9784,38.8818,-0.8939,-2.1598,3.1501
1350051.0,7.5082,2.3463,36.2769,-1.2755,-2.5749,2.9303
1350061.0,8.3797,3.1795,34.2084,-1.5782,-2.7728,2.7234
1350071.0,8.4851,4.0989,32.0631,-1.6852,-2.6696,2.6425
1350081.0,8.6479,4.3958,30.5787,-1.4505,-2.3269,2.6824
1350091.0,8.9352,4.3191,29.554,-0.9871,-1.9087,2.775
1350101.0,9.3182,4.6543,27.5716,-0.7827,-1.4234,2.883
1350111.0,9.6534,4.0606,26.4511,-0.6832,-0.9695,2.9495
1350121.0,9.9216,3.9265,25.6658,-0.7572,-0.6465,3.0001
1350131.0,10.3717,4.118,24.3538,-1.2191,-0.3906,3.0165
1350141.0,9.9407,4.1276,23.4728,-1.7916,-0.0479,3.0485
1350151.0,9.8641,4.0127,22.879,-2.0412,0.497,3.1501
1350161.0,9.9311,3.7062,22.7162,-1.8816,1.3627,3.3337
1350171.0,9.6151,3.0071,23.0226,-1.5245,2.3956,3.5119
1350181.0,9.1075,2.2218,23.2238,-1.4074,3.3161,3.6397
1350191.0,7.8147,1.6664,24.8901,-1.6006,4.0377,3.7051
1350201.0,7.1539,1.245,26.9779,-1.9119,4.4873,3.7514
1350211.0,6.857,0.9002,28.7975,-2.5499,4.7534,3.8275
1350221.0,6.3303,0.0862,31.1821,-2.9953,4.8954,3.8552
1350231.0,6.2345,-0.7183,33.1549,-3.0698,4.9992,3.8802
1350241.0,5.2577,-1.3216,35.4246,-2.9421,5.1131,3.8871
1350251.0,4.1755,-1.2929,37.1005,-2.4626,5.2253,3.9414
1350261.0,3.0837,-1.3599,37.7518,-2.0619,5.3041,4.0632
1350271.0,2.6049,-2.0877,39.4948,-1.6543,5.3525,4.1537
1350281.0,2.6624,-2.5187,39.6288,-1.4431,5.2472,4.1707
1350291.0,2.5666,-3.237,40.0598,-1.7922,5.0609,4.1233
1350301.0,2.2697,-4.3862,40.7876,-2.1758,4.7965,3.9882
1350311.0,1.9154,-4.865,41.0845,-2.4498,4.598,3.7828
1350321.0,1.4844,-4.3958,41.5155,-2.6568,4.4857,3.5795
1350331.0,0.2586,-3.5913,42.2816,-2.7808,4.3766,3.5061
1350341.0,-1.0247,-3.1795,43.201,-2.7909,4.2425,3.4891
1350351.0,-0.7661,-3.3327,43.8809,-2.9202,3.9456,3.5077
1350361.0,-0.996,-3.8211,44.0342,-3.0357,3.5524,3.488
1350371.0,-1.3216,-4.118,43.766,-3.2698,3.1959,3.4199
1350381.0,-1.3216,-4.8076,43.7469,-3.3555,2.9341,3.3342
1350391.0,-1.2258,-4.0318,42.5689,-3.3592,2.8181,3.3012
1350401.0,-2.2793,-3.7062,41.9177,-3.4231,2.8569,3.3018
1350411.0,-3.2561,-3.1891,42.454,-3.1687,2.7787,3.3699
1350421.0,-4.1851,-1.9824,41.391,-3.0442,2.6792,3.5284
1350431.0,-5.2864,-1.743,40.5769,-3.0602,2.685,3.769
1350441.0,-5.4205,-2.3176,39.5809,-2.9612,2.8537,4.0382
1350451.0,-5.1236,-3.1029,39.1021,-2.7792,3.1485,4.2351
1350461.0,-5.43,-3.5626,38.4892,-2.718,3.5258,4.3708
1350471.0,-6.1962,-4.1084,39.217,-2.7526,3.8498,4.5134
1350481.0,-7.5657,-4.7501,40.395,-2.7335,4.0824,4.6847
1350491.0,-8.6287,-6.0142,42.2241,-2.6026,4.2638,4.8209
1350501.0,-9.8545,-7.288,43.6415,-2.1354,4.4075,4.9322
1350511.0,-10.8984,-8.3606,45.2313,-1.4771,4.5948,4.9497
1350521.0,-11.3198,-8.0828,46.1698,-0.8636,4.7608,4.9726
1350531.0,-11.5209,-6.857,46.6295,-0.6194,4.8678,5.0556
1350541.0,-12.0189,-5.8897,47.6063,-0.7811,4.8912,5.1998
1350551.0,-12.3253,-5.4588,49.6462,-1.1393,4.7087,5.4009
1350561.0,-13.5033,-5.7174,52.3085,-1.6187,4.2686,5.6101
1350571.0,-14.6142,-6.5505,55.2582,-1.7783,3.5066,5.8117
1350581.0,-15.9167,-6.4835,57.049,-1.5836,2.6478,6.0533
1350591.0,-16.0028,-6.9145,57.0682,-1.3292,1.938,6.3486
1350601.0,-16.6158,-7.8913,57.1735,-0.8093,1.1754,6.6429
1350611.0,-16.3189,-8.3031,54.6548,-0.828,0.4784,6.9419
1350621.0,-15.5049,-10.0748,52.8831,-1.3686,-0.05,7.159
1350631.0,-14.0204,-12.2679,52.9693,-1.7155,-0.4225,7.2676
1350641.0,-13.7906,-14.5663,52.5575,-2.2695,-0.9104,7.2256
1350651.0,-13.8002,-17.2383,52.6724,-3.1762,-1.6565,7.025
1350661.0,-14.2599,-20.1496,54.3101,-3.704,-2.6207,6.6647
1350671.0,-14.3269,-22.1128,53.2279,-3.7296,-3.5566,6.1996
1350681.0,-13.6565,-23.4823,51.8201,-3.4954,-4.159,5.6941
1350691.0,-12.718,-24.3155,50.0388,-2.6238,-4.3905,5.2147
1350701.0,-12.4211,-25.0434,48.4778,-1.2409,-4.2361,4.7369
1350711.0,-11.5879,-24.8997,46.5337,0.3315,-3.8445,4.3096
1350721.0,-9.8067,-24.1048,43.5936,1.1015,-3.4465,3.8552
1350731.0,-9.1075,-23.4344,41.3239,0.8051,-3.264,3.347
1350741.0,-9.0788,-22.5342,41.3526,-0.1187,-3.363,2.7893
1350751.0,-8.5904,-20.9924,43.201,-0.9919,-3.7344,2.3312
1350761.0,-9.1267,-20.6572,45.9304,-1.3143,-4.2718,1.9518
1350771.0,-9.8833,-19.9198,46.1123,-0.8705,-4.7289,1.6964
1350781.0,-8.667,-19.6133,44.8195,-0.0463,-4.9178,1.5405
1350791.0,-6.6272,-18.8184,42.3965,0.746,-4.8279,1.4026
1350801.0,-7.2018,-18.9717,40.7493,1.3941,-4.6868,1.2909
1350811.0,-5.8802,-19.2015,38.9872,1.673,-4.4543,1.0621
1350821.0,-4.118,-19.1728,37.9337,1.4617,-4.2729,0.7168
1350831.0,-2.9113,-18.4066,37.3304,0.8636,-4.3122,0.3134
1350841.0,-3.0742,-17.5926,37.5124,-0.1777,-4.5139,-0.1378
1350851.0,-3.055,-16.7881,38.3072,-0.6891,-4.797,-0.473
1350861.0,-2.8635,-15.6389,37.0622,-0.8977,-4.888,-0.7221
1350871.0,-2.6336,-15.0452,36.66,-0.8487,-4.6874,-0.9206
1350881.0,-2.1356,-14.6621,37.0622,-0.0484,-4.2862,-1.0248
1350891.0,-1.4461,-13.4363,35.913,0.9206,-3.8003,-1.0499
1350901.0,-0.996,-12.8233,34.9075,1.5628,-3.3763,-1.0467
1350911.0,-0.8428,-12.6893,34.3329,1.8129,-3.0926,-1.0727
1350921.0,-0.0958,-12.3637,33.3943,1.6123,-2.908,-1.1563
1350931.0,0.8811,-12.0668,32.9921,1.2004,-2.7755,-1.2771
1350941.0,1.312,-11.2527,32.5133,0.6034,-2.5765,-1.4175
1350951.0,1.8387,-10.4962,32.1302,-0.1107,-2.4786,-1.5075
1350961.0,1.9249,-10.0269,32.6186,-0.9142,-2.3881,-1.5852
1350971.0,2.1261,-10.1514,34.285,-1.2366,-2.3104,-1.6267
1350981.0,2.7294,-9.5385,34.5148,-1.1297,-2.2594,-1.5963
1350991.0,2.9209,-9.8737,34.8213,-0.9594,-2.1668,-1.4899
1351001.0,3.8499,-11.789,35.9705,-0.1799,-2.1018,-1.4399
1351011.0,4.5873,-12.6893,34.5627,0.5321,-1.9715,-1.5415
1351021.0,5.4684,-13.0245,32.3696,0.6369,-1.8496,-1.7597
1351031.0,5.4205,-13.1585,30.7703,0.3427,-1.6953,-2.046
1351041.0,5.6407,-12.4403,29.2093,-0.3198,-1.4862,-2.3897
1351051.0,6.0334,-11.2623,29.7168,-0.9418,-1.2483,-2.6654
1351061.0,5.6024,-10.6111,31.0863,-0.9041,-1.0334,-2.8207
1351071.0,5.6024,-9.663,30.4351,-0.8578,-0.861,-2.8947
1351081.0,5.1811,-9.3278,31.0576,-0.5593,-0.7263,-2.8899
1351091.0,5.5162,-9.3087,29.9754,-0.0633,-0.3155,-2.9101
1351101.0,6.0813,-9.8545,28.7783,0.273,0.2703,-3.0032
1351111.0,6.2728,-9.5193,27.4567,0.4486,0.8982,-3.1549
1351121.0,6.2632,-8.169,27.4471,0.1878,1.5793,-3.3214
1351131.0,5.7174,-7.7476,28.8932,0.0005,2.1705,-3.4146
1351141.0,5.0278,-7.0102,30.1861,-0.0229,2.6292,-3.4832
1351151.0,4.3574,-5.7269,31.7088,0.0825,3.0219,-3.5072
1351161.0,3.5243,-4.5203,32.6282,0.2054,3.3512,-3.4529
1351171.0,3.0071,-3.4189,34.5052,0.4049,3.5726,-3.2826
1351181.0,2.7198,-2.4708,35.3001,0.5071,3.6561,-3.0751
1351191.0,2.49,-2.4708,35.6832,0.3193,3.671,-2.8495
1351201.0,2.7102,-3.9935,35.7502,-0.0537,3.7046,-2.7361
1351211.0,3.0263,-5.0757,35.7311,-0.3682,3.8323,-2.7622
1351221.0,2.6815,-5.8897,37.3112,-0.5917,4.0893,-2.8537
1351231.0,1.81,-5.8035,39.2649,-0.2719,4.2143,-2.9293
1351241.0,0.9194,-5.0661,39.7054,-0.0915,4.2867,-2.9256
1351251.0,-0.3448,-4.7118,41.774,0.0665,4.1728,-2.8638
1351261.0,-0.6895,-4.6639,42.7987,0.1953,3.9344,-2.7867
1351271.0,-0.5746,-5.3247,42.5881,0.0575,3.6067,-2.8037
1351281.0,-0.3831,-5.3343,41.8698,-0.1729,3.3491,-2.8569
1351291.0,0.1341,-4.9799,40.3184,-0.5273,3.3305,-2.9154
1351301.0,-0.3926,-5.1619,40.213,-0.7785,3.5024,-2.9867
1351311.0,-1.1684,-4.6639,40.9121,-0.845,3.6961,-3.0123
1351321.0,-2.5666,-4.3574,42.0326,-0.7684,3.886,-2.9591
1351331.0,-3.4477,-4.3,44.829,-0.2304,3.9621,-2.8394
1351341.0,-3.6105,-3.4381,45.3462,0.4438,3.9956,-2.7026
1351351.0,-3.9552,-2.9497,45.2313,0.7146,3.977,-2.5158
1351361.0,-3.8499,-3.8786,45.9208,0.8785,3.9414,-2.4041
1351371.0,-3.8211,-4.0031,46.4954,0.9104,3.9493,-2.3562
1351381.0,-3.7733,-4.0031,47.501,0.7428,3.8461,-2.3546
1351391.0,-4.5777,-3.6871,48.6981,0.4943,3.5992,-2.3769
1351401.0,-4.7788,-3.3806,50.3165,0.2602,3.1544,-2.353
1351411.0,-5.1906,-3.1412,50.2208,-0.042,2.5525,-2.3195
1351421.0,-5.5162,-2.8539,50.8528,-0.4645,2.0018,-2.2636
1351431.0,-5.928,-2.9305,51.3796,-0.3225,1.6075,-2.1503
1351441.0,-5.3822,-2.8922,50.0963,-0.0335,1.3963,-2.0109
1351451.0,-5.1619,-3.0263,50.1059,0.1506,1.2744,-1.8826
1351461.0,-4.8267,-3.486,49.8473,0.4124,1.1185,-1.789
1351471.0,-4.7692,-3.6966,49.062,0.3395,0.8562,-1.7304
1351481.0,-4.9704,-4.3096,48.8992,0.2458,0.5215,-1.7219
1351491.0,-4.9033,-4.6448,48.1809,0.1724,0.2868,-1.7698
1351501.0,-4.4915,-4.0989,46.9168,0.0894,0.1618,-1.7922
1351511.0,-4.2808,-4.1084,45.9112,0.0309,0.223,-1.7969
1351521.0,-4.2042,-3.9552,45.576,-0.1054,0.3315,-1.8012
1351531.0,-4.4532,-3.9456,46.5912,-0.1149,0.4422,-1.756
1351541.0,-4.6639,-4.2617,47.5105,0.2171,0.5183,-1.6724
1351551.0,-4.5298,-5.3151,48.0181,0.4204,0.5497,-1.6623
1351561.0,-3.9169,-5.7461,48.6023,0.7444,0.5672,-1.7373
1351571.0,-3.9361,-4.8459,49.0141,0.9445,0.5598,-1.8486
1351581.0,-4.2713,-3.802,49.3972,0.7939,0.3661,-1.9257
1351591.0,-4.7405,-2.7007,50.2974,0.4826,0.0404,-1.9401
1351601.0,-5.2768,-2.0303,50.8816,0.207,-0.3065,-1.9076
1351611.0,-5.6695,-1.5706,51.0156,0.0639,-0.5981,-1.8145
1351621.0,-5.3726,-1.0534,50.9773,0.049,-0.7439,-1.6543
1351631.0,-5.2672,-0.9194,51.0444,-0.0112,-0.7966,-1.5101
1351641.0,-5.5833,-2.241,52.4617,-0.0436,-0.9179,-1.3995
1351651.0,-5.1811,-2.6528,53.8025,0.1261,-1.2478,-1.3766
1351661.0,-4.9512,-2.059,55.1049,0.1208,-1.7746,-1.3457
1351671.0,-5.0566,-1.9058,55.5263,0.2528,-2.3972,-1.2505
1351681.0,-4.9416,-1.4557,54.4346,0.4097,-2.9905,-1.1563
1351691.0,-4.7022,-1.494,52.7107,0.4406,-3.4497,-1.0344
1351701.0,-4.616,-1.6664,51.1785,0.3602,-3.7924,-0.9243
1351711.0,-4.3479,-2.3559,50.6422,0.3395,-4.0558,-0.8402
1351721.0,-3.7637,-3.1891,49.5887,0.5678,-4.2851,-0.8184
1351731.0,-3.2082,-3.5338,48.1043,0.5417,-4.5166,-0.8349
1351741.0,-2.6432,-3.5051,46.6869,0.4321,-4.7113,-0.9211
1351751.0,-1.9632,-2.9975,45.3941,0.3086,-4.8412,-0.969
1351761.0,-1.3599,-1.8387,44.4747,0.1208,-4.8928,-0.9519
1351771.0,-1.3791,-1.8962,43.7564,0.1038,-4.8715,-0.8567
1351781.0,-1.0151,-1.5036,43.1914,0.1639,-4.8667,-0.7333
1351791.0,0.0958,-1.7238,42.5402,0.0995,-4.9077,-0.5997
1351801.0,0.4214,-2.7773,42.0901,0.0309,-4.9774,-0.5561
1351811.0,0.5746,-3.371,41.889,0.0915,-5.137,-0.5577
1351821.0,1.0726,-3.7828,41.7549,0.2187,-5.2897,-0.5598
1351831.0,1.7334,-3.9265,42.6359,0.8546,-5.5286,-0.5268
1351841.0,2.1261,-3.3806,41.7549,1.6714,-5.8314,-0.4544
1351851.0,2.6719,-2.8347,39.1787,2.2035,-6.2028,-0.3411
1351861.0,3.3232,-2.6336,36.3057,2.2338,-6.6849,-0.2597
1351871.0,4.4053,-2.2601,31.9865,1.7491,-7.0861,-0.2224
1351881.0,5.6982,-2.5379,28.0409,0.9897,-7.217,-0.2836
1351891.0,6.5793,-2.7677,24.5932,0.3421,-6.9914,-0.3794
1351901.0,7.6136,-3.1125,22.2086,-0.0575,-6.4652,-0.4906
1351911.0,9.0118,-2.9497,20.0634,-0.2453,-5.7223,-0.6508
1351921.0,10.2568,-2.5091,18.6843,-0.3943,-4.7991,-0.7748
1351931.0,10.659,-1.5323,18.7227,-0.422,-4.0377,-0.8413
1351941.0,11.2815,-0.0192,18.1864,-0.5401,-3.2746,-0.8014
1351951.0,11.9519,1.1396,17.9374,-1.0578,-2.6707,-0.7194
1351961.0,12.153,1.992,18.2534,-1.7113,-2.1801,-0.5491
1351971.0,12.2009,1.9824,18.7227,-2.1854,-1.5931,-0.3443
1351981.0,12.6318,2.1165,19.4122,-2.1306,-1.0163,-0.0761
1351991.0,12.3637,2.6624,19.2015,-2.0683,-0.3416,0.2368
1352001.0,12.8138,2.5091,20.0155,-1.9949,0.3884,0.6098
1352011.0,12.7372,1.992,20.6955,-1.5884,1.0068,0.9578
1352021.0,12.4882,0.6608,20.7242,-1.3611,1.6879,1.2696
1352031.0,12.5552,-0.9385,20.5518,-1.3734,2.3652,1.4559
1352041.0,12.651,-2.7581,20.6667,-1.5202,3.0219,1.4936
1352051.0,12.1051,-4.1659,21.6149,-1.8597,3.7876,1.3984
1352061.0,11.6454,-4.8459,23.0131,-1.8688,4.5836,1.2781
1352071.0,10.659,-3.6105,24.2102,-2.0545,5.3291,1.2217
1352081.0,9.7013,-3.2753,27.4854,-2.0875,5.9613,1.3186
1352091.0,8.4084,-3.3998,30.7799,-1.5884,6.4604,1.5139
1352101.0,7.288,-4.1468,32.9538,-1.1754,6.8387,1.7123
1352111.0,6.6846,-5.8706,35.6257,-0.7875,6.9744,1.7884
1352121.0,6.5601,-7.3263,37.3017,-0.5726,7.0441,1.7373
1352131.0,6.043,-9.0501,38.8531,-0.489,6.9946,1.541
1352141.0,4.9129,-9.7396,40.7876,-0.4284,6.7339,1.202
1352151.0,4.5586,-8.7532,41.3143,-0.6167,6.3492,0.8301
1352161.0,4.1372,-7.6519,43.268,-1.0408,5.6372,0.5832
1352171.0,3.1603,-6.9719,44.0725,-1.3792,4.7417,0.4635
1352181.0,2.5091,-7.1251,44.197,-1.4585,4.0584,0.4033
1352191.0,2.8922,-7.2784,41.5729,-1.1515,3.8131,0.3012
1352201.0,2.4134,-7.1443,39.715,-0.6689,4.0366,0.2027
1352211.0,1.8579,-6.1579,38.0103,-0.2549,4.4703,0.0788
1352221.0,0.4501,-4.8076,38.4317,-0.1016,4.7353,0.033
1352231.0,-0.7661,-3.2944,39.1021,-0.0325,4.7805,0.1016
1352241.0,-1.0247,-1.9537,37.9433,-0.3837,4.8598,0.2442
1352251.0,-1.3982,-1.8387,38.8052,-0.5177,5.2078,0.4597
1352261.0,-1.81,-1.8387,39.1404,-0.1836,5.8362,0.6316
1352271.0,-2.3942,-1.4844,39.8204,0.0479,6.702,0.8312
1352281.0,-3.5913,-1.743,43.4691,0.3943,7.3692,0.9929
1352291.0,-5.1332,-1.2163,47.1945,0.7269,7.7343,1.1573
1352301.0,-6.5314,-1.0822,51.4275,0.8918,7.5911,1.3383
1352311.0,-7.5178,-1.4078,55.1528,1.11,7.1239,1.4633
1352321.0,-7.5274,-1.4748,57.5758,1.4745,6.4801,1.5314
1352331.0,-8.0924,-0.3543,57.7194,1.5016,5.8335,1.6283
1352341.0,-8.0924,0.3256,58.4664,1.1557,5.1908,1.7549
1352351.0,-9.2225,0.6225,59.0985,0.6747,4.3761,1.8246
1352361.0,-10.1323,1.1492,59.5486,0.3331,3.4034,1.9709
1352371.0,-10.8793,0.9481,59.1751,-0.0388,2.6318,2.1285
1352381.0,-9.6726,0.6033,58.2557,-0.0772,1.9858,2.3003
1352391.0,-10.5345,0.1437,55.5646,-0.5906,1.466,2.4254
1352401.0,-11.2527,-0.9385,55.3061,-0.7678,1.1887,2.5355
1352411.0,-11.2049,-1.5131,53.4577,-1.1653,1.1323,2.5733
1352421.0,-11.722,-2.9784,54.0515,-1.3627,1.0807,2.6052
1352431.0,-12.2009,-4.0701,55.2869,-1.0919,1.094,2.6292
1352441.0,-13.1202,-4.4245,56.2159,-0.6524,1.0099,2.6217
1352451.0,-12.7946,-3.4955,56.8862,-0.2687,0.7795,2.7138
1352461.0,-12.9,-3.5817,56.8479,-0.2613,0.3586,2.891
1352471.0,-12.6701,-4.0223,57.9014,-0.3794,-0.2432,2.9883
1352481.0,-12.4307,-4.8842,58.1408,-0.3475,-0.9307,3.0799
1352491.0,-12.0476,-6.1196,57.3363,-0.4204,-1.6549,3.1815
1352501.0,-11.224,-7.9009,55.8902,-0.5204,-2.2769,3.1927
1352511.0,-10.9559,-9.1267,53.9078,-0.6923,-2.8207,3.0405
1352521.0,-10.5919,-10.0844,51.4562,-0.986,-3.2368,2.883
1352531.0,-9.3182,-10.8409,49.9047,-1.4463,-3.5189,2.6898
1352541.0,-8.4755,-12.0764,49.4355,-1.7767,-3.6907,2.4509
1352551.0,-7.853,-13.4267,50.5655,-1.4005,-3.7828,2.1668
1352561.0,-7.0294,-13.3596,49.4738,-0.6268,-3.8727,1.9459
1352571.0,-6.7612,-13.0819,47.7787,-0.2916,-3.9791,1.7214
1352581.0,-5.9472,-12.9095,46.1602,-0.3139,-4.1217,1.5
1352591.0,-5.3056,-12.8521,44.0342,-0.6598,-4.2404,1.2409
1352601.0,-4.616,-13.465,43.6415,-0.961,-4.2383,0.9057
1352611.0,-4.0606,-13.5703,43.9671,-0.7987,-4.1601,0.5944
1352621.0,-3.3136,-11.7986,42.7604,-0.729,-4.0095,0.3507
1352631.0,-2.9592,-11.5784,42.9137,-0.7891,-3.8514,0.191
1352641.0,-2.7102,-11.9231,43.5936,-0.6391,-3.8232,0.0218
1352651.0,-2.1261,-11.7986,44.2257,-0.4667,-3.9153,-0.1894
1352661.0,-1.81,-11.3485,44.7237,-0.1341,-4.1127,-0.3592
1352671.0,-1.4844,-10.7164,43.5745,0.0367,-4.3362,-0.5348
1352681.0,-1.0056,-9.9024,42.1858,0.0181,-4.5006,-0.6949
1352691.0,-0.2586,-8.983,40.5674,-0.0968,-4.5831,-0.8551
1352701.0,-0.0862,-8.0445,39.7533,-0.4103,-4.5128,-0.9599
1352711.0,0.3065,-7.5178,39.9353,-0.4922,-4.4426,-1.0014
1352721.0,1.4078,-6.7229,39.466,-0.4704,-4.3639,-0.9998
1352731.0,1.8387,-6.9815,40.2226,-0.5028,-4.3059,-0.9509
1352741.0,2.1548,-8.1594,40.8259,-0.1862,-4.3224,-0.9647
1352751.0,2.7677,-8.6957,40.5386,0.1171,-4.407,-1.0472
1352761.0,3.2274,-8.9543,40.7014,0.34,-4.5107,-1.1834
1352771.0,3.6679,-8.169,39.8874,0.6795,-4.639,-1.3223
1352781.0,3.869,-7.0677,38.2498,0.7758,-4.6884,-1.4021
1352791.0,4.0127,-6.1866,36.3727,0.6705,-4.6586,-1.4606
1352801.0,4.4819,-5.3056,35.4533,0.4848,-4.4878,-1.4277
1352811.0,5.6024,-4.4436,34.9075,0.3837,-4.3122,-1.3877
1352821.0,5.7844,-3.9648,34.6585,0.406,-4.0648,-1.2952
1352831.0,6.0813,-3.8786,34.6872,0.4108,-3.9132,-1.1706
1352841.0,6.5601,-4.1563,34.6776,0.3762,-3.8658,-1.0706
1352851.0,6.79,-4.2329,34.601,0.3257,-3.8903,-1.0286
1352861.0,7.3646,-3.8786,33.7582,0.3517,-3.9307,-0.9679
1352871.0,7.8051,-3.2944,32.7144,0.3773,-3.9121,-0.8567
1352881.0,8.3318,-2.4038,30.483,0.3193,-3.7679,-0.7577
1352891.0,9.0692,-1.5993,28.4718,0.116,-3.5045,-0.5954
1352901.0,9.098,-1.2641,26.7193,-0.1783,-3.0463,-0.3421
1352911.0,10.5536,-1.7717,25.8861,-0.3581,-2.5754,-0.1272
1352921.0,10.975,-2.988,25.1295,-0.6811,-2.112,-0.0037
1352931.0,10.7835,-4.7214,25.4935,-0.9615,-1.8108,0.0378
1352941.0,11.2144,-5.9472,25.9915,-1.1935,-1.5836,-0.0016
1352951.0,11.4347,-7.1826,26.1926,-1.3234,-1.3654,-0.1282
1352961.0,12.0955,-7.853,25.867,-1.2553,-1.1611,-0.3193
1352971.0,12.651,-7.9679,24.8997,-1.0169,-0.7689,-0.5316
1352981.0,12.6031,-7.4316,23.2525,-0.7386,-0.1735,-0.712
1352991.0,12.1242,-6.608,22.1703,-0.5369,0.4778,-0.8248
1353001.0,11.3868,-5.794,20.8296,-0.5513,1.1898,-0.8732
1353011.0,11.406,-5.4588,20.3986,-0.8987,1.9172,-0.8732
1353021.0,11.0612,-6.5027,21.7585,-1.1563,2.5121,-0.9222
1353031.0,11.0325,-7.1922,23.1759,-1.2946,3.0703,-1.0616
1353041.0,10.8888,-8.3797,24.1719,-1.2914,3.6471,-1.2584
1353051.0,10.3813,-8.3989,25.4168,-0.9812,4.3,-1.4702
1353061.0,9.3853,-7.4603,26.3458,-0.58,4.98,-1.632
1353071.0,8.4755,-6.11,27.3897,-0.2022,5.6611,-1.7166
1353081.0,7.0868,-4.6831,28.8166,0.0745,6.115,-1.7033
1353091.0,5.8131,-3.4572,30.1669,-0.0388,6.4013,-1.6213
1353101.0,4.5873,-2.988,32.1206,-0.4305,6.5131,-1.4766
1353111.0,4.5586,-3.3615,33.289,-0.8673,6.6104,-1.3345
1353121.0,4.5969,-4.2617,34.7638,-1.0781,6.8589,-1.2595
1353131.0,4.0606,-4.9416,36.5451,-1.0499,7.1755,-1.2159
1353141.0,3.5721,-5.0278,38.9489,-0.7019,7.5427,-1.1387
1353151.0,1.8962,-5.1811,42.6359,-0.1293,7.6725,-1.1057
1353161.0,0.7278,-4.0031,44.5034,0.1974,7.3357,-0.9397
1353171.0,-0.6991,-4.5681,45.7293,-0.6566,6.5343,-0.8168
1353181.0,-0.7183,-6.5601,48.3341,-0.912,5.5074,-0.803
1353191.0,0.2298,-8.2744,46.3805,-0.9243,4.9811,-0.9158
1353201.0,0.4022,-10.1227,44.5609,-0.8482,5.0859,-1.1802
1353211.0,0.7853,-9.9024,43.5553,-0.3145,5.5435,-1.5085
1353221.0,-0.0287,-7.8817,42.5881,-0.1447,6.1182,-1.7352
1353231.0,-1.5419,-6.6559,46.1411,-0.1293,6.3582,-1.8539
1353241.0,-2.8635,-4.616,49.0811,-0.1793,5.9639,-1.8251
1353251.0,-4.4724,-3.2944,51.4658,-0.7641,4.8832,-1.6538
1353261.0,-4.5203,-4.1468,51.5041,-1.2632,3.6402,-1.4447
1353271.0,-3.62,-6.3111,48.631,-1.3218,3.073,-1.3877
1353281.0,-2.7198,-8.2552,44.9056,-0.8993,3.3922,-1.4612
1353291.0,-2.49,-9.1363,42.1571,-0.3475,4.3277,-1.6639
1353301.0,-3.486,-9.4715,42.7221,0.249,5.4339,-1.8943
1353311.0,-4.7884,-7.8243,44.3215,0.8019,6.3188,-2.1295
1353321.0,-7.0198,-6.2824,47.319,0.729,6.5998,-2.2391
1353331.0,-9.6822,-5.4492,51.3604,0.2613,6.2736,-2.2604
1353341.0,-10.3046,-5.9089,54.7602,-0.2682,5.5914,-2.2929
1353351.0,-9.9503,-6.9432,57.729,-0.4587,4.9651,-2.3817
1353361.0,-9.2703,-7.422,59.7305,0.0559,4.5453,-2.5094
1353371.0,-9.3182,-6.924,61.7896,0.6944,4.2266,-2.6552
1353381.0,-9.6726,-5.6599,64.2412,1.3707,3.6843,-2.7436
1353391.0,-10.4291,-3.2082,65.5054,1.7017,2.767,-2.7659
1353401.0,-11.3198,-0.7757,66.0991,1.4181,1.5006,-2.6425
1353411.0,-11.6071,0.4693,65.6203,0.9312,0.1548,-2.427
1353421.0,-11.5017,0.5171,64.4232,0.4369,-1.0993,-2.2258
1353431.0,-10.9176,-0.5363,62.3163,0.0713,-2.1018,-2.1104
1353441.0,-10.7835,-0.7757,59.7018,-0.2341,-2.85,-2.0087
1353451.0,-10.2951,-0.5459,58.2844,-0.4613,-3.3534,-1.8927
1353461.0,-9.8067,-0.6991,58.0259,-0.0947,-3.7828,-1.6847
1353471.0,-9.1459,-0.3065,56.0914,0.3198,-4.2159,-1.4819
1353481.0,-8.5138,-0.8523,53.5918,0.3698,-4.6406,-1.3191
1353491.0,-8.0158,-1.2354,51.9063,0.4097,-5.0865,-1.1808
1353501.0,-7.5082,-1.2833,49.809,0.3507,-5.4467,-1.0706
1353511.0,-6.8091,-1.3886,46.8593,0.1442,-5.692,-0.9637
1353521.0,-6.0334,-2.0207,45.1738,0.0319,-5.7649,-0.8769
1353531.0,-4.8937,-2.1931,43.833,0.0979,-5.6665,-0.8434
1353541.0,-4.118,-2.6624,42.1763,0.2128,-5.4414,-0.787
1353551.0,-2.8252,-2.873,41.4484,0.4385,-5.1817,-0.7439
1353561.0,-2.1835,-3.0071,41.1994,0.6194,-4.9896,-0.7311
1353571.0,-2.0686,-3.1029,41.3048,0.7843,-5.012,-0.7199
1353581.0,-1.4748,-3.0454,40.0694,0.6178,-5.1046,-0.7364
1353591.0,-0.9194,-3.0837,39.2074,0.249,-5.2929,-0.7577
1353601.0,-0.1915,-2.5857,37.3687,-0.049,-5.3254,-0.77
1353611.0,0.9673,-2.6432,35.6066,-0.3214,-5.0923,-0.7716
1353621.0,1.5323,-3.237,35.53,-0.1213,-4.664,-0.7444
1353631.0,2.4134,-3.2753,35.032,0.4081,-4.0962,-0.7455
1353641.0,2.308,-2.7581,35.3288,0.9094,-3.6317,-0.7109
1353651.0,2.0494,-2.0782,35.7885,1.2521,-3.3507,-0.6146
1353661.0,2.1452,-1.5706,35.6832,1.3558,-3.2778,-0.4864
1353671.0,2.5857,-1.1492,35.166,1.0094,-3.347,-0.4177
1353681.0,2.7294,-1.4844,35.3288,0.6093,-3.3874,-0.3081
1353691.0,4.0127,-1.5897,34.3041,0.3677,-3.3161,-0.2517
1353701.0,4.6064,-1.6855,34.17,0.3145,-3.1176,-0.1745
1353711.0,5.2194,-1.2641,33.4422,0.415,-2.8282,-0.1016
1353721.0,6.043,-1.2163,33.356,0.4257,-2.5541,0.0032
1353731.0,5.7365,-1.312,32.9251,0.3602,-2.4121,0.0984
1353741.0,5.6407,-2.0111,33.2698,0.2852,-2.3147,0.157
1353751.0,6.2249,-2.1452,32.6473,0.2363,-2.1157,0.1373
1353761.0,7.288,-2.7198,32.7623,0.2448,-1.93,0.1038
1353771.0,7.8817,-2.9975,32.1685,0.3608,-1.6134,0.0133
1353781.0,8.1211,-2.3176,31.8716,0.5108,-1.3074,-0.0724
1353791.0,8.1594,-1.5036,31.6226,0.4326,-0.9977,-0.0777
1353801.0,8.2552,-0.6704,31.9961,0.3235,-0.7572,-0.0261
1353811.0,8.4755,0.0958,31.8429,0.0686,-0.5853,0.0713
1353821.0,8.4084,0.1245,31.8237,-0.2389,-0.4113,0.2006
1353831.0,8.5234,-0.996,32.4941,-0.1953,-0.1697,0.3076
1353841.0,9.2895,-1.3886,32.2451,-0.182,0.0181,0.3278
1353851.0,9.73,-2.1835,33.1645,-0.2613,0.232,0.2857
1353861.0,9.5481,-2.8826,33.5571,-0.2128,0.2975,0.2256
1353871.0,8.8873,-2.6911,33.3847,-0.2911,0.241,0.1458
1353881.0,8.9256,-2.0494,32.4175,-0.6412,0.1357,0.0883
1353891.0,9.0692,-1.9345,31.546,-1.1089,0.1213,0.0718
1353901.0,8.734,-2.2793,30.7894,-1.2893,0.2543,0.0612
1353911.0,8.8969,-2.4612,29.8413,-1.1973,0.6646,0.0277
1353921.0,8.6766,-2.1931,29.5349,-0.8812,1.276,0.0399
1353931.0,7.9775,-1.5802,28.8932,-0.4927,1.98,0.0617
1353941.0,7.6902,-0.6704,28.558,-0.4049,2.6755,0.1245
1353951.0,7.6806,-0.0096,29.0369,-0.6577,3.1788,0.2203
1353961.0,7.2784,-0.3352,31.1246,-1.1196,3.446,0.306
1353971.0,6.7038,-1.2067,33.4709,-1.4878,3.5135,0.3586
1353981.0,6.4643,-1.5897,34.9841,-1.6272,3.4172,0.3794
1353991.0,5.9376,-1.81,36.2195,-1.5766,3.3794,0.4023
1354001.0,5.8897,-0.8236,36.2578,-1.2228,3.4076,0.5289
1354011.0,5.4875,-0.2777,35.8077,-0.9919,3.5503,0.6891
1354021.0,5.047,-0.0575,36.1716,-0.6518,3.7594,0.9136
1354031.0,4.7597,-0.4693,35.7215,-0.4039,3.8727,1.1542
1354041.0,3.9744,-1.8579,35.2714,-0.5348,3.9701,1.2675
1354051.0,3.9073,-3.1891,35.1948,-0.829,4.0696,1.2537
1354061.0,3.371,-4.4053,35.2905,-1.1621,4.2505,1.1424
1354071.0,2.5857,-5.2289,36.2195,-1.3995,4.5246,0.9509
1354081.0,1.9537,-4.3191,37.5028,-1.375,4.8619,0.7769
1354091.0,1.4748,-3.0742,38.8531,-1.2622,5.1551,0.7519
1354101.0,0.5938,-1.8866,41.4101,-1.0036,5.1705,0.8471
1354111.0,-0.5171,-1.0343,43.4212,-0.7577,4.7821,1.0557
1354121.0,-2.4325,-2.4229,44.264,-0.6928,4.184,1.2106
1354131.0,-1.3982,-3.62,42.9807,-0.5475,3.6881,1.2446
1354141.0,-1.2929,-4.2138,40.4907,-0.7795,3.5769,1.1196
1354151.0,-2.2697,-4.7597,39.8299,-0.6114,3.7658,0.986
1354161.0,-2.6815,-3.2465,37.9242,-0.0931,4.2957,0.912
1354171.0,-3.984,-1.9824,37.2825,-0.0766,4.78,0.9621
1354181.0,-5.5929,-1.2641,39.3798,0.3246,5.1482,1.1297
1354191.0,-7.3454,-0.8428,39.5139,0.5944,5.4914,1.3149
1354201.0,-8.0541,-1.9728,40.3471,0.7524,5.7931,1.4873
1354211.0,-8.8394,-2.4708,39.9449,0.7694,6.1438,1.5548
1354221.0,-9.7588,-2.7102,40.96,0.431,6.6275,1.5878
1354231.0,-10.1897,-2.5187,43.4308,0.4268,7.0808,1.632
1354241.0,-10.7452,-1.9824,45.9495,0.2778,7.4719,1.7299
1354251.0,-11.4347,-2.0494,50.4698,0.3714,7.5991,1.9039
1354261.0,-12.4403,-2.2601,54.7219,0.5316,7.3533,2.1274
1354271.0,-12.6605,-3.7254,59.1847,0.6848,6.844,2.3019
1354281.0,-12.2679,-5.1427,61.8183,0.936,5.9469,2.3711
1354291.0,-12.1147,-6.7708,63.0633,0.9126,4.9332,2.3147
1354301.0,-12.3158,-8.7915,64.4711,0.8072,3.7844,2.0316
1354311.0,-12.1434,-9.7013,64.4423,0.6529,2.5004,1.6235
1354321.0,-11.4826,-8.3797,63.4942,0.3459,1.2803,1.2031
1354331.0,-11.3198,-6.9336,62.2205,-0.0277,0.1948,0.9344
1354341.0,-11.6071,-6.1962,60.7361,-0.0931,-0.6614,0.7854
1354351.0,-11.1761,-5.1906,58.3898,0.0043,-1.3111,0.7072
1354361.0,-10.8218,-4.9512,55.6604,-0.1043,-1.7842,0.6439
1354371.0,-11.1187,-5.7174,54.0515,-0.1815,-2.171,0.5922
1354381.0,-10.1993,-5.9472,51.6764,-0.2575,-2.511,0.431
1354391.0,-9.9982,-5.6695,49.6557,-0.5561,-2.7468,0.2975
1354401.0,-9.6343,-4.8937,48.3916,-0.7215,-2.8814,0.1799
1354411.0,-9.5289,-4.5394,47.3573,-0.7364,-2.8676,0.1485
1354421.0,-9.0501,-4.2138,47.0508,-0.4422,-2.6989,0.191
1354431.0,-8.5617,-4.1276,46.7061,-0.0255,-2.576,0.2639
1354441.0,-8.6957,-4.7788,46.256,0.1628,-2.5345,0.3145
1354451.0,-8.418,-5.3726,46.0932,0.2363,-2.6228,0.2884
1354461.0,-8.1307,-5.861,46.4762,0.2341,-2.7814,0.191
1354471.0,-7.604,-5.5067,45.9304,0.2602,-3.0357,0.1165
1354481.0,-6.6942,-4.9416,44.3693,0.0096,-3.2023,0.0261
1354491.0,-6.2728,-4.9991,44.1874,-0.215,-3.3342,-0.0351
1354501.0,-5.5641,-4.9895,42.952,-0.331,-3.3651,-0.1229
1354511.0,-5.6599,-4.8363,42.3199,-0.4555,-3.2411,-0.2059
1354521.0,-5.5737,-4.5298,42.6743,-0.2581,-3.2214,-0.2591
1354531.0,-5.2768,-3.7254,41.2856,-0.4001,-3.1714,-0.257
1354541.0,-5.2768,-4.0031,41.9177,-0.3874,-3.1485,-0.2602
1354551.0,-4.9895,-4.5873,42.1858,-0.091,-3.1299,-0.2559
1354561.0,-4.0893,-4.4149,41.9847,0.1846,-3.0565,-0.3065
1354571.0,-3.4764,-4.0223,41.2569,0.3948,-2.9463,-0.3379
1354581.0,-2.8443,-3.4764,40.3854,0.4166,-2.7622,-0.3735
1354591.0,-2.6911,-2.7102,40.4907,0.3453,-2.6792,-0.3751
1354601.0,-2.8156,-2.0686,40.0023,0.0346,-2.6834,-0.3326
1354611.0,-2.9113,-1.8771,40.7397,-0.265,-2.7633,-0.2629
1354621.0,-2.4612,-2.059,40.9217,-0.5002,-2.9261,-0.2166
1354631.0,-2.3655,-2.5953,40.9408,-0.629,-3.0208,-0.2006
1354641.0,-1.0534,-3.3615,41.0749,-0.4214,-2.9724,-0.2065
1354651.0,-0.4501,-3.5338,40.8547,-0.0878,-2.8335,-0.2112
1354661.0,-0.1149,-3.6488,40.3088,0.2293,-2.6377,-0.2432
1354671.0,0.2586,-3.4285,40.0023,0.4039,-2.4546,-0.2756
1354681.0,0.1915,-3.0167,39.4086,0.3677,-2.3307,-0.3038
1354691.0,0.4214,-2.8252,39.8587,0.2868,-2.3232,-0.2804
1354701.0,0.7949,-2.4325,40.2609,0.1442,-2.4318,-0.2932
1354711.0,1.063,-2.1165,40.1747,-0.0846,-2.5807,-0.282
1354721.0,1.4365,-1.9154,39.5714,-0.323,-2.7164,-0.2756
1354731.0,2.0399,-2.2218,39.2936,-0.4624,-2.6803,-0.2602
1354741.0,3.0358,-2.2027,39.217,-0.5305,-2.7069,-0.2235
1354751.0,3.2848,-2.9497,40.2322,-0.1751,-2.6324,-0.2038
1354761.0,3.5913,-3.2561,40.0119,0.39,-2.6457,-0.1783
1354771.0,3.9648,-3.1125,38.9106,0.6321,-2.7595,-0.1368
1354781.0,4.0893,-3.5051,37.6847,0.6806,-2.9708,-0.1538
1354791.0,4.8459,-3.5051,35.0894,0.3331,-3.1054,-0.2277
1354801.0,5.5162,-3.9744,33.2794,-0.464,-3.1357,-0.3576
1354811.0,5.794,-4.3096,32.0248,-1.0052,-2.9947,-0.5417
1354821.0,6.0813,-4.1276,30.799,-1.3101,-2.6329,-0.704
1354831.0,6.1962,-3.9073,30.483,-1.1414,-2.121,-0.7817
1354841.0,6.7804,-3.2753,30.6841,-0.6173,-1.6272,-0.7764
1354851.0,6.8857,-2.5666,29.8988,-0.2889,-1.2042,-0.6965
1354861.0,6.8283,-3.0837,29.2955,-0.19,-0.8886,-0.6316
1354871.0,6.6463,-3.7158,28.7591,-0.3241,-0.7019,-0.6486
1354881.0,6.79,-4.4149,27.0736,-0.7482,-0.4587,-0.7891
1354891.0,6.7516,-5.0278,26.25,-1.2127,-0.0335,-0.9605
1354901.0,6.4739,-5.2002,25.5222,-1.5394,0.5438,-1.2111
1354911.0,5.928,-4.8459,26.1543,-1.6607,1.2308,-1.3542
1354921.0,5.7269,-3.6679,26.7863,-1.3846,2.0183,-1.4229
1354931.0,5.3343,-2.557,26.9874,-1.2451,2.8596,-1.3952
1354941.0,4.5011,-2.3367,28.9698,-1.102,3.5492,-1.2489
1354951.0,3.9073,-2.7773,31.0193,-0.7907,4.1276,-1.1233
1354961.0,3.3806,-3.5721,32.7718,-0.5773,4.6448,-1.0488
1354971.0,3.1029,-4.3,34.8308,-0.4667,4.9822,-1.0802
1354981.0,2.3942,-4.6448,37.0431,-0.464,5.1876,-1.1648
1354991.0,2.2793,-4.5586,39.8587,-0.4417,5.2067,-1.2611
1355001.0,2.2218,-3.7254,41.6112,-0.4576,4.9417,-1.2984
1355011.0,1.6376,-2.9401,43.7947,-0.6439,4.5235,-1.2691
1355021.0,1.1205,-2.988,44.9248,-0.8556,3.9456,-1.2207
1355031.0,0.8811,-3.3806,45.1738,-1.1206,3.3427,-1.2239
1355041.0,0.5555,-3.6966,45.0589,-1.2446,2.8793,-1.1951
1355051.0,0.996,-4.3958,44.9727,-1.1472,2.5962,-1.2122
1355061.0,1.1971,-4.2617,44.6758,-0.7274,2.4126,-1.2499
1355071.0,1.2929,-3.9648,43.2967,-0.3932,2.2732,-1.2297
1355081.0,1.1875,-3.9456,42.2912,-0.3203,2.1971,-1.2435
1355091.0,0.9768,-3.7924,40.8068,-0.4901,2.0901,-1.2962
1355101.0,0.6033,-3.6105,39.4181,-0.9461,2.0641,-1.3665
1355111.0,0.0575,-3.1603,38.6807,-1.2563,2.1093,-1.4218
1355121.0,-0.8045,-2.873,38.2115,-1.4356,2.278,-1.4165
1355131.0,-0.6991,-2.9209,38.8148,-1.3989,2.5478,-1.3505
1355141.0,-0.6512,-3.6105,38.7956,-1.1222,2.8473,-1.2984
1355151.0,-0.9385,-4.2234,39.7821,-0.7152,3.157,-1.2936
1355161.0,-1.561,-4.5394,40.28,-0.1772,3.4603,-1.2989
1355171.0,-2.2218,-4.0031,40.0981,0.1623,3.7865,-1.3415
1355181.0,-3.0263,-3.6871,40.5003,0.2251,4.002,-1.3862
1355191.0,-3.8211,-3.1699,41.3718,0.1288,4.2016,-1.4128
1355201.0,-4.8842,-2.6145,42.9137,-0.0277,4.2548,-1.4117
1355211.0,-5.6024,-2.0303,44.7333,-0.2097,4.2175,-1.3633
1355221.0,-6.292,-2.6336,46.8593,-0.1809,4.1691,-1.3117
1355231.0,-6.1962,-3.0358,48.7938,0.2011,4.0818,-1.2489
1355241.0,-6.4643,-3.1891,50.058,0.6087,3.9722,-1.2441
1355251.0,-6.6367,-2.624,50.69,0.8572,3.7918,-1.2616
1355261.0,-7.2401,-1.7813,51.2646,0.7902,3.4502,-1.2797
1355271.0,-8.1594,-0.7853,52.3564,0.5002,2.9953,-1.2483
1355281.0,-8.6,-0.4501,54.0132,0.1942,2.3956,-1.151
1355291.0,-8.6862,0.2203,53.9174,-0.0862,1.6916,-0.9887
1355301.0,-8.667,0.1628,53.9078,-0.3331,1.0711,-0.7976
1355311.0,-8.6862,-0.7374,54.0707,-0.1346,0.6907,-0.6002
1355321.0,-8.1786,-1.7047,53.2183,0.2772,0.4752,-0.4523
1355331.0,-7.9296,-2.4325,52.3851,0.5912,0.2959,-0.3837
1355341.0,-8.2073,-2.7294,51.121,0.5316,0.0942,-0.3698
1355351.0,-8.0828,-3.5434,50.8337,0.3182,-0.1857,-0.4156
1355361.0,-8.0924,-4.1276,50.6038,0.008,-0.5204,-0.5459
1355371.0,-8.169,-4.5873,50.4602,-0.2405,-0.8317,-0.7146
1355381.0,-7.5848,-4.3383,50.5847,-0.274,-1.0589,-0.8886
1355391.0,-7.4699,-3.6966,50.5368,0.0697,-1.2223,-0.9738
1355401.0,-7.8051,-3.4381,50.0771,0.3251,-1.3569,-1.0302
1355411.0,-7.7572,-2.8635,49.7611,0.4661,-1.5357,-1.0685
1355421.0,-8.0637,-2.6911,49.311,0.5321,-1.7703,-1.11
1355431.0,-7.5561,-2.3559,48.8609,0.6018,-2.0481,-1.1696
1355441.0,-7.604,-1.2833,48.1522,0.431,-2.3562,-1.2116
1355451.0,-7.2305,-0.3352,47.6542,0.0388,-2.6563,-1.2244
1355461.0,-6.9815,0.8236,47.07,-0.1676,-2.9208,-1.1116
1355471.0,-6.3782,1.7909,46.3805,-0.2272,-3.0761,-0.9328
1355481.0,-5.7365,1.992,45.9399,-0.1224,-3.149,-0.6215
1355491.0,-5.2672,1.6568,45.0397,0.0463,-3.1682,-0.3416
1355501.0,-4.8937,0.3256,44.1778,0.0809,-3.2049,-0.1288
1355511.0,-4.2617,-0.5076,43.1722,0.0367,-3.2342,0.0144
1355521.0,-3.8499,-1.8483,42.8754,-0.1022,-3.2853,0.0527
1355531.0,-3.2561,-2.7294,42.4731,-0.2623,-3.2815,0.0266
1355541.0,-2.4612,-3.9169,42.9232,-0.1362,-3.3044,-0.0724
1355551.0,-1.9728,-4.0223,42.1954,-0.0144,-3.2485,-0.1697
1355561.0,-1.3024,-3.3519,41.2473,-0.0697,-3.2225,-0.2847
1355571.0,-0.9098,-3.0263,40.8547,-0.2139,-3.1868,-0.364
1355581.0,-0.7087,-2.9688,40.395,-0.423,-3.1778,-0.4193
1355591.0,-0.3735,-2.8539,40.6535,-0.4715,-3.1964,-0.4385
1355601.0,-0.4214,-2.6719,40.2705,-0.5342,-3.1985,-0.4725
1355611.0,0.0287,-2.806,40.7685,-0.3065,-3.1123,-0.4656
1355621.0,0.4597,-2.6145,40.0215,-0.0644,-3.0948,-0.4571
1355631.0,0.9385,-2.6336,39.6671,0.0186,-3.0016,-0.4363
1355641.0,1.7047,-2.7198,39.4852,0.1506,-2.9325,-0.4353
1355651.0,2.3463,-2.557,38.8914,0.158,-2.8617,-0.4268
1355661.0,2.5762,-2.4708,39.217,0.0963,-2.8308,-0.4645
1355671.0,3.1125,-2.0782,39.0446,0.1075,-2.8319,-0.4709
1355681.0,3.3423,-1.6568,38.4413,-0.066,-2.8729,-0.455
1355691.0,3.7924,-1.7813,38.3838,-0.2762,-2.8745,-0.4321
1355701.0,4.6064,-2.0494,38.8148,-0.223,-2.908,-0.3959
1355711.0,5.0374,-2.1165,38.1061,-0.0357,-2.8628,-0.4119
1355721.0,5.2577,-2.2314,37.8954,0.066,-2.7877,-0.4081
1355731.0,5.9089,-2.2122,37.8092,0.2112,-2.7468,-0.4145
1355741.0,5.8227,-1.8004,37.5028,0.3634,-2.7398,-0.3916
1355751.0,6.0813,-1.8196,37.5411,0.4363,-2.7627,-0.3586
1355761.0,6.4931,-1.6089,37.1197,0.5545,-2.908,-0.3076
1355771.0,6.5697,-1.312,35.4055,0.4347,-3.099,-0.3022
1355781.0,6.7038,-1.1301,34.2179,0.1309,-3.1698,-0.3219
1355791.0,7.0485,-1.2833,33.0974,-0.0319,-3.1735,-0.3272
1355801.0,7.6519,-0.9673,31.5747,-0.0931,-2.9671,-0.3124
1355811.0,8.2839,-0.6033,29.5061,-0.1921,-2.6015,-0.2916
1355821.0,8.5521,-0.5363,28.3761,-0.1979,-2.1519,-0.223
1355831.0,9.1171,-0.316,27.6482,-0.1937,-1.566,-0.1687
1355841.0,8.667,-0.1532,27.3705,-0.1623,-1.0664,-0.0867
1355851.0,9.1171,0.0192,27.993,-0.016,-0.6268,0.0303
1355861.0,8.8585,-0.5842,27.5525,0.0181,-0.2943,0.1139
1355871.0,8.6574,-1.0151,27.7249,-0.0043,0.0096,0.1123
1355881.0,9.3757,-1.3312,27.2364,-0.1054,0.3778,0.0628
1355891.0,8.6862,-1.0439,26.3841,-0.2458,0.8657,0.0133
1355901.0,8.351,-0.3639,26.4128,-0.1532,1.4431,0.016
1355911.0,8.3127,0.8523,26.25,-0.0234,2.1439,0.0745
1355921.0,8.2073,2.0973,25.9531,0.0106,2.8558,0.2107
1355931.0,8.0254,2.7773,26.748,-0.0048,3.5258,0.3986
1355941.0,6.9528,2.6624,28.1558,-0.0607,4.1946,0.5768
1355951.0,5.9664,1.9249,30.1191,-0.1639,4.8092,0.7104
1355961.0,5.1715,0.8523,32.5899,-0.1538,5.2887,0.7466
1355971.0,4.1084,0.6991,36.0184,-0.0138,5.5914,0.7274
1355981.0,3.4764,0.9194,39.5809,0.2836,5.6601,0.6976
1355991.0,2.4038,2.1835,41.0845,0.3954,5.5765,0.7444
1356001.0,1.992,3.371,42.9232,0.2384,5.4398,0.8801
1356011.0,1.8004,4.7022,43.8426,0.0756,5.1636,1.0983
1356021.0,0.9002,4.6064,45.6239,0.0213,5.078,1.3351
1356031.0,0.3352,4.2042,46.4284,0.5135,4.9391,1.5868
1356041.0,-0.0383,4.1276,46.4858,0.555,4.8704,1.7895
1356051.0,0.2777,3.5626,48.4012,0.564,4.5937,1.9433
1356061.0,0.1532,3.3615,48.6119,0.3086,4.0648,2.055
1356071.0,-0.8906,2.5762,49.311,-0.2554,3.3465,2.1492
1356081.0,-1.2163,1.743,49.8281,-0.6582,2.5994,2.1694
1356091.0,-1.81,1.2737,49.1386,-0.9599,1.9896,2.1763
1356101.0,-2.2027,1.1013,48.3916,-0.8429,1.6187,2.1992
1356111.0,-2.1069,1.7047,46.7731,-0.2458,1.591,2.2998
1356121.0,-1.8866,2.8826,44.4268,0.1282,1.7586,2.5142
1356131.0,-1.9154,2.9784,43.4595,0.422,2.0124,2.775
1356141.0,-1.8579,2.0877,42.5498,0.6167,2.2599,2.9921
1356151.0,-1.7526,0.8332,42.0709,0.3842,2.4041,3.1294
1356161.0,-2.5857,-0.929,42.3582,-0.0798,2.4163,3.1192
1356171.0,-3.055,-2.5953,43.6128,-0.4417,2.4062,3.0357
1356181.0,-3.5913,-3.3519,44.3981,-0.3581,2.3344,2.859
1356191.0,-3.4381,-2.0686,43.5553,-0.6013,2.312,2.6952
1356201.0,-2.5474,-1.9632,44.2353,-1.0823,2.2482,2.6345
1356211.0,-3.122,-2.3367,46.6774,-0.8993,2.1646,2.6302
1356221.0,-3.5051,-2.7198,46.8689,-0.4379,2.1465,2.6132
1356231.0,-4.2425,-3.1891,47.4339,-0.2293,2.1412,2.6207
1356241.0,-4.5203,-4.6352,47.7117,0.0899,2.0901,2.5462
1356251.0,-4.7022,-5.7078,48.1043,0.1884,1.98,2.3711
1356261.0,-5.1619,-6.2632,48.5065,-0.2097,1.822,2.1109
1356271.0,-5.3439,-6.9145,50.3357,-0.5523,1.5346,1.8283
1356281.0,-5.2194,-5.8993,51.2263,-0.8546,1.0743,1.5713
1356291.0,-4.6448,-4.9799,52.4139,-1.3484,0.6486,1.3707
1356301.0,-4.3958,-4.3191,54.4154,-1.4074,0.0468,1.2739
1356311.0,-4.6543,-4.2808,55.2582,-1.2169,-0.6284,1.2324
1356321.0,-4.7022,-5.0757,54.741,-1.1153,-1.2558,1.1871
1356331.0,-5.296,-5.5067,54.1664,-1.0392,-1.8752,1.0797
1356341.0,-5.8419,-5.679,53.2854,-0.9328,-2.3009,0.9993
1356351.0,-4.8746,-5.6407,51.1785,-1.1318,-2.6978,0.9009
1356361.0,-3.869,-6.3782,51.3413,-1.0887,-3.1884,0.7934
1356371.0,-2.4421,-6.11,48.4203,-0.9009,-3.7306,0.6401
1356381.0,-1.3024,-6.177,44.1587,-1.1632,-3.4853,0.5114
1356391.0,-1.6759,-7.355,42.6838,-1.2441,-3.2315,0.2932
1356401.0,-1.9824,-6.6559,41.5155,-1.5804,-2.9697,0.0415
1356411.0,-2.8156,-5.9759,43.2297,-1.4787,-2.7494,-0.0734
1356421.0,-2.3463,-5.6216,43.5936,-0.6896,-2.5137,-0.0782
1356431.0,-1.3695,-5.5162,42.5306,0.165,-2.1801,-0.041
1356441.0,-0.3926,-5.7557,41.5825,0.8333,-1.7698,-0.074
1356451.0,-0.2107,-5.3151,41.4293,1.2207,-1.3766,-0.1591
1356461.0,0.2969,-4.9512,41.142,1.1542,-1.119,-0.2341
1356471.0,0.1245,-4.5681,42.3965,0.9041,-1.0541,-0.3459
1356481.0,0.2586,-3.9169,42.0422,0.2235,-1.2122,-0.5055
1356491.0,0.249,-3.1795,43.6511,-0.7897,-1.4394,-0.6731
1356501.0,-0.1341,-2.1165,46.1602,-0.953,-1.7634,-0.7205
1356511.0,0.3352,-0.2011,46.9934,-0.6008,-2.0971,-0.572
1356521.0,-0.182,-0.5363,46.0644,-0.3209,-2.428,-0.348
1356531.0,0.6225,-1.5131,45.078,0.2102,-2.7771,-0.1804
1356541.0,0.7853,-2.9975,42.9041,0.397,-2.6489,-0.1564
1356551.0,1.312,-4.6448,42.6168,0.9509,-2.4286,-0.2368
1356561.0,1.8196,-4.0989,41.5633,1.3021,-2.1801,-0.3565
1356571.0,1.6472,-2.3463,40.462,1.1669,-2.1024,-0.4358
1356581.0,2.2122,-0.1915,39.4469,0.6497,-2.163,-0.423
1356591.0,2.5379,-0.2394,39.5139,-0.0474,-2.1247,-0.3251
1356601.0,2.5474,-1.5993,40.8355,-0.132,-2.096,-0.299
1356611.0,2.806,-1.4557,40.3184,-0.0724,-2.013,-0.29
1356621.0,3.5147,-2.7102,41.5729,-0.0585,-1.8193,-0.2543
1356631.0,3.8211,-4.4149,43.948,0.8524,-1.7145,-0.3012
1356641.0,3.9073,-3.304,42.7987,1.1871,-1.9906,-0.4049
1356651.0,3.8211,-1.6089,42.3965,0.9812,-2.2482,-0.4172
1356661.0,4.5873,-0.0862,41.276,0.8679,-2.518,-0.3241
1356671.0,2.5379,0.0479,38.1923,0.1288,-2.8638,-0.2794
1356681.0,6.4739,0.7949,39.2266,-0.2081,-3.0165,-0.1687
1356691.0,4.2713,-1.3695,35.9992,-0.7764,-2.7015,-0.1809
1356701.0,6.608,-2.3942,37.2921,-0.8631,-2.4951,-0.2171
1356711.0,6.426,-2.308,36.3536,-0.4055,-2.3354,-0.257
1356721.0,6.79,-1.6855,35.8173,-0.1054,-2.0662,-0.2421
1356731.0,6.8378,-1.8866,35.7502,0.4837,-1.7687,-0.1767
1356741.0,8.0349,-2.1548,33.787,0.7029,-1.408,-0.1208
1356751.0,8.1403,-4.0701,34.0551,0.4534,-1.1462,-0.207
1356761.0,8.5234,-5.0566,34.2467,0.1405,-1.0956,-0.4193
1356771.0,8.2073,-4.8363,35.0511,-0.2208,-1.2196,-0.6747
1356781.0,8.3318,-4.2138,34.6297,-0.0809,-1.3191,-0.8344
1356791.0,8.8681,-1.8866,31.4407,0.1048,-1.2207,-0.9317
1356801.0,8.8873,0.0287,29.3529,0.0165,-0.7508,-0.9237
1356811.0,8.9352,1.2546,28.5963,0.1495,-0.0223,-0.8019
1356821.0,8.7532,1.4365,28.7591,0.2011,0.7338,-0.6433
1356831.0,8.6095,0.2777,30.6649,0.2799,1.4122,-0.5188
1356841.0,8.7149,-0.9481,32.1781,0.3975,1.8496,-0.4848
1356851.0,8.6191,-3.1029,34.6393,0.4837,2.104,-0.5497
1356861.0,8.8107,-4.9799,35.3767,0.6784,2.1034,-0.7827
1356871.0,7.8434,-4.5394,35.0415,0.4411,2.0992,-1.1095
1356881.0,7.9871,-3.0742,34.6489,-0.1213,2.2455,-1.3968
1356891.0,7.6423,-1.0822,34.6776,-0.6827,2.4956,-1.574
1356901.0,6.5122,1.1109,37.0718,-1.1685,2.8787,-1.5825
1356911.0,6.1387,2.7294,41.0079,-1.0413,3.1427,-1.3957
1356921.0,5.1715,3.1412,44.5226,-0.4826,3.016,-1.0903
1356931.0,5.0757,3.1699,45.8825,-0.05,2.6217,-0.8269
1356941.0,5.1427,1.9249,46.7731,0.2772,2.0524,-0.6066
1356951.0,4.9033,0.7087,46.2847,0.3799,1.392,-0.4768
1356961.0,4.9895,-1.0918,44.5513,0.3304,0.8195,-0.4528
1356971.0,5.5641,-2.4804,41.8028,0.2075,0.4252,-0.5608
1356981.0,5.7844,-2.7677,38.0965,-0.125,0.3187,-0.7657
1356991.0,5.8897,-2.0877,36.2578,-0.2847,0.6039,-0.9519
1357001.0,5.7844,-0.6512,34.7255,-0.0506,1.1627,-0.9961
1357011.0,4.6543,0.8523,33.5667,0.0644,1.6772,-0.9594
1357021.0,4.0223,1.5993,33.5092,-0.0974,2.1386,-0.8099
1357031.0,3.304,0.7374,33.4901,-0.422,2.4227,-0.6364
1357041.0,4.1946,-1.992,35.3384,-0.5284,2.643,-0.6141
1357051.0,3.8116,-3.8403,35.597,-0.3406,2.8564,-0.7822
1357061.0,3.7924,-3.9169,35.5204,-0.2714,3.2134,-0.9913
1357071.0,3.6296,-3.4955,36.1141,-0.017,3.7828,-1.1882
1357081.0,2.6336,-2.0877,37.1197,0.1666,4.2383,-1.3244
1357091.0,1.494,-0.1245,38.3647,0.0399,4.4112,-1.351
1357101.0,0.2298,2.4229,39.7246,-0.2831,4.2691,-1.2584
1357111.0,-1.245,4.3,40.5578,-0.7061,4.0026,-1.0355
1357121.0,-2.0782,4.2042,40.7493,-1.0041,4.0143,-0.6907
1357131.0,-1.0822,0.7949,42.272,-0.7615,4.3649,-0.4422
1357141.0,-1.3886,-2.1931,43.3255,-0.5944,4.747,-0.4805
1357151.0,-1.1779,-4.4436,47.4818,-0.5965,4.8114,-0.7348
1357161.0,-1.6376,-5.1044,51.7626,-0.2075,4.5065,-0.969
1357171.0,-2.0207,-3.8786,54.0419,0.2246,3.7429,-1.1903
1357181.0,-1.7047,-2.9688,54.7698,0.2432,2.6962,-1.3388
1357191.0,-1.4174,-2.7485,53.5918,0.1724,1.6618,-1.4601
1357201.0,-1.8387,-2.4038,50.7762,-0.0851,0.8929,-1.649
1357211.0,-1.6089,-1.494,47.6733,-0.2719,0.4645,-1.782
1357221.0,-1.9249,0.067,43.766,-0.4917,0.5273,-1.823
1357231.0,-1.8579,0.0575,42.0613,-0.6332,1.1217,-1.8076
1357241.0,-1.9824,-1.2258,42.3391,-0.3342,1.905,-1.7884
1357251.0,-1.8771,-1.8483,44.4843,0.0931,2.577,-1.8746
1357261.0,-2.8443,-2.241,47.1945,0.4965,2.9208,-2.022
1357271.0,-3.2944,-0.9577,49.378,0.6864,2.9027,-2.1423
1357281.0,-3.6679,0.6129,52.0404,0.7279,2.5664,-2.1439
1357291.0,-3.9073,1.6376,53.2375,0.663,2.0566,-2.1194
1357301.0,-4.2234,1.7621,54.0036,0.4257,1.5421,-2.104
1357311.0,-4.5586,1.494,54.1951,0.2192,1.1132,-2.1109
1357321.0,-4.3191,0.8236,55.6125,0.257,0.77,-2.1582
1357331.0,-4.5777,0.4501,56.3404,0.422,0.4331,-2.2476
1357341.0,-4.9991,0.8715,56.8958,0.4645,-0.0037,-2.3961
1357351.0,-5.2385,2.2122,57.8535,0.5289,-0.6274,-2.4222
1357361.0,-5.363,3.7541,57.4034,0.5619,-1.317,-2.3807
1357371.0,-5.3056,4.9799,57.0395,0.4741,-1.9757,-2.2764
1357381.0,-4.8842,5.9185,55.6317,0.4805,-2.6058,-2.0891
1357391.0,-5.0374,6.675,53.1417,0.2118,-3.1458,-1.9113
1357401.0,-4.3383,5.7748,51.5903,-0.1995,-3.4587,-1.7177
1357411.0,-3.6392,4.1659,49.9909,-0.2985,-3.588,-1.6368
1357421.0,-3.5721,3.4477,48.7172,-0.4661,-3.6263,-1.632
1357431.0,-3.1891,2.7869,49.1769,-0.2698,-3.5971,-1.6394
1357441.0,-2.6432,3.1795,49.062,0.2687,-3.6423,-1.6235
1357451.0,-2.7198,3.1987,48.5927,0.5529,-3.8658,-1.6272
1357461.0,-2.7198,3.5626,47.5967,0.6731,-4.1792,-1.6022
1357471.0,-2.0782,4.3,45.6431,0.5747,-4.4128,-1.5772
1357481.0,-1.8004,4.5777,43.8522,0.4864,-4.4761,-1.5016
1357491.0,-1.2833,4.7597,42.454,0.3666,-4.3697,-1.4473
1357501.0,-0.7949,5.1619,41.4005,0.2128,-4.1883,-1.3851
1357511.0,-0.3256,5.6024,41.3622,0.0798,-3.9366,-1.2824
1357521.0,0.1341,5.4588,42.3965,0.2171,-3.7578,-1.143
1357531.0,0.3735,5.6312,42.9424,0.5683,-3.7094,-1.0201
1357541.0,0.3543,5.4492,44.0437,0.8508,-3.8365,-0.9211
1357551.0,0.5363,6.3015,43.1148,0.9982,-4.1499,-0.821
1357561.0,1.3695,6.8091,41.8506,0.8407,-4.5102,-0.6673
1357571.0,1.9345,7.4891,40.1077,0.4576,-4.7832,-0.5364
1357581.0,2.6336,7.6998,38.3647,0.1096,-4.8135,-0.3837
1357591.0,3.486,7.4603,36.9377,-0.0399,-4.6246,-0.2112
1357601.0,3.9169,6.8761,36.5738,-0.1399,-4.2931,-0.0484
1357611.0,4.3383,6.1292,37.225,0.2086,-3.9749,0.0984
1357621.0,4.9129,6.6367,37.1293,0.7428,-3.712,0.2517
1357631.0,5.3534,6.6655,37.0527,0.9339,-3.5742,0.4363
1357641.0,5.928,6.2728,36.5259,0.9355,-3.6407,0.571
1357651.0,6.4643,6.3973,35.0415,0.6465,-3.6918,0.6731
1357661.0,7.5657,5.9089,34.1317,0.3102,-3.6567,0.7732
1357671.0,8.3414,4.8842,33.1645,0.0479,-3.4571,0.8088
1357681.0,9.0309,4.6639,33.0687,-0.1229,-3.1421,0.8381
1357691.0,9.3087,4.9225,33.3369,-0.0096,-2.8851,0.9296
1357701.0,9.3278,4.7022,34.4478,0.2091,-2.6494,1.0637
1357711.0,9.9311,3.5243,34.6968,0.5444,-2.5909,1.1845
1357721.0,10.4866,2.557,33.7774,0.6364,-2.6776,1.2435
1357731.0,10.8793,1.7334,32.858,0.4198,-2.8654,1.16
1357741.0,11.3868,0.9768,31.4407,0.0527,-3.0229,1.0217
1357751.0,12.0859,0.7278,29.6881,-0.2528,-3.0724,0.862
1357761.0,12.7467,1.063,28.0313,-0.5316,-2.8159,0.6896
1357771.0,13.2447,1.7909,26.6044,-0.6449,-2.4903,0.5992
1357781.0,13.283,2.5283,24.9763,-0.9594,-2.1114,0.5688
1357791.0,13.5225,2.8156,25.3977,-1.1462,-1.7655,0.5954
1357801.0,13.6182,2.9784,24.8327,-1.184,-1.5181,0.6625
1357811.0,13.7714,2.6719,24.4783,-1.2622,-1.2936,0.7407
1357821.0,14.1162,1.8387,23.2621,-1.1605,-1.0578,0.763
1357831.0,14.0396,1.3024,20.8296,-1.1605,-0.6098,0.754
1357841.0,14.1737,0.6225,19.0674,-1.144,0.1852,0.6875
1357851.0,14.7196,-0.0575,18.2247,-0.9094,1.2723,0.5965
1357861.0,14.5376,0.4214,18.0906,-0.6779,2.4679,0.4762
1357871.0,14.03,1.4461,18.9621,-0.7583,3.4885,0.4177
1357881.0,13.216,1.8962,21.2988,-1.0711,4.1776,0.4342
1357891.0,12.8425,2.1739,23.7505,-1.3015,4.7055,0.4635
1357901.0,12.1147,1.7813,25.8765,-1.4947,5.1067,0.447
1357911.0,10.6303,1.3982,28.5676,-1.525,5.4323,0.4411
1357921.0,9.9024,1.494,30.866,-1.1456,5.7303,0.4534
1357931.0,9.8737,1.9441,31.9482,-0.9269,5.9187,0.4943
1357941.0,8.6,1.81,33.9115,-1.011,5.8708,0.5066
1357951.0,8.3701,2.241,35.6257,-1.1691,5.5063,0.5731
1357961.0,7.7572,2.0016,35.4342,-1.5123,5.0992,0.6486
1357971.0,7.7668,0.996,34.3329,-1.4484,5.0513,0.6928
1357981.0,7.4412,0.7661,32.4845,-1.3452,5.6595,0.6662
1357991.0,6.5697,0.2107,33.1262,-1.052,6.5535,0.6247
1358001.0,5.2385,0.3735,35.53,-0.7333,7.2692,0.5837
1358011.0,3.62,0.9673,39.9257,-0.622,7.4533,0.5859
1358021.0,2.1835,0.9194,43.2776,-0.6508,6.9105,0.597
1358031.0,1.6089,0.5267,44.2448,-0.9062,5.9756,0.5305
1358041.0,1.5131,0.2203,41.7836,-1.342,5.2748,0.4119
1358051.0,1.81,1.2258,39.0159,-1.5719,5.4382,0.3326
1358061.0,1.1875,2.5666,38.2402,-1.4048,6.3412,0.3187
1358071.0,-0.4022,3.8882,39.7629,-1.1408,7.4166,0.4464
1358081.0,-2.3655,5.2194,45.0397,-0.7599,7.9327,0.7173
1358091.0,-3.7445,5.8897,50.1442,-0.4789,7.6305,1.1382
1358101.0,-4.7788,4.8554,53.7929,-0.4746,6.5322,1.5437
1358111.0,-4.3574,2.2697,53.9557,-0.6401,5.219,1.7331
1358121.0,-3.6105,0.067,51.2168,-0.9248,4.234,1.7102
1358131.0,-2.873,-0.7087,47.9415,-1.1504,3.9733,1.5687
1358141.0,-3.1316,-0.9098,46.3517,-0.9631,4.275,1.4314
1358151.0,-4.0127,0.2777,46.2943,-0.7104,4.7603,1.3925
1358161.0,-5.296,0.5555,47.5776,-0.6742,4.8667,1.4367
1358171.0,-6.1292,-0.1053,49.3014,-0.7035,4.4128,1.4527
1358181.0,-6.7325,-0.7757,49.4259,-0.8716,3.7956,1.3963
1358191.0,-7.0677,-1.3599,48.382,-0.7072,3.4843,1.2856
1358201.0,-6.1866,-0.3831,45.011,-0.6204,3.704,1.1776
1358211.0,-8.0349,0.1245,46.1698,-0.5566,4.2234,1.0866
1358221.0,-8.3318,1.9537,47.2711,0.0053,4.6762,1.144
1358231.0,-9.2799,3.5913,49.1194,0.265,4.9263,1.3803
1358241.0,-9.9216,3.3998,51.8488,0.7093,4.7736,1.6655
1358251.0,-10.5058,2.9401,52.615,0.6742,4.3718,1.8863
1358261.0,-10.6494,1.561,54.5112,0.5438,3.8227,2.0678
1358271.0,-10.3334,0.182,54.3388,0.373,3.2198,2.0699
1358281.0,-10.4196,-0.9385,54.6357,-0.0128,2.7202,1.9789
1358291.0,-10.3621,-1.6472,54.9038,-0.2293,2.1982,1.8278
1358301.0,-10.3334,-1.3695,53.9653,-0.6492,1.7145,1.6357
1358311.0,-10.3813,-1.1779,55.0954,-0.9078,1.2074,1.4979
1358321.0,-10.7356,-1.0439,54.8655,-0.879,0.7902,1.4431
1358331.0,-10.6973,-0.6704,55.1624,-0.7146,0.4475,1.4229
1358341.0,-10.9463,0.0958,54.2047,-0.4464,0.1586,1.4958
1358351.0,-10.726,-0.1149,53.86,-0.3198,-0.0527,1.599
1358361.0,-10.8601,-0.8428,54.6261,-0.1383,-0.2873,1.6767
1358371.0,-10.3525,-1.1875,53.6205,-0.0521,-0.6321,1.7022
1358381.0,-10.1897,-1.8483,53.3237,-0.2485,-1.0679,1.6469
1358391.0,-9.8545,-2.3176,52.3277,-0.6412,-1.5937,1.5261
1358401.0,-9.6534,-2.9975,51.3604,-1.1627,-2.1136,1.3792
1358411.0,-9.7875,-3.6583,49.6174,-1.7602,-2.5494,1.1861
1358421.0,-9.165,-4.5298,47.8457,-2.4844,-2.8537,0.9158
1358431.0,-9.0118,-4.9704,48.1522,-3.049,-2.983,0.6215
1358441.0,-9.0022,-4.2425,50.0292,-2.5914,-3.0219,0.4688
1358451.0,-9.1363,-2.5666,50.2974,-1.5852,-3.0181,0.5454
1358461.0,-9.0022,-1.8866,49.6653,-0.63,-3.115,0.7689
1358471.0,-8.2935,-1.6376,48.4491,0.2341,-3.2693,1.036
1358481.0,-7.3933,-2.1165,45.7197,0.4762,-3.3736,1.2015
1358491.0,-6.541,-3.0071,44.1682,0.2166,-3.3645,1.2159
1358501.0,-5.6886,-3.3902,42.7604,-0.2448,-3.2624,1.1307
1358511.0,-4.9895,-3.7445,43.7852,-0.6524,-3.1741,0.9621
1358521.0,-5.363,-3.984,45.2696,-0.8743,-3.3028,0.7732
1358531.0,-4.3479,-3.6775,46.6582,-0.945,-3.6561,0.6439
1358541.0,-4.1372,-3.6775,46.8402,-0.8913,-4.0707,0.5481
1358551.0,-4.4436,-3.2753,46.6295,-0.513,-4.4942,0.4651
1358561.0,-3.8499,-2.8922,44.9918,-0.0298,-4.747,0.4507
1358571.0,-2.9401,-2.6719,42.6647,0.3171,-4.8507,0.4347
1358581.0,-2.2122,-2.4804,40.0215,0.4438,-4.7746,0.3767
1358591.0,-1.5036,-1.5802,37.9912,0.381,-4.5549,0.3421
1358601.0,-0.7374,-0.7566,37.1293,0.1884,-4.3261,0.3304
1358611.0,-0.1628,-0.3831,36.411,-0.0229,-4.1148,0.3544
1358621.0,-0.431,0.249,37.1676,-0.0186,-3.9728,0.472
1358631.0,-1.1205,0.4118,36.9473,0.3491,-3.7716,0.6465
1358641.0,0.7661,-0.067,36.3631,1.0743,-3.455,0.8705
1358651.0,1.0343,-1.2929,35.1181,1.6969,-3.0277,1.0041
1358661.0,1.5131,-2.0686,34.1222,2.1912,-2.6526,1.0099
1358671.0,2.988,-2.2793,32.4654,2.1114,-2.3195,0.9333
1358681.0,4.1851,-2.8922,31.2491,1.4692,-2.0641,0.6992
1358691.0,4.1084,-3.1795,32.2547,0.6428,-1.9007,0.4124
1358701.0,3.7445,-3.6488,33.3464,0.0431,-1.9172,0.1644
1358711.0,3.1795,-3.3806,35.5778,-0.1591,-1.9922,-0.0484
1358721.0,3.2848,-2.8443,35.4916,-0.1634,-2.0524,-0.1517
1358731.0,3.1891,-3.1699,36.0758,0.1048,-1.9869,-0.1995
1358741.0,3.6009,-3.0358,35.1756,0.5348,-1.8214,-0.2692
1358751.0,3.8211,-2.8156,33.8636,0.6545,-1.5277,-0.315
1358761.0,4.4436,-2.9688,33.4135,0.8136,-1.2212,-0.3741
1358771.0,5.363,-2.8443,33.1836,0.8546,-0.8945,-0.4581
1358781.0,6.4356,-2.9688,33.6912,0.7359,-0.6359,-0.5545
1358791.0,6.9719,-2.557,33.8923,0.5497,-0.5209,-0.6678
1358801.0,7.6231,-1.7334,34.4574,0.1405,-0.6008,-0.7444
1358811.0,7.5082,-1.8196,35.1565,-0.3177,-0.8024,-0.8152
1358821.0,7.6998,-1.7526,33.8827,-0.646,-0.97,-0.8939
1358831.0,8.1116,-1.7334,32.7239,-0.8657,-0.7971,-0.9152
1358841.0,8.5138,-2.9113,32.9729,-0.5763,-0.3352,-0.9509
1358851.0,9.0597,-3.4764,32.3409,-0.1235,0.1474,-1.0429
1358861.0,9.4523,-3.9744,32.791,0.107,0.5326,-1.1957
1358871.0,9.4523,-4.4053,33.6816,0.5284,0.7348,-1.3872
1358881.0,9.2129,-4.0701,32.6378,0.597,0.8152,-1.6267
1358891.0,9.1459,-3.3519,31.8237,0.4113,0.8556,-1.8714
1358901.0,8.6479,-2.0494,30.6458,0.0745,0.9764,-2.1013
1358911.0,8.2169,-1.1205,29.1039,-0.3028,1.4346,-2.2833
1358921.0,7.9487,-0.2777,29.7264,-0.431,2.137,-2.4105
1358931.0,7.2305,1.3312,31.297,-0.2783,2.8793,-2.4349
1358941.0,6.2249,2.6145,33.4805,-0.025,3.3837,-2.3269
1358951.0,5.3534,3.5051,35.7502,0.0937,3.4986,-2.1737
1358961.0,4.8842,3.7828,37.2634,-0.0234,3.2172,-1.9603
1358971.0,4.4053,2.5283,37.9816,-0.2671,2.7329,-1.7868
1358981.0,4.4628,1.1492,37.1197,-0.4566,2.2828,-1.79
1358991.0,4.9321,0.6033,35.4438,-0.5827,2.2886,-1.8996
1359001.0,4.2617,0.5746,33.5092,-0.5726,2.7595,-1.997
1359011.0,3.8116,0.6991,33.6146,-0.2602,3.513,-2.0438
1359021.0,2.5857,1.4078,34.7063,0.1213,4.2505,-2.0736
1359031.0,1.6568,2.3367,36.7654,0.4177,4.665,-2.0039
1359041.0,0.2203,3.2944,38.8052,0.4576,4.6209,-1.864
1359051.0,-0.4597,2.739,40.2992,0.2182,4.2032,-1.6868
1359061.0,-0.5267,1.3982,40.5482,-0.1921,3.7578,-1.6341
1359071.0,-0.6704,0.3831,39.0638,-0.5497,3.6311,-1.6793
1359081.0,-0.9002,0.1053,38.0965,-0.6795,4.0653,-1.724
1359091.0,-1.5802,-0.3448,39.897,-0.1729,4.7949,-1.7352
1359101.0,-2.3655,0.182,42.521,0.7205,5.4095,-1.6692
1359111.0,-3.0933,0.9673,44.9535,1.2622,5.4898,-1.5341
1359121.0,-3.8116,1.3408,47.5872,1.2989,4.9055,-1.3484
1359131.0,-3.6775,-0.3926,48.8226,0.8849,3.8775,-1.1946
1359141.0,-2.4038,-2.739,47.5201,0.4512,2.8511,-1.2638
1359151.0,-2.1261,-4.6831,44.2161,-0.1197,2.4419,-1.5804
1359161.0,-2.4038,-5.1906,41.5155,-0.3932,2.7154,-1.9842
1359171.0,-2.7485,-3.8116,40.3088,-0.3336,3.3864,-2.3525
1359181.0,-4.2713,-2.1069,41.1324,-0.3161,4.1143,-2.5589
1359191.0,-5.8802,-1.6472,44.4268,-0.0803,4.4953,-2.6286
1359201.0,-6.2441,-2.4804,47.3382,0.042,4.3798,-2.6989
1359211.0,-6.4452,-3.8786,49.3014,-0.0436,3.728,-2.9963
1359221.0,-7.422,-4.1468,48.8321,-0.3778,3.0698,-3.463
1359231.0,-7.7093,-2.2505,47.7021,-0.4294,2.8378,-3.8775
1359241.0,-7.8721,0.3065,45.7867,-0.4821,3.1522,-4.1116
1359251.0,-9.6247,2.49,46.3996,-0.4667,3.7046,-4.2526
1359261.0,-11.4443,5.612,48.6406,-0.2666,4.0462,-4.2063
1359271.0,-12.9861,8.6479,50.2495,-0.2602,4.1388,-3.935
1359281.0,-15.0164,8.8585,54.4441,-0.2453,3.7333,-3.5785
1359291.0,-15.3516,8.916,56.7234,0.1016,3.0575,-3.2634
1359301.0,-15.342,7.9296,57.7098,0.2911,2.4025,-3.0298
1359311.0,-15.1409,7.3454,56.7426,0.4704,1.8672,-2.8989
1359321.0,-14.8057,7.4412,57.4417,0.6077,1.4064,-2.8543
1359331.0,-14.8632,8.0541,57.3842,0.7295,0.853,-2.7829
1359341.0,-15.0164,9.3374,56.6851,0.522,0.3299,-2.685
1359351.0,-15.3899,10.3238,56.0626,0.2432,-0.2751,-2.5318
1359361.0,-15.3708,11.0516,55.8232,-0.1128,-0.8955,-2.32
1359371.0,-15.6198,11.7029,55.2294,-0.3858,-1.4532,-2.08
1359381.0,-15.093,12.1434,54.0898,-0.6428,-1.8901,-1.7342
1359391.0,-14.7866,11.0995,54.1951,-0.6572,-2.1737,-1.4149
1359401.0,-14.2886,10.7452,54.1281,-0.2836,-2.4727,-1.0898
1359411.0,-13.6853,10.2089,54.9134,0.2708,-2.7494,-0.7535
1359421.0,-13.2543,9.8545,53.0747,0.621,-3.2709,-0.4156
1359431.0,-12.4594,9.5289,51.8105,0.4523,-3.9041,-0.174
1359441.0,-12.402,9.0597,49.9239,0.3762,-4.548,0.0894
1359451.0,-10.9463,8.5425,45.7484,-0.107,-4.9859,0.3044
1359461.0,-9.9503,6.924,44.1874,-0.5518,-5.1253,0.4252
1359471.0,-8.5234,6.1292,40.96,-0.6705,-4.988,0.4911
1359481.0,-7.9966,4.9512,40.146,-0.8125,-4.6092,0.53
1359491.0,-6.8666,3.8211,40.213,-0.5561,-4.2308,0.5428
1359501.0,-6.4931,3.8403,40.213,-0.3054,-3.9014,0.5231
1359511.0,-6.4452,3.7445,40.9121,-0.1719,-3.704,0.5619
1359521.0,-5.6695,4.0989,40.9792,-0.0197,-3.6482,0.6199
1359531.0,-4.9225,4.3862,40.6152,-0.149,-3.654,0.6891
1359541.0,-4.3096,4.2808,40.7493,-0.1926,-3.7418,0.779
1359551.0,-3.6775,4.0797,40.4237,-0.2826,-3.7647,0.8924
1359561.0,-2.5762,3.055,40.6919,-0.2794,-3.7849,0.9365
1359571.0,-1.4269,2.1261,39.9161,-0.2442,-3.712,0.8993
1359581.0,-1.1013,0.7566,40.4237,-0.2836,-3.6189,0.8099
1359591.0,-0.8619,0.2011,41.4867,-0.0809,-3.6615,0.6524
1359601.0,-0.2203,0.9194,41.4676,0.0793,-3.7796,0.5215
1359611.0,-0.1437,1.4461,41.1707,0.2703,-4.0584,0.4757
1359621.0,0.1437,2.6528,39.1979,0.1963,-4.3224,0.4619
1359631.0,0.9481,3.0358,37.656,-0.0229,-4.4112,0.5167
1359641.0,1.5131,3.62,37.0814,-0.0479,-4.3346,0.5699
1359651.0,2.4038,4.4819,34.9075,-0.1527,-4.1196,0.7029
1359661.0,3.3327,4.4245,34.4861,-0.3629,-3.8685,0.8732
1359671.0,3.7445,3.553,35.2043,-0.2618,-3.6945,1.0424
1359681.0,4.2808,2.557,35.5395,-0.165,-3.6061,1.1855
1359691.0,5.2002,1.4078,35.4533,-0.0037,-3.6343,1.2201
1359701.0,5.861,0.0575,34.6776,0.1708,-3.662,1.1861
1359711.0,5.9089,-0.7757,34.0551,0.3496,-3.6295,1.069
1359721.0,6.5027,-0.7757,31.8812,0.4422,-3.4917,0.8908
1359731.0,7.288,-0.3448,30.2531,0.2597,-3.2363,0.6705
1359741.0,7.4316,0.9864,28.4623,-0.0889,-2.8346,0.5039
1359751.0,7.6519,2.4229,28.06,-0.4746,-2.4057,0.3948
1359761.0,8.1786,4.2329,27.7153,-0.8626,-1.9646,0.3932
1359771.0,8.1977,4.9895,28.6538,-1.251,-1.5027,0.5188
1359781.0,8.0637,5.0661,30.5787,-1.0781,-1.1307,0.729
1359791.0,7.9679,4.9033,31.048,-0.5534,-0.8322,0.9732
1359801.0,8.2169,3.6105,30.9235,-0.0569,-0.5757,1.1946
1359811.0,8.7628,2.308,29.9754,0.1841,-0.3118,1.3037
1359821.0,9.5481,1.3216,29.2955,-0.0043,0.0479,1.2851
1359831.0,9.9982,0.68,30.1191,-0.2496,0.332,1.2255
1359841.0,9.7683,0.0575,30.1957,-0.5683,0.5156,1.1611
1359851.0,10.2855,-0.7183,31.4023,-0.8354,0.5672,1.0461
1359861.0,10.2663,-0.996,32.3505,-0.9514,0.547,0.9408
1359871.0,9.8258,-1.4844,32.1398,-0.9365,0.4975,0.7881
1359881.0,9.4332,-1.2067,30.7224,-0.87,0.6039,0.6715
1359891.0,9.1937,-1.1971,29.5061,-0.5949,1.0025,0.572
1359901.0,9.0692,-1.561,28.3282,-0.4049,1.6043,0.4576
1359911.0,8.7724,-1.8387,27.993,-0.3267,2.2056,0.2964
1359921.0,8.1211,-1.3599,28.2899,-0.5087,2.7414,0.1336
1359931.0,7.7189,-0.2011,29.487,-0.6822,3.1991,0.0447
1359941.0,6.79,0.68,31.3545,-0.5193,3.6003,0.0261
1359951.0,6.0621,1.3408,32.2451,-0.29,3.9531,0.0548
1359961.0,5.7078,2.2505,33.7199,-0.1825,4.2175,0.1059
1359971.0,4.7788,2.7581,34.1509,-0.241,4.308,0.1846
1359981.0,3.9456,3.3423,35.6544,-0.455,4.3176,0.2724
1359991.0,3.4955,3.1508,37.5219,-0.4055,4.2165,0.3852
1360001.0,2.9401,2.873,37.4645,-0.3523,4.0201,0.4736
1360011.0,2.9688,2.9305,37.7901,-0.3267,3.8945,0.4991
1360021.0,2.8347,3.4381,36.4685,-0.24,4.0164,0.564
1360031.0,2.1548,3.4381,35.9034,-0.1692,4.4208,0.6497
1360041.0,2.1931,3.6488,36.2482,-0.0905,4.8906,0.7487
1360051.0,1.7717,3.5913,37.723,-0.1788,5.2227,0.8434
1360061.0,1.0918,3.0933,39.6576,-0.4709,5.1296,0.9115
1360071.0,0.7087,2.5474,41.3814,-0.9711,4.6363,0.9759
1360081.0,0.6416,0.8428,42.6455,-1.2212,3.9892,0.9323
1360091.0,0.2011,-0.5267,41.2377,-1.1515,3.637,0.7519
1360101.0,-0.0383,-1.6664,39.7821,-0.8711,3.845,0.5028
1360111.0,-0.3448,-1.0726,38.6616,-0.1405,4.4032,0.1985
1360121.0,-1.5993,1.2546,36.8132,0.1336,4.9923,-0.0165
1360131.0,-3.9456,3.3902,37.3783,-0.149,5.3536,-0.1075
1360141.0,-4.9799,5.8131,38.3168,-0.4688,5.4196,-0.0905
1360151.0,-5.861,7.5657,37.9529,-1.193,5.4919,0.0676
1360161.0,-7.1347,8.0924,39.217,-1.7022,5.6766,0.2948
1360171.0,-7.7189,8.6957,39.4373,-1.8933,6.065,0.5534
1360181.0,-8.7053,8.7436,41.2282,-2.0199,6.6147,0.8796
1360191.0,-10.4387,7.355,44.6471,-1.7278,7.0547,1.2191
1360201.0,-10.1993,5.6695,47.884,-1.3063,7.2091,1.3963
1360211.0,-11.3868,4.6064,51.303,-0.9908,6.8297,1.5458
1360221.0,-12.7372,2.7198,53.7355,-0.7678,6.1374,1.59
1360231.0,-12.7659,1.8387,54.5399,-0.4848,5.4563,1.466
1360241.0,-13.3788,1.7526,54.1185,-0.1075,4.9534,1.3234
1360251.0,-13.3405,4.1468,51.4849,-0.1016,4.7044,1.2122
1360261.0,-14.7579,5.9951,50.872,-0.4182,4.7491,1.2888
1360271.0,-15.773,7.5082,52.0308,-0.4752,4.814,1.5192
1360281.0,-16.4817,8.9352,53.4769,-0.6226,4.9188,1.856
1360291.0,-17.4777,8.4659,56.4936,-0.8434,4.7603,2.2918
1360301.0,-18.512,6.3973,59.8359,-0.9966,4.3069,2.651
1360311.0,-18.6173,3.5051,63.7145,-0.7497,3.5157,2.8862
1360321.0,-18.8567,1.494,65.2085,-0.6109,2.5132,2.908
1360331.0,-19.0004,0.182,66.5971,-0.5071,1.4319,2.8441
1360341.0,-19.4218,-0.2107,66.8174,-0.3379,0.2868,2.7787
1360351.0,-19.259,0.1724,65.4287,-0.1336,-0.8562,2.7462
1360361.0,-19.0195,0.5363,63.1303,-0.2442,-1.8502,2.7595
1360371.0,-19.2302,0.4022,60.966,-0.4268,-2.6382,2.7936
1360381.0,-18.2438,0.1532,58.1121,-0.5587,-3.1778,2.8271
1360391.0,-17.0276,-0.4214,54.8368,-0.9935,-3.4374,2.7867
1360401.0,-16.0603,-1.7238,53.5822,-1.5846,-3.5683,2.6669
1360411.0,-15.1026,-3.2178,53.3524,-2.0204,-3.6961,2.4908
1360421.0,-14.0875,-4.4053,53.5918,-2.3477,-3.9275,2.2397
1360431.0,-13.4075,-5.2864,54.425,-2.5467,-4.3293,1.9662
1360441.0,-12.8329,-4.9704,54.0707,-2.5818,-4.8007,1.7065
1360451.0,-11.8369,-5.545,53.2279,-2.6164,-5.1828,1.5282
1360461.0,-10.4579,-6.79,52.3468,-2.1444,-5.41,1.3399
1360471.0,-9.1459,-7.7955,49.8185,-1.7922,-5.4302,1.0759
1360481.0,-9.2129,-8.2456,48.6789,-1.5719,-5.3818,0.7056
1360491.0,-9.165,-7.6614,48.4108,-1.1052,-5.3233,0.4007
1360501.0,-8.7436,-5.5162,47.2998,-0.9344,-5.3477,0.1761
1360511.0,-8.5617,-3.984,46.8019,-1.2872,-5.5079,0.0394
1360521.0,-8.3989,-3.1795,47.3382,-1.5777,-5.7191,-0.0255
1360531.0,-7.671,-3.4285,47.3765,-1.7155,-5.8724,-0.1022
1360541.0,-7.2209,-3.6583,47.3286,-1.5671,-6.0107,-0.19
1360551.0,-6.8953,-2.988,46.9264,-1.2941,-6.0224,-0.2437
1360561.0,-6.2824,-2.5283,47.4052,-1.1105,-5.999,-0.2735
1360571.0,-5.3151,-2.4325,47.003,-0.8812,-6.0491,-0.2767
1360581.0,-5.3151,-2.3846,47.1849,-0.7801,-6.2028,-0.3139
1360591.0,-5.1715,-1.6951,46.4475,-0.8604,-6.4806,-0.3198
1360601.0,-5.5067,-0.929,45.9112,-1.1329,-6.8126,-0.2794
1360611.0,-5.0661,-0.431,44.8578,-1.4585,-7.1292,-0.2597
1360621.0,-4.4245,0.0479,43.6798,-1.8842,-7.4373,-0.1846
1360631.0,-4.9895,-0.2394,43.1627,-2.4126,-7.6284,-0.0921
1360641.0,-4.7309,-1.312,44.0054,-2.2764,-7.6103,-0.0138
1360651.0,-3.237,-1.6664,43.833,-1.5181,-7.4161,0.1064
1360661.0,-2.0877,-2.2122,43.2872,-0.8663,-7.2766,0.2192
1360671.0,-4.0127,-2.988,42.7317,-0.6614,-7.3761,0.2639
1360681.0,-3.4381,-2.7677,43.6224,-0.4129,-7.5932,0.2841
1360691.0,-2.557,-0.5363,42.5019,-0.4672,-8.0461,0.4135
1360701.0,-4.0127,0.2011,41.3143,-1.193,-8.6479,0.5917
1360711.0,-3.8403,0.5555,41.1898,-1.5069,-9.1374,0.8796
1360721.0,-2.1452,0.996,39.0829,-1.8028,-9.4647,1.2611
1360731.0,-1.2929,-2.1069,39.2841,-1.8773,-9.7142,1.5671
1360741.0,-0.316,-5.5067,39.6767,-1.2058,-10.0128,1.7118
1360751.0,1.1205,-7.6614,38.2402,-0.3459,-10.2368,1.7139
1360761.0,3.237,-8.5042,35.6928,0.3634,-10.4039,1.7235
1360771.0,5.5067,-9.3853,33.1836,1.2829,-10.2666,1.7017
1360781.0,7.5944,-8.8969,29.1231,1.9784,-9.917,1.6309
1360791.0,10.2089,-7.6614,24.6699,1.5915,-9.7217,1.5873
1360801.0,11.4826,-7.7189,22.0458,0.2618,-9.8606,1.4846
1360811.0,14.4514,-9.1171,21.7298,-1.0775,-9.8776,1.2207
1360821.0,15.6868,-8.6191,22.314,-1.6208,-9.7664,0.8998
1360831.0,17.6405,-6.8666,21.0977,-1.4638,-9.6509,0.8173
1360841.0,19.642,-7.2018,19.7857,-1.1265,-9.5849,0.796
1360851.0,22.0075,-8.0062,17.018,-0.2884,-9.5594,0.8067
1360861.0,25.5413,-9.0405,12.1721,0.2623,-9.1843,0.779
1360871.0,27.6387,-9.845,6.8953,0.447,-8.6351,0.6588
1360881.0,23.9803,-8.5808,4.7692,1.1073,-8.642,0.5018
1360891.0,29.9275,-10.6494,-1.3695,2.0662,-6.8398,0.3283
1360901.0,30.6554,-11.2144,-2.2984,2.4796,-5.5643,0.1187
1360911.0,29.4583,-10.2376,-6.11,2.9314,-4.7326,-0.1644
1360921.0,29.8988,-7.7859,-13.9534,1.7352,-4.2947,-0.332
1360931.0,32.8484,-8.7436,-15.1314,-1.4755,-1.5671,-0.5523
1360941.0,38.1157,-12.2009,-14.03,-1.7996,-2.3801,-1.0467
1360951.0,41.8315,-7.3263,-25.8191,-1.6155,-2.336,-1.5075
1360961.0,39.4469,-5.3247,-26.5278,-2.2141,-0.6614,-1.782
1360971.0,33.1645,-2.7102,-25.6754,-1.1584,0.1692,-2.0556
1360981.0,26.2883,7.2305,-31.2204,-1.2217,0.5289,-1.9848
1360991.0,10.8026,21.1456,-42.3103,-1.6985,-0.5651,-1.1919
1361001.0,2.7198,28.6825,-61.5501,-4.8688,-0.3145,0.3437
1361011.0,-3.9744,24.622,-78.4532,-9.2311,-0.1054,1.4617
1361021.0,-9.3278,18.9525,-78.4532,-11.3425,1.9646,2.7313
1361031.0,-26.7672,17.2383,-78.4532,-11.5506,13.2826,3.4715
1361041.0,-42.0709,-0.067,-78.4532,-11.2792,17.4357,3.9738
1361051.0,-57.7194,-8.2169,-78.4532,-5.1434,17.4357,3.5284
1361061.0,-78.4532,-5.2864,-66.4918,7.0782,17.4357,2.8867
1361071.0,-78.4532,-3.4668,-44.0437,15.9315,17.4357,1.8448
1361081.0,-78.4532,-0.249,-5.363,17.4357,17.4357,0.4842
1361091.0,-78.4532,6.2632,13.8576,10.0899,17.4357,-0.8328
1361101.0,-78.4532,-13.3788,74.7757,4.4671,17.4357,-1.9678
1361111.0,-78.4532,-12.4115,78.4508,3.6455,17.4357,-3.2656
1361121.0,-78.4532,-8.1786,78.4508,6.4652,17.4357,-4.0882
1361131.0,-78.4532,-6.8666,78.4508,2.5467,17.4357,-4.7869
1361141.0,-78.4532,-5.2098,78.4508,3.4364,17.4357,-4.2298
1361151.0,-78.4532,14.3748,78.4508,8.0759,15.6579,-2.2588
1361161.0,-78.4532,17.7171,78.4508,8.1557,-2.8484,-0.1325
1361171.0,-78.4532,-3.6105,78.4508,6.9036,-17.4363,-0.0575
1361181.0,-74.2203,-10.4579,78.4508,2.3338,-17.4363,-1.2015
1361191.0,-75.2641,-3.9361,78.4508,-3.9515,-17.4363,-3.0208
1361201.0,-51.1593,6.1675,65.0648,-8.2307,-17.4363,-3.7243
1361211.0,-50.2112,9.5098,20.6572,2.1242,-16.5886,-3.0479
1361221.0,-47.7308,23.626,-20.6093,-7.6805,-8.691,-1.9422
1361231.0,-36.7079,1.743,23.9707,-8.9182,-4.764,-1.2212
1361241.0,-30.9427,-2.9113,27.9643,-1.4218,0.1256,-0.7141
1361251.0,-28.6634,-3.2274,33.4422,2.162,4.2824,-0.2581
1361261.0,-29.1135,-6.2728,45.3174,4.6134,6.4593,-0.274
1361271.0,-27.3226,-2.9209,50.6517,3.1836,6.3023,-0.7455
1361281.0,-25.7137,2.1069,68.4263,0.2975,4.1595,-1.1393
1361291.0,-27.7632,5.9185,78.4508,0.0085,2.692,-1.2792
1361301.0,-26.4607,11.8178,78.4508,-1.1462,-0.075,-1.0084
1361311.0,-27.811,8.2648,78.4508,-1.8629,-4.7331,-0.6444
1361321.0,-29.9371,3.0933,78.4508,-1.7874,-10.4108,-0.5459
1361331.0,-31.8908,0.4501,78.4508,-1.5793,-15.2094,-0.5875
1361341.0,-32.9729,-1.3408,78.4508,0.2336,-17.4363,-0.5795
1361351.0,-33.787,0.4693,72.4485,0.9264,-17.4363,-0.555
1361361.0,-30.4447,1.6472,55.0092,1.4378,-17.4363,-0.481
1361371.0,-29.8796,8.5234,39.9449,-0.4645,-17.4363,-0.3528
1361381.0,-28.3473,10.8697,39.4086,-2.2035,-17.4363,0.0506
1361391.0,-26.4416,13.0915,37.8954,-1.7118,-17.4363,0.7801
1361401.0,-25.1966,12.6988,34.0934,-1.6549,-17.4363,1.7661
1361411.0,-21.6819,4.5681,33.6337,-0.4257,-17.4363,2.5291
1361421.0,-18.5503,-1.3695,28.2516,1.0701,-17.4363,2.9947
1361431.0,-15.4857,-5.545,23.444,2.3594,-17.3421,3.1528
1361441.0,-13.3596,-7.7189,19.5271,3.3124,-16.3891,3.1959
1361451.0,-9.4619,-9.0309,16.52,2.6063,-16.2294,2.9979
1361461.0,-6.7995,-9.9407,17.4394,1.8869,-16.7078,2.6105
1361471.0,-4.549,-6.7421,12.5648,1.1632,-17.3495,2.3525
1361481.0,-1.7813,-5.0278,5.8897,-0.4645,-17.4363,2.2689
1361491.0,2.8347,-7.671,1.9441,-0.564,-17.4363,2.1061
1361501.0,7.9296,-8.0062,-6.6942,0.157,-15.8857,1.8901
1361511.0,10.8984,-7.7859,-9.9503,0.9738,-13.5071,1.7512
1361521.0,14.5759,-7.1539,-12.3924,2.3078,-11.2552,1.7054
1361531.0,17.0563,-6.9145,-14.5759,2.5653,-9.2316,1.6985
1361541.0,21.1647,-8.3797,-12.2583,2.3136,-7.623,1.4947
1361551.0,23.2333,-8.3414,-10.3717,1.7038,-6.6195,1.1456
1361561.0,25.187,-7.3741,-8.8777,0.423,-6.1549,0.7503
1361571.0,26.0106,-7.5178,-7.5178,-0.2033,-6.0246,0.3948
1361581.0,26.6906,-5.2481,-9.7492,-0.0085,-5.2557,0.1203
1361591.0,26.8917,-1.5227,-12.9766,0.9211,-3.181,0.1282
1361601.0,27.1119,2.5762,-13.4554,1.9481,-0.7423,0.4752
1361611.0,27.1598,1.9537,-10.8026,2.1444,1.1935,0.9051
1361621.0,28.2516,0.5171,-6.2537,1.425,1.9587,1.1217
1361631.0,27.2556,-2.2505,-1.1492,0.4363,1.839,1.2175
1361641.0,29.6498,-8.0637,0.5363,-0.2022,1.118,0.9993
1361651.0,31.0863,-11.8752,-4.2425,-0.4496,1.2776,0.4113
1361661.0,31.0193,-12.1051,-8.4659,-0.1974,3.0112,-0.2341
1361671.0,28.8262,-9.5098,-10.3717,0.4023,5.3477,-0.7998
1361681.0,26.2309,-4.5969,-8.8585,1.036,8.2626,-1.1057
1361691.0,23.7601,-0.0096,-1.4557,1.7134,11.1584,-1.0488
1361701.0,20.1017,3.1795,10.4962,1.9811,12.2844,-0.7987
1361711.0,19.144,4.5298,21.3563,1.9018,11.6682,-0.5438
1361721.0,18.4162,7.355,26.6427,0.6476,9.9117,-0.1969
1361731.0,16.338,5.296,28.8645,-1.6815,6.7876,0.1314
1361741.0,13.9151,0.9481,26.9012,-3.2778,3.0618,0.3278
1361751.0,8.3893,-2.3559,11.6741,-3.8115,-0.3555,0.3847
1361761.0,8.8873,-6.3303,-10.2759,-3.9919,-0.4039,0.19
1361771.0,6.1387,-7.422,-31.7375,-3.6806,2.2742,-0.1623
1361781.0,2.375,-8.3318,-45.3558,-3.6923,6.7355,-0.563
1361791.0,-6.0621,-7.2113,-47.635,-3.2336,11.4649,-0.9461
1361801.0,-13.532,-2.9018,-45.1163,-2.6914,15.2647,-1.0408
1361811.0,-20.9445,0.9577,-41.2665,-2.5206,17.4357,-0.8673
1361821.0,-26.9779,5.8227,-39.9161,-2.9112,17.4357,-0.3209
1361831.0,-31.0959,9.9982,-40.7493,-2.5823,17.4357,0.6018
1361841.0,-45.1642,9.1075,-38.8914,-3.8583,17.4357,1.6857
1361851.0,-55.4593,-5.7652,-13.8576,-4.4687,17.4357,2.3833
1361861.0,-68.139,-21.5095,26.1926,-2.6797,17.4357,2.0965
1361871.0,-78.4532,-37.8475,78.4508,-0.9237,17.4357,0.8833
1361881.0,-67.5644,-39.8299,78.4508,6.5014,17.4357,-0.8077
1361891.0,-64.1167,-24.3442,78.4508,4.9683,17.4357,-2.4914
1361901.0,-71.8548,-26.8725,78.4508,1.2792,17.4357,-4.0446
1361911.0,-74.2394,-9.9599,78.4508,1.3643,16.9244,-5.1657
1361921.0,-76.1452,8.9639,78.4508,-1.7975,16.7552,-4.9055
1361931.0,-75.9249,12.5839,78.4508,0.108,17.4357,-3.7227
1361941.0,-74.8715,19.2111,78.4508,0.4411,16.603,-2.1737
1361951.0,-71.3185,9.3853,78.4508,1.1169,11.9332,-0.5066
1361961.0,-64.3753,-0.7566,78.4508,4.3016,4.3426,0.5912
1361971.0,-59.5773,-9.8928,78.4508,4.8997,-4.2069,0.8498
1361981.0,-57.049,-16.9222,78.4508,5.1429,-13.3475,0.2075
1361991.0,-55.5838,-15.8113,78.4508,2.5674,-17.4363,-0.9355
1362001.0,-55.8807,-16.1752,78.4508,-0.6018,-17.4363,-2.3408
1362011.0,-53.0364,-9.6438,78.4508,-1.9507,-17.4363,-3.4832
1362021.0,-37.6273,-4.5203,56.6851,-0.2107,-17.4363,-3.8349
1362031.0,-34.7542,5.7078,28.491,0.0101,-17.4363,-3.6418
1362041.0,-30.6554,5.1523,26.7384,0.0846,-17.4363,-3.265
1362051.0,-25.8382,7.7189,18.4066,2.1955,-17.4363,-2.6654
1362061.0,-20.0921,7.0485,11.5688,2.5334,-17.4363,-2.0135
1362071.0,-15.8879,2.6049,13.6757,4.2521,-16.2385,-1.5751
1362081.0,-13.6565,3.802,7.8147,4.5533,-15.2663,-1.3324
1362091.0,-12.287,4.367,7.5657,3.3395,-14.9215,-1.1701
1362101.0,-9.4619,8.6191,4.2425,2.5462,-14.59,-1.0014
1362111.0,-7.2496,14.3844,-0.3448,0.6737,-13.9339,-0.5789
1362121.0,-4.9512,18.3396,1.992,-0.0937,-12.7941,0.1016
1362131.0,-3.4381,20.7051,2.9975,0.4752,-11.3979,1.2106
1362141.0,-0.4693,15.7634,5.2768,1.3585,-9.9425,2.2695
1362151.0,2.2122,9.7396,6.7421,2.5047,-8.9022,2.9197
1362161.0,4.7597,3.7062,6.4931,2.9953,-8.0062,3.1953
1362171.0,7.4124,-0.9673,5.3917,2.8963,-6.8504,3.0001
1362181.0,8.6,-2.2601,5.9951,2.2237,-5.7426,2.5951
1362191.0,7.7476,-1.3599,8.0637,0.9562,-5.0806,2.2029
1362201.0,8.8107,-1.4844,12.9478,0.5571,-4.2409,1.9635
1362211.0,11.9519,-0.9673,14.7387,0.8588,-3.09,1.7491
1362221.0,12.6127,-1.6281,16.6062,0.1171,-2.1034,1.4899
1362231.0,14.7866,-2.1739,22.6683,0.0984,-1.1967,1.1978
1362241.0,14.1449,0.7278,27.5716,0.0788,-0.629,1.0169
1362251.0,13.5225,2.1739,34.601,0.2586,-0.8019,1.1275
1362261.0,13.216,3.9552,37.8571,0.8115,-1.4479,1.3931
1362271.0,13.7236,3.8786,37.8954,1.0318,-2.204,1.756
1362281.0,14.5567,2.7773,35.7789,1.2771,-2.6536,2.0194
1362291.0,15.6293,2.6719,31.9291,1.2526,-2.5318,2.2242
1362301.0,15.773,1.3408,29.171,0.7673,-1.9486,2.3732
1362311.0,16.7115,-0.249,31.0193,0.4651,-0.9998,2.3833
1362321.0,16.6732,-1.0918,35.5395,0.7806,-0.2458,2.3977
1362331.0,15.8496,-0.7278,39.3703,1.0642,-0.3725,2.3785
1362341.0,17.0659,-1.8866,42.1571,1.1967,-1.1494,2.386
1362351.0,17.516,-3.3902,41.1324,0.9216,-2.1492,2.2264
1362361.0,18.7705,-5.679,37.3112,0.1655,-2.9947,1.8794
1362371.0,19.8623,-8.102,33.04,-0.555,-3.1118,1.2829
1362381.0,20.8679,-8.9352,28.6442,-1.3015,-2.2322,0.655
1362391.0,20.9828,-7.7093,31.4023,-1.6229,-1.2936,0.058
1362401.0,19.3547,-7.4699,33.7199,-1.0233,-0.7668,-0.357
1362411.0,17.2383,-6.359,35.2331,-0.3693,-0.3544,-0.539
1362421.0,18.0236,-2.0111,35.4533,0.4965,-0.2059,-0.6417
1362431.0,17.334,1.9728,31.6609,0.1437,-0.4076,-0.4629
1362441.0,17.8129,1.0726,32.0153,-0.4656,-0.7455,-0.2442
1362451.0,18.3875,0.68,27.1407,-0.8253,-0.6327,-0.1639
1362461.0,18.9525,-0.5842,25.4647,-1.5777,0.4475,-0.0867
