time_ms,ax,ay,az,gx,gy,gz
1717601.0,3.8786,10.6781,46.3901,-0.1644,-0.8966,1.036
1717611.0,3.5243,10.4004,44.3215,-0.3241,-1.2925,1.2137
1717621.0,3.237,10.477,41.5633,-0.5433,-1.5953,1.3872
1717631.0,2.8252,10.3046,39.8874,-0.8503,-1.8124,1.6043
1717641.0,2.873,9.6917,37.7997,-1.1222,-1.9752,1.8118
1717651.0,2.739,8.3414,36.2003,-1.3484,-2.005,2.0566
1717661.0,2.5474,5.6407,35.3097,-1.1643,-1.7985,2.2141
1717671.0,2.2984,3.1508,34.4861,-0.621,-1.4266,2.2338
1717681.0,2.8539,0.7949,32.9442,0.0915,-0.853,2.0795
1717691.0,3.1795,-0.4597,31.6801,0.6912,-0.1868,1.789
1717701.0,3.4477,-1.4365,30.5596,1.0977,0.563,1.3718
1717711.0,3.6966,-1.5897,30.6554,1.3069,1.4287,0.9003
1717721.0,3.1316,-1.7717,32.3888,1.2483,2.0705,0.3954
1717731.0,2.9305,-1.3408,34.1605,1.1121,2.6137,-0.0899
1717741.0,1.7142,-0.4501,37.1005,0.9301,3.1347,-0.5529
1717751.0,0.7566,0.4693,40.4333,0.7301,3.1453,-0.9626
1717761.0,0.3256,1.7334,43.1244,0.5295,3.123,-1.3574
1717771.0,-0.5459,3.2082,46.256,0.4486,3.0006,-1.6533
1717781.0,-1.2737,5.3056,48.2767,0.3847,2.6893,-1.847
1717791.0,-1.4365,7.8721,49.8856,0.1559,2.2008,-1.9241
1717801.0,-1.312,10.1131,52.0212,-0.1272,1.5724,-1.8693
1717811.0,-1.5323,11.9327,52.7491,-0.4241,0.8381,-1.6804
1717821.0,-1.1684,12.6318,53.5056,-0.4816,0.2437,-1.4851
1717831.0,-1.2163,12.8904,53.8504,-0.4204,-0.3129,-1.2175
1717841.0,-0.9098,12.2679,53.4577,-0.2097,-0.9456,-1.0738
1717851.0,-1.063,11.8082,52.1936,-0.0537,-1.4287,-0.9817
1717861.0,-1.0534,11.9231,50.2878,-0.1219,-1.8369,-0.9498
1717871.0,-0.747,11.9902,48.3341,-0.0319,-2.0359,-0.9397
1717881.0,-0.7374,12.6893,46.8306,-0.2006,-2.1625,-0.8998
1717891.0,-0.7183,13.0245,46.5624,-0.2421,-2.3381,-0.8173
1717901.0,-0.2969,13.4554,45.3558,-0.381,-2.5047,-0.7066
1717911.0,-0.0862,13.5129,44.4555,-0.506,-2.6755,-0.5699
1717921.0,-0.8428,13.1873,43.4787,-0.5986,-2.8276,-0.4188
1717931.0,-0.4214,12.2104,42.1858,-0.5784,-2.8787,-0.3044
1717941.0,0.1053,11.3677,40.5865,-0.6199,-2.8649,-0.2703
1717951.0,0.3448,10.8314,39.8587,-0.6917,-2.7665,-0.3288
1717961.0,0.7183,11.0325,39.3032,-0.7402,-2.6707,-0.3634
1717971.0,1.2163,11.157,39.2362,-0.7247,-2.6121,-0.3304
1717981.0,1.9154,11.2144,39.0446,-0.6077,-2.5515,-0.2719
1717991.0,2.4708,10.8122,38.5562,-0.4635,-2.5456,-0.2416
1718001.0,2.7485,10.2663,37.7518,-0.3608,-2.4685,-0.1985
1718011.0,3.055,9.8162,37.0048,-0.2363,-2.2913,-0.2687
1718021.0,3.8595,9.6822,35.7215,-0.1889,-2.013,-0.3198
1718031.0,4.2617,9.979,34.7255,-0.3384,-1.7097,-0.4188
1718041.0,4.4245,10.0748,34.7542,-0.497,-1.2845,-0.5013
1718051.0,4.549,10.6111,35.7598,-0.6236,-0.9456,-0.5449
1718061.0,4.6064,11.6262,37.407,-0.7806,-0.8333,-0.5444
1718071.0,4.6639,12.2966,38.4221,-0.9754,-0.8886,-0.4837
1718081.0,4.6448,13.0915,39.2936,-1.0658,-1.0493,-0.3618
1718091.0,4.5298,13.5416,38.8723,-1.2388,-1.2537,-0.2341
1718101.0,4.616,13.781,37.8858,-1.4638,-1.4351,-0.0793
1718111.0,4.1468,13.8672,37.8858,-1.8007,-1.5554,0.0479
1718121.0,4.9991,14.7483,35.4246,-2.0965,-1.6591,0.1963
1718131.0,4.9704,14.7387,35.4055,-2.6356,-1.7427,0.4236
1718141.0,5.4779,15.2942,32.7144,-3.1006,-1.7267,0.6173
1718151.0,5.7269,15.0356,32.5803,-3.521,-1.7879,0.8684
1718161.0,6.5793,14.959,29.8892,-4.0707,-1.6778,1.1451
1718171.0,6.7229,13.8098,29.5636,-4.1265,-1.492,1.4037
1718181.0,6.9528,13.1106,27.1311,-3.9759,-0.8796,1.6256
1718191.0,5.9089,12.2296,26.8438,-3.4656,-0.0016,1.8746
1718201.0,5.9472,10.4196,27.8206,-2.353,1.2654,2.1034
1718211.0,6.4931,9.0118,28.9507,-1.0387,2.4525,2.195
1718221.0,5.9855,8.7053,31.0001,-0.0266,3.3034,2.1849
1718231.0,5.2098,9.414,32.4845,0.5912,3.9195,2.1763
1718241.0,5.363,10.4387,34.5627,0.8806,4.242,2.2285
1718251.0,5.0374,11.0325,36.5164,1.0057,4.5123,2.3205
1718261.0,3.7733,11.6933,38.1444,1.1275,4.7369,2.4647
1718271.0,2.7581,12.22,39.2362,1.1669,4.9002,2.6302
1718281.0,1.5514,12.8904,40.4716,1.0131,5.0535,2.7984
1718291.0,0.2298,13.1202,42.8658,0.8258,5.0875,3.0144
1718301.0,-0.6416,13.4841,44.7716,0.5428,5.0439,3.2406
1718311.0,-1.7621,13.4075,47.568,0.2591,4.7544,3.5167
1718321.0,-2.2793,12.7563,49.9909,0.1096,4.2691,3.7982
1718331.0,-3.5721,11.7986,50.9869,-0.0383,3.7147,4.0616
1718341.0,-3.9648,10.5249,52.0499,-0.0372,3.1597,4.2713
1718351.0,-4.9033,9.7396,51.3508,-0.0463,2.6419,4.4272
1718361.0,-5.4779,8.9543,50.7667,0.0059,2.3275,4.5884
1718371.0,-6.0621,8.4851,49.3206,-0.1596,2.0587,4.7331
1718381.0,-6.3782,7.2305,48.9758,-0.1926,1.9497,4.8688
1718391.0,-6.3494,5.3439,49.0045,-0.0814,1.9747,4.9407
1718401.0,-6.6846,3.3327,49.694,-0.0447,1.9699,4.9433
1718411.0,-5.5545,0.5555,50.2495,-0.0192,1.7565,4.8215
1718421.0,-4.8267,-1.9537,52.0404,-0.3177,1.3244,4.4559
1718431.0,-4.6735,-2.739,50.5751,-0.5545,0.7779,3.9696
1718441.0,-4.3,-3.122,50.0867,-1.0307,0.4241,3.48
1718451.0,-4.118,-2.2601,49.4259,-1.2558,0.3171,3.0612
1718461.0,-4.0893,-1.3024,49.8856,-1.2994,0.2586,2.7617
1718471.0,-4.3287,-0.316,49.5312,-1.4495,0.2437,2.5855
1718481.0,-3.5913,-0.9098,50.7858,-1.591,0.1963,2.4488
1718491.0,-2.8635,-1.5897,52.184,-1.8661,-0.0303,2.287
1718501.0,-2.2697,-2.4134,52.6629,-2.1253,-0.39,2.0438
1718511.0,-1.81,-1.9345,52.2032,-2.6973,-0.7641,1.8204
1718521.0,-2.2793,-1.7238,52.7012,-3.2927,-1.1472,1.6953
1718531.0,-1.8675,-1.992,52.7682,-3.6742,-1.3824,1.6277
1718541.0,-1.4748,-2.9497,53.0459,-3.811,-1.4117,1.5947
1718551.0,-1.4078,-4.4628,54.9804,-3.6561,-1.434,1.5016
1718561.0,-0.5459,-5.9185,57.2023,-3.3417,-1.616,1.3585
1718571.0,0.0766,-6.8091,58.7154,-2.7202,-2.129,1.1377
1718581.0,0.8236,-7.3741,58.1121,-2.7202,-2.8255,0.8716
1718591.0,1.5036,-7.5561,56.4265,-3.0416,-3.7035,0.5273
1718601.0,2.2505,-7.604,54.7793,-3.7599,-4.5033,0.158
1718611.0,2.4325,-6.6176,52.0978,-4.3122,-5.0769,-0.1767
1718621.0,2.3846,-5.9472,51.2838,-4.6555,-5.4653,-0.4012
1718631.0,2.8347,-5.7174,49.8185,-4.5783,-5.7255,-0.5513
1718641.0,3.5434,-6.4548,48.8992,-4.2356,-5.9676,-0.6572
1718651.0,4.4149,-6.3111,47.3956,-3.6854,-6.0358,-0.8056
1718661.0,4.9033,-6.3111,47.5297,-3.2523,-6.2566,-0.9434
1718671.0,5.1236,-5.545,46.0453,-2.5254,-6.7594,-1.0483
1718681.0,5.4971,-4.4628,42.5593,-1.8927,-7.1707,-1.069
1718691.0,6.5218,-3.304,38.6424,-1.3345,-7.1495,-1.0275
1718701.0,7.2305,-2.49,34.668,-1.118,-7.0617,-0.9237
1718711.0,7.9679,-1.7526,30.5979,-1.1233,-6.8786,-0.8652
1718721.0,9.0597,-1.3599,27.8589,-1.259,-6.2034,-0.8535
1718731.0,9.0214,-0.9768,28.2995,-0.936,-5.5888,-0.7354
1718741.0,10.1131,-0.8045,28.6155,-0.4204,-5.153,-0.5752
1718751.0,10.1131,-1.3503,29.4678,0.564,-4.7651,-0.4012
1718761.0,10.2951,-1.312,29.0465,1.5,-4.5474,-0.2097
1718771.0,10.8984,-1.81,28.5676,2.5893,-4.399,-0.0654
1718781.0,11.7603,-1.4269,25.1678,3.6519,-4.1957,0.0516
1718791.0,13.0819,-1.2258,21.2892,4.1191,-3.6774,0.1517
1718801.0,13.5416,-1.063,17.8033,4.0515,-2.991,0.2011
1718811.0,14.3269,-1.4365,15.5144,3.3379,-2.1817,0.1681
1718821.0,15.2463,-2.059,14.9494,2.1433,-1.4729,0.0165
1718831.0,15.5527,-3.0454,15.706,0.7716,-0.9014,-0.2522
1718841.0,15.4187,-3.6009,17.5543,-0.5507,-0.506,-0.5805
1718851.0,15.591,-4.0414,18.33,-1.8917,-0.2639,-0.9046
1718861.0,16.0124,-4.9225,21.3754,-2.9633,-0.0186,-1.2792
1718871.0,15.955,-5.1044,25.254,-3.0671,0.1676,-1.6836
1718881.0,15.5527,-4.0318,28.0792,-1.9624,0.2985,-1.9433
1718891.0,14.9494,-1.8387,28.0026,-0.6135,0.5013,-1.997
1718901.0,14.8345,0.0575,25.5413,0.4299,0.6593,-1.9135
1718911.0,14.8919,1.6855,22.2757,0.787,0.854,-1.823
1718921.0,15.1026,2.7102,19.9772,0.6178,1.3409,-1.6937
1718931.0,14.4514,3.1699,18.6939,0.1729,1.8895,-1.5766
1718941.0,13.5703,3.0454,18.8759,-0.3661,2.3514,-1.4367
1718951.0,13.0915,2.4038,19.2398,-0.7412,2.9293,-1.3085
1718961.0,13.2351,1.1109,20.9828,-0.9551,3.4561,-1.2286
1718971.0,12.3062,0.067,21.9117,-1.0217,3.8434,-1.2255
1718981.0,13.1394,-0.9481,23.5015,-0.9344,4.4527,-1.2984
1718991.0,12.038,-0.929,24.8805,-0.7636,4.8098,-1.4016
1719001.0,10.8984,-1.3312,26.9779,-0.2528,5.1769,-1.5032
1719011.0,10.1801,-0.8523,27.0449,0.3544,5.676,-1.5703
1719021.0,9.4236,-1.1779,28.491,1.1174,6.2523,-1.6453
1719031.0,8.9543,-1.1205,28.5006,1.8491,6.8275,-1.8039
1719041.0,8.0062,-0.7853,29.9371,2.1971,7.4964,-1.9763
1719051.0,7.0294,0.4405,30.4638,2.3727,8.028,-2.1726
1719061.0,5.679,1.6281,31.9291,2.1774,8.6537,-2.2987
1719071.0,4.1563,2.7198,34.5148,2.0981,9.1146,-2.3881
1719081.0,2.2122,3.9935,38.3455,1.7139,9.635,-2.4137
1719091.0,0.6321,4.8842,42.0996,1.3862,9.6914,-2.3679
1719101.0,-0.6225,5.0087,46.4092,1.2654,9.6413,-2.2296
1719111.0,-2.1165,5.1332,50.8433,1.1712,9.7643,-2.137
1719121.0,-3.2848,4.6639,57.547,1.2122,9.1715,-2.08
1719131.0,-3.1029,4.9991,62.1822,1.5958,8.3861,-1.9981
1719141.0,-3.486,5.3822,65.1702,2.112,7.4671,-1.8906
1719151.0,-3.3232,5.2289,66.1566,2.3732,6.4253,-1.8464
1719161.0,-3.5626,5.3343,66.147,2.4179,5.2961,-1.8539
1719171.0,-3.8499,5.363,64.653,2.1002,4.2143,-1.8991
1719181.0,-4.3766,5.8897,61.598,1.5873,3.4364,-1.9741
1719191.0,-4.9704,5.7844,59.7593,1.1536,3.1219,-2.0332
1719201.0,-4.9321,4.3383,60.1519,1.1616,3.3007,-2.1476
1719211.0,-5.2768,3.1316,62.6802,1.3931,3.3816,-2.3881
1719221.0,-6.0047,3.5338,65.9746,1.7267,2.8633,-2.6765
1719231.0,-6.3303,5.43,67.8325,2.021,1.997,-2.8846
1719241.0,-7.2975,7.5657,67.4686,1.9369,0.9094,-2.9548
1719251.0,-7.8147,9.7588,64.5668,1.3675,-0.339,-2.9543
1719261.0,-7.3263,10.7164,61.1479,0.4757,-1.2579,-2.9186
1719271.0,-7.2209,11.7603,57.8056,-0.4374,-1.7858,-2.8324
1719281.0,-6.8187,12.1817,56.0626,-1.2249,-1.9805,-2.7207
1719291.0,-6.8953,12.2009,55.7753,-1.7655,-2.0438,-2.5531
1719301.0,-6.4643,11.8752,57.3651,-1.8076,-2.2668,-2.3328
1719311.0,-5.928,11.1091,57.7003,-1.7065,-2.7127,-2.1029
1719321.0,-5.2481,10.094,57.1927,-1.4867,-3.2209,-1.9614
1719331.0,-4.5394,9.481,55.2773,-1.2643,-3.6492,-1.84
1719341.0,-3.735,9.3661,52.682,-1.2542,-4.1201,-1.7597
1719351.0,-2.8826,9.1842,49.7515,-1.4915,-4.4197,-1.7054
1719361.0,-2.059,8.7628,47.2711,-1.9954,-4.5943,-1.6879
1719371.0,-1.3791,8.4467,45.4228,-2.3434,-4.7182,-1.69
1719381.0,-0.8523,8.1211,44.1203,-2.5648,-4.6581,-1.7049
1719391.0,-0.1437,7.4986,43.3638,-2.5451,-4.4815,-1.6932
1719401.0,0.4597,6.9145,43.1531,-2.2652,-4.3053,-1.6841
1719411.0,1.1875,6.1387,43.6319,-1.9098,-4.2388,-1.7113
1719421.0,2.3367,6.0813,42.4636,-1.608,-4.1803,-1.7443
1719431.0,2.4995,6.0334,41.6495,-1.4229,-4.1382,-1.7911
1719441.0,2.5474,6.6942,40.0311,-1.3484,-3.9749,-1.8044
1719451.0,3.0646,7.5178,38.719,-1.4745,-3.7594,-1.7677
1719461.0,3.2178,7.9009,38.8052,-1.6655,-3.555,-1.6597
1719471.0,4.0893,8.2552,38.9968,-1.8273,-3.3768,-1.5341
1719481.0,4.8842,8.2648,39.4086,-1.9491,-3.2869,-1.3877
1719491.0,5.6407,7.9009,39.8874,-1.9491,-3.2736,-1.2414
1719501.0,5.9568,7.4029,40.1364,-1.9332,-3.3374,-1.0892
1719511.0,6.6463,6.9528,40.28,-1.7964,-3.4683,-0.9695
1719521.0,6.4835,6.7229,39.8012,-1.8863,-3.8349,-0.8833
1719531.0,6.9815,6.5697,38.7573,-2.0401,-4.2303,-0.803
1719541.0,7.5944,6.7421,36.5355,-2.3189,-4.507,-0.7226
1719551.0,8.3318,6.6846,34.5723,-2.585,-4.7065,-0.5949
1719561.0,8.9256,6.541,32.5611,-2.7265,-4.7119,-0.4528
1719571.0,9.5289,6.1292,30.6458,-2.775,-4.5395,-0.3272
1719581.0,10.3334,6.0334,28.8358,-2.6866,-4.1526,-0.2091
1719591.0,10.9367,5.5929,28.3473,-2.3503,-3.6955,-0.0394
1719601.0,10.7931,5.1044,27.562,-1.8592,-3.2438,0.1405
1719611.0,11.5592,4.4819,26.8342,-1.3255,-2.7335,0.3049
1719621.0,11.8178,3.5913,25.7808,-0.9929,-2.2955,0.448
1719631.0,12.4307,2.8252,24.689,-0.763,-1.806,0.5034
1719641.0,12.9095,2.0877,23.7792,-0.7019,-1.202,0.5071
1719651.0,13.1585,1.8579,24.2102,-0.7923,-0.7572,0.4555
1719661.0,13.1681,1.9537,24.44,-1.0786,-0.4342,0.3948
1719671.0,13.0915,2.2027,25.5892,-1.268,-0.3092,0.3852
1719681.0,12.153,2.241,26.0681,-1.1408,-0.1697,0.4608
1719691.0,11.655,2.0877,25.503,-0.8019,-0.0208,0.5853
1719701.0,11.6071,1.3216,25.0625,-0.3113,0.3374,0.6928
1719711.0,12.2392,0.5363,23.9037,0.2139,0.8556,0.7253
1719721.0,12.1051,0.2107,23.0514,0.5491,1.5011,0.6683
1719731.0,11.6741,0.3831,23.5015,0.6822,2.0949,0.6178
1719741.0,11.0516,0.7757,23.8558,0.6641,2.5254,0.5736
1719751.0,10.9367,1.561,25.3402,0.6348,2.8516,0.596
1719761.0,9.9503,1.8962,26.6139,0.629,3.0527,0.6923
1719771.0,9.3565,1.7621,27.0162,0.589,3.1214,0.7865
1719781.0,8.9256,0.6416,26.7193,0.5204,3.2411,0.8572
1719791.0,9.0405,-0.4118,26.6714,0.7524,3.6514,0.7886
1719801.0,9.347,-0.5842,26.7289,1.0467,4.325,0.6321
1719811.0,9.3182,-0.431,27.179,1.292,4.9353,0.4603
1719821.0,8.7915,0.5459,28.1654,1.4537,5.4738,0.2969
1719831.0,8.3701,1.9058,29.8796,1.3787,5.8644,0.2363
1719841.0,7.0198,3.0167,32.7144,1.3627,5.9022,0.248
1719851.0,5.8035,3.8211,32.4558,1.4016,5.7037,0.281
1719861.0,5.2864,3.9265,32.4175,1.6767,6.0389,0.3129
1719871.0,4.5969,4.6256,32.4175,2.08,6.8595,0.3049
1719881.0,3.371,5.2385,34.0072,2.4988,7.6619,0.3225
1719891.0,2.1548,6.3782,37.0335,2.9452,8.2994,0.3539
1719901.0,0.8906,8.3606,41.3526,3.3076,8.8091,0.4523
1719911.0,-1.2354,10.4196,44.3215,2.9915,8.4053,0.7982
1719921.0,-2.6815,10.6494,46.6007,3.0623,8.0243,1.1994
1719931.0,-3.3519,9.0501,46.6869,2.7904,7.6821,1.5059
1719941.0,-3.8882,6.8953,46.4092,2.834,7.6028,1.6405
1719951.0,-4.5969,4.9704,47.4914,2.9085,8.1131,1.5527
1719961.0,-5.8897,4.4628,50.9773,3.0932,8.4845,1.3425
1719971.0,-7.2496,4.2617,55.1528,3.2555,8.078,1.1164
1719981.0,-8.3989,4.3096,59.4049,3.4901,7.5539,1.0105
1719991.0,-8.8777,5.363,58.8207,3.1113,6.5966,0.9237
1720001.0,-6.1579,2.9975,59.7593,2.4286,5.4691,0.7061
1720011.0,-9.7396,2.7485,57.0778,1.4915,5.046,0.398
1720021.0,-9.8545,2.1644,57.3842,1.1424,4.6294,-0.0463
1720031.0,-9.7779,2.6719,59.357,0.2288,4.1595,-0.48
1720041.0,-9.165,4.1276,59.8742,0.0984,3.7306,-0.8439
1720051.0,-10.3046,5.9185,61.5884,-0.1378,3.3837,-1.0499
1720061.0,-11.4634,8.4467,62.9388,-0.1495,2.8665,-1.0908
1720071.0,-11.8465,9.8162,63.4846,-0.2841,2.0146,-0.9264
1720081.0,-11.8465,10.9846,62.6802,-0.4284,1.2739,-0.6598
1720091.0,-11.6646,10.659,62.1631,-0.6167,0.646,-0.3879
1720101.0,-11.473,10.2568,60.219,-0.8083,0.1272,-0.1958
1720111.0,-11.0708,9.73,59.0027,-1.0775,-0.2879,-0.0708
1720121.0,-10.9367,9.6822,59.0027,-1.3133,-0.6332,0.0686
1720131.0,-11.3102,9.7875,58.9836,-1.483,-1.1765,0.2033
1720141.0,-10.726,9.6534,59.4911,-1.4697,-1.6384,0.431
1720151.0,-10.4674,8.8681,59.0027,-1.2004,-2.1801,0.6572
1720161.0,-9.7683,7.2975,58.2174,-0.9578,-2.71,0.8423
1720171.0,-9.0214,6.11,56.4074,-0.8051,-3.2416,0.8833
1720181.0,-8.4851,4.9225,54.3101,-0.8386,-3.7897,0.8157
1720191.0,-7.6998,4.5107,51.2455,-0.9381,-4.2095,0.7056
1720201.0,-7.6614,4.7022,49.2248,-1.2537,-4.532,0.588
1720211.0,-7.0868,4.6256,46.4188,-1.6096,-4.7321,0.4959
1720221.0,-6.7229,4.6926,44.9056,-1.9252,-4.822,0.4092
1720231.0,-6.1004,4.8746,43.6607,-2.2317,-4.93,0.3964
1720241.0,-5.6503,4.2713,43.2776,-2.2876,-4.8486,0.3996
1720251.0,-4.5873,3.237,43.019,-2.0167,-4.723,0.398
1720261.0,-3.9456,2.1452,43.0956,-1.5772,-4.697,0.3581
1720271.0,-3.3806,1.8292,42.3486,-1.1627,-4.7055,0.2698
1720281.0,-2.5187,1.7621,40.8163,-0.9711,-4.7002,0.1266
1720291.0,-2.059,2.2697,40.2992,-0.9147,-4.7369,0.0138
1720301.0,-1.312,2.739,39.2841,-0.969,-4.7901,-0.0511
1720311.0,-0.8428,3.3423,37.6273,-1.143,-4.7214,-0.0846
1720321.0,-0.3543,3.4189,36.6696,-1.4234,-4.6581,-0.0708
1720331.0,0.4214,3.2944,36.7941,-1.6235,-4.5379,-0.025
1720341.0,0.8811,2.624,37.5698,-1.4729,-4.3261,0.016
1720351.0,1.8292,2.2505,37.1484,-1.1249,-4.1845,0.0357
1720361.0,2.739,1.8387,37.0335,-0.8258,-4.0888,0.025
1720371.0,3.2944,1.8771,36.6313,-0.6795,-4.0829,-0.0319
1720381.0,3.6871,2.0399,35.6161,-0.629,-4.0717,-0.0798
1720391.0,4.4149,2.4804,34.5723,-0.6891,-4.0425,-0.1075
1720401.0,5.047,2.9497,33.2315,-0.9317,-3.968,-0.0782
1720411.0,5.5641,3.0071,33.1262,-1.2856,-3.7929,-0.0213
1720421.0,6.2153,2.6624,32.791,-1.4362,-3.737,0.0436
1720431.0,6.426,2.2697,32.2834,-1.5586,-3.6524,0.1054
1720441.0,6.8761,2.0399,32.4558,-1.474,-3.4635,0.1559
1720451.0,7.2975,1.3695,32.4271,-1.2106,-3.3289,0.2235
1720461.0,7.7189,0.9481,32.3313,-0.8865,-3.1996,0.2602
1720471.0,8.5234,0.5842,31.0959,-0.6694,-3.1448,0.2863
1720481.0,9.5672,0.2011,29.5444,-0.6455,-3.0304,0.2565
1720491.0,10.1897,-0.0766,28.1654,-0.8551,-2.9298,0.1905
1720501.0,10.8026,-0.2682,26.5756,-1.1887,-2.826,0.1006
1720511.0,11.1857,-0.4788,25.9244,-1.508,-2.6489,0.0074
1720521.0,11.2623,-0.5171,25.4743,-1.6203,-2.4445,-0.0782
1720531.0,11.3772,-1.1301,24.9763,-1.4591,-2.1753,-0.1458
1720541.0,11.971,-1.81,24.7273,-1.093,-1.7938,-0.2246
1720551.0,12.2775,-2.1931,23.0705,-0.7045,-1.3798,-0.323
1720561.0,12.5839,-2.6719,21.5765,-0.4214,-0.9104,-0.4954
1720571.0,12.8329,-2.9784,19.7665,-0.2538,-0.2634,-0.7237
1720581.0,12.9191,-2.8826,18.4354,-0.1724,0.6353,-0.9966
1720591.0,12.6222,-2.5187,17.7362,-0.2224,1.5862,-1.2765
1720601.0,12.3828,-1.5227,18.4928,-0.2916,2.5158,-1.5261
1720611.0,11.3294,-0.2969,20.4848,-0.2304,3.4066,-1.6756
1720621.0,10.3813,1.0918,23.3195,-0.0452,4.0387,-1.6895
1720631.0,9.5577,1.8675,25.6467,0.2219,4.3569,-1.6229
1720641.0,8.4946,2.5091,26.5756,0.4353,4.5395,-1.5038
1720651.0,8.3797,2.1452,26.9779,0.6981,4.9109,-1.4181
1720661.0,8.0445,1.81,27.1598,0.9919,5.5148,-1.4058
1720671.0,7.2496,1.8292,28.7208,1.1664,6.0629,-1.4851
1720681.0,6.1579,2.2027,30.7032,1.342,6.463,-1.5719
1720691.0,4.8267,3.8595,32.1493,1.2664,6.7403,-1.5266
1720701.0,3.5243,4.4053,34.8596,0.9211,6.5248,-1.4431
1720711.0,2.6528,4.4819,36.3727,0.7455,6.2768,-1.3164
1720721.0,2.3463,3.9744,36.4781,0.6497,6.2443,-1.2324
1720731.0,1.4748,3.122,36.8803,0.5869,6.4625,-1.2292
1720741.0,0.929,2.6528,37.6273,0.6763,6.9238,-1.334
1720751.0,-0.0287,2.375,39.466,0.9519,7.432,-1.483
1720761.0,-1.2354,3.5338,42.6838,1.1994,7.7539,-1.6171
1720771.0,-2.5762,4.9608,46.3901,1.2409,7.6411,-1.6235
1720781.0,-2.6432,5.4779,48.9471,1.1393,7.0218,-1.5532
1720791.0,-4.3766,6.0334,49.1194,0.8806,6.3295,-1.4654
1720801.0,-6.2345,5.4588,49.7898,0.8636,5.9565,-1.3505
1720811.0,-6.2249,5.9855,49.3589,0.605,5.692,-1.3149
1720821.0,-5.7269,5.0374,49.7611,0.6779,5.593,-1.3005
1720831.0,-6.6367,5.1715,50.2974,0.7742,5.6659,-1.3462
1720841.0,-7.6902,5.4779,52.7682,1.0121,5.6649,-1.3739
1720851.0,-8.1786,5.5737,55.1049,1.1222,5.402,-1.4261
1720861.0,-9.0022,6.5218,55.4401,1.0738,4.7044,-1.3883
1720871.0,-9.4619,5.8897,56.2829,1.3654,4.3772,-1.3452
1720881.0,-9.979,6.3973,55.2773,1.2175,4.068,-1.3787
1720891.0,-9.6343,6.1866,55.6317,1.1307,3.53,-1.4234
1720901.0,-9.596,6.4643,54.5112,0.861,3.3236,-1.5399
1720911.0,-10.4674,6.857,55.8041,0.6391,2.9564,-1.6203
1720921.0,-11.0229,7.5178,57.298,0.4087,2.485,-1.6394
1720931.0,-11.1474,8.0349,58.2844,0.4225,1.8922,-1.6033
1720941.0,-11.7986,8.5234,58.4377,0.3512,1.2042,-1.5139
1720951.0,-11.157,8.8585,57.5279,0.323,0.5529,-1.4314
1720961.0,-11.3485,9.5289,56.168,0.166,-0.0596,-1.2957
1720971.0,-11.0325,9.5577,54.7314,-0.0559,-0.5656,-1.177
1720981.0,-10.7356,9.232,52.9597,-0.2671,-0.9041,-1.0637
1720991.0,-10.2855,9.232,51.37,-0.513,-1.0706,-0.9988
1721001.0,-10.343,8.7819,51.0348,-0.7019,-1.2606,-0.9264
1721011.0,-9.9982,8.1977,50.3165,-0.721,-1.375,-0.8721
1721021.0,-9.663,8.1116,50.2687,-0.5651,-1.4154,-0.8269
1721031.0,-9.5098,7.6519,50.3165,-0.3677,-1.5006,-0.7636
1721041.0,-9.1267,7.3167,49.6653,-0.1873,-1.5229,-0.7375
1721051.0,-8.983,7.2496,49.5504,-0.1681,-1.6336,-0.7168
1721061.0,-8.4659,7.0868,49.9335,-0.149,-1.847,-0.7359
1721071.0,-8.1116,7.173,49.5791,-0.3831,-2.1327,-0.7604
1721081.0,-7.7285,7.1635,49.378,-0.7402,-2.5206,-0.7705
1721091.0,-7.7476,7.2592,49.3589,-1.0573,-2.9798,-0.8115
1721101.0,-7.3263,7.2018,48.4203,-1.3111,-3.2815,-0.861
1721111.0,-6.7516,7.4891,47.7404,-1.5623,-3.6029,-0.8987
1721121.0,-6.5027,7.4891,46.9551,-1.566,-3.811,-0.8679
1721131.0,-6.3973,8.2648,45.8729,-1.3681,-3.8466,-0.7561
1721141.0,-5.7748,8.1594,44.8673,-1.0147,-3.8035,-0.6396
1721151.0,-5.3151,7.9871,43.8043,-0.7764,-3.7264,-0.464
1721161.0,-4.5873,7.671,43.268,-0.6119,-3.6806,-0.3427
1721171.0,-3.9744,6.9432,42.9041,-0.572,-3.6498,-0.2357
1721181.0,-3.3902,6.5793,43.2967,-0.3874,-3.6748,-0.2011
1721191.0,-2.7869,6.5888,42.0709,-0.3837,-3.7349,-0.1671
1721201.0,-2.4804,6.2632,41.6783,-0.3762,-3.7695,-0.1389
1721211.0,-2.2793,6.3015,40.8163,-0.4629,-3.8009,-0.1006
1721221.0,-1.561,6.292,40.1077,-0.5917,-3.7908,-0.0814
1721231.0,-1.2067,5.9664,39.4373,-0.7881,-3.7322,-0.0798
1721241.0,-0.5363,5.928,39.7629,-0.8147,-3.5843,-0.0303
1721251.0,-0.0575,5.8131,40.2034,-0.7056,-3.4891,-0.0053
1721261.0,0.6704,5.4779,40.3279,-0.5268,-3.4257,0.0458
1721271.0,-0.1628,5.5545,41.1515,-0.1506,-3.4215,0.0181
1721281.0,1.8292,6.3303,38.5945,-0.4954,-3.4412,0.1799
1721291.0,2.0973,4.7214,40.0502,-0.4864,-3.5662,0.1644
1721301.0,1.7717,5.0949,39.0351,-0.5039,-3.6327,0.1437
1721311.0,2.5091,4.6256,38.6711,-0.4278,-3.7344,0.1149
1721321.0,2.8922,4.8459,37.4549,-0.2671,-3.5965,0.0867
1721331.0,3.122,5.0757,36.3248,-0.2336,-3.4901,0.0889
1721341.0,3.5338,5.047,35.4725,-0.2017,-3.289,0.0825
1721351.0,3.9552,5.2768,34.9649,-0.2357,-3.0219,0.1064
1721361.0,4.2713,5.1619,35.0511,-0.2794,-2.8484,0.1261
1721371.0,4.6256,5.5833,34.9745,-0.3251,-2.7611,0.1745
1721381.0,4.7022,5.5929,34.5148,-0.39,-2.7473,0.215
1721391.0,5.1619,5.7365,33.7487,-0.4645,-2.7037,0.2687
1721401.0,5.3726,5.4684,33.3369,-0.5337,-2.5791,0.3086
1721411.0,5.8131,5.3151,32.7335,-0.4294,-2.4195,0.3358
1721421.0,6.5888,5.4875,31.5556,-0.3517,-2.1769,0.3991
1721431.0,6.8857,5.4205,31.297,-0.3757,-1.9566,0.4299
1721441.0,7.0964,5.6599,30.8182,-0.5624,-1.889,0.4864
1721451.0,7.3646,5.545,30.234,-0.7902,-1.8565,0.5444
1721461.0,7.4699,5.363,29.487,-1.0451,-1.8651,0.6231
1721471.0,7.8338,4.5681,28.242,-1.1909,-1.8416,0.7056
1721481.0,8.3989,3.802,27.0066,-1.267,-1.5618,0.7247
1721491.0,8.6,3.1603,25.2253,-1.1754,-1.1063,0.7141
1721501.0,8.7724,2.7773,24.6986,-1.0387,-0.5534,0.6657
1721511.0,9.0405,2.6336,24.1623,-0.9328,0.0745,0.6114
1721521.0,8.4659,2.5091,24.3347,-0.8296,0.5699,0.5566
1721531.0,8.9064,2.3846,24.191,-0.6976,1.0068,0.5433
1721541.0,9.2033,2.4134,23.9324,-0.6646,1.5117,0.513
1721551.0,8.7149,2.0782,24.2006,-0.7077,1.9678,0.4464
1721561.0,8.5904,1.4174,23.9516,-0.7082,2.4323,0.3469
1721571.0,8.3989,1.1396,23.9899,-0.5279,3.2012,0.1905
1721581.0,7.9487,1.3695,25.1104,-0.2645,4.1127,0.0612
1721591.0,6.9145,2.0016,27.5716,-0.0362,4.7571,-0.0511
1721601.0,6.043,3.0167,29.6498,0.1963,5.245,-0.1155
1721611.0,5.3822,4.2808,31.7663,0.2432,5.534,-0.0894
1721621.0,4.5873,4.7692,34.103,0.1022,5.4052,-0.0112
1721631.0,3.8499,4.4436,35.2043,-0.1293,5.0173,0.0761
1721641.0,3.735,3.8403,35.0032,-0.2246,4.9747,0.0793
1721651.0,3.7733,3.6966,34.0647,-0.2187,5.3743,0.0048
1721661.0,3.122,3.8786,35.6066,-0.2426,5.7974,-0.1405
1721671.0,2.0016,4.9799,37.8954,-0.1059,6.164,-0.2134
1721681.0,0.9098,6.9336,40.0885,-0.1059,6.38,-0.1447
1721691.0,-0.5267,8.6383,43.3446,-0.3469,6.1055,0.099
1721701.0,-1.6568,8.5617,45.3749,-0.7019,5.3882,0.4486
1721711.0,-1.3408,7.2496,45.3653,-0.8024,4.871,0.7045
1721721.0,-2.5379,6.1196,45.9016,-0.5715,4.8369,0.7173
1721731.0,-1.6281,6.8474,43.268,-0.6252,4.9178,0.8461
1721741.0,-2.0686,5.4779,46.1985,-0.431,5.1413,0.8993
1721751.0,-3.6392,7.0294,46.5145,-0.1282,5.3844,0.9684
1721761.0,-4.6064,7.2784,48.9949,-0.0761,5.1344,1.0988
1721771.0,-5.9185,8.2073,48.3437,-0.1687,4.5889,1.3702
1721781.0,-6.1866,6.5888,49.694,-0.6917,4.217,1.5777
1721791.0,-5.8993,5.2768,48.9758,-0.7795,3.8653,1.6783
1721801.0,-6.0238,3.6966,48.7172,-0.3485,4.2218,1.6554
1721811.0,-7.3933,3.1412,49.8569,-0.1288,4.4825,1.5453
1721821.0,-7.7476,2.9975,51.5041,0.3006,4.4612,1.4527
1721831.0,-9.0788,3.4477,52.5096,0.5539,4.3777,1.4101
1721841.0,-9.5864,3.4093,54.607,0.8439,4.233,1.3734
1721851.0,-9.73,3.2753,55.3923,1.1079,3.8977,1.3393
1721861.0,-10.0078,3.0071,55.6125,1.2169,3.5668,1.2707
1721871.0,-10.3813,2.8635,55.8519,1.1174,3.3715,1.1254
1721881.0,-10.8505,3.0358,56.484,0.7769,3.0346,0.9195
1721891.0,-10.9176,3.5338,57.2693,0.2283,2.5696,0.7391
1721901.0,-11.5975,4.3383,58.8303,-0.3203,2.0321,0.5816
1721911.0,-11.7412,5.1715,61.0521,-0.7907,1.3484,0.4826
1721921.0,-12.0476,5.9089,61.8566,-1.1403,0.4182,0.5002
1721931.0,-12.3445,6.0334,62.8622,-1.2313,-0.4672,0.571
1721941.0,-12.3541,5.8993,61.8566,-1.1712,-1.2888,0.6726
1721951.0,-12.4115,5.7461,60.8989,-1.0009,-1.9614,0.7386
1721961.0,-12.038,6.0142,58.8399,-0.7418,-2.3078,0.7987
1721971.0,-11.8561,6.924,57.4321,-0.6321,-2.5499,0.9025
1721981.0,-11.8178,7.7381,56.9916,-0.597,-2.9671,1.085
1721991.0,-11.6071,8.0828,56.2159,-0.5396,-3.4417,1.342
1722001.0,-11.0421,7.7859,55.1337,-0.4321,-3.8977,1.6474
1722011.0,-10.3046,6.6846,53.3332,-0.4677,-4.3883,1.8922
1722021.0,-9.1075,5.0853,50.872,-0.6215,-4.8694,2.0534
1722031.0,-8.0541,3.4668,47.9511,-0.9456,-5.2003,2.0497
1722041.0,-7.0198,1.8004,45.5473,-1.2217,-5.3339,1.9305
1722051.0,-5.8802,0.7757,44.082,-1.3218,-5.3126,1.7475
1722061.0,-4.8746,0.1628,42.454,-1.3776,-5.1407,1.5341
1722071.0,-4.0223,0.249,42.2241,-1.3399,-4.9417,1.3484
1722081.0,-3.7924,0.2777,41.9943,-1.2239,-4.921,1.2068
1722091.0,-2.7964,0.6129,42.0135,-1.0286,-5.0593,1.1387
1722101.0,-1.8962,0.565,41.027,-0.8876,-5.2126,1.0813
1722111.0,-0.9864,0.8236,38.7765,-0.9573,-5.2759,1.0525
1722121.0,-0.3256,0.3448,36.842,-1.1797,-5.2903,0.9796
1722131.0,0.9385,-0.1245,35.7215,-1.4378,-5.1652,0.8578
1722141.0,1.4748,-0.5842,35.5778,-1.5453,-5.0625,0.7136
1722151.0,2.0399,-0.7853,34.7351,-1.4787,-4.9641,0.6029
1722161.0,2.7485,-0.4693,33.9402,-1.2377,-4.7486,0.4773
1722171.0,3.1795,-0.1532,32.8868,-1.0531,-4.5336,0.4166
1722181.0,3.9744,-0.0287,32.1398,-0.7992,-4.2798,0.39
1722191.0,4.5681,0.1341,31.0384,-0.7019,-3.993,0.3512
1722201.0,5.0278,0.2586,29.9946,-0.6524,-3.6503,0.323
1722211.0,5.6503,0.1149,29.1326,-0.6721,-3.2767,0.3001
1722221.0,6.1387,-0.1628,29.3816,-0.6662,-2.842,0.2437
1722231.0,6.4643,-0.2969,29.3721,-0.5864,-2.5334,0.2091
1722241.0,6.9528,-0.0479,29.5444,-0.5103,-2.2727,0.1431
1722251.0,7.5082,-0.3639,29.9371,-0.3618,-1.996,0.1171
1722261.0,7.853,-0.2873,30.2627,-0.2543,-1.8007,0.0905
1722271.0,8.5042,-0.3735,29.5253,-0.1187,-1.6144,0.0527
1722281.0,8.734,-0.4884,29.4104,-0.1596,-1.3633,-0.0064
1722291.0,9.0692,-0.747,28.8453,-0.1713,-1.1323,-0.0745
1722301.0,9.347,-0.8045,28.558,-0.2841,-0.9594,-0.1341
1722311.0,9.2608,-1.1779,28.5676,-0.3767,-0.7205,-0.2341
1722321.0,9.5193,-1.3312,28.4144,-0.3092,-0.5204,-0.3533
1722331.0,10.0748,-1.4269,27.993,-0.1479,-0.1926,-0.4284
1722341.0,10.2568,-1.6664,27.3801,0.0181,0.191,-0.5475
1722351.0,10.0748,-1.6089,26.5182,0.1107,0.5688,-0.6854
1722361.0,9.8545,-1.7909,26.183,0.1091,1.0653,-0.8423
1722371.0,9.663,-1.7717,26.1447,0.075,1.5809,-1.0233
1722381.0,9.0692,-1.5993,27.3322,0.1149,2.1274,-1.1988
1722391.0,8.5904,-1.0534,27.9355,0.1272,2.5733,-1.3489
1722401.0,8.1499,-0.2394,29.8892,0.1868,2.95,-1.4537
1722411.0,7.5178,0.6129,31.0193,0.1974,3.1719,-1.4904
1722421.0,6.9815,1.2737,31.7567,0.0798,3.2289,-1.4564
1722431.0,6.2537,1.4748,32.4079,-0.1666,3.1097,-1.4053
1722441.0,6.0908,0.8332,32.3217,-0.3555,3.1166,-1.4042
1722451.0,5.9855,0.2777,32.2738,-0.39,3.4598,-1.4628
1722461.0,5.4492,-0.0096,33.4997,-0.0596,4.026,-1.5857
1722471.0,4.4149,0.7183,35.5587,0.3677,4.3809,-1.6517
1722481.0,3.3998,1.6472,37.1772,0.8892,4.5389,-1.6458
1722491.0,2.4421,2.7485,38.1348,1.1526,4.4341,-1.5639
1722501.0,1.3216,3.0071,37.9625,1.1919,4.1409,-1.417
1722511.0,1.8196,2.2697,37.0431,1.1355,4.1393,-1.3649
1722521.0,2.1165,0.9577,35.3193,1.0451,4.5607,-1.4426
1722531.0,1.6472,0.498,35.7406,0.9716,5.2706,-1.6336
1722541.0,0.5842,0.3256,38.3551,0.9472,5.8953,-1.8736
1722551.0,-0.6033,1.3216,41.5633,0.9988,6.2039,-2.0529
1722561.0,-1.6472,2.7677,45.2983,0.961,6.1177,-2.1274
1722571.0,-2.7198,4.0223,48.6693,0.9062,5.6595,-2.0444
1722581.0,-3.5626,4.0031,50.6613,0.7625,4.7864,-1.8996
1722591.0,-3.7541,3.122,49.5408,0.6635,3.9281,-1.8363
1722601.0,-3.2944,2.3176,47.568,0.6423,3.6604,-1.9167
1722611.0,-3.5051,1.9824,46.4571,0.6077,3.8291,-2.0907
1722621.0,-4.4915,2.6528,46.754,0.6566,4.018,-2.2375
1722631.0,-4.4628,3.8211,47.6733,0.5683,4.1606,-2.3237
1722641.0,-6.4069,4.9129,49.9239,0.5417,3.969,-2.3205
1722651.0,-6.5218,5.7652,51.0348,0.2953,3.5008,-2.1609
1722661.0,-7.5561,5.2864,51.8967,0.2219,2.8367,-1.9874
1722671.0,-7.2496,3.6488,50.9869,0.116,2.2109,-1.9289
1722681.0,-6.4931,2.6049,48.9375,0.3182,2.1497,-2.022
1722691.0,-7.0773,2.1548,47.4914,0.4305,2.4041,-2.2184
1722701.0,-7.4412,2.4517,48.7459,0.6784,2.7505,-2.428
1722711.0,-7.9871,3.4764,50.0197,0.8812,2.9256,-2.5919
1722721.0,-8.5712,4.9416,51.8584,0.9637,2.8846,-2.6856
1722731.0,-9.1267,5.9472,53.6493,0.9791,2.5935,-2.7143
1722741.0,-9.481,7.0006,54.7219,0.8322,2.1327,-2.6723
1722751.0,-9.663,7.173,55.488,0.5763,1.4803,-2.6435
1722761.0,-9.845,7.0677,55.2007,0.1767,0.8088,-2.6084
1722771.0,-10.3621,6.9432,54.0419,-0.1623,0.3155,-2.6308
1722781.0,-10.6207,6.7133,53.8983,-0.5364,-0.0734,-2.6648
1722791.0,-10.2089,6.7325,54.176,-0.7529,-0.4278,-2.7297
1722801.0,-9.7013,7.4029,54.5399,-0.6513,-0.7029,-2.75
1722811.0,-10.0652,8.1786,55.3348,-0.3512,-1.0488,-2.693
1722821.0,-10.094,8.9256,55.4497,0.0426,-1.5,-2.5648
1722831.0,-9.9886,9.4427,54.3963,0.3624,-1.9922,-2.3855
1722841.0,-9.8162,9.6726,52.4426,0.4028,-2.4882,-2.2088
1722851.0,-9.0788,9.6438,49.694,0.116,-2.8463,-2.0955
1722861.0,-8.3414,8.916,48.133,-0.2969,-2.999,-2.0252
1722871.0,-7.92,8.6957,46.7252,-0.8141,-3.1528,-2.0417
1722881.0,-7.5178,8.5329,46.754,-1.3026,-3.1815,-2.0816
1722891.0,-7.3454,8.418,47.4435,-1.5506,-3.2581,-2.0832
1722901.0,-7.039,8.2935,49.5695,-1.2563,-3.4523,-2.1253
1722911.0,-7.2018,9.5577,48.5831,-0.8189,-3.72,-1.9358
1722921.0,-6.8953,9.1937,48.382,-0.5092,-3.9994,-1.7799
1722931.0,-6.359,9.2033,46.5145,-0.1745,-4.2441,-1.6091
1722941.0,-5.6216,8.8298,44.5513,-0.1224,-4.4245,-1.4851
1722951.0,-4.8842,8.8585,42.9903,-0.2038,-4.4602,-1.4271
1722961.0,-4.4532,8.9064,41.8602,-0.4342,-4.5288,-1.3904
1722971.0,-3.9456,8.916,41.0845,-0.621,-4.5714,-1.317
1722981.0,-3.553,9.2991,39.9449,-0.7434,-4.5315,-1.2361
1722991.0,-3.1412,9.4715,39.3511,-0.8695,-4.4463,-1.1164
1723001.0,-2.6911,9.596,38.9106,-0.9642,-4.3899,-0.9759
1723011.0,-2.1548,9.2991,38.652,-0.9844,-4.2792,-0.787
1723021.0,-1.2546,8.8107,38.9297,-0.8274,-4.0866,-0.6029
1723031.0,-0.8619,8.2935,39.2553,-0.5412,-3.9552,-0.4246
1723041.0,0.0192,7.6423,39.217,-0.2006,-3.8855,-0.273
1723051.0,0.4022,6.7516,39.648,0.2059,-3.786,-0.2735
1723061.0,0.5076,7.2975,37.6656,0.3975,-3.8951,-0.1101
1723071.0,1.7621,6.2058,37.158,0.1825,-3.9036,-0.0548
1723081.0,2.1452,6.043,35.4629,0.1229,-3.8232,-0.0516
1723091.0,2.7869,5.0087,35.9896,-0.166,-3.762,-0.0798
1723101.0,3.8116,4.9033,35.0703,-0.3475,-3.6961,-0.1799
1723111.0,4.4819,4.9129,35.2043,-0.6476,-3.7791,-0.2857
1723121.0,4.9129,5.6695,34.17,-0.7928,-3.7966,-0.3384
1723131.0,5.5162,6.0142,33.6433,-0.7418,-3.5689,-0.3682
1723141.0,5.1427,7.2401,31.7854,-0.6598,-3.3273,-0.1873
1723151.0,6.3877,6.7133,31.8908,-0.7998,-3.0517,-0.0208
1723161.0,6.6176,6.5888,31.0097,-0.5571,-2.742,0.1346
1723171.0,6.9336,6.3207,30.7703,-0.5545,-2.5616,0.2847
1723181.0,7.5753,6.1579,29.6306,-0.5055,-2.3051,0.4198
1723191.0,7.7572,5.9376,28.8453,-0.6465,-2.088,0.5539
1723201.0,7.8338,5.6982,27.5716,-0.7152,-1.8448,0.6508
1723211.0,8.3414,5.7461,26.25,-0.738,-1.4591,0.7359
1723221.0,8.5808,5.545,25.5892,-0.7854,-0.961,0.8876
1723231.0,8.8107,5.1332,24.8901,-0.8062,-0.4464,0.9977
1723241.0,9.0214,4.3862,24.9955,-0.8221,0.1096,1.1148
1723251.0,9.2991,3.486,25.0721,-0.8184,0.6683,1.1712
1723261.0,9.5481,2.6815,26.1351,-0.804,1.1334,1.1536
1723271.0,9.3661,2.1165,26.1543,-0.7588,1.4388,1.0818
1723281.0,9.414,1.8004,26.7193,-0.6401,1.8464,0.9982
1723291.0,9.2129,2.0494,26.4703,-0.5332,2.3716,0.895
1723301.0,8.2073,2.1739,27.3514,-0.3618,2.8649,0.8338
1723311.0,7.6614,2.9113,27.9834,-0.1383,3.2932,0.8838
1723321.0,7.5944,2.6432,29.3912,-0.3299,3.5215,0.8865
1723331.0,7.0198,1.8579,30.2914,-0.3581,3.5965,0.8434
1723341.0,6.6272,1.8675,30.8852,-0.414,3.8339,0.77
1723351.0,6.5888,1.8292,31.1055,-0.3171,4.2282,0.6816
1723361.0,5.5641,2.0303,32.5707,0.0011,4.6863,0.5917
1723371.0,4.8746,2.8443,33.3177,0.2905,5.136,0.5422
1723381.0,3.5434,3.2944,35.1181,0.5066,5.4717,0.5502
1723391.0,2.7198,3.9456,36.2099,0.5161,5.5819,0.5821
1723401.0,2.2122,4.0031,37.3017,0.3049,5.5558,0.6625
1723411.0,1.7238,3.7637,38.5466,0.1096,5.4898,0.6965
1723421.0,1.8196,3.5913,38.719,0.0101,5.6367,0.7269
1723431.0,1.1205,3.1029,40.9313,-0.009,5.8335,0.7141
1723441.0,0.7757,3.1699,43.1052,0.1203,5.8852,0.6715
1723451.0,0.0575,3.4572,45.4132,0.3884,5.7724,0.6513
1723461.0,-0.7566,4.0223,47.5488,0.5816,5.419,0.6896
1723471.0,-1.561,4.0606,48.5736,0.6779,4.7991,0.7556
1723481.0,-1.5993,3.62,47.6159,0.6939,4.1585,0.7386
1723491.0,-2.1356,2.9688,45.9687,0.713,3.8807,0.6082
1723501.0,-1.9441,2.3367,44.6758,0.6816,4.0957,0.3586
1723511.0,-2.4708,3.2944,43.517,0.3523,4.1819,0.1293
1723521.0,-3.2465,4.2521,44.4747,0.2219,4.3724,-0.0899
1723531.0,-4.4436,6.2632,45.7676,-0.1783,4.4208,-0.1543
1723541.0,-5.0182,7.6327,48.0851,-0.3496,4.0802,-0.0857
1723551.0,-6.3973,8.4563,48.8226,-0.7199,3.5316,0.1187
1723561.0,-6.8187,8.1594,48.1522,-0.8014,3.1027,0.3209
1723571.0,-6.6463,7.4795,47.1754,-0.7146,3.173,0.4507
1723581.0,-7.1347,7.1251,47.5201,-0.4592,3.4204,0.4959
1723591.0,-8.0062,7.92,48.2001,-0.1628,3.6194,0.6034
1723601.0,-9.0405,8.4372,49.8473,0.2873,3.6849,0.7396
1723611.0,-9.7875,9.1842,50.7379,0.5082,3.6412,0.9605
1723621.0,-10.0748,9.5481,51.6381,0.5821,3.3731,1.1744
1723631.0,-10.4674,9.5289,51.9542,0.3688,3.0288,1.3936
1723641.0,-10.7356,9.0597,52.1649,0.0138,2.5669,1.524
1723651.0,-10.7739,8.6,52.1457,-0.3411,2.2822,1.6182
1723661.0,-11.3102,8.2744,52.9406,-0.5752,1.9731,1.7177
1723671.0,-11.6741,7.8147,53.6588,-0.5922,1.7326,1.822
1723681.0,-11.7603,7.2209,54.9326,-0.4305,1.4394,1.9039
1723691.0,-11.9614,6.924,55.9573,-0.2826,0.9626,1.9555
1723701.0,-11.8178,6.4739,55.5072,-0.1666,0.4512,1.9763
1723711.0,-11.473,6.1579,54.4537,-0.2139,-0.0734,1.9864
1723721.0,-11.1282,6.1866,53.0651,-0.4358,-0.4773,1.9433
1723731.0,-10.8793,5.8897,51.7818,-0.7737,-0.7923,1.9129
1723741.0,-10.5919,5.861,50.9103,-1.2936,-1.0802,1.8581
1723751.0,-10.6303,5.4779,51.1689,-1.7139,-1.3436,1.8283
1723761.0,-10.6207,5.3822,51.8776,-1.8251,-1.5953,1.7964
1723771.0,-10.0078,5.2768,52.0595,-1.7118,-1.9023,1.8331
1723781.0,-9.8162,5.5162,51.8488,-1.5671,-2.2572,1.9598
1723791.0,-9.4427,5.1236,51.3987,-1.532,-2.6888,2.0742
1723801.0,-8.9064,4.3766,50.1537,-1.5586,-3.1171,2.1551
1723811.0,-7.853,3.5626,47.9894,-1.665,-3.4513,2.1928
1723821.0,-7.0677,2.739,46.505,-1.7581,-3.6072,2.1167
1723831.0,-6.7612,2.8252,44.3406,-1.8092,-3.7274,2.1567
1723841.0,-5.8323,1.81,43.8139,-2.0689,-3.7844,2.1162
1723851.0,-5.4396,1.3599,42.6551,-1.8954,-3.7035,2.0353
1723861.0,-4.798,0.9768,42.0518,-1.8688,-3.6194,1.9662
1723871.0,-3.9169,0.6704,41.3526,-1.7602,-3.4965,1.9007
1723881.0,-3.6105,0.5938,40.6535,-1.6293,-3.3582,1.8565
1723891.0,-3.0646,-0.2969,41.0749,-1.5745,-3.2778,1.8193
1723901.0,-2.4038,-0.8045,41.3718,-1.2483,-3.2645,1.7331
1723911.0,-1.81,-1.1779,41.1994,-1.1116,-3.3103,1.6224
1723921.0,-1.1971,-1.1875,40.7493,-0.9642,-3.4284,1.4771
1723931.0,-0.6033,-1.1779,39.964,-0.9301,-3.5284,1.359
1723941.0,-0.1532,-0.7183,38.8818,-0.9349,-3.5423,1.2414
1723951.0,0.2777,-0.4501,38.0103,-1.0233,-3.5668,1.1637
1723961.0,1.0343,-0.4884,37.1389,-1.0722,-3.5252,1.1334
1723971.0,1.4461,-0.3352,36.6409,-1.0004,-3.389,1.1206
1723981.0,2.0399,-0.9194,36.1908,-0.8806,-3.2454,1.0552
1723991.0,2.5091,-0.7087,35.4725,-0.6928,-3.0815,1.0392
1724001.0,3.3423,-1.1013,35.0607,-0.8562,-2.9506,1.002
1724011.0,3.6105,-1.4844,34.9553,-0.8344,-2.8537,0.912
1724021.0,4.051,-1.3216,34.4478,-0.8636,-2.7739,0.8285
1724031.0,4.3,-1.4269,33.8732,-0.8695,-2.7659,0.7764
1724041.0,4.5394,-1.1684,33.0113,-0.9088,-2.7952,0.7364
1724051.0,5.0566,-1.3695,31.9578,-1.0201,-2.7984,0.7029
1724061.0,5.7078,-1.9345,30.0903,-1.0887,-2.7015,0.6646
1724071.0,6.177,-2.1931,29.0081,-1.0429,-2.3456,0.5821
1724081.0,6.2824,-2.4708,28.4431,-0.7923,-1.9076,0.4975
1724091.0,6.7516,-2.4804,27.8302,-0.5236,-1.4644,0.4198
1724101.0,6.7038,-2.6336,28.0122,-0.1809,-0.9738,0.3773
1724111.0,7.1251,-2.8922,27.1502,-0.0218,-0.6066,0.3352
1724121.0,7.5561,-3.2178,27.1407,0.041,-0.2767,0.2272
1724131.0,7.8817,-3.3136,26.0585,0.008,0.1697,0.1006
1724141.0,8.1594,-3.6105,25.3498,-0.0303,0.7923,-0.0639
1724151.0,7.9296,-3.8116,26.3649,-0.0372,1.5389,-0.2442
1724161.0,7.4316,-4.0223,28.0984,0.0883,2.1311,-0.4252
1724171.0,7.0581,-3.6583,30.1191,0.4284,2.5818,-0.5906
1724181.0,7.2496,-3.3136,31.8333,0.3384,2.9639,-0.7333
1724191.0,6.5601,-2.9113,33.9594,0.655,3.0176,-0.8668
1724201.0,5.8514,-2.5091,34.4957,0.6662,3.1198,-0.9594
1724211.0,5.5833,-2.3272,35.415,0.696,3.0692,-1.0366
1724221.0,5.1427,-2.3176,35.9609,0.6146,2.9937,-1.1451
1724231.0,5.4205,-2.624,35.2235,0.5326,3.0863,-1.3021
1724241.0,5.0566,-2.7869,35.3001,0.4177,3.4108,-1.5447
1724251.0,4.4819,-2.2505,36.0758,0.315,3.6295,-1.8028
1724261.0,3.8403,-1.0439,37.4932,0.1745,3.7163,-1.9704
1724271.0,3.3327,0.2586,39.0542,-0.0287,3.6051,-2.054
1724281.0,2.2889,1.3886,40.2322,-0.3911,3.1501,-1.9773
1724291.0,0.9673,1.5802,40.5865,-0.647,2.2913,-1.84
1724301.0,0.6704,0.6991,38.2976,-0.6492,1.823,-1.7538
1724311.0,1.5897,-0.3352,34.7925,-0.3081,2.1402,-1.7677
1724321.0,1.3312,-0.5842,33.2698,-0.0521,2.7675,-1.9231
1724331.0,0.1724,0.182,32.8868,0.1304,3.3199,-2.0231
1724341.0,-0.7853,1.0439,34.2945,0.3012,3.7317,-2.0571
1724351.0,-1.4365,1.7813,34.7447,0.414,3.8764,-1.9534
1724361.0,-2.2505,1.4653,35.099,0.3709,3.7663,-1.814
1724371.0,-1.0343,-0.0766,33.9881,0.4406,3.943,-1.7815
1724381.0,-2.5953,-0.7757,33.4805,0.6917,4.4964,-1.9544
1724391.0,-3.237,-1.2737,34.2179,0.6678,5.2605,-2.1582
1724401.0,-5.2194,-0.7374,35.6353,1.0344,6.1214,-2.42
1724411.0,-6.8378,0.3831,38.652,0.9855,6.6307,-2.5483
1724421.0,-8.1307,0.8619,41.3526,1.2239,7.1984,-2.6568
1724431.0,-9.4236,1.245,45.3079,1.2962,7.5097,-2.7404
1724441.0,-10.41,2.0973,49.8281,1.4457,7.5592,-2.7936
1724451.0,-11.3389,2.6145,54.7314,1.6937,7.3181,-2.859
1724461.0,-12.3253,3.237,58.8686,2.1673,6.8616,-2.8947
1724471.0,-13.0245,4.3096,62.029,2.5547,6.2156,-2.925
1724481.0,-13.7236,6.043,64.0305,2.7835,5.402,-2.925
1724491.0,-13.9247,7.8051,65.2755,2.6425,4.4123,-2.8276
1724501.0,-14.3269,9.4427,65.7352,2.0391,3.1581,-2.6904
1724511.0,-14.6142,9.9311,65.3521,1.2457,1.8097,-2.5238
1724521.0,-14.7387,10.1993,64.1359,0.4986,0.6167,-2.3461
1724531.0,-14.9685,9.7588,61.9524,-0.0713,-0.2698,-2.1891
1724541.0,-15.1122,9.3853,59.9412,-0.4624,-0.8237,-2.0683
1724551.0,-15.2559,8.8585,59.3858,-0.4374,-1.1153,-1.9289
1724561.0,-15.1122,8.3222,59.2996,0.0021,-1.4718,-1.8012
1724571.0,-14.6334,8.3222,57.729,0.5167,-1.8523,-1.6831
1724581.0,-14.279,8.5425,55.7179,0.854,-2.1971,-1.5447
1724591.0,-13.8959,8.9064,54.0036,0.9317,-2.4967,-1.4293
1724601.0,-13.3118,9.0118,51.9254,0.7274,-2.8106,-1.3617
1724611.0,-12.5552,8.9735,50.3932,0.3735,-3.0751,-1.3244
1724621.0,-12.4882,9.2895,48.8609,-0.0106,-3.2858,-1.3303
1724631.0,-11.8657,9.6055,47.9606,-0.3262,-3.3975,-1.2893
1724641.0,-11.3581,10.1706,47.5776,-0.4997,-3.3933,-1.1744
1724651.0,-11.1474,10.161,48.4299,-0.3746,-3.4449,-1.0057
1724661.0,-10.4962,10.3621,48.7364,-0.1735,-3.5934,-0.7732
1724671.0,-9.9311,9.8354,48.2288,0.2352,-3.7301,-0.5364
1724681.0,-9.3948,9.4619,48.133,0.7024,-3.8791,-0.3379
1724691.0,-8.734,8.9256,46.3134,0.9344,-4.1196,-0.1937
1724701.0,-7.7381,8.6766,43.8809,0.8083,-4.2941,-0.1415
1724711.0,-7.2784,8.6191,42.0518,0.4097,-4.3229,-0.0873
1724721.0,-6.4739,8.4755,40.9408,-0.0692,-4.2803,-0.0548
1724731.0,-5.9376,8.1882,40.4524,-0.4869,-4.1611,-0.0676
1724741.0,-5.296,8.1211,40.8642,-0.671,-4.0297,-0.0644
1724751.0,-5.047,8.1403,41.3431,-0.6449,-3.8089,0.0149
1724761.0,-4.7884,8.3127,42.4636,-0.4635,-3.7817,0.1187
1724771.0,-4.6543,8.1116,43.9384,-0.0447,-3.8259,0.2373
1724781.0,-3.9935,8.0732,44.0342,0.3539,-4.0212,0.3544
1724791.0,-3.3423,8.0828,42.6168,0.4725,-4.2755,0.4544
1724801.0,-2.6719,7.8147,40.5578,0.3719,-4.4139,0.5465
1724811.0,-2.2027,7.8913,39.4469,0.1894,-4.5267,0.6066
1724821.0,-1.3312,7.6806,37.7997,0.009,-4.4655,0.6705
1724831.0,-0.5555,7.5561,36.7654,-0.1703,-4.2851,0.6912
1724841.0,-0.1628,7.4603,36.3248,-0.365,-4.1382,0.746
1724851.0,0.498,7.1922,35.9801,-0.4736,-4.0345,0.8003
1724861.0,1.2067,7.1156,35.913,-0.5614,-3.8568,0.8168
1724871.0,1.9249,6.7995,36.0663,-0.4762,-3.7205,0.8748
1724881.0,1.9058,7.3454,35.1086,-0.2379,-3.6391,1.0009
1724891.0,2.806,6.9049,34.4574,-0.2905,-3.5385,1.1323
1724901.0,3.1891,6.3973,34.2562,-0.0676,-3.3406,1.2207
1724911.0,3.7254,5.7365,33.3273,0.008,-3.0394,1.2606
1724921.0,4.4915,5.3726,32.5037,-0.0548,-2.8761,1.268
1724931.0,5.0087,4.798,33.0113,-0.3251,-2.7611,1.2515
1724941.0,5.612,4.5586,32.0344,-0.5076,-2.6313,1.1983
1724951.0,6.2537,4.1946,32.5228,-0.6641,-2.4286,1.0983
1724961.0,6.608,4.2904,31.5556,-0.8828,-2.2977,1.0344
1724971.0,7.2018,4.2042,31.4694,-1.1749,-2.2045,0.9637
1724981.0,7.1443,3.8307,31.048,-1.3372,-2.0832,0.9211
1724991.0,7.3933,3.8403,31.3257,-1.3601,-1.9129,0.9083
1725001.0,7.4508,3.4764,30.9905,-1.1637,-1.6735,0.912
1725011.0,8.1403,3.2753,30.2531,-1.0403,-1.3521,0.9296
1725021.0,8.2935,2.739,30.1286,-0.8817,-1.0137,0.8902
1725031.0,8.2935,2.806,30.1286,-0.7008,-0.7311,0.8892
1725041.0,9.3087,2.5379,30.3297,-0.6353,-0.4523,0.8642
1725051.0,9.7971,2.4708,30.3872,-0.5406,-0.3038,0.7881
1725061.0,9.6438,2.1835,29.487,-0.746,-0.2219,0.6864
1725071.0,9.5864,2.4804,28.9603,-0.9424,-0.1522,0.5757
1725081.0,9.5098,2.4708,27.9643,-1.1701,0.0862,0.5018
1725091.0,9.1937,2.7294,27.2269,-1.3792,0.3666,0.472
1725101.0,8.9352,2.5379,27.5908,-1.4181,0.7609,0.4613
1725111.0,8.8107,2.3942,27.1119,-1.318,1.2515,0.4475
1725121.0,8.9064,2.0016,27.9739,-1.1323,1.8065,0.4326
1725131.0,8.5904,1.9537,29.2093,-0.8306,2.386,0.4087
1725141.0,8.2935,1.9058,30.4734,-0.414,2.8122,0.3666
1725151.0,8.0349,2.0399,32.3026,-0.124,3.0676,0.3246
1725161.0,7.6806,2.1548,32.2643,0.0633,3.1831,0.2879
1725171.0,7.0773,2.4038,32.5516,-0.0474,3.2225,0.2267
1725181.0,6.9528,2.557,32.0631,-0.3017,3.2438,0.1538
1725191.0,6.7516,2.6624,32.226,-0.4997,3.5588,0.0575
1725201.0,6.3398,2.9305,32.8772,-0.6141,3.9999,-0.0239
1725211.0,5.43,3.4285,34.6202,-0.5475,4.4086,-0.033
1725221.0,4.8076,3.8211,37.0144,-0.3081,4.7204,-0.0543
1725231.0,3.984,4.1755,39.3319,-0.0697,4.8135,-0.0223
1725241.0,3.7541,4.3574,40.3854,0.1713,4.7294,0.0351
1725251.0,3.3806,4.2138,41.774,0.3975,4.6241,0.0229
1725261.0,2.7102,4.1659,42.3678,0.5444,4.5299,-0.05
1725271.0,2.375,4.7884,41.9847,0.58,4.5144,-0.1681
1725281.0,2.0016,5.8323,43.1339,0.4736,4.6203,-0.248
1725291.0,0.9864,7.355,44.3789,0.2794,4.5911,-0.2336
1725301.0,-0.0192,8.4946,46.1698,0.0043,4.3372,-0.1373
1725311.0,-0.182,9.3661,47.4627,-0.4401,3.7828,0.0532
1725321.0,-0.814,9.7109,48.6406,-0.9482,3.0362,0.2719
1725331.0,-1.5897,9.6343,47.6446,-1.3462,2.1183,0.4986
1725341.0,-1.3982,8.5138,45.6335,-1.367,1.7294,0.7178
1725351.0,-1.5802,8.2265,42.9711,-1.0546,1.9805,0.879
1725361.0,-2.2122,7.6519,41.9273,-0.6731,2.3136,1.0217
1725371.0,-2.7773,7.8817,40.9408,-0.4566,2.6749,1.1297
1725381.0,-3.3998,8.1594,40.8068,-0.3911,2.9947,1.2872
1725391.0,-3.486,8.3606,41.4963,-0.4512,3.1735,1.4771
1725401.0,-4.0989,7.7955,42.4348,-0.5225,3.1256,1.6793
1725411.0,-3.4668,6.8091,42.4636,-0.7114,3.0559,1.8108
1725421.0,-5.0374,6.541,41.4101,-0.7482,2.9234,1.8709
1725431.0,-4.6256,5.6503,41.64,-0.7455,3.4092,1.8959
1725441.0,-6.1483,6.0238,41.9273,-0.4629,3.9132,1.9262
1725451.0,-6.5888,5.3726,44.8099,-0.2905,4.2814,1.988
1725461.0,-6.8474,4.5969,47.5776,0.0192,4.5448,2.0364
1725471.0,-7.4603,3.5051,51.4466,0.1846,4.3319,2.0476
1725481.0,-7.4891,2.5379,53.247,0.3783,3.8222,1.988
1725491.0,-7.039,0.8906,55.239,0.6465,3.2049,1.7911
1725501.0,-6.1579,0.498,53.611,0.6045,2.6494,1.4665
1725511.0,-7.0294,1.3216,53.2854,0.1841,2.1811,1.0988
1725521.0,-7.5561,2.4804,53.2949,-0.4895,1.6783,0.8535
1725531.0,-8.6191,4.0989,53.7546,-0.8615,1.2792,0.7551
1725541.0,-8.8585,4.5969,54.1568,-1.2494,0.9653,0.8354
1725551.0,-9.5864,4.5107,56.0914,-1.1079,0.5678,0.9605
1725561.0,-9.3565,4.0223,55.919,-1.1254,0.1107,1.1217
1725571.0,-8.667,2.8539,55.986,-0.9594,-0.4672,1.2026
1725581.0,-8.5234,2.2122,53.9845,-0.9301,-0.8721,1.1973
1725591.0,-8.1977,1.9441,52.7586,-0.7992,-1.1643,1.151
1725601.0,-7.8817,1.992,51.0444,-0.7056,-1.3101,1.1169
1725611.0,-7.8817,2.2314,49.9622,-0.7402,-1.4622,1.0946
1725621.0,-7.5848,2.6624,48.9758,-0.8088,-1.6325,1.0924
1725631.0,-7.4508,2.7869,48.5831,-0.9456,-1.8161,1.1281
1725641.0,-7.0581,2.5762,47.6159,-1.1084,-1.9933,1.1877
1725651.0,-6.6655,2.059,46.7348,-1.3489,-2.1311,1.2388
1725661.0,-6.3207,1.3599,46.3709,-1.5511,-2.2519,1.2425
1725671.0,-5.8993,0.3448,46.3039,-1.6331,-2.3408,1.1994
1725681.0,-5.5833,-0.1915,46.4284,-1.3723,-2.3972,1.119
1725691.0,-5.0182,-0.4501,46.1602,-0.9903,-2.4631,1.0509
1725701.0,-4.6543,-0.3065,44.7907,-0.6582,-2.4855,0.9823
1725711.0,-4.1851,-0.3448,43.9575,-0.5279,-2.4908,0.8971
1725721.0,-3.7541,-0.4022,42.8179,-0.6045,-2.5254,0.7843
1725731.0,-3.3998,-0.2586,42.2816,-0.7721,-2.5329,0.6726
1725741.0,-2.9305,-0.3543,41.8506,-0.9163,-2.4988,0.564
1725751.0,-2.624,-0.2682,42.0422,-1.0658,-2.4796,0.4656
1725761.0,-2.2889,-0.3639,42.3582,-1.1408,-2.5345,0.3581
1725771.0,-1.7717,0.0287,42.0901,-1.0014,-2.576,0.2682
1725781.0,-2.0782,0.3352,41.6591,-0.8588,-2.5962,0.2432
1725791.0,-1.6759,0.7853,41.64,-0.704,-2.6047,0.2379
1725801.0,-1.3599,0.7757,41.0175,-0.5885,-2.6382,0.2794
1725811.0,-0.7949,0.5555,39.2841,-0.6566,-2.7005,0.3054
1725821.0,-0.3926,-0.1053,40.0215,-0.7476,-2.659,0.2128
1725831.0,-0.1437,0.6129,37.9816,-0.7907,-2.5882,0.1607
1725841.0,0.3448,0.6416,37.6847,-1.0328,-2.519,0.1293
1725851.0,0.5746,1.1492,37.2059,-1.1233,-2.32,0.1155
1725861.0,0.9673,0.8906,37.6943,-1.1616,-2.2072,0.1362
1725871.0,1.3982,1.2067,37.9816,-1.0892,-2.0396,0.1846
1725881.0,1.561,1.2258,38.8244,-0.9504,-1.9002,0.2613
1725891.0,1.9824,1.0726,39.5522,-0.6971,-1.8635,0.348
1725901.0,2.241,0.8236,39.7054,-0.5342,-1.9715,0.414
1725911.0,2.6145,0.1915,39.5331,-0.4991,-2.2152,0.4715
1725921.0,3.237,-0.2011,38.4413,-0.5699,-2.4387,0.4661
1725931.0,3.7541,-0.7949,36.9569,-0.7338,-2.6435,0.3975
1725941.0,4.2138,-1.2929,35.2331,-0.862,-2.6398,0.3219
1725951.0,4.8076,-1.494,34.1413,-0.9179,-2.3823,0.2251
1725961.0,5.2194,-1.5131,33.9689,-0.8982,-2.1646,0.1171
1725971.0,5.5354,-1.561,33.7391,-0.8317,-2.0556,0.0383
1725981.0,5.861,-1.6185,32.4271,-0.8136,-1.9108,-0.0112
1725991.0,5.6695,-1.7334,31.862,-0.8833,-1.7804,-0.1022
1726001.0,6.2153,-1.7813,31.23,-0.8876,-1.6692,-0.1809
1726011.0,6.675,-2.0494,30.5213,-0.8652,-1.3787,-0.2953
1726021.0,6.79,-1.9345,29.6785,-0.8205,-1.0844,-0.3645
1726031.0,6.7038,-2.1835,29.2667,-0.7386,-0.7529,-0.4353
1726041.0,7.2305,-1.8962,28.6347,-0.6008,-0.2661,-0.513
1726051.0,7.5082,-1.992,28.3473,-0.5161,0.216,-0.5986
1726061.0,7.5753,-2.0494,28.5197,-0.4906,0.6561,-0.6902
1726071.0,7.0773,-1.8387,28.6442,-0.3986,0.9951,-0.7897
1726081.0,6.9432,-1.3695,28.6921,-0.4039,1.4005,-0.8642
1726091.0,6.5888,-1.2067,28.4431,-0.4028,1.8677,-0.8966
1726101.0,6.4356,-1.2163,29.3721,-0.2591,2.4094,-0.9408
1726111.0,5.9472,-1.4078,30.1286,-0.0958,3.0506,-0.9541
1726121.0,5.5737,-1.312,32.1493,0.149,3.678,-1.0206
1726131.0,4.9895,-0.9864,34.1605,0.2778,4.0707,-1.0823
1726141.0,4.4532,-0.7949,36.1908,0.3799,4.2585,-1.1164
1726151.0,4.1755,-0.316,38.3551,0.3794,4.2856,-1.1664
1726161.0,3.5338,0.4022,39.7725,0.1527,4.0435,-1.1291
1726171.0,2.8252,0.2969,40.7685,-0.2277,3.6045,-1.06
1726181.0,2.4995,-0.5171,40.9025,-0.5954,3.1091,-1.0483
1726191.0,3.0454,-1.4174,39.9066,-0.6753,3.0096,-1.151
1726201.0,2.6432,-1.7526,39.7342,-0.4161,3.3518,-1.2654
1726211.0,1.992,-1.561,40.4045,-0.0197,3.7583,-1.3755
1726221.0,1.0151,-0.6512,41.1707,0.2708,3.9004,-1.45
1726231.0,0.6321,-0.0383,42.2529,0.331,3.8419,-1.4622
1726241.0,0.067,0.9481,42.9424,0.0601,3.5263,-1.4213
1726251.0,-0.7757,0.5171,42.6168,-0.4385,2.8787,-1.3606
1726261.0,-0.6608,-0.3639,40.9313,-0.6252,2.6999,-1.4053
1726271.0,-0.498,-0.814,39.4469,-0.4268,3.2054,-1.5128
1726281.0,-1.3503,-0.7566,40.2705,0.0367,3.9318,-1.5862
1726291.0,-2.3846,0.3352,41.774,0.5513,4.4399,-1.6086
1726301.0,-3.1603,0.8332,44.58,0.9099,4.6746,-1.557
1726311.0,-3.8786,1.6472,46.6103,1.0137,4.5921,-1.4766
1726321.0,-4.2042,1.7334,47.8074,0.7391,4.1084,-1.4096
1726331.0,-4.3479,1.2833,48.2096,0.2373,3.3667,-1.3537
1726341.0,-4.4532,0.4405,47.5967,-0.1974,2.8718,-1.4032
1726351.0,-5.0566,-0.0287,46.6007,-0.3656,2.7808,-1.5144
1726361.0,-4.5777,-0.316,46.4475,-0.2826,3.1693,-1.59
1726371.0,-5.2864,-0.0862,48.7555,-0.1133,3.3284,-1.7139
1726381.0,-5.3056,0.249,51.0252,0.0245,3.1969,-1.7778
1726391.0,-6.1866,1.245,53.6397,0.4321,2.9287,-1.7895
1726401.0,-6.3207,2.0686,55.8615,0.6066,2.2237,-1.6783
1726411.0,-6.4548,2.6815,55.6412,0.8051,1.0408,-1.5357
1726421.0,-6.0334,1.7047,52.2223,0.7492,-0.0059,-1.4729
1726431.0,-4.8842,1.2163,47.501,0.7641,-0.1394,-1.5655
1726441.0,-5.3151,1.7813,44.6758,0.3916,0.0548,-1.6868
1726451.0,-5.8131,1.7238,44.4651,0.0718,0.216,-1.7682
1726461.0,-6.1866,2.0399,44.695,-0.041,0.5199,-1.8496
1726471.0,-6.9815,2.4517,46.4475,-0.0585,0.6907,-1.8672
1726481.0,-7.288,2.5474,47.8266,0.1421,0.6348,-1.8438
1726491.0,-7.8817,2.2314,49.1482,0.2826,0.505,-1.8475
1726501.0,-8.0349,1.8292,49.56,0.5146,0.2756,-1.9374
1726511.0,-7.9871,2.3176,49.4738,0.6385,0.1128,-2.0678
1726521.0,-8.3893,3.0742,49.2918,0.6742,0.0287,-2.1998
1726531.0,-8.6287,4.8554,49.694,0.613,0.0713,-2.2423
1726541.0,-9.165,6.292,50.7667,0.5619,0.0,-2.171
1726551.0,-9.1554,7.6423,52.615,0.6923,-0.2171,-1.9614
1726561.0,-9.6247,8.6383,53.8217,0.7801,-0.5726,-1.6485
1726571.0,-9.7875,9.0118,54.7889,0.8445,-1.168,-1.2962
1726581.0,-9.347,8.4467,54.7793,0.7258,-1.8571,-0.9956
1726591.0,-8.5329,7.5369,53.7163,0.5289,-2.5329,-0.8067
1726601.0,-7.7285,6.7516,52.0883,0.224,-3.091,-0.7231
1726611.0,-7.2305,6.3782,50.4219,-0.0612,-3.5689,-0.6678
1726621.0,-6.7804,5.9568,49.1386,-0.3006,-4.027,-0.6348
1726631.0,-6.3111,5.8419,47.884,-0.3214,-4.3772,-0.5917
1726641.0,-5.4109,5.8706,45.2983,-0.2581,-4.5746,-0.5449
1726651.0,-5.0278,5.8706,43.4595,-0.1101,-4.5815,-0.5028
1726661.0,-4.7692,6.1004,41.7549,0.0128,-4.5767,-0.4534
1726671.0,-4.4532,6.3973,39.5618,-0.0623,-4.548,-0.3799
1726681.0,-3.4093,6.5984,37.6752,-0.1314,-4.2659,-0.3097
1726691.0,-2.988,6.8378,36.66,-0.2027,-3.9616,-0.2182
1726701.0,-2.6336,6.9049,36.3153,-0.2416,-3.7227,-0.1075
1726711.0,-1.9345,7.2018,35.664,-0.1304,-3.3028,0.009
1726721.0,-1.3982,7.4699,35.6449,0.0064,-2.9628,0.1618
1726731.0,-1.0726,7.5944,35.6066,0.2022,-2.6281,0.3347
1726741.0,-0.4693,7.9296,35.1277,0.3044,-2.2609,0.5225
1726751.0,-0.1245,7.8434,35.7789,0.2155,-1.9683,0.7035
1726761.0,0.5746,7.5753,36.6504,-0.025,-1.8885,0.886
1726771.0,1.1109,6.9623,37.7997,-0.1235,-1.8991,1.0243
1726781.0,1.2929,6.3877,38.3072,-0.1767,-1.9795,1.1456
1726791.0,1.7813,5.8802,38.3551,-0.0979,-2.0587,1.2414
1726801.0,2.3272,5.3247,37.3879,-0.0223,-2.0284,1.3351
1726811.0,2.988,5.2098,36.9473,-0.0426,-1.9864,1.367
1726821.0,3.3519,4.9799,36.2961,-0.0889,-1.9406,1.4016
1726831.0,3.2465,4.9225,35.4629,-0.2559,-1.9002,1.4442
1726841.0,3.5434,4.4053,34.8117,-0.4385,-1.8204,1.5075
1726851.0,4.1659,3.7637,34.3233,-0.605,-1.7331,1.5474
1726861.0,4.9033,2.9497,34.1317,-0.7338,-1.6027,1.5
1726871.0,5.4492,2.3272,33.7487,-0.7455,-1.5064,1.4883
1726881.0,5.861,1.8196,33.6433,-0.7199,-1.3489,1.4314
1726911.0,6.4643,1.9824,31.5843,-0.8328,-0.7162,1.2329
1726921.0,6.0813,2.0207,31.2779,-0.9386,-0.53,1.234
1726931.0,6.177,1.5993,30.7128,-1.0158,-0.3368,1.26
1726941.0,6.3877,1.0247,30.6171,-1.0935,-0.1453,1.2696
1726951.0,6.6942,0.249,29.8605,-1.0195,0.2112,1.2063
1726961.0,6.6176,-0.0862,29.3338,-0.7881,0.7865,1.1361
1726971.0,6.5984,-0.182,30.2627,-0.555,1.3915,1.0493
1726981.0,6.3015,0.0958,31.048,-0.2565,1.847,0.9844
1726991.0,5.8227,0.5267,31.9387,-0.1469,2.1497,0.9418
1727001.0,5.3917,0.6512,32.7335,-0.1522,2.3413,0.9514
1727011.0,5.4875,0.4788,33.1166,-0.2501,2.436,0.9099
1727021.0,5.3151,0.067,33.4997,-0.3789,2.6238,0.8535
1727031.0,5.0757,-0.1053,33.9115,-0.3767,2.9511,0.754
1727041.0,4.5777,-0.2394,35.2522,-0.3272,3.3007,0.6008
1727051.0,4.3574,0.0479,36.7079,-0.1596,3.6301,0.4225
1727061.0,3.553,0.8428,38.5275,0.0697,3.7466,0.3161
1727071.0,3.0071,1.7909,40.0789,0.1921,3.7541,0.265
1727081.0,2.9018,2.7677,40.3279,0.1357,3.6274,0.2692
1727091.0,2.4708,3.1699,41.0653,-0.1453,3.4273,0.2591
1727101.0,2.1165,3.7062,40.6535,-0.4911,3.1437,0.2948
1727111.0,1.5706,4.1851,41.3048,-0.7173,3.0442,0.34
1727121.0,1.1492,4.3383,41.5921,-0.6923,3.1544,0.4326
1727131.0,0.6416,4.6735,42.2529,-0.4794,3.2384,0.58
1727141.0,0.067,5.0182,43.1435,-0.2267,3.2565,0.7168
1727151.0,-0.3065,5.3151,43.2489,-0.0819,3.0756,0.9078
1727161.0,-0.8811,5.3247,43.1339,-0.1618,2.8032,1.085
1727171.0,-0.929,4.2425,42.9616,-0.4496,2.2333,1.2169
1727181.0,-0.565,2.9784,40.395,-0.8806,1.6527,1.2606
1727191.0,0.1915,1.6855,37.656,-0.7348,1.9172,1.135
1727201.0,-0.5171,1.9441,35.664,-0.7215,2.5653,0.9977
1727211.0,-1.4748,2.1931,35.9992,-0.6353,3.1336,0.886
1727221.0,-2.375,3.0742,36.6792,-0.5981,3.6114,0.854
1727231.0,-3.1316,3.237,38.2785,-0.4805,3.902,0.8876
1727241.0,-3.5721,3.5051,39.6288,-0.3299,4.0526,0.9966
1727251.0,-4.2329,3.2178,41.0175,-0.2868,3.9089,1.0483
1727261.0,-4.4915,2.6432,41.2569,-0.1703,3.869,1.0296
1727271.0,-4.616,2.6719,41.3335,-0.0718,3.969,0.9653
1727281.0,-5.2098,3.1316,41.4771,0.0601,4.2053,0.8615
1727291.0,-6.5505,4.3958,41.9368,-0.0144,4.349,0.8391
1727301.0,-7.3933,5.3056,43.584,-0.2549,4.4149,0.8689
1727311.0,-8.2744,6.5888,44.8003,-0.4709,4.4692,0.9908
1727321.0,-9.2895,7.4029,47.137,-0.6135,4.275,1.2026
1727331.0,-9.8928,7.173,48.7172,-0.6561,4.0276,1.4793
1727341.0,-10.4483,6.7325,50.3644,-0.5491,3.8105,1.7251
1727351.0,-10.908,5.8131,51.8776,-0.2395,3.5625,1.8885
1727361.0,-11.2815,5.2194,52.1649,0.0734,3.3183,1.9954
1727371.0,-11.406,4.9704,52.998,0.3975,3.1751,2.0449
1727381.0,-12.1625,5.3056,54.425,0.5773,2.8425,2.0747
1727391.0,-12.402,6.3494,54.741,0.5449,2.3067,2.0987
1727401.0,-12.6988,7.0198,54.4441,0.2506,1.6916,2.196
1727411.0,-12.4882,7.4891,53.8695,-0.2501,1.0515,2.3221
1727421.0,-12.2775,7.4508,53.0268,-0.7779,0.4842,2.4429
1727431.0,-12.5935,6.3782,52.8257,-1.1595,0.2075,2.5621
1727441.0,-12.7563,5.6695,52.9214,-1.3585,0.0016,2.6451
1727451.0,-12.5169,4.4436,54.109,-1.3702,-0.2692,2.709
1727461.0,-12.536,3.4381,55.0954,-1.185,-0.5401,2.7574
1727471.0,-12.0572,2.0207,55.7753,-0.7971,-0.8604,2.759
1727481.0,-11.6933,1.1205,55.172,-0.4848,-1.2882,2.6856
1727491.0,-10.9942,0.7566,54.9517,-0.1953,-1.7065,2.5786
1727501.0,-10.6973,1.0918,54.1568,0.0133,-2.154,2.4898
1727511.0,-10.2855,1.3886,51.9542,-0.0639,-2.5467,2.436
1727521.0,-9.8545,1.312,49.8664,-0.473,-2.9287,2.3605
1727531.0,-9.5002,1.0439,48.4203,-1.0355,-3.2283,2.253
1727541.0,-8.8681,0.3543,47.1275,-1.6639,-3.4598,2.1402
1727551.0,-8.0924,-0.6225,47.252,-2.1593,-3.6258,1.9603
1727561.0,-7.8817,-1.2833,47.1849,-2.2737,-3.8264,1.8097
1727571.0,-6.9623,-1.8004,47.3382,-2.0816,-3.9728,1.6804
1727581.0,-6.5984,-1.7909,46.754,-1.7278,-4.1095,1.5756
1727591.0,-5.8802,-1.5323,45.4994,-1.4133,-4.1989,1.5059
1727601.0,-5.7174,-1.4269,44.4747,-1.1393,-4.3511,1.4963
1727611.0,-4.9321,-1.3886,42.3103,-1.1052,-4.4607,1.4734
1727621.0,-4.5203,-1.6281,40.8355,-1.2271,-4.5288,1.4404
1727631.0,-3.6775,-1.9441,38.9297,-1.4255,-4.6012,1.3819
1727641.0,-3.0454,-2.4325,37.2825,-1.7209,-4.6161,1.284
1727651.0,-2.2027,-3.0454,35.8939,-1.9241,-4.4352,1.1318
1727661.0,-1.1875,-3.7254,35.1086,-1.8512,-4.1526,0.9951
1727671.0,-0.6033,-4.0223,34.6968,-1.616,-3.8328,0.8216
1727681.0,-0.2011,-4.3958,34.2275,-1.2239,-3.5274,0.6635
1727691.0,0.498,-4.4053,33.5571,-0.8892,-3.1618,0.4539
1727701.0,0.8715,-4.0031,32.8101,-0.5944,-2.8159,0.2607
1727711.0,1.1779,-2.9018,32.1589,-0.4746,-2.4259,0.1229
1727721.0,1.6089,-2.241,31.8716,-0.431,-2.0694,0.0639
1727731.0,1.9441,-1.6951,32.7335,-0.4704,-1.7379,0.0569
1727741.0,2.4995,-1.5802,33.2986,-0.5587,-1.5224,0.0633
1727751.0,3.122,-1.6759,34.3137,-0.6721,-1.358,0.0383
1727761.0,3.1891,-1.4653,35.1756,-0.7859,-1.3282,0.033
1727771.0,3.4285,-1.0534,35.4438,-0.8434,-1.4197,0.0649
1727781.0,3.4477,-0.5842,35.8651,-0.8657,-1.5474,0.1692
1727791.0,3.6583,-0.8619,35.2139,-0.8689,-1.6378,0.3092
1727801.0,3.8403,-1.7238,33.8923,-0.7849,-1.6623,0.4236
1727811.0,5.1619,-3.0646,32.6569,-0.6231,-1.4298,0.4491
1727821.0,5.6216,-4.5873,31.6322,-0.489,-1.0637,0.356
1727831.0,6.2728,-5.0949,31.1629,-0.4273,-0.7029,0.1799
1727841.0,6.5984,-5.7078,31.5364,-0.4299,-0.4166,-0.0644
1727851.0,6.3782,-5.6312,31.8142,-0.4805,-0.2847,-0.2975
1727861.0,6.0813,-5.7078,31.4694,-0.5954,-0.2714,-0.5332
1727871.0,6.2153,-5.114,30.5596,-0.688,-0.1352,-0.737
1727881.0,6.1483,-5.0566,29.3816,-0.7849,0.1783,-0.9472
1727891.0,6.6176,-4.5586,29.0465,-0.6353,0.77,-1.1153
1727901.0,5.8802,-4.2617,29.3433,-0.3193,1.4473,-1.2606
1727911.0,5.3151,-3.802,30.6554,0.0878,2.055,-1.3643
1727921.0,4.9895,-3.2561,31.8525,0.4459,2.4557,-1.4324
1727931.0,4.5873,-2.5379,32.8101,0.5757,2.6701,-1.4878
1727941.0,4.3383,-2.0016,33.5476,0.4943,2.7473,-1.5586
1727951.0,3.62,-1.494,34.1509,0.1054,2.6074,-1.5681
1727961.0,3.3902,-1.6664,34.5723,-0.1,2.4291,-1.6102
1727971.0,3.4381,-1.8771,33.7199,-0.1506,2.5839,-1.6724
1727981.0,2.8635,-1.4078,33.1645,0.0266,3.0761,-1.7709
1727991.0,2.1261,-0.5076,33.7391,0.1953,3.6684,-1.84
1728001.0,1.2354,0.1915,35.5395,0.4805,4.0558,-1.8246
1728011.0,1.0151,1.1301,37.2634,0.7269,4.3192,-1.7554
1728021.0,0.1341,1.7621,39.3415,0.6779,4.1436,-1.6373
1728031.0,-0.9577,1.7142,40.4429,0.4736,3.6067,-1.4771
1728041.0,-1.0247,1.1109,39.5618,0.4369,3.2257,-1.3585
1728051.0,-1.2067,0.6129,37.6943,0.5321,3.4279,-1.3441
1728061.0,-1.1875,-0.1341,37.7518,0.6662,3.9589,-1.4335
1728071.0,-1.8771,0.5555,38.1157,0.7577,4.3649,-1.5117
1728081.0,-2.7294,1.1109,40.213,0.936,4.7911,-1.5751
1728091.0,-3.6296,2.3559,42.4157,0.8514,4.9034,-1.5495
1728101.0,-4.3287,2.5953,45.4228,0.8503,4.5203,-1.4388
1728111.0,-5.3056,2.6432,46.3517,0.5912,3.8929,-1.3505
1728121.0,-5.4588,1.5227,45.9782,0.5023,3.2613,-1.325
1728131.0,-5.4205,0.8332,44.0246,0.4518,3.0559,-1.4367
1728141.0,-5.2768,0.5938,41.8985,0.5087,3.2539,-1.6346
1728151.0,-6.3303,1.4461,42.2146,0.5199,3.7541,-1.7948
1728161.0,-7.6614,2.8826,43.1052,0.5337,3.9435,-1.881
1728171.0,-8.3606,3.9935,45.0589,0.6029,4.1595,-1.8565
1728181.0,-9.5481,5.2194,45.9687,0.6428,4.2314,-1.7693
1728191.0,-10.41,5.545,48.5927,0.6039,4.1249,-1.5995
1728201.0,-10.6207,5.7365,49.6845,0.647,4.0334,-1.4128
1728211.0,-10.9846,5.6216,51.4083,0.7583,3.9871,-1.267
1728221.0,-11.3389,5.6503,53.4769,0.8673,3.8403,-1.1057
1728231.0,-11.7603,5.5641,55.7562,0.9525,3.4316,-0.9488
1728241.0,-12.1051,5.7269,57.049,1.0115,2.949,-0.7923
1728251.0,-12.3541,5.7078,58.0929,0.8237,2.1928,-0.6284
1728261.0,-11.9997,4.7788,59.0697,0.6598,1.3893,-0.5167
1728271.0,-11.8561,3.9935,57.9397,0.4699,0.6311,-0.4826
1728281.0,-11.655,3.1316,57.0682,0.1101,-0.0553,-0.5401
1728291.0,-11.2336,2.7102,55.4306,-0.1261,-0.5715,-0.6348
1728301.0,-11.3772,2.2793,54.4441,-0.422,-1.0211,-0.7625
1728311.0,-11.1666,2.0494,53.5535,-0.4044,-1.35,-0.8817
1728321.0,-10.9367,2.1356,52.1649,-0.4236,-1.5474,-0.9849
1728331.0,-10.41,2.3176,51.2168,-0.3086,-1.6235,-1.0419
1728341.0,-10.3046,2.1931,50.8624,-0.2331,-1.699,-1.1222
1728351.0,-9.9216,2.241,50.7188,-0.3049,-1.8576,-1.2244
1728361.0,-9.6438,2.1069,50.2399,-0.4182,-2.1529,-1.3505
1728371.0,-9.3565,2.3559,49.7324,-0.6188,-2.4158,-1.4761
1728381.0,-9.347,2.8252,49.8473,-0.6396,-2.6739,-1.5857
1728391.0,-9.0214,3.9456,49.0045,-0.5859,-3.0256,-1.6112
1728401.0,-8.5234,4.6064,47.5393,-0.5795,-3.2321,-1.6118
1728411.0,-7.8721,5.545,46.2272,-0.6784,-3.3667,-1.5878
1728421.0,-6.7133,5.7652,45.5473,-0.7849,-3.3922,-1.5006
1728431.0,-6.177,5.9951,44.7237,-1.011,-3.3747,-1.4367
1728441.0,-6.3303,5.6695,46.2177,-1.1004,-3.5508,-1.3814
1728451.0,-6.1387,5.9951,45.8633,-0.936,-3.8812,-1.3005
1728461.0,-5.6503,6.3111,44.4172,-0.7673,-4.1813,-1.1935
1728471.0,-5.3343,6.2824,42.7317,-0.5965,-4.2681,-1.0685
1728481.0,-4.6256,6.3398,40.5482,-0.5236,-4.1452,-0.9786
1728491.0,-3.9552,6.3303,39.4277,-0.5518,-4.0057,-0.887
1728501.0,-3.4093,6.5984,38.3647,-0.68,-3.8722,-0.7955
1728511.0,-3.304,6.8283,38.2115,-0.7508,-3.6349,-0.6768
1728521.0,-2.7677,6.8091,38.6328,-0.6864,-3.3465,-0.4816
1728531.0,-2.3463,6.4356,38.9968,-0.5199,-3.1831,-0.265
1728541.0,-2.0303,6.1675,39.715,-0.4044,-3.1496,-0.1213
1728551.0,-1.7238,5.9568,39.0829,-0.39,-3.2278,0.0468
1728561.0,-0.996,5.679,38.719,-0.4347,-3.2544,0.2097
1728571.0,-0.7566,5.7461,38.0295,-0.5651,-3.2283,0.3416
1728581.0,-0.6321,5.4588,38.0487,-0.7104,-3.0996,0.506
1728591.0,-0.1053,4.8363,38.3934,-0.7003,-3.0272,0.6784
1728601.0,0.6225,4.1084,38.5275,-0.5922,-3.0139,0.8077
1728611.0,1.3312,3.5147,38.4988,-0.4214,-2.9389,0.9269
1728621.0,1.8196,2.9209,38.1444,-0.3384,-2.8819,1.0057
1728631.0,2.0207,2.2889,38.0391,-0.3246,-2.9452,1.0573
1728641.0,2.8347,1.9441,37.1484,-0.4172,-3.0293,1.0823
1728651.0,3.2082,1.4844,36.5355,-0.5459,-3.0341,1.0743
1728661.0,3.7733,1.2163,34.7351,-0.6635,-2.9958,1.0781
1728671.0,4.0701,0.68,34.3616,-0.6508,-2.8585,1.0637
1728681.0,4.5681,0.5938,33.4135,-0.5491,-2.6771,1.061
1728691.0,5.5354,0.3639,32.7048,-0.3565,-2.3982,1.0711
1728701.0,5.7174,0.316,31.7375,-0.1501,-2.1795,1.0887
1728711.0,6.2153,0.1245,31.479,0.0245,-1.8901,1.0908
1728721.0,6.857,-0.2777,30.7415,0.1719,-1.5947,1.0552
1728731.0,7.2592,-0.5555,29.9754,0.0383,-1.4293,0.9445
1728741.0,7.4603,-0.6608,29.3721,-0.0633,-1.26,0.8556
1728751.0,7.6614,-0.5267,28.4718,-0.2033,-0.9206,0.7231
1728761.0,7.9583,-0.2394,27.9643,-0.3267,-0.5832,0.6125
1728771.0,8.1499,-0.3256,27.4184,-0.3826,-0.1559,0.5428
1728781.0,8.1977,-0.2011,27.495,-0.3964,0.2964,0.4624
1728791.0,7.8721,-0.3543,27.8302,-0.4129,0.6843,0.3954
1728801.0,7.9296,-0.5363,28.2707,-0.3714,0.9791,0.2996
1728811.0,7.5178,-0.3448,29.4104,-0.1793,1.3106,0.1846
1728821.0,7.2592,0.3448,28.9028,-0.0564,1.5202,0.083
1728831.0,7.2496,0.7661,29.3146,0.1799,1.8384,0.0325
1728841.0,6.7038,2.0399,28.7975,0.241,2.0556,0.0729
1728851.0,6.0525,2.3846,28.0409,0.1756,2.2099,0.1447
1728861.0,5.7269,2.2793,26.8151,-0.0229,2.5313,0.2246
1728871.0,5.8419,1.7813,26.3841,-0.0873,3.1347,0.2112
1728881.0,5.4779,1.5706,26.5565,-0.1804,3.9685,0.1038
1728891.0,4.0606,2.1069,27.8398,-0.2618,4.6741,0.0314
1728901.0,2.9497,3.1603,30.4159,-0.1937,5.244,0.0101
1728911.0,2.1452,4.3287,33.4901,0.0074,5.6037,0.1086
1728921.0,1.2067,5.2577,36.4014,0.1926,5.6164,0.3022
1728931.0,0.2011,5.8131,38.7478,0.132,5.1615,0.5428
1728941.0,-0.4693,5.1619,39.5809,-0.0101,4.5756,0.7588
1728951.0,-0.7183,4.3287,37.7039,-0.1548,4.1606,0.8849
1728961.0,-0.2777,3.8116,36.6026,-0.1974,4.292,0.8689
1728971.0,-0.2203,4.2329,36.3536,-0.1293,4.6794,0.845
1728981.0,-1.2641,5.5067,36.9569,-0.19,4.9689,0.8679
1728991.0,-2.6049,6.3877,38.6328,-0.2059,5.1296,1.0743
1729001.0,-3.4189,6.2824,40.8834,-0.332,4.7587,1.3984
1729011.0,-4.4053,4.5969,40.5578,-0.4848,4.3346,1.6527
1729021.0,-4.5203,2.8922,38.6616,-0.1942,4.2085,1.7326
1729031.0,-3.6775,1.1396,37.5028,0.1506,4.9768,1.6251
1729041.0,-5.114,1.3982,37.0048,0.5545,5.8963,1.4144
1729051.0,-6.541,2.0303,39.9736,0.7322,6.5955,1.26
1729061.0,-7.9487,4.0318,42.6168,0.7854,7.0803,1.2042
1729071.0,-10.1323,5.2672,47.3286,1.011,7.208,1.325
1729081.0,-11.7699,6.1579,50.9199,0.9796,6.9489,1.5495
1729091.0,-12.5648,5.7269,53.429,1.0765,6.3933,1.7549
1729101.0,-13.2735,4.9799,55.3635,1.2435,6.1778,1.9438
1729111.0,-13.6853,4.0606,57.2118,1.5288,5.9597,1.9837
1729121.0,-14.2311,3.5147,59.4528,1.6644,5.6191,2.0066
1729131.0,-14.528,4.0414,61.7417,1.467,4.8997,1.9848
1729141.0,-15.1218,4.1563,63.5325,1.1754,3.8951,2.0151
1729151.0,-14.8536,4.1946,63.5038,0.8775,2.9559,2.0199
1729161.0,-14.9111,3.4764,63.2644,0.4943,2.0976,2.0109
1729171.0,-14.6429,2.7294,62.8622,0.041,1.2526,1.9332
1729181.0,-14.3461,1.5706,61.847,-0.241,0.4762,1.773
1729191.0,-14.1928,1.3695,60.5637,-0.5678,-0.1916,1.5681
1729201.0,-13.9151,1.1301,58.7154,-0.8024,-0.7716,1.3792
1729211.0,-13.4841,0.814,56.6372,-1.019,-1.1994,1.1871
1729221.0,-13.3596,0.6129,56.2637,-1.118,-1.5484,1.0036
1729231.0,-13.0532,0.7183,55.0283,-1.2175,-1.9326,0.8269
1729241.0,-12.6031,0.6033,53.496,-1.1871,-2.2801,0.663
1729251.0,-12.3732,0.996,51.7914,-1.1355,-2.4945,0.5289
1729261.0,-12.1147,1.245,50.6805,-1.0685,-2.6308,0.4135
1729271.0,-11.9327,1.4078,49.6653,-1.019,-2.8713,0.3342
1729281.0,-11.6837,1.561,48.1905,-1.1435,-3.1858,0.2288
1729291.0,-11.3677,1.81,46.2081,-1.3915,-3.4199,0.1517
1729301.0,-11.224,1.9249,44.7237,-1.6666,-3.5832,0.1038
1729311.0,-11.1474,1.9058,43.2393,-1.9752,-3.7216,0.0835
1729321.0,-10.8026,1.7526,41.458,-2.3221,-3.712,0.1
1729331.0,-10.2568,1.063,41.0749,-2.577,-3.5854,0.1219
1729341.0,-9.7396,0.1245,42.3965,-2.4105,-3.4875,0.1197
1729351.0,-8.734,-0.5746,42.2241,-1.9385,-3.4688,0.0915
1729361.0,-8.2744,-0.9768,41.5633,-1.4559,-3.4103,0.0415
1729371.0,-7.5465,-1.0726,40.5386,-0.9599,-3.298,0.0325
1729381.0,-6.6272,-0.9577,39.3798,-0.696,-3.1246,-0.0154
1729391.0,-6.1292,-0.9864,38.1923,-0.5279,-2.8617,-0.0559
1729401.0,-5.0949,-1.1396,38.5083,-0.3363,-2.519,-0.0761
1729411.0,-4.4915,-1.245,38.403,-0.4645,-2.3014,-0.1224
1729421.0,-3.7637,-1.5897,39.7725,-0.5438,-2.1806,-0.2293
1729431.0,-2.8252,-1.8866,40.8355,-0.588,-2.0774,-0.3347
1729441.0,-2.7007,-1.9058,42.4253,-0.5875,-2.1215,-0.4539
1729451.0,-2.4421,-2.0207,44.015,-0.4672,-2.2716,-0.5561
1729461.0,-1.9824,-1.8292,44.5705,-0.2762,-2.4876,-0.671
1729471.0,-1.4653,-1.4557,44.5226,-0.1288,-2.7388,-0.7758
1729481.0,-1.0151,-1.0151,43.6415,-0.1522,-3.0267,-0.8524
1729491.0,-0.7183,-0.7374,42.6359,-0.3065,-3.3071,-0.8939
1729501.0,0.0192,-0.7853,41.4388,-0.5662,-3.4752,-0.9658
1729511.0,0.4022,-0.814,40.2896,-0.8854,-3.5577,-1.0679
1729521.0,0.5555,-0.996,39.3894,-1.094,-3.4997,-1.1935
1729531.0,1.2258,-0.8906,38.8818,-1.1855,-3.3927,-1.3154
1729541.0,1.5897,-0.6129,38.7095,-1.2414,-3.297,-1.433
1729551.0,1.6089,-0.0479,38.4892,-1.0914,-3.214,-1.492
1729561.0,1.8483,0.3065,38.403,-0.8242,-3.0389,-1.4724
1729571.0,1.6376,1.0918,38.1732,-0.4981,-2.8676,-1.4069
1729581.0,2.1261,1.0343,37.1676,-0.299,-2.808,-1.3223
1729591.0,2.9113,1.0918,36.4685,-0.2559,-2.7085,-1.268
1729601.0,3.4572,1.0726,35.5874,-0.4023,-2.6137,-1.2648
1729611.0,3.9552,1.1205,35.3767,-0.6784,-2.6105,-1.2595
1729621.0,4.3479,0.996,34.7925,-0.8833,-2.585,-1.2888
1729631.0,4.7022,1.5802,34.2467,-1.0562,-2.5281,-1.2664
1729641.0,4.7214,1.6376,33.8923,-1.0451,-2.3839,-1.2111
1729651.0,5.047,1.9537,33.0879,-0.8817,-2.1423,-1.0839
1729661.0,5.4875,1.9249,32.3505,-0.7035,-1.864,-0.9323
1729671.0,5.9185,1.6568,31.2108,-0.5981,-1.5484,-0.7987
1729681.0,6.2537,0.7087,31.0193,-0.5752,-1.3021,-0.671
1729691.0,6.8187,-0.3735,31.2874,-0.6433,-1.1643,-0.6768
1729701.0,7.0294,-1.4269,30.7607,-0.6045,-1.0882,-0.745
1729711.0,7.4029,-1.8292,29.1901,-0.5816,-0.87,-0.8647
1729721.0,7.2688,-2.0877,28.0888,-0.5736,-0.4411,-1.0153
1729731.0,6.8666,-1.9154,27.2173,-0.5768,0.0234,-1.1478
1729741.0,6.541,-1.6472,26.6427,-0.597,0.5507,-1.2648
1729751.0,5.7174,-1.1875,27.4184,-0.5273,1.1664,-1.3149
1729761.0,4.7501,-1.2163,28.0792,-0.398,1.7746,-1.2925
1729771.0,3.984,-1.8483,29.7839,-0.2607,2.2945,-1.2877
1729781.0,3.0837,-3.0358,30.6266,-0.1995,2.7116,-1.3734
1729791.0,2.4995,-4.0606,32.7527,-0.0628,3.1804,-1.6022
1729801.0,2.0494,-3.9648,33.4709,-0.2091,3.4704,-1.8369
1729811.0,1.9345,-4.2329,36.5738,-0.4193,3.6162,-2.0928
1729821.0,0.5842,-3.4477,38.719,-0.2964,3.7807,-2.3307
1729831.0,-0.1437,-2.1835,41.0558,-0.0851,3.7727,-2.4706
1729841.0,0.182,-0.9673,42.6934,0.2437,3.7008,-2.5132
1729851.0,-0.4884,0.3926,43.7852,0.5635,3.4976,-2.4424
1729861.0,-0.7949,1.1875,43.6894,0.7492,3.2214,-2.3115
1729871.0,-0.6416,1.4365,43.0477,0.8115,3.1203,-2.204
1729881.0,-0.3065,1.3886,43.2584,0.7923,3.1017,-2.1247
1729891.0,0.0958,1.245,44.3598,0.7162,3.0283,-2.0907
1729901.0,0.1053,1.5419,44.3598,0.5252,2.8181,-2.0651
1729911.0,0.2586,2.0973,45.193,0.1197,2.3599,-2.0045
1729921.0,0.1532,1.6951,45.2696,-0.1687,1.7187,-1.889
1729931.0,0.4693,0.8906,43.3446,-0.2528,1.3308,-1.8549
1729941.0,0.9577,0.1724,40.9313,-0.19,1.4239,-1.9156
1729951.0,0.7853,-0.0192,39.7533,0.0394,1.8406,-2.047
1729961.0,0.2777,0.8906,39.0159,0.381,2.4727,-2.1274
1729971.0,-0.747,1.7526,39.8204,0.7774,3.0612,-2.1109
1729981.0,-0.8332,2.5283,41.8506,1.1307,3.5157,-2.0172
1729991.0,-0.9577,2.8156,43.8905,1.168,3.3502,-1.9183
1730001.0,-0.9673,2.4421,44.762,0.8939,2.9479,-1.8933
1730011.0,-1.1875,2.2505,44.1491,0.5635,2.7037,-1.9529
1730021.0,-1.3982,2.3272,44.1874,0.323,2.6116,-2.0556
1730031.0,-1.743,2.873,43.8618,0.1963,2.7665,-2.1199
1730041.0,-2.9209,3.869,43.517,0.0952,2.9729,-2.1865
1730051.0,-4.0606,4.9704,43.9575,-0.1112,3.2666,-2.1418
1730061.0,-5.3726,5.8706,45.2696,-0.223,3.6705,-2.005
1730071.0,-6.6367,6.0238,49.1003,0.0937,4.0664,-1.7735
1730081.0,-6.9145,5.8419,53.3237,0.5369,4.035,-1.5426
1730091.0,-7.5944,5.8035,57.0873,1.2042,3.613,-1.3388
1730101.0,-7.6327,6.2249,57.8056,1.4729,3.0495,-1.1536
1730111.0,-7.4986,6.79,58.1887,1.6176,2.4179,-0.9711
1730121.0,-7.2209,6.8378,58.2844,1.3883,1.7799,-0.8189
1730131.0,-7.5274,6.7612,57.6428,0.7609,0.8939,-0.7253
1730141.0,-8.2073,6.5314,57.5375,0.1171,0.0186,-0.6412
1730151.0,-8.2935,6.0334,57.0395,-0.3219,-0.63,-0.5406
1730161.0,-8.4946,4.9799,57.0299,-0.4145,-1.1579,-0.4496
1730171.0,-8.1594,3.7637,56.484,-0.373,-1.6389,-0.4001
1730181.0,-7.4316,2.2601,55.5455,-0.1846,-2.1662,-0.4608
1730191.0,-6.6942,1.2737,54.2335,0.0947,-2.6403,-0.6625
1730201.0,-6.043,0.6321,52.2415,0.3469,-2.9495,-0.8806
1730211.0,-5.7174,1.1396,49.8473,0.4667,-3.1629,-1.1185
1730221.0,-5.6886,1.8866,47.0413,0.3304,-3.2831,-1.3271
1730231.0,-5.6695,2.4708,45.3653,0.0974,-3.2629,-1.4335
1730241.0,-5.5545,3.0454,44.7716,-0.2794,-3.2634,-1.5798
1730251.0,-5.3056,3.1125,44.9248,-0.6114,-3.3427,-1.7155
1730261.0,-5.2002,3.3423,44.7524,-0.6726,-3.2315,-1.8326
1730271.0,-4.9608,3.7828,46.1027,-0.5688,-3.1501,-1.9018
1730281.0,-4.5873,4.3958,47.6925,-0.1751,-3.1214,-1.9044
1730291.0,-4.4628,5.3247,49.0811,0.3044,-3.339,-1.8406
1730301.0,-4.118,6.3015,48.6789,0.7045,-3.7227,-1.7028
1730311.0,-4.0797,7.2784,48.2192,0.9408,-4.1414,-1.5165
1730321.0,-3.553,7.7285,46.4667,0.8636,-4.565,-1.3085
1730331.0,-2.8156,7.7572,44.6471,0.7375,-4.8518,-1.1552
1730341.0,-2.1739,8.0541,42.8658,0.4848,-4.9816,-1.0382
1730351.0,-1.3024,7.9009,41.0366,0.0915,-5.0705,-0.9222
1730361.0,-0.7757,7.7572,40.893,-0.1501,-5.1466,-0.8072
1730371.0,0.1245,7.9009,39.6767,-0.3794,-5.1998,-0.7088
1730381.0,0.7661,7.8434,39.1404,-0.4534,-5.1461,-0.5486
1730391.0,1.2163,7.7285,38.6233,-0.4715,-5.1179,-0.3523
1730401.0,1.9058,7.0581,38.336,-0.2299,-5.1221,-0.1724
1730411.0,2.7869,6.4548,37.1963,-0.0138,-5.0875,-0.0484
1730421.0,3.5338,5.861,35.2235,0.0931,-4.988,0.0271
1730431.0,4.1851,5.5067,33.356,0.0383,-4.8082,0.0319
1730441.0,4.8459,5.114,31.4885,-0.1788,-4.5363,0.0128
1730451.0,5.679,5.3247,30.3968,-0.4108,-4.0994,-0.0128
1730461.0,6.426,5.4971,29.9563,-0.5672,-3.7136,-0.0394
1730471.0,7.2305,5.4205,30.5979,-0.7003,-3.3614,-0.0388
1730481.0,7.4603,5.6407,30.981,-0.6183,-3.0309,0.0506
1730491.0,7.3646,5.4971,31.3162,-0.6492,-2.8521,0.1479
1730501.0,8.0732,5.0661,30.6362,-0.7434,-2.85,0.2107
1730511.0,8.5425,4.3574,29.2571,-0.9732,-2.71,0.2235
1730521.0,9.3374,4.3958,27.5716,-1.3558,-2.4147,0.1969
1730531.0,10.1131,3.8116,26.5086,-1.6762,-1.8597,0.1352
1730541.0,10.4004,4.2138,27.0928,-1.8677,-1.1589,0.0963
1730551.0,10.5728,4.4341,29.1326,-1.748,-0.5954,0.1713
1730561.0,10.4674,5.2672,30.7703,-1.408,-0.2602,0.3299
1730571.0,10.659,5.5545,31.364,-0.8849,-0.0607,0.5816
1730581.0,10.3813,5.3917,31.9482,-0.4369,-0.0506,0.8647
1730591.0,10.41,4.8363,30.5596,-0.0724,0.0011,1.0898
1730601.0,10.7835,3.7158,28.9028,0.0931,0.2261,1.234
1730611.0,11.4251,2.9497,26.6714,0.0303,0.6556,1.234
1730621.0,11.5305,2.49,26.2213,-0.2767,1.1914,1.1589
1730631.0,11.473,2.6336,26.6523,-0.7513,1.6325,1.093
1730641.0,10.6686,2.2984,28.242,-1.1744,1.8688,1.0493
1730651.0,10.0748,2.0111,29.7743,-1.3856,2.0332,1.0445
1730661.0,9.845,1.5993,30.9235,-1.3292,2.1806,1.0706
1730671.0,9.4044,0.9194,30.8948,-1.2132,2.2748,1.0993
1730681.0,9.2991,0.0575,31.115,-0.9844,2.486,1.1105
1730691.0,9.2991,-0.9002,30.4255,-0.6715,2.8473,1.0259
1730701.0,9.2225,-1.3024,30.052,-0.4172,3.3715,0.8285
1730711.0,8.5904,-0.8428,31.7758,-0.2166,3.8371,0.6061
1730721.0,7.9966,-0.3352,32.9634,-0.1203,4.1207,0.4778
1730731.0,7.0964,0.5555,34.1317,-0.1096,4.1867,0.3704
1730741.0,6.4165,0.9098,35.3288,-0.1618,4.1138,0.3469
1730751.0,6.2153,0.814,35.8173,-0.4017,3.8227,0.3262
1730761.0,5.9185,-0.0766,35.4246,-0.6806,3.5322,0.2166
1730771.0,5.9568,-0.9864,34.7734,-0.6561,3.6386,-0.016
1730781.0,5.6503,-1.0151,33.9211,-0.4688,4.0962,-0.3427
1730791.0,5.1619,0.3543,34.2754,-0.2512,4.6097,-0.655
1730801.0,3.8595,2.6528,34.9553,-0.3012,5.046,-0.804
1730811.0,2.241,4.8937,37.0048,-0.4156,5.2908,-0.7641
1730821.0,1.1109,6.9049,39.217,-0.5848,5.1312,-0.4922
1730831.0,-0.5459,7.6423,40.1172,-0.8375,4.6326,-0.0862
1730841.0,-0.498,6.9528,39.7533,-0.77,4.4591,0.3017
1730851.0,-0.431,6.2537,38.7956,-0.48,4.7518,0.5832
1730861.0,-0.7757,5.8227,38.6616,-0.1463,5.3169,0.7865
1730871.0,-1.6089,5.9855,39.5905,0.2863,5.9027,0.9674
1730881.0,-2.988,6.5697,42.3582,0.5662,6.2167,1.1802
1730891.0,-3.4477,6.8474,44.7333,0.671,6.1209,1.4622
1730901.0,-4.549,6.3494,46.2656,0.5566,5.5611,1.6953
1730911.0,-4.8746,4.9225,45.5377,0.3597,4.9417,1.8544
1730921.0,-4.798,3.6966,44.2353,0.4113,4.8284,1.8544
1730931.0,-4.8459,3.1603,43.4691,0.4204,5.145,1.7049
1730941.0,-5.3822,3.7828,44.1012,0.4704,5.5425,1.5447
1730951.0,-6.5314,4.6352,46.6295,0.3884,5.7128,1.4899
1730961.0,-7.2018,5.679,48.564,0.2166,5.4951,1.5277
1730971.0,-7.7381,6.043,51.3125,0.0357,4.9641,1.6474
1730981.0,-8.8394,6.0238,52.4905,-0.1479,3.9994,1.8161
1730991.0,-9.232,5.047,51.2359,-0.1389,3.1262,1.9651
1731001.0,-9.0692,4.0606,48.1618,0.0793,2.8191,1.9981
1731011.0,-8.9926,3.8211,45.327,0.2661,3.0011,1.939
1731021.0,-9.9503,3.5626,43.7564,0.1697,3.3332,1.8533
1731031.0,-10.1131,3.0646,43.9384,-0.0809,3.7663,1.7693
1731041.0,-10.6877,2.6528,46.6774,-0.2762,3.9978,1.641
1731051.0,-11.0804,2.3559,49.627,-0.3757,3.8339,1.5484
1731061.0,-11.1666,1.8771,51.0444,-0.39,3.6519,1.4122
1731071.0,-11.8848,1.7909,52.117,-0.4534,3.5125,1.2313
1731081.0,-12.8233,2.0782,52.1936,-0.7205,3.3278,1.0626
1731091.0,-13.3405,2.3367,54.607,-1.1573,3.1134,0.9174
1731101.0,-13.8864,3.2657,56.8862,-1.4495,2.834,0.8604
1731111.0,-14.5567,3.3423,60.9181,-1.4335,2.5685,0.9041
1731121.0,-14.6429,4.0606,65.0552,-0.944,1.9598,1.0711
1731131.0,-14.7674,4.2425,67.957,-0.5151,0.7418,1.2866
1731141.0,-14.2407,4.1084,66.7025,-0.216,-0.5981,1.4904
1731151.0,-13.8768,3.7637,64.0114,-0.2538,-1.7948,1.6378
1731161.0,-12.8904,3.2944,60.3243,-0.5018,-2.8574,1.7054
1731171.0,-12.1434,2.375,55.4306,-0.9429,-3.4917,1.7102
1731181.0,-11.5113,2.2601,51.6094,-1.5516,-3.7972,1.6602
1731191.0,-11.3964,1.9441,49.6557,-2.0508,-3.8461,1.6155
1731201.0,-10.8697,1.1875,49.062,-2.2232,-3.8706,1.6357
1731211.0,-10.41,0.5459,49.0237,-2.08,-3.9355,1.6378
1731221.0,-9.9024,-0.0958,48.1809,-1.7336,-3.9148,1.6485
1731231.0,-9.5481,-0.6129,47.501,-1.4133,-3.9206,1.6336
1731241.0,-8.5521,-1.3982,46.4571,-1.1557,-3.8956,1.5969
1731251.0,-7.2113,-1.9441,44.9152,-1.1121,-3.9355,1.4511
1731261.0,-6.4835,-2.3272,44.5513,-1.334,-4.0606,1.2388
1731271.0,-5.7365,-2.308,43.833,-1.6049,-4.1808,0.9972
1731281.0,-5.1044,-1.9632,43.9001,-1.7459,-4.1957,0.7726
1731291.0,-4.9321,-1.3024,43.5553,-1.8805,-4.2388,0.6125
1731301.0,-4.865,-0.9002,43.8043,-1.8885,-4.3835,0.5114
1731311.0,-4.865,-0.3639,43.3734,-1.7842,-4.4591,0.4832
1731321.0,-4.1946,-0.1915,42.6168,-1.6629,-4.5724,0.4741
1731331.0,-3.3998,0.2777,41.4101,-1.5506,-4.6006,0.4821
1731341.0,-2.7294,0.4788,40.7206,-1.532,-4.5469,0.513
1731351.0,-2.1261,0.6512,39.7246,-1.5064,-4.4362,0.6055
1731361.0,-1.6089,0.9577,39.3511,-1.566,-4.3085,0.7152
1731371.0,-1.1396,0.4788,39.466,-1.6293,-4.3527,0.8407
1731381.0,-0.4501,-0.0575,39.3415,-1.5006,-4.3458,0.9557
1731391.0,0.2394,-0.5842,38.8052,-1.3569,-4.2452,1.0179
1731401.0,0.7566,-1.4844,38.9489,-1.2334,-4.2175,1.0456
1731411.0,1.6376,-1.8866,38.0965,-1.2233,-4.1659,0.9988
1731421.0,1.8196,-2.5666,38.2498,-1.2851,-4.3213,0.9216
1731431.0,2.9592,-3.055,37.1197,-1.4202,-4.4442,0.8051
1731441.0,3.553,-2.9592,36.1333,-1.4473,-4.408,0.6838
1731451.0,4.0606,-3.0646,35.2139,-1.3968,-4.3229,0.5976
1731461.0,4.8363,-2.5762,34.1317,-1.2201,-4.1228,0.5561
1731471.0,5.1044,-2.6336,33.6816,-1.1653,-3.9515,0.5316
1731481.0,5.4396,-2.7869,32.791,-1.1254,-3.8392,0.5566
1731491.0,6.1675,-3.3615,32.3792,-1.0025,-3.6817,0.5454
1731501.0,7.0677,-4.1468,31.6897,-0.9232,-3.4577,0.4778
1731511.0,7.9583,-4.549,30.866,-0.8152,-3.305,0.3714
1731521.0,8.7915,-5.1332,30.1765,-0.7274,-3.0575,0.2277
1731531.0,9.1746,-5.0374,29.487,-0.6029,-2.8702,0.0894
1731541.0,9.4427,-4.7405,27.6195,-0.5486,-2.6254,-0.0564
1731551.0,9.8833,-4.0031,26.2309,-0.5837,-2.2333,-0.1687
1731561.0,9.8737,-3.5147,24.8518,-0.663,-1.7554,-0.1985
1731571.0,10.0556,-3.4381,24.2485,-0.7396,-1.16,-0.2059
1731581.0,10.3525,-4.0223,24.3921,-0.6465,-0.5209,-0.224
1731591.0,10.5345,-4.4628,25.5222,-0.4768,0.0692,-0.2442
1731601.0,10.6494,-4.7788,25.8478,-0.2219,0.53,-0.3092
1731611.0,10.6781,-4.6448,25.7425,0.0495,0.978,-0.3868
1731621.0,10.5824,-4.7309,25.8574,0.2581,1.4154,-0.4534
1731631.0,10.3813,-4.8459,25.6084,0.3406,1.8964,-0.5279
1731641.0,10.161,-4.6926,25.3402,0.3677,2.494,-0.6497
1731651.0,9.73,-4.3766,26.1638,0.2661,3.0996,-0.7732
1731661.0,9.2703,-4.1468,28.0409,0.1128,3.4124,-0.903
1731671.0,8.4372,-3.8116,30.052,0.1288,3.728,-0.9982
1731681.0,7.4891,-3.3998,31.728,0.2065,3.8929,-1.0217
1731691.0,6.5505,-3.0071,32.791,0.2618,3.8631,-1.0121
1731701.0,6.3973,-3.486,33.0208,0.357,3.969,-1.0334
1731711.0,6.3398,-3.6775,33.2411,0.4965,4.1803,-1.0786
1731721.0,5.8706,-3.6583,33.6529,0.6359,4.5911,-1.21
1731731.0,4.9704,-2.7294,34.1605,0.6465,4.9843,-1.309
1731741.0,4.1755,-1.6376,35.913,0.5587,5.1407,-1.3399
1731751.0,2.9401,-0.6608,37.7326,0.3198,5.0184,-1.2467
1731761.0,1.1684,-0.7278,39.1021,0.1644,4.5943,-1.0813
1731771.0,0.814,-1.561,38.652,0.1905,4.3447,-0.9535
1731781.0,0.7278,-2.7964,37.838,0.505,4.4926,-0.9264
1731791.0,1.0343,-3.5338,36.8037,0.7875,4.9231,-1.0312
1731801.0,0.5363,-3.4764,37.0048,1.0445,5.4855,-1.2031
1731811.0,-0.1341,-3.1029,38.4126,1.0328,5.9857,-1.3675
1731821.0,-0.996,-2.4708,40.893,0.861,6.1315,-1.4878
1731831.0,-2.6624,-2.0973,43.2967,0.8024,5.8708,-1.5176
1731841.0,-3.8978,-2.3176,44.2257,0.7998,5.5542,-1.525
1731851.0,-4.0606,-2.9113,44.1874,1.0977,5.5984,-1.6464
1731861.0,-4.2713,-3.122,44.3023,1.2994,5.8101,-1.8257
1731871.0,-4.6543,-2.9018,45.6431,1.4527,5.9942,-2.0545
1731881.0,-5.1619,-1.9824,47.2711,1.4942,5.9985,-2.2636
1731891.0,-5.7174,-0.7374,48.9279,1.3888,5.7128,-2.4376
1731901.0,-6.4739,0.6416,50.3165,1.16,5.2317,-2.4818
1731911.0,-7.7859,1.2833,50.7571,0.9791,4.7023,-2.4882
1731921.0,-8.3797,1.7813,50.1059,0.8732,4.4224,-2.5052
1731931.0,-9.0118,2.7007,49.809,0.8716,4.5107,-2.4882
1731941.0,-10.2185,3.3998,50.939,0.7998,4.5352,-2.4248
1731951.0,-10.5441,3.7924,53.8504,0.705,4.3298,-2.3046
1731961.0,-10.8314,3.9073,55.6508,0.6476,3.8243,-2.195
1731971.0,-11.0038,4.2425,57.2118,0.6167,3.1262,-2.0843
1731981.0,-11.2144,4.2042,57.1927,0.7003,2.4977,-1.9795
1731991.0,-11.4634,3.9935,56.0914,0.6274,1.9938,-1.9129
1732001.0,-11.655,4.4628,54.9996,0.5236,1.4724,-1.9007
1732011.0,-11.8082,4.9608,53.5727,0.0245,1.1158,-1.8411
1732021.0,-11.8274,5.296,53.5152,-0.3342,0.8977,-1.7405
1732031.0,-12.2296,4.7788,54.7123,-0.4746,0.7865,-1.6176
1732041.0,-11.9135,4.2138,56.0531,-0.3672,0.4911,-1.4974
1732051.0,-11.6741,3.8307,57.1735,-0.1687,0.0037,-1.4202
1732061.0,-11.4443,3.5338,57.5758,-0.0117,-0.5167,-1.3744
1732071.0,-11.5017,3.3232,57.1161,0.2363,-1.0993,-1.3601
1732081.0,-11.2432,3.3615,55.3923,0.2794,-1.541,-1.375
1732091.0,-10.6015,3.4572,53.8025,0.1261,-1.9507,-1.4026
1732101.0,-10.41,4.0031,53.113,-0.2065,-2.3769,-1.4181
1732121.0,-9.6726,4.4915,51.3221,-0.6678,-3.1666,-1.4149
1732131.0,-9.481,4.616,50.7571,-0.7577,-3.4939,-1.3649
1732141.0,-9.1937,4.4915,49.5504,-0.8344,-3.8248,-1.2978
1732151.0,-8.8681,3.9935,47.8553,-0.9328,-4.0973,-1.2233
1732161.0,-8.0541,3.7924,47.0413,-1.0977,-4.2814,-1.2382
1732171.0,-7.5465,3.3615,46.7635,-1.1531,-4.5182,-1.2622
1732181.0,-6.9145,3.5338,45.5856,-1.1632,-4.6384,-1.276
1732191.0,-6.2537,3.8978,45.4324,-0.9998,-4.714,-1.26
1732201.0,-6.1962,4.5203,44.4747,-0.7168,-4.8593,-1.1696
1732211.0,-5.6024,4.8459,42.5019,-0.4443,-4.9316,-1.0179
1732221.0,-5.2672,4.9225,41.1611,-0.3448,-4.8731,-0.8312
1732231.0,-4.6735,5.1427,39.7821,-0.4161,-4.7496,-0.6577
1732241.0,-4.0318,4.8459,39.1883,-0.555,-4.6677,-0.4635
1732251.0,-3.304,4.0031,38.5083,-0.5784,-4.5134,-0.3161
1732261.0,-2.4325,3.2753,38.5562,-0.5092,-4.2989,-0.2501
1732271.0,-1.8004,3.2561,38.834,-0.4438,-4.1861,-0.2272
1732281.0,-1.1205,3.7158,38.4413,-0.2065,-4.0611,-0.1458
1732291.0,-0.5459,3.869,38.3455,-0.0149,-3.911,-0.0154
1732301.0,0.3735,4.2138,37.4262,0.0649,-3.8493,0.1027
1732311.0,0.8715,4.0893,36.2482,-0.0681,-3.886,0.2176
1732321.0,1.4174,4.1468,35.4342,-0.3336,-3.8365,0.3416
1732331.0,1.7238,4.2234,34.0264,-0.5715,-3.7157,0.472
1732341.0,2.2984,3.237,33.6816,-0.7535,-3.4566,0.5901
1732351.0,3.1125,2.5187,34.1796,-0.6832,-3.156,0.6939
1732361.0,3.7637,1.3216,34.1413,-0.5507,-2.8745,0.7199
1732371.0,4.2138,0.4597,34.7925,-0.4081,-2.5696,0.6795
1732381.0,4.7501,0.0575,35.846,-0.2176,-2.4488,0.5928
1732391.0,5.3056,-0.2969,35.597,-0.2352,-2.5967,0.4645
1732401.0,5.9951,0.1724,33.8157,-0.4427,-2.7148,0.3134
1732411.0,6.1579,0.6225,32.4941,-0.8296,-2.726,0.2118
1732421.0,6.5888,0.8811,30.2723,-1.2074,-2.6026,0.1314
1732431.0,6.6367,1.0439,28.5389,-1.4553,-2.2013,0.0702
1732441.0,6.6942,1.4365,27.2364,-1.616,-1.4633,0.0362
1732451.0,6.5218,2.1548,27.562,-1.6613,-0.7391,0.0761
1732461.0,6.3782,2.4612,29.4678,-1.2978,-0.0037,0.2352
1732471.0,6.2728,2.4804,31.977,-0.7008,0.4305,0.4353
1732481.0,6.8666,2.5474,33.0113,-0.265,0.5092,0.6646
1732491.0,7.5178,2.1835,33.1262,-0.0516,0.4007,0.837
1732501.0,7.8147,1.7526,31.7758,-0.3193,0.1352,0.92
1732511.0,7.7285,1.1492,30.1478,-0.7396,-0.0436,0.9823
1732521.0,7.7285,0.7087,28.242,-1.0403,-0.041,0.9849
1732531.0,7.6423,0.4214,26.2883,-1.2271,0.215,1.0169
1732541.0,7.5369,0.0766,24.9188,-1.1893,0.7822,1.0147
1732551.0,7.106,0.0479,24.2389,-0.9466,1.5442,1.0594
1732561.0,6.6176,-0.3831,24.2581,-0.5741,2.4275,1.1403
1732571.0,6.5984,-0.8236,25.5797,-0.1144,3.3614,1.2143
1732581.0,6.608,-1.6951,27.4759,0.2251,3.936,1.2537
1732591.0,6.9432,-2.375,29.0081,0.3528,4.2287,1.1653
