time_ms,ax,ay,az,gx,gy,gz
2695741.0,-2.6528,0.8212,9.5624,0.1229,-0.1453,0.3656
2695751.0,-2.7773,1.4988,8.9926,0.1282,-0.0846,0.3469
2695761.0,-2.8587,1.9201,8.7819,-0.0043,-0.0351,0.3501
2695771.0,-2.9042,2.083,8.7867,-0.1926,0.0059,0.3757
2695781.0,-2.873,2.0494,9.0573,-0.3193,0.0793,0.4198
2695791.0,-2.8371,1.8483,9.4786,-0.398,0.1187,0.4651
2695801.0,-2.636,1.4389,9.5672,-0.4443,0.0873,0.5103
2695811.0,-2.5977,1.1157,9.4978,-0.4161,0.0692,0.53
2695821.0,-2.5738,1.075,9.2584,-0.3363,0.0947,0.5252
2695831.0,-2.7701,1.2689,9.3134,-0.2373,0.1916,0.5124
2695841.0,-3.0047,1.585,9.517,-0.174,0.265,0.5124
2695851.0,-0.723,1.0415,10.0173,-0.2017,0.2416,0.5273
2695861.0,-2.0375,1.0247,10.1706,-0.2756,0.2293,0.5337
2695871.0,-4.2856,0.5842,10.2448,-0.4214,0.1016,0.522
2695881.0,-4.0103,0.6033,9.5744,-0.4544,-0.0654,0.4709
2695891.0,-3.0335,0.5602,8.9711,-0.4108,-0.0708,0.4241
2695901.0,-2.5881,0.5363,8.995,-0.2698,0.0798,0.3863
2695911.0,-2.8156,0.7422,8.9663,-0.1117,0.191,0.3443
2695921.0,-3.0646,1.1109,8.8346,-0.0399,0.1969,0.3129
2695931.0,-3.3232,1.7621,8.6838,0.0415,0.2171,0.3171
2695941.0,-3.3208,2.2003,8.5186,0.124,0.273,0.3661
2695951.0,-3.3112,2.2889,8.7364,0.1282,0.3049,0.4486
2695961.0,-3.2896,2.1021,8.6886,0.1373,0.282,0.5358
2695971.0,-3.1699,2.1045,7.9799,0.1809,0.2517,0.597
2695981.0,-2.8036,2.2625,6.7062,0.1368,0.2251,0.6396
2695991.0,-2.2003,2.1021,5.794,0.0053,0.3155,0.6651
2696001.0,-2.0614,2.1117,5.5306,-0.1165,0.5507,0.646
2696011.0,-2.6695,2.5115,5.8347,-0.2256,0.8062,0.6114
2696021.0,-3.5075,2.9664,6.5793,-0.3177,1.0041,0.63
2696031.0,-4.0294,3.1675,7.8219,-0.332,1.152,0.7274
2696041.0,-4.4077,2.9568,8.9878,-0.2501,1.2052,0.8748
2696051.0,-4.6543,2.3008,9.2608,-0.1804,1.0717,1.0217
2696061.0,-4.458,1.8028,8.3629,-0.1745,0.8524,1.1366
2696071.0,-4.0031,1.7238,7.5968,-0.1133,0.8014,1.2451
2696081.0,-3.4453,1.0798,7.434,0.1687,0.9828,1.3383
2696091.0,-3.4237,0.7853,7.4579,0.6965,1.3196,1.375
2696101.0,-3.7733,0.9146,7.4867,1.1973,1.6517,1.3649
2696111.0,-4.3766,2.1907,7.1395,1.4112,1.8938,1.3404
2696121.0,-5.0613,3.1891,7.5274,1.1813,2.0587,1.3675
2696131.0,-5.8586,3.1436,8.8633,0.7152,2.1998,1.4793
2696141.0,-6.5841,1.8483,11.0253,0.1357,2.1731,1.6096
2696151.0,-6.8522,0.2873,12.5073,-0.3102,1.9342,1.7022
2696161.0,-6.4165,-0.6057,13.5129,-0.5098,1.6299,1.7214
2696171.0,-6.1794,-1.1492,13.1011,-0.3166,1.4452,1.665
2696181.0,-7.0916,-0.2969,11.8776,0.1197,1.5123,1.5484
2696191.0,-5.5522,-0.2969,11.497,0.4055,1.757,1.4149
2696201.0,-7.5298,0.2394,11.1785,0.2043,2.0438,1.2425
2696211.0,-8.0134,0.182,12.6677,-0.77,1.9944,0.9919
2696221.0,-6.6559,-0.7422,15.0715,-2.0337,1.6831,0.7274
2696231.0,-8.7963,-1.5155,18.318,-2.958,1.3846,0.5092
2696241.0,-9.5481,-2.1524,20.7697,-3.2576,0.9365,0.3374
2696251.0,-10.3046,-1.3336,21.2533,-3.0102,0.4108,0.207
2696261.0,-8.4156,-0.8045,21.7322,-2.535,-0.0931,0.1415
2696271.0,-9.4523,0.2035,20.5686,-1.9555,-0.5608,0.1687
2696281.0,-9.7779,-3.5003,18.1504,-1.5548,-1.0807,0.2192
2696291.0,-6.1292,-1.2258,13.6086,-1.8991,-1.516,0.1208
2696301.0,-7.9368,-2.4852,19.3835,-2.0944,-1.3617,-0.1368
2696311.0,-9.3015,-0.735,16.8217,-1.2733,-1.5782,-0.1836
2696321.0,-8.837,-1.324,17.2885,-0.9546,-1.9534,-0.1852
2696331.0,-8.3558,-0.5363,14.0109,-0.3991,-2.2939,-0.1804
2696341.0,-7.4723,-1.087,13.0412,-0.3661,-2.543,-0.2139
2696351.0,-6.8187,-0.103,9.7971,-0.0708,-2.5217,-0.2581
2696361.0,-6.6798,-0.3687,9.9575,-0.1282,-2.3264,-0.3033
2696371.0,-6.4212,0.1939,8.9328,-0.1038,-2.1737,-0.356
2696381.0,-6.1387,-0.1532,9.6247,-0.3464,-2.1481,-0.4289
2696391.0,-5.8754,-0.1891,9.1746,-0.4252,-2.1572,-0.4922
2696401.0,-5.5952,-0.7877,9.5337,-0.4619,-2.1114,-0.5502
2696411.0,-5.2385,-0.8667,8.983,-0.4299,-2.0981,-0.6423
2696421.0,-5.0494,-1.1851,9.0644,-0.5433,-2.0955,-0.7774
2696431.0,-4.7764,-1.0511,8.497,-0.6577,-2.0758,-0.9461
2696441.0,-4.8028,-1.3647,9.3757,-0.8934,-1.9917,-1.1297
2696451.0,-5.0326,-1.7885,10.8936,-1.0163,-1.9699,-1.3069
2696461.0,-5.102,-2.0375,11.9638,-0.903,-2.1141,-1.466
2696471.0,-5.0206,-1.8172,11.4634,-0.6024,-2.3887,-1.5979
2696481.0,-4.7884,-1.2641,9.9599,-0.2437,-2.6159,-1.69
2696491.0,-4.4317,-0.4573,8.509,0.0484,-2.7116,-1.7501
2696501.0,-4.4556,0.8068,6.9312,0.3219,-2.6712,-1.7533
2696511.0,-4.0342,1.8411,5.2864,0.4374,-2.5616,-1.7049
2696521.0,-3.146,2.6408,4.1396,0.2293,-2.4185,-1.6506
2696531.0,-2.3439,2.9257,3.8451,-0.2756,-2.2242,-1.6128
2696541.0,-1.9632,2.6504,4.774,-0.8876,-2.0295,-1.5942
2696551.0,-1.9417,2.0782,6.3518,-1.3431,-1.881,-1.5761
2696561.0,-1.8459,1.4509,7.7333,-1.5234,-1.8251,-1.5389
2696571.0,-1.652,0.9984,8.4851,-1.4979,-1.9183,-1.5016
2696581.0,-1.5251,0.7829,8.5952,-1.2191,-1.989,-1.4335
2696591.0,-1.1612,0.6009,8.3989,-0.7402,-1.9672,-1.3308
2696601.0,-0.5746,0.735,7.7237,-0.224,-1.9278,-1.2308
2696611.0,-0.2203,1.2594,6.9839,0.1522,-1.873,-1.1408
2696621.0,0.0503,1.9178,6.2896,0.3347,-1.7922,-1.0419
2696631.0,0.4094,2.3894,5.8634,0.3198,-1.7405,-0.9339
2696641.0,0.6728,2.6193,5.0973,0.199,-1.7171,-0.8093
2696651.0,0.8212,2.1883,4.4317,0.0149,-1.6437,-0.6651
2696661.0,1.3527,0.8164,4.3263,-0.1,-1.4473,-0.5284
2696671.0,2.1859,-1.0989,5.1116,-0.0905,-1.1653,-0.4656
2696681.0,2.806,-2.0303,5.6048,0.0325,-0.9376,-0.5268
2696691.0,3.3423,-1.6712,5.6503,-0.0149,-0.8466,-0.6806
2696701.0,2.873,-0.4405,6.0645,-0.1038,-0.7657,-0.8359
2696711.0,2.7054,0.8643,6.189,-0.1724,-0.6987,-0.8966
2696721.0,2.569,1.9704,6.3877,-0.2187,-0.6114,-0.8657
2696731.0,2.3559,2.2913,7.2856,-0.2618,-0.5353,-0.7561
2696741.0,2.5211,1.8699,7.6998,-0.2208,-0.5364,-0.5912
2696751.0,2.6815,0.8691,8.0876,-0.19,-0.6183,-0.4539
2696761.0,3.0957,0.2729,7.6638,-0.0851,-0.7295,-0.3629
2696771.0,3.383,0.0694,7.3263,0.0803,-0.7497,-0.3086
2696781.0,3.6344,0.6512,6.3614,0.3097,-0.7322,-0.2607
2696791.0,3.699,1.3336,5.1332,0.4677,-0.6753,-0.1926
2696801.0,3.9648,2.0279,3.6512,0.4454,-0.5976,-0.1075
2696811.0,4.1037,2.1668,2.5546,0.2176,-0.4459,-0.009
2696821.0,4.3718,2.2098,0.6225,-0.1937,-0.348,0.0761
2696831.0,5.4133,1.8124,-2.4445,-0.9206,-0.3704,0.1149
2696841.0,6.3231,1.0439,-5.7988,-1.756,-0.149,0.1277
2696851.0,7.7428,0.2945,-6.8905,-2.518,0.3725,0.091
2696861.0,7.9296,0.3136,-5.5186,-2.7085,1.1041,0.0442
2696871.0,7.3909,1.798,-3.893,-2.1678,1.6373,0.0463
2696881.0,7.1563,2.8826,-6.3159,-1.0541,1.8358,0.1219
2696891.0,8.588,3.8738,-12.2152,-0.0213,2.0476,0.1809
2696901.0,7.9272,6.0573,-16.6589,0.6162,2.966,0.1112
2696911.0,1.8914,10.1754,-16.994,0.596,4.2989,0.0399
2696921.0,-1.4269,13.7355,-13.4243,-0.0878,5.137,0.1958
2696931.0,-6.2034,17.8512,-11.2504,-0.4842,5.7873,0.6827
2696941.0,-12.4522,20.1616,-5.454,-0.5459,6.3832,1.591
2696951.0,-17.7386,20.4465,-3.1939,0.2176,6.8259,2.8894
2696961.0,-22.1559,12.5815,2.2721,1.1174,7.4533,4.2755
2696971.0,-24.3323,7.106,9.979,2.4099,7.9263,5.1971
2696981.0,-27.009,4.6998,12.0452,4.3686,8.4787,5.6542
2696991.0,-30.6649,2.1452,15.6293,5.236,9.1406,5.6383
2697001.0,-28.7855,2.5474,20.9134,4.4948,9.3748,5.12
2697011.0,-32.451,1.4796,26.1974,2.138,8.8363,4.2675
2697021.0,-24.6531,3.8188,32.0153,-1.2941,6.8643,3.1815
2697031.0,-19.1009,-5.3822,31.6178,-4.2628,5.41,2.7042
2697041.0,-25.3785,-10.8793,48.6286,-5.7979,4.3521,2.1189
2697051.0,-22.879,-6.6319,44.8434,-4.1936,1.9656,1.9592
2697061.0,-18.5263,-8.8514,38.8914,-2.5536,-0.0782,1.9662
2697071.0,-15.8352,-6.268,28.5317,-0.5135,-0.8865,1.9129
2697081.0,-14.5759,-4.6998,24.5023,0.4496,-1.1329,1.7996
2697091.0,-12.8832,-2.4181,17.9828,1.0738,-1.3569,1.7427
2697101.0,-11.6526,-2.1979,16.1202,0.8168,-1.3744,1.6841
2697111.0,-10.896,-1.889,14.7626,0.7162,-1.2122,1.6655
2697121.0,-10.3166,-2.6576,14.8632,0.6593,-1.0552,1.673
2697131.0,-9.7851,-3.2944,15.1649,0.6944,-0.9865,1.6304
2697141.0,-9.3063,-3.2681,13.9127,0.6029,-1.1589,1.4926
2697151.0,-8.6814,-3.2777,13.1561,0.265,-1.326,1.2659
2697161.0,-8.3462,-2.5642,12.0859,-0.0495,-1.3792,1.0068
2697171.0,-7.8458,-2.0375,11.5089,-0.4534,-1.4032,0.7407
2697181.0,-7.4795,-1.664,11.4299,-0.9445,-1.4889,0.473
2697191.0,-6.8881,-1.3096,11.6238,-1.2095,-1.5607,0.2607
2697201.0,-5.7748,-0.8212,10.8793,-1.1988,-1.5766,0.1256
2697211.0,-8.5138,0.0,12.0787,-1.3053,-1.5288,0.0181
2697221.0,-6.7995,0.6895,10.4076,-1.2388,-1.8592,0.0021
2697231.0,-5.1787,0.0383,9.0142,-1.1339,-1.9294,0.0266
2697241.0,-7.2425,0.8045,8.0804,-1.0568,-1.6533,0.0144
2697251.0,-5.6551,0.7374,8.5425,-1.2207,-1.5602,-0.0085
2697261.0,-5.2241,1.0942,8.5401,-1.3622,-1.4926,-0.0394
2697271.0,-5.1763,1.0104,9.5265,-1.4995,-1.383,-0.0511
2697281.0,-5.3343,0.6273,10.2807,-1.6001,-1.3899,-0.0458
2697291.0,-4.9775,-0.6081,11.0995,-1.7278,-1.5735,-0.0484
2697301.0,-4.3574,-1.8483,11.2288,-1.6682,-1.8044,-0.0873
2697311.0,-3.9409,-2.2649,11.0301,-1.3313,-1.9348,-0.1676
2697321.0,-3.7373,-1.3862,9.9168,-0.8168,-1.988,-0.2485
2697331.0,-3.7014,-0.1413,8.6814,-0.4124,-1.9805,-0.2905
2697341.0,-3.565,1.0104,7.7859,-0.2112,-1.9209,-0.2815
2697351.0,-3.3351,1.494,7.434,-0.207,-1.8321,-0.2347
2697361.0,-3.2274,1.6113,7.7069,-0.2996,-1.7352,-0.1783
2697371.0,-3.1987,1.4964,8.3917,-0.4129,-1.6687,-0.1155
2697381.0,-3.0263,0.8667,9.4786,-0.497,-1.6692,-0.0532
2697391.0,-2.8204,0.3089,10.2113,-0.481,-1.7613,-0.0117
2697401.0,-2.5833,-0.0886,10.7428,-0.3746,-1.9055,0.0117
2697411.0,-2.0997,-0.0838,10.0437,-0.157,-2.1072,0.0192
2697421.0,-1.913,0.407,8.9998,0.0404,-2.2141,0.025
2697431.0,-1.7526,1.008,8.2361,0.1846,-2.1843,0.0601
2697441.0,-1.7238,1.2881,7.6279,0.1932,-2.1689,0.1192
2697451.0,-1.4533,1.2881,6.9025,0.0521,-2.1955,0.1729
2697461.0,-1.1564,0.7638,6.6391,-0.1676,-2.1801,0.2097
2697471.0,-0.8188,-0.0718,6.7564,-0.3065,-2.0827,0.2261
2697481.0,-0.2658,-1.1516,7.4675,-0.3022,-1.9507,0.2022
2697491.0,0.2658,-1.3886,7.501,-0.1937,-1.9007,0.1149
2697501.0,0.4405,-0.7733,6.7852,-0.1607,-1.9151,0.0043
2697511.0,0.6656,0.0239,6.1699,-0.2629,-1.8975,-0.074
2697521.0,0.6153,0.7566,6.177,-0.3384,-1.7746,-0.091
2697531.0,0.6847,0.8835,6.1842,-0.3464,-1.6613,-0.0282
2697541.0,1.063,0.2921,6.6295,-0.3331,-1.5681,0.0639
2697551.0,1.3001,-0.1197,6.6726,-0.2416,-1.5176,0.1394
2697561.0,1.6616,-0.5698,6.4189,-0.1788,-1.5522,0.1846
2697571.0,2.1907,-0.577,5.2601,-0.0809,-1.5985,0.2038
2697581.0,2.4708,-0.6776,4.3263,0.0506,-1.4931,0.2235
2697591.0,2.818,-0.4334,3.5913,0.2107,-1.2723,0.2368
2697601.0,2.7725,-0.4741,3.4093,0.2607,-1.0413,0.2426
2697611.0,2.6887,-0.4094,3.0909,0.1979,-0.8939,0.2379
2697621.0,2.5283,-1.0343,2.8994,0.0,-0.8514,0.2219
2697631.0,2.7916,-1.9944,2.4062,-0.1086,-0.7928,0.1894
2697641.0,2.9904,-2.9185,2.4397,-0.009,-0.622,0.1325
2697651.0,4.4556,-2.9209,4.2473,0.4326,-0.3288,0.0793
2697661.0,-0.2586,-2.4469,2.8443,1.2537,-0.1543,0.1203
2697671.0,2.1763,-3.3016,2.32,1.6671,-0.489,0.1756
2697681.0,4.0055,-3.3375,-4.0151,2.4424,-0.3129,0.2639
2697691.0,1.5275,-3.7326,-5.7557,2.3184,0.2027,0.2203
2697701.0,3.8331,-4.5442,-8.8442,1.5506,0.2272,0.0708
2697711.0,3.1508,-5.3343,-11.6861,0.5747,0.4209,-0.1777
2697721.0,2.0111,-6.0238,-13.6254,-0.24,0.8423,-0.4534
2697731.0,0.6919,-6.4548,-15.5791,-0.5119,1.4101,-0.705
2697741.0,-1.0199,-5.4779,-18.0331,0.0287,2.427,-0.8945
2697751.0,-2.9185,-5.8131,-17.7578,0.9328,3.9541,-0.9759
2697761.0,-5.5091,-4.9129,-15.4354,1.757,5.3743,-1.1025
2697771.0,-9.2153,-3.7948,-9.9431,2.362,6.636,-1.2526
2697781.0,-13.0699,-3.3375,-1.9824,2.8154,7.5996,-1.4005
2697791.0,-15.1218,-3.6464,3.213,3.0863,7.7933,-1.6464
2697801.0,-15.275,-5.2002,6.6248,2.7814,7.4756,-2.0933
2697811.0,-16.4721,-6.3662,10.149,2.3072,7.3517,-2.7638
2697821.0,-19.7163,-4.8961,14.3676,1.9821,7.3283,-3.5588
2697831.0,-21.3419,-0.2251,17.4561,1.7671,7.1729,-4.3176
2697841.0,-25.582,5.3846,23.9971,1.4207,7.1399,-4.8188
2697851.0,-28.4216,10.6805,30.0688,1.1408,6.7743,-4.9141
2697861.0,-27.4399,13.5201,37.5435,0.7008,5.6963,-4.7177
2697871.0,-25.2852,16.3955,38.798,0.6832,4.1872,-4.2558
2697881.0,-23.5494,17.8847,40.3806,0.7689,2.8367,-3.5928
2697891.0,-22.2733,19.3451,37.735,0.9285,1.392,-2.8032
2697901.0,-20.3962,17.4011,35.767,0.8556,-0.0223,-1.9571
2697911.0,-17.2311,14.7076,29.3553,1.1472,-1.1057,-1.1637
2697921.0,-15.1529,11.1306,25.041,0.9913,-1.7975,-0.6529
2697931.0,-13.4889,7.7668,21.0307,0.9759,-2.137,-0.3448
2697941.0,-11.8082,4.2737,18.5359,1.077,-2.2274,-0.223
2697951.0,-10.999,1.6448,16.7834,1.3574,-2.1598,-0.2756
2697961.0,-9.4427,1.2833,14.1809,1.666,-2.1785,-0.4693
2697971.0,-8.2887,3.1723,10.8721,1.6288,-2.1716,-0.7391
2697981.0,-7.9487,5.5665,9.153,1.1031,-1.9369,-0.9514
2697991.0,-7.9679,6.7708,9.7851,0.2602,-1.6889,-1.0286
2698001.0,-8.0254,6.4093,10.7763,-0.6151,-1.6884,-0.9982
2698011.0,-7.3885,4.5777,11.5808,-1.2824,-1.8283,-0.919
2698021.0,-7.0749,2.8611,12.8257,-1.5043,-1.9028,-0.8705
2698031.0,-7.1012,2.2505,12.979,-1.1557,-1.9571,-0.8296
2698041.0,-6.754,0.984,11.1091,-0.6236,-2.0705,-0.7795
2698051.0,-5.9927,-0.079,11.6071,-0.3001,-2.0768,-0.8338
2698061.0,-5.7772,1.0104,9.596,0.1692,-2.072,-0.9456
2698071.0,-5.715,2.5666,8.6048,0.2421,-1.9715,-1.069
2698081.0,-5.8706,4.0318,8.655,-0.0543,-1.8464,-1.1451
2698091.0,-6.0908,4.6663,9.9216,-0.5598,-1.8459,-1.1478
2698101.0,-6.1699,4.4388,10.999,-0.9802,-1.9752,-1.0823
2698111.0,-6.0382,3.5793,12.1506,-1.1733,-2.17,-0.9897
2698121.0,-5.8873,3.1963,11.9183,-1.0419,-2.4259,-0.895
2698131.0,-5.5737,2.7773,10.975,-0.7513,-2.6042,-0.7982
2698141.0,-5.2648,2.7869,9.7564,-0.431,-2.6803,-0.7199
2698151.0,-4.8052,3.0047,8.3007,-0.2554,-2.7356,-0.6705
2698161.0,-4.2545,3.2872,7.1515,-0.2437,-2.6957,-0.6311
2698171.0,-3.8786,3.5195,6.845,-0.339,-2.5653,-0.5853
2698181.0,-3.4884,3.4357,6.9145,-0.4252,-2.4264,-0.5204
2698191.0,-3.0358,3.1292,6.8785,-0.5321,-2.3498,-0.4571
2698201.0,-2.5067,2.2027,6.8259,-0.7306,-2.3221,-0.4156
2698211.0,-2.2027,1.2737,7.7596,-0.9003,-2.2498,-0.4225
2698221.0,-1.9082,0.3759,7.8626,-0.8716,-2.2242,-0.4576
2698231.0,-1.221,-0.4764,8.2145,-0.8306,-2.2333,-0.5475
2698241.0,-0.9888,-0.182,7.7931,-0.7822,-2.2418,-0.6875
2698251.0,-1.1109,0.395,8.0732,-0.8391,-2.2615,-0.8221
2698261.0,-0.6919,0.9242,7.2281,-0.8439,-2.3333,-0.8908
2698271.0,-0.2801,1.2402,6.4093,-0.9163,-2.361,-0.9312
2698281.0,0.0168,1.6735,5.5905,-0.9546,-2.2546,-0.9355
2698291.0,0.0814,1.3288,6.3662,-0.9988,-2.0194,-0.9035
2698301.0,-0.0886,0.8739,7.944,-0.9237,-1.8603,-0.8636
2698311.0,-0.1604,0.1317,8.4755,-0.6923,-1.8863,-0.82
2698321.0,0.1413,0.1006,8.2361,-0.5523,-2.08,-0.8301
2698331.0,0.7398,0.6009,6.3135,-0.4315,-2.2439,-0.8631
2698341.0,1.2139,1.0008,5.0015,-0.4342,-2.1923,-0.8977
2698351.0,1.7813,1.1516,3.9097,-0.5502,-2.0401,-0.936
2698361.0,2.3248,1.0846,3.6559,-0.7838,-1.8741,-0.9998
2698371.0,2.8228,2.0662,3.1651,-1.003,-1.6974,-1.077
2698381.0,2.5067,2.9281,4.063,-1.1951,-1.4133,-1.0962
2698391.0,2.4541,3.4477,4.7429,-1.2489,-1.2212,-1.0248
2698401.0,2.7605,3.5698,4.391,-1.3585,-1.2542,-0.9243
2698411.0,3.2513,3.565,3.4022,-1.5564,-1.301,-0.821
2698421.0,3.6344,3.5027,3.1149,-1.6511,-1.1712,-0.6981
2698431.0,3.7637,3.7086,2.4038,-1.5618,-0.9796,-0.5475
2698441.0,3.7637,3.5243,2.49,-1.3643,-0.7184,-0.3448
2698451.0,3.9217,3.055,2.8036,-0.9605,-0.4443,-0.1059
2698461.0,4.537,3.0071,2.4181,-0.3794,-0.2166,0.1213
2698471.0,4.5011,3.6583,1.4485,0.1548,0.0537,0.3193
2698481.0,4.4317,4.7238,0.6752,0.4347,0.3054,0.5044
2698491.0,4.6208,6.0166,-1.0894,0.3852,0.4252,0.6742
2698501.0,7.6902,6.0094,-0.972,0.0133,0.588,0.8615
2698511.0,5.3415,6.7588,-1.4006,-0.3666,0.7189,1.0451
2698521.0,5.9089,6.5027,-1.7621,-0.9211,0.307,1.2111
2698531.0,5.0637,7.4627,-5.5617,-0.7588,-0.0122,1.3771
2698541.0,6.1627,8.8849,-12.1099,0.3331,0.2086,1.6203
2698551.0,0.2203,10.9104,-19.4601,1.375,1.3324,1.9933
2698561.0,-1.8962,11.3509,-21.9716,1.1808,2.3062,2.2615
2698571.0,-3.3567,13.8864,-29.0153,0.9488,3.3236,2.4839
2698581.0,-9.6175,15.7323,-24.8303,0.4369,5.7399,2.9234
2698591.0,-17.8248,15.6485,-12.5959,0.0873,7.7071,3.6801
2698601.0,-25.2205,11.8154,-1.719,0.6125,8.6979,4.7496
2698611.0,-30.1693,5.2672,12.1673,2.0848,9.5376,5.8953
2698621.0,-36.7678,1.4461,23.1232,4.9013,10.1969,6.7844
2698631.0,-31.7136,-3.4812,27.4256,7.7657,10.058,7.1026
2698641.0,-25.5342,-2.0782,26.5876,8.8421,9.9308,6.5689
2698651.0,-23.6547,-15.5312,22.2134,6.6275,9.3748,5.3179
2698661.0,-19.1273,-10.6734,39.1141,0.1421,7.9327,3.1432
2698671.0,-21.4808,-9.0477,48.904,-2.1178,6.4487,1.4495
2698681.0,-21.6508,-10.1323,52.7395,-2.9995,3.5109,0.3815
2698691.0,-14.9326,-5.873,37.0982,-3.2491,0.2613,-0.3954
2698701.0,-15.0332,-3.699,34.261,-3.7966,-1.1036,-1.035
2698711.0,-14.1066,4.6232,22.6898,-2.5057,-1.7006,-1.1446
2698721.0,-13.7355,5.6407,20.5638,-1.0988,-1.4755,-0.7748
2698731.0,-11.6167,8.0302,12.5193,1.0743,-0.7737,-0.1054
2698741.0,-10.8769,6.2297,14.0995,1.8842,0.0841,0.4491
2698751.0,-10.0748,6.9528,13.5943,2.121,0.505,0.8141
2698761.0,-10.8984,5.5689,19.8767,1.6325,0.6726,1.0648
2698771.0,-10.6949,6.177,18.9238,1.5256,0.1517,1.3053
2698781.0,-9.8569,4.1204,17.6405,0.7088,-0.7056,1.4452
2698791.0,-8.6479,3.4548,14.2383,-0.2405,-1.417,1.4399
2698801.0,-8.2313,1.8004,13.7331,-0.9222,-1.7166,1.3734
2698811.0,-7.6136,1.4988,10.6997,-0.7348,-1.7501,1.3223
2698821.0,-7.2281,1.4892,8.5688,-0.4667,-1.5618,1.2702
2698831.0,-6.9767,1.4581,7.8051,-0.282,-1.2212,1.2388
2698841.0,-6.4548,1.3216,8.1116,-0.1421,-0.9184,1.2106
2698851.0,-6.1794,1.3527,8.1235,0.0271,-0.6513,1.1781
2698861.0,-6.0406,1.2258,8.8777,0.0367,-0.4161,1.1254
2698871.0,-6.0669,1.324,9.4619,-0.1532,-0.364,1.0312
2698881.0,-5.9735,1.2761,10.2352,-0.4965,-0.4768,0.9142
2698891.0,-5.7604,1.4245,10.7643,-0.6997,-0.5789,0.8173
2698901.0,-6.0908,1.6712,11.3461,-0.6859,-0.6407,0.7668
2698911.0,-6.2513,2.0375,11.552,-0.4688,-0.7093,0.7843
2698921.0,-6.019,2.3343,11.0684,-0.2086,-0.8051,0.8461
2698931.0,-5.849,2.4157,10.4842,-0.1101,-0.8785,0.9094
2698941.0,-5.7269,2.3918,10.3501,-0.2256,-0.9339,0.9461
2698951.0,-5.7389,2.0877,10.422,-0.497,-1.0653,0.9482
2698961.0,-5.7988,1.4317,10.3382,-0.7673,-1.2489,0.9285
2698971.0,-5.533,0.8021,10.2711,-0.895,-1.4032,0.8817
2698981.0,-5.205,0.6177,9.6654,-0.803,-1.5011,0.8141
2698991.0,-4.8961,0.9673,8.5449,-0.6327,-1.5101,0.7434
2699001.0,-4.6998,1.4054,7.9871,-0.5688,-1.4293,0.6827
2699011.0,-4.391,1.8651,7.9559,-0.5965,-1.3111,0.6417
2699021.0,-4.3598,2.071,8.6479,-0.7162,-1.2079,0.6226
2699031.0,-4.4125,1.8531,9.8857,-0.8679,-1.177,0.6258
2699041.0,-4.3718,1.4437,11.224,-0.9876,-1.3042,0.6396
2699051.0,-4.276,1.1947,11.4395,-1.0174,-1.6006,0.6545
2699061.0,-4.13,1.0151,10.6925,-0.9504,-1.9161,0.6816
2699071.0,-3.8379,0.9673,9.3781,-0.7785,-2.105,0.7168
2699081.0,-3.5147,0.9481,8.3725,-0.555,-2.1173,0.7599
2699091.0,-3.2322,0.9673,8.0565,-0.3129,-2.005,0.8083
2699101.0,-3.1268,0.9122,8.0948,-0.1389,-1.9188,0.8556
2699111.0,-2.7414,0.668,8.2911,-0.066,-1.9374,0.8955
2699121.0,-2.2889,0.498,8.0852,-0.0527,-2.0263,0.9142
2699131.0,-1.9106,0.4549,7.616,-0.0809,-2.1125,0.9179
2699141.0,-1.5347,0.5531,6.7253,-0.1447,-2.1865,0.9131
2699151.0,-1.3862,0.5411,5.8131,-0.2762,-2.2487,0.911
2699161.0,-1.0894,0.2729,5.2122,-0.3624,-2.2296,0.9285
2699171.0,-0.7087,-0.2538,5.1236,-0.241,-2.0907,0.9706
2699181.0,-0.4812,-0.8643,5.1164,0.042,-1.9209,1.0115
2699191.0,-0.1628,-1.5562,5.521,0.3991,-1.7655,1.0382
2699201.0,0.0048,-2.0806,5.8778,0.7966,-1.6634,1.0334
2699211.0,0.2562,-1.9752,5.7221,1.1488,-1.6676,1.0009
2699221.0,0.644,-1.8435,4.7525,1.4048,-1.7496,0.9567
2699231.0,1.8316,-1.6448,2.6097,1.5032,-1.8182,0.9078
2699241.0,1.1779,-2.0183,1.5921,1.3627,-1.6836,0.8429
2699251.0,1.9968,-2.6576,0.8691,1.1659,-1.5703,0.7333
2699261.0,2.9137,-3.213,1.4581,1.168,-1.3675,0.5715
2699271.0,1.9345,-3.304,0.7326,1.5633,-1.0318,0.4427
2699281.0,1.9345,-3.644,-0.0359,1.8544,-0.8062,0.2852
2699291.0,2.8706,-3.5338,-1.6735,2.0119,-0.5843,0.0931
2699301.0,2.8204,-3.6583,-2.9401,1.8933,-0.2469,-0.125
2699311.0,2.6504,-3.9289,-3.6607,1.5548,0.1117,-0.4071
2699321.0,2.9712,-4.3048,-3.6224,1.1861,0.5247,-0.7327
2699331.0,2.3583,-4.628,-2.5283,1.0312,1.0935,-1.052
2699341.0,1.4772,-5.0015,-0.7518,1.0233,1.5633,-1.3702
2699351.0,0.7542,-4.9129,-0.1149,1.0302,1.7789,-1.7091
2699361.0,-0.1532,-4.0989,0.3711,0.9046,1.8911,-2.0561
2699371.0,-1.1708,-2.9616,-0.2131,0.7066,1.8986,-2.3599
2699381.0,-1.6951,-2.6217,-2.4397,0.3379,1.7874,-2.5988
2699391.0,-1.2234,-3.6057,-3.9816,-0.017,1.9869,-2.8101
2699401.0,-3.7852,-3.6895,-3.723,-0.0537,2.5962,-3.073
2699411.0,-5.3223,-2.7533,-3.8954,0.2437,3.1842,-3.3459
2699421.0,-7.2903,-1.2139,-3.2872,0.7247,3.8568,-3.5832
2699431.0,-9.8593,1.889,-4.4556,1.325,4.7161,-3.7397
2699441.0,-13.1298,2.5881,0.0359,1.4654,5.7894,-3.7972
2699451.0,-15.761,1.9465,5.1212,1.5229,6.5604,-3.8599
2699461.0,-18.5503,0.1006,10.0916,1.2558,6.926,-4.1223
2699471.0,-19.8599,-1.3024,15.2008,0.7109,7.1601,-4.5634
2699481.0,-22.9508,-1.8172,25.2277,-0.8445,7.1282,-5.1833
2699491.0,-26.5445,1.7813,37.4788,-2.0444,6.1267,-5.883
2699501.0,-25.4647,6.7421,42.8849,-1.6107,4.4235,-6.0996
2699511.0,-26.2644,13.1657,42.4588,-0.4677,2.8372,-5.7591
2699521.0,-25.1822,16.8384,40.3064,0.5204,1.2606,-5.0705
2699531.0,-22.7808,15.5527,35.0056,1.1584,-0.3065,-4.2255
2699541.0,-19.9724,10.4291,30.4183,1.3377,-1.5484,-3.588
2699551.0,-17.7961,8.09,28.084,1.8214,-2.2162,-3.2634
2699561.0,-16.0747,9.9192,22.5917,2.8585,-2.6739,-3.0054
2699571.0,-18.4784,13.0963,17.7674,3.24,-3.0756,-2.6999
2699581.0,-14.9255,15.2582,9.8593,2.8516,-3.6859,-2.311
2699591.0,-12.1793,15.4139,8.169,1.7113,-3.653,-1.9715
2699601.0,-12.9838,15.706,5.4109,0.9935,-3.14,-1.5096
2699611.0,-11.4443,15.0691,9.323,0.1916,-2.8165,-1.1446
2699621.0,-10.0437,13.2447,4.7716,0.1958,-2.8904,-0.6337
2699631.0,-7.1587,8.3558,4.9967,-0.3336,-2.577,-0.2176
2699641.0,-6.5218,5.2625,7.5154,-0.6087,-2.0476,-0.0979
2699651.0,-7.118,3.7014,10.8122,-0.5071,-1.8911,-0.1293
2699661.0,-6.9504,3.5506,10.1897,0.0537,-2.071,-0.125
2699671.0,-6.1387,3.7828,8.6718,0.5071,-2.2296,-0.1064
2699681.0,-5.5138,5.2361,6.3159,0.7615,-2.1721,-0.0931
2699691.0,-5.624,5.7868,6.0454,0.6226,-1.9326,-0.0431
2699701.0,-5.4971,5.2888,6.687,0.3927,-1.6778,0.0463
2699711.0,-5.2122,4.142,7.6351,0.0793,-1.5926,0.0846
2699721.0,-4.7405,4.2018,8.2672,-0.2363,-1.5958,0.058
2699731.0,-4.9512,3.8834,9.0333,-0.5816,-1.6288,0.0138
2699741.0,-3.8283,2.8132,9.3206,-0.9732,-1.7964,-0.0064
2699751.0,-3.9648,2.4708,10.0461,-1.2882,-1.9949,-0.132
2699761.0,-3.5961,2.7366,9.5744,-1.3329,-2.1183,-0.2549
2699771.0,-3.7996,2.9329,9.3709,-1.3345,-2.1982,-0.3469
2699781.0,-3.7062,2.9209,8.9687,-1.2776,-2.2668,-0.3906
2699791.0,-3.5147,2.9521,8.5329,-1.1478,-2.3056,-0.406
2699801.0,-3.3902,2.9042,7.8745,-0.9913,-2.3062,-0.4071
2699811.0,-2.8299,3.7637,6.7325,-0.8892,-2.2556,-0.3789
2699821.0,-2.3727,2.4948,6.6487,-1.0483,-2.1508,-0.3794
2699831.0,-1.1277,2.9353,4.7262,-1.4144,-2.1721,-0.505
2699841.0,-1.0942,2.8276,6.0334,-2.072,-2.0135,-0.6646
2699851.0,-1.4126,3.4165,6.8929,-2.5078,-1.8581,-0.7641
2699861.0,-2.5522,3.1891,10.2256,-2.7819,-1.8422,-0.7503
2699871.0,-2.8706,2.7845,12.2104,-2.3434,-1.9603,-0.5821
2699881.0,-2.6935,2.1835,12.8976,-1.342,-2.1508,-0.3283
2699891.0,-2.3463,2.0734,11.1546,-0.0686,-2.3035,-0.0399
2699901.0,-1.0726,1.6257,8.2408,0.8854,-2.3498,0.2182
2699911.0,-0.0479,2.387,5.6838,1.1973,-2.237,0.348
2699921.0,0.1053,3.2489,4.9584,0.9009,-1.9752,0.3826
2699931.0,-0.4908,3.7134,5.5929,0.2591,-1.7645,0.397
2699941.0,-1.1013,3.1891,7.6471,-0.473,-1.7469,0.4363
2699951.0,-1.0774,1.6712,9.5193,-0.8088,-1.8156,0.5114
2699961.0,-0.7853,0.3424,10.5848,-0.6838,-1.9236,0.5688
2699971.0,-0.4405,-0.2274,10.0628,-0.3235,-2.0875,0.5848
2699981.0,0.0934,-0.1915,8.4156,-0.0761,-2.2758,0.5619
2699991.0,0.589,0.4621,6.5362,-0.0569,-2.3578,0.5215
2700001.0,0.996,0.9816,5.6407,-0.1932,-2.2907,0.5002
2700011.0,1.3479,1.2139,5.1523,-0.2975,-2.1524,0.5087
2700021.0,1.8627,1.3551,4.4269,-0.4119,-2.0598,0.5263
2700031.0,2.15,1.2929,3.6105,-0.63,-2.0039,0.5465
2700041.0,2.5881,1.1756,2.6863,-0.9376,-1.9507,0.5646
2700051.0,2.818,1.6807,1.6376,-1.2819,-1.9241,0.5768
2700061.0,2.8108,1.8914,0.2418,-1.5431,-1.8193,0.629
2700071.0,3.4907,2.0518,-1.2713,-1.7049,-1.6075,0.7136
2700081.0,3.6847,2.0614,-1.4126,-1.707,-1.1962,0.8434
2700091.0,3.2753,1.7238,-0.0287,-1.3968,-0.6944,1.0334
2700101.0,2.7102,1.3503,1.6281,-0.7114,-0.3432,1.2728
2700111.0,2.6217,0.9768,1.9872,0.2857,-0.2081,1.5463
2700121.0,3.3016,0.7853,-0.1269,1.3175,-0.2788,1.7879
2700131.0,4.8818,1.1205,-5.0973,2.0428,-0.4135,1.9172
2700141.0,9.3518,1.0774,-12.8066,2.0071,-0.5289,1.8358
2700151.0,10.6542,1.6975,-21.294,0.8775,-0.3746,1.3814
2700161.0,10.0293,3.3088,-29.3936,-1.4048,-0.0011,0.6971
2700171.0,5.6838,5.2026,-31.8429,-3.9525,0.8886,0.0963
2700181.0,0.893,9.6127,-26.0082,-4.6453,2.5568,-0.0974
2700191.0,-7.7452,15.7802,-22.9939,-2.7106,4.6219,0.5369
2700201.0,-13.1298,18.6006,-16.9031,0.0106,6.5977,1.8283
2700211.0,-18.4521,15.9597,-10.4818,3.0416,8.4244,3.3177
2700221.0,-22.2302,8.4084,-2.7174,5.7005,10.3746,4.4926
2700231.0,-27.2077,1.5682,12.6701,7.4852,12.1891,4.8933
2700241.0,-31.0336,-0.2035,18.3587,8.6261,12.6707,4.5762
2700251.0,-20.3579,-5.6072,29.9443,7.1872,12.1577,3.5151
2700261.0,-26.5517,-1.3815,39.2649,4.6081,11.1621,1.9832
2700271.0,-23.6882,-0.3184,53.5822,1.2137,8.4968,0.7497
2700281.0,-25.4001,2.7294,53.3093,-0.3262,5.2445,0.1006
2700291.0,-19.9748,2.9592,47.6446,-0.8349,2.5419,-0.0873
2700301.0,-18.737,4.2066,38.7214,-1.1722,0.6886,-0.1623
2700311.0,-17.3268,4.4915,32.7048,-1.7129,-0.5193,-0.1538
2700321.0,-16.7474,4.7429,27.8158,-1.4819,-0.9743,0.058
2700331.0,-16.1537,4.6783,25.4767,-0.5188,-0.8514,0.4683
2700341.0,-14.9877,5.3917,22.8024,0.9285,-0.6178,0.9583
2700351.0,-13.4722,6.4572,20.0826,2.0486,-0.4688,1.4154
2700361.0,-12.1889,6.8666,18.0666,2.4062,-0.2964,1.8124
2700371.0,-11.552,5.6695,18.6341,1.9513,-0.2565,2.0731
2700381.0,-10.7811,3.8762,18.0164,1.1105,-0.6588,2.1375
2700391.0,-9.8952,1.3431,16.4075,0.1171,-1.202,2.0002
2700401.0,-8.4348,-0.9984,14.0803,-0.7886,-1.5484,1.6996
2700411.0,-7.1323,-1.4341,12.7515,-1.6277,-1.6932,1.2542
2700421.0,-7.1587,-1.1037,12.4211,-2.2615,-1.6809,0.8344
2700431.0,-7.6399,-0.9553,12.4283,-2.6185,-1.7171,0.5374
2700441.0,-6.7708,-0.8859,12.4331,-2.618,-1.798,0.3358
2700451.0,-6.2513,0.328,11.9782,-2.2429,-1.7443,0.215
2700461.0,-6.4356,1.64,12.0548,-1.666,-1.6464,0.2011
2700471.0,-6.28,2.7174,10.4363,-0.9876,-1.6426,0.3033
2700481.0,-5.5306,2.5307,8.904,-0.5571,-1.5649,0.4693
2700491.0,-4.7477,1.9178,8.0589,-0.4672,-1.3787,0.5773
2700501.0,-4.4029,1.0487,8.6407,-0.7311,-1.2654,0.5752
2700511.0,-4.1635,0.249,9.3948,-1.0435,-1.2702,0.5002
2700521.0,-3.7565,-0.1939,9.6989,-1.3015,-1.3697,0.3698
2700531.0,-3.5985,-0.2514,9.3326,-1.5729,-1.525,0.207
2700541.0,-3.4141,-0.1317,9.1435,-1.856,-1.6799,0.0431
2700551.0,-3.067,0.4286,8.6359,-1.9693,-1.7778,-0.0894
2700561.0,-2.8946,0.9673,8.0996,-1.9002,-1.7831,-0.1602
2700571.0,-2.6288,1.4437,7.5298,-1.6746,-1.673,-0.1607
2700581.0,-2.4373,1.5251,7.5824,-1.4181,-1.4931,-0.1027
2700591.0,-2.1069,1.561,8.0732,-1.1818,-1.3457,-0.0202
2700601.0,-1.7262,1.2641,8.6335,-0.9716,-1.2717,0.074
2700611.0,-1.4676,0.7183,9.232,-0.795,-1.2744,0.1506
2700621.0,-1.2282,0.5866,8.6981,-0.6699,-1.392,0.1793
2700631.0,-1.257,0.431,8.5665,-0.6417,-1.3931,0.1985
2700641.0,-1.3192,0.2346,9.0118,-0.6689,-1.3659,0.2043
2700651.0,-1.4653,0.2011,9.6103,-0.6673,-1.4681,0.1985
2700661.0,-1.391,0.2705,9.0166,-0.5034,-1.5687,0.2224
2700671.0,-1.0534,-0.1006,8.5162,-0.3475,-1.5974,0.2522
2700681.0,-0.7278,-0.1508,7.8769,-0.2575,-1.5836,0.2469
2700691.0,-0.7829,0.1652,7.4148,-0.3629,-1.599,0.2065
2700701.0,-0.8547,0.4501,6.9288,-0.5965,-1.6618,0.1767
2700711.0,-0.7733,0.3807,6.7612,-0.8312,-1.715,0.1735
2700721.0,-0.9146,0.3519,6.6607,-0.8785,-1.6751,0.2043
2700731.0,-1.0894,0.1676,7.2496,-0.7402,-1.5788,0.2799
2700741.0,-1.0511,-0.2251,7.6926,-0.3704,-1.4984,0.3916
2700751.0,-0.7901,-0.5722,7.2401,0.0287,-1.5075,0.489
2700761.0,-0.3376,-0.9912,6.3614,0.2139,-1.5453,0.538
2700771.0,0.1556,-1.1732,5.794,0.158,-1.566,0.5252
2700781.0,0.5291,-1.221,5.1715,-0.0239,-1.615,0.4704
2700791.0,0.9361,-1.3431,4.2377,-0.248,-1.6687,0.4108
2700801.0,1.2929,-1.4222,3.8092,-0.397,-1.5921,0.3597
2700811.0,1.245,-1.5036,3.7804,-0.3975,-1.442,0.3299
2700821.0,1.5682,-1.6999,3.2585,-0.3315,-1.3888,0.3219
2700831.0,2.2003,-1.9225,2.1763,-0.2368,-1.3489,0.3145
2700841.0,2.6121,-1.8244,1.0463,-0.1527,-1.1882,0.2884
2700851.0,2.4684,-1.7526,0.6273,-0.1352,-0.9477,0.2549
2700861.0,2.5355,-2.0111,1.0032,-0.0479,-0.6965,0.2453
2700871.0,2.9736,-2.4038,1.7262,0.2836,-0.4166,0.2575
2700881.0,3.5362,-2.6935,2.2745,0.8626,-0.1708,0.2559
2700891.0,4.5131,-3.0239,2.083,1.5751,0.049,0.2363
2700901.0,5.0566,-3.1795,1.3455,2.1157,0.2214,0.1442
2700911.0,5.1571,-2.229,0.0311,2.2711,0.2341,-0.0346
2700921.0,5.0901,-1.336,-2.5546,2.1194,0.1538,-0.2565
2700931.0,4.9799,-0.1676,-6.8474,1.6942,0.1197,-0.5156
2700941.0,5.0111,1.4509,-11.6981,1.0153,0.3975,-0.7716
2700951.0,4.8195,3.3327,-15.0428,0.1713,1.0616,-0.9823
2700961.0,5.0111,4.9105,-15.4282,-0.5247,2.0992,-1.052
2700971.0,0.3639,7.3765,-13.3022,-0.738,3.2549,-0.9504
2700981.0,-1.7406,8.8059,-11.9207,-0.6029,3.9233,-0.5805
2700991.0,-4.3814,8.588,-11.0852,0.1948,4.8071,-0.0122
2701001.0,-8.6694,6.9192,-6.5505,1.5511,6.2151,0.6444
2701011.0,-12.5959,4.628,0.893,3.1911,7.5012,1.2143
2701021.0,-16.8935,1.7166,10.0892,4.9242,8.3132,1.5463
2701031.0,-20.5039,0.0431,13.3525,6.5311,8.5457,1.607
2701041.0,-16.7594,0.5459,16.0795,6.6307,8.2515,1.1089
2701051.0,-18.986,1.1037,16.9055,5.0093,7.8721,0.3129
2701061.0,-15.6006,2.8946,21.8351,1.7868,6.8456,-0.6753
2701071.0,-21.6771,0.395,28.8693,-1.433,5.9373,-1.358
2701081.0,-20.2071,0.9409,34.7638,-3.1943,4.9215,-1.9241
2701091.0,-22.0027,1.9537,38.47,-3.4603,3.9137,-2.1556
2701101.0,-20.6787,2.3535,40.0071,-2.8479,2.6111,-2.0476
2701111.0,-19.235,3.7445,39.1596,-1.3819,1.508,-1.7826
2701121.0,-18.488,6.5098,36.5499,0.5821,0.6188,-1.4298
2701131.0,-16.3189,8.6622,30.1885,2.304,-0.3166,-0.9759
2701141.0,-13.5799,8.667,23.0107,2.8872,-1.1451,-0.6295
2701151.0,-10.9702,6.6367,17.4058,2.3908,-1.5697,-0.5188
2701161.0,-8.9495,6.1962,15.2439,1.3234,-1.6304,-0.6896
2701171.0,-10.0078,7.4364,17.8248,0.5811,-1.4,-0.886
2701181.0,-10.7093,9.2799,15.943,0.6566,-1.5117,-0.8088
2701191.0,-9.5553,8.7125,13.0053,0.4198,-1.9433,-0.58
2701201.0,-7.6447,7.8051,10.6207,-0.0825,-2.1269,-0.3868
2701211.0,-6.8714,6.3231,9.4691,-0.3666,-1.9518,-0.2533
2701221.0,-5.7868,5.1356,9.007,-0.5247,-1.7437,-0.1687
2701231.0,-5.0637,4.2713,9.0309,-0.6566,-1.6426,-0.1362
2701241.0,-1.6376,3.3495,9.3518,-0.6247,-1.6011,-0.1293
2701251.0,-4.7381,4.3479,7.5322,-0.5396,-1.4782,-0.1426
2701261.0,-4.2569,4.027,8.4013,-0.8716,-1.508,-0.1777
2701271.0,-3.948,4.2473,7.4819,-0.9371,-1.5415,-0.1905
2701281.0,-3.9744,3.9025,7.3502,-0.9046,-1.4197,-0.1809
2701291.0,-3.5674,3.541,7.0629,-0.7817,-1.2207,-0.1671
2701301.0,-3.7924,3.0742,8.7029,-0.7833,-1.0664,-0.1884
2701311.0,-3.7158,3.1867,9.2799,-0.7322,-1.1573,-0.2267
2701321.0,-3.5267,3.6105,9.1411,-0.6886,-1.3574,-0.2549
2701331.0,-3.316,4.5514,7.9918,-0.6369,-1.5027,-0.2437
2701341.0,-3.201,5.1404,7.3095,-0.7327,-1.5745,-0.1884
2701351.0,-3.0598,5.4229,6.7229,-0.9046,-1.6384,-0.0899
2701361.0,-2.7749,4.8171,6.8618,-1.061,-1.6293,0.0431
2701371.0,-2.4301,3.8978,6.9767,-1.151,-1.6336,0.1575
2701381.0,-2.3439,2.6791,7.2209,-1.2563,-1.7102,0.2192
2701391.0,-1.8723,1.1588,7.6974,-1.2936,-1.8092,0.2299
2701401.0,-1.2378,0.1197,7.9057,-1.1419,-1.9316,0.1735
2701411.0,0.34,0.5626,8.2025,-0.8008,-2.0183,0.0772
2701421.0,-2.7054,1.6161,6.4476,-0.3203,-2.0295,0.0277
2701431.0,-0.4501,2.4684,5.2696,-0.2315,-2.2226,0.0122
2701441.0,-0.7302,3.8762,3.2777,-0.1064,-2.0848,0.0495
2701451.0,-1.3192,4.3694,3.8283,-0.1948,-1.8299,0.1564
2701461.0,-1.415,4.2928,3.7852,-0.2139,-1.673,0.3278
2701471.0,-1.0127,2.4684,4.9799,-0.2022,-1.4952,0.5066
2701481.0,-0.3496,0.9673,5.3822,-0.0798,-1.3431,0.5986
2701491.0,-0.0934,-0.3998,6.4691,-0.083,-1.318,0.5651
2701501.0,0.1652,-0.5578,6.7876,0.0165,-1.3899,0.4677
2701511.0,0.1341,-0.4836,6.8761,0.2852,-1.4048,0.3895
2701521.0,0.4405,0.1245,6.1244,0.7215,-1.3133,0.3512
2701531.0,0.237,0.8787,5.6192,0.9684,-1.1478,0.3363
2701541.0,-0.0287,1.2306,5.7006,0.8407,-1.0924,0.3326
2701551.0,0.2418,0.5435,5.6862,0.5209,-1.1781,0.3342
2701561.0,0.8811,-0.2538,4.4149,0.2027,-1.2957,0.2884
2701571.0,2.2865,-0.5531,3.3447,-0.1373,-1.2728,0.1767
2701581.0,1.3982,-0.2729,4.0869,-0.3299,-0.9679,0.042
2701591.0,1.0965,-0.2873,3.0311,-0.364,-0.7934,-0.0271
2701601.0,2.217,-1.4676,3.7781,-0.6071,-0.704,-0.1144
2701611.0,2.4349,-1.3958,3.1915,-0.572,-0.4539,-0.2421
2701621.0,2.2075,-1.8699,4.118,-0.6343,-0.2368,-0.4039
2701631.0,2.3942,-1.8076,4.0821,-0.6492,-0.1756,-0.5859
2701641.0,2.5498,-1.6855,4.2689,-0.6582,-0.1532,-0.787
2701651.0,2.2458,-0.9553,4.3,-0.4832,-0.0654,-0.9684
2701661.0,1.7933,0.3711,4.6088,-0.1064,0.0106,-1.0892
2701671.0,2.0135,1.1205,3.5338,0.5374,0.0745,-1.1041
2701681.0,2.0638,1.7645,1.7909,1.1281,0.2277,-1.0632
2701691.0,1.9728,2.9401,0.7997,1.4931,0.4523,-1.0504
2701701.0,2.1476,5.4755,-1.6424,1.574,0.4741,-1.0419
2701711.0,2.2984,7.9464,-7.762,1.3617,0.4337,-0.9573
2701721.0,3.9528,8.7652,-14.2359,0.5678,0.7045,-0.7811
2701731.0,-2.9473,8.0876,-16.7929,-0.6167,1.7757,-0.5635
2701741.0,-2.0039,8.4563,-16.3117,-1.5101,2.6664,-0.398
2701751.0,-5.1116,7.7117,-16.0076,-0.8157,4.3591,0.0101
2701761.0,-8.4731,5.3319,-8.8705,0.5529,6.5492,0.4608
2701771.0,-12.4211,5.964,-2.5546,1.8454,7.995,0.7471
2701781.0,-21.2821,8.3653,6.4141,2.6957,8.8767,0.9498
2701791.0,-19.6564,8.6095,12.0261,3.5088,8.9757,1.3095
2701801.0,-18.8017,6.7924,19.077,4.1718,9.0406,1.5814
2701811.0,-22.9101,5.5474,24.6842,4.8241,9.1332,1.7283
2701821.0,-21.1408,0.2059,34.5364,4.3819,8.1722,1.5862
2701831.0,-18.148,-1.7382,36.581,3.8892,6.305,1.0488
2701841.0,-15.8376,-3.1843,35.4869,2.8,4.2564,0.2171
2701851.0,-14.6118,-1.0894,29.1901,0.9903,2.2631,-0.845
2701861.0,-14.7746,2.6552,24.7297,-1.5782,0.5864,-1.8768
2701871.0,-14.3963,7.1371,20.2071,-3.3853,-0.307,-2.4573
2701881.0,-14.5328,10.1179,19.1536,-3.9291,-0.3038,-2.4791
2701891.0,-14.1785,11.9279,17.0922,-3.19,0.1261,-1.9938
2701901.0,-13.6565,11.0708,19.2709,-2.3966,0.5444,-1.2664
2701911.0,-13.5225,9.7348,21.5694,-1.2744,0.5832,-0.4938
2701921.0,-12.7132,7.367,21.0833,0.0234,0.1277,0.2363
2701931.0,-10.9511,5.023,17.4561,1.1206,-0.3485,0.7769
2701941.0,-9.3422,3.4381,14.2886,1.5969,-0.5598,1.0169
2701951.0,-8.3941,2.7509,11.5185,1.4878,-0.6641,1.0254
2701961.0,-7.6543,1.415,10.7452,0.9982,-0.5997,0.9152
2701971.0,-7.039,0.3903,10.5058,0.4177,-0.5204,0.7109
2701981.0,-6.8402,-0.2969,11.0732,-0.2432,-0.5736,0.4347
2701991.0,-6.7756,0.2011,11.1091,-0.7567,-0.7152,0.1681
2702001.0,-6.8354,0.5171,11.1378,-1.0568,-0.8631,-0.0192
2702011.0,-5.8107,1.0343,10.6757,-1.0637,-0.9647,-0.1128
2702021.0,-7.0797,1.2617,10.5201,-0.8157,-0.8849,-0.1309
2702031.0,-6.7253,1.1516,10.5345,-0.4401,-0.837,-0.1144
2702041.0,-6.2728,1.3264,10.2185,0.0,-0.8264,-0.1213
2702051.0,-6.0837,2.0949,9.7013,0.4289,-0.713,-0.1394
2702061.0,-6.1603,3.1005,9.3805,0.572,-0.6284,-0.1634
2702071.0,-6.3087,3.7134,9.8354,0.3304,-0.6779,-0.19
2702081.0,-6.3853,3.9792,10.07,-0.0692,-0.8418,-0.2102
2702091.0,-6.4787,3.6799,10.5919,-0.4704,-1.0552,-0.2267
2702101.0,-6.505,3.5602,10.2975,-0.6497,-1.2675,-0.2368
2702111.0,-6.3566,3.0023,9.7588,-0.6768,-1.4122,-0.2389
2702121.0,-5.8706,2.8156,9.0333,-0.5667,-1.4755,-0.2655
2702131.0,-5.8203,3.2825,8.1547,-0.4268,-1.4649,-0.3102
2702141.0,-5.5833,3.7709,7.6136,-0.3741,-1.434,-0.332
2702151.0,-4.9321,4.0414,7.5896,-0.3916,-1.3691,-0.3421
2702161.0,-6.2273,5.2026,7.252,-0.4981,-1.3053,-0.3166
2702171.0,-5.3558,4.8459,7.6327,-0.7881,-1.4293,-0.2426
2702181.0,-4.8866,4.5562,6.8714,-0.8806,-1.4718,-0.1442
2702191.0,-4.6088,3.4931,7.1587,-0.9349,-1.3846,-0.0644
2702201.0,-4.4772,2.5163,7.6734,-0.8583,-1.2696,-0.0271
2702211.0,-4.4676,1.8411,8.6119,-0.7386,-1.235,-0.0511
2702221.0,-4.1492,2.1572,8.2863,-0.5119,-1.2616,-0.1011
2702231.0,-4.1204,2.4732,8.1786,-0.4204,-1.2425,-0.1474
2702241.0,-4.0055,2.7653,8.1331,-0.4624,-1.2313,-0.1767
2702251.0,-3.9816,2.6073,8.2241,-0.6353,-1.2952,-0.2033
2702261.0,-3.6583,2.2434,8.0206,-0.8083,-1.416,-0.232
2702271.0,-3.3327,1.9273,8.0948,-0.8274,-1.4223,-0.2708
2702281.0,-3.2777,2.6863,7.6734,-0.688,-1.3707,-0.3049
2702291.0,-3.4644,3.4405,7.3478,-0.6071,-1.3569,-0.298
2702301.0,-3.2441,3.7254,6.4548,-0.6008,-1.3744,-0.248
2702311.0,-2.9999,3.5721,5.8586,-0.6721,-1.3202,-0.1916
2702321.0,-2.7892,3.1388,5.703,-0.7221,-1.1637,-0.1421
2702331.0,-2.7342,2.0614,6.5218,-0.7141,-0.9642,-0.1112
2702341.0,-2.4205,1.4006,7.5681,-0.572,-0.7907,-0.1277
2702351.0,-2.6408,0.7925,8.8178,-0.3964,-0.7136,-0.1761
2702361.0,-2.6671,0.4908,9.56,-0.2155,-0.7838,-0.241
2702371.0,-2.557,0.6871,9.5433,-0.0761,-0.9919,-0.3257
2702381.0,-2.4421,1.3264,8.2313,0.0479,-1.201,-0.3922
2702391.0,-2.0087,1.9704,6.6702,0.0559,-1.3383,-0.4321
2702401.0,-1.5155,2.5402,5.1499,0.0053,-1.3271,-0.4406
2702411.0,-1.2234,2.8204,4.2353,-0.0761,-1.1568,-0.4177
2702421.0,-1.2186,2.9904,3.6009,-0.2879,-1.0142,-0.3842
2702431.0,-0.0215,2.7557,3.0478,-0.6497,-0.9977,-0.348
2702441.0,-1.64,3.3423,2.9856,-0.9328,-0.9158,-0.3049
2702451.0,-1.0654,4.0127,-0.5507,-1.1222,-1.0504,-0.1596
2702461.0,0.5986,3.3998,-3.5458,-1.4229,-1.1696,0.0255
2702471.0,1.7142,4.3335,-8.4348,-1.1339,-0.6641,0.2677
2702481.0,2.6624,3.644,-8.8538,-0.5779,0.1979,0.5875
2702491.0,1.3862,4.6519,-13.1681,0.7471,1.0972,0.9796
2702501.0,-0.2059,4.2808,-17.0922,1.8645,2.1428,1.4026
2702511.0,-2.7366,3.1196,-17.8488,2.8676,3.9243,1.7698
2702521.0,-6.7516,0.5555,-9.7636,3.6992,6.1651,1.9715
2702531.0,-12.4762,-2.15,0.6752,4.2596,7.7364,1.8768
2702541.0,-14.1904,-2.5762,5.0805,4.1143,7.8737,1.3973
2702551.0,-11.1306,-1.2258,11.5592,2.4349,7.6097,0.7136
2702561.0,-16.745,-1.0127,17.8871,0.0942,7.2857,0.1527
2702571.0,-16.6972,-3.4381,29.1015,-2.4307,6.098,-0.4337
2702581.0,-16.6565,-1.6113,35.6928,-3.2193,4.7342,-0.8902
2702591.0,-19.7282,0.0215,37.3352,-2.4254,3.3491,-0.9812
2702601.0,-18.6077,1.731,36.1812,-1.0653,1.8879,-0.8429
2702611.0,-16.9533,3.4668,31.3066,0.4667,0.7364,-0.6268
2702621.0,-15.4665,4.1372,27.076,1.558,-0.0085,-0.4353
2702631.0,-13.6302,3.2058,21.4281,2.0231,-0.6534,-0.3469
2702641.0,-10.4387,2.2386,17.3963,1.6299,-1.1728,-0.4938
2702651.0,-9.6845,3.0742,15.2463,1.0605,-1.2877,-0.7944
2702661.0,-9.3541,4.3598,13.4003,0.6385,-1.2819,-1.0105
2702671.0,-8.7771,5.3439,12.2511,0.174,-1.3377,-1.1137
2702681.0,-8.2744,6.268,10.3262,-0.2208,-1.4149,-1.1079
2702691.0,-8.1882,5.9448,10.3669,-0.5726,-1.383,-0.9897
2702701.0,-7.5824,5.3654,10.4028,-0.5273,-1.3149,-0.7843
2702711.0,-7.4124,4.6783,10.2328,-0.1538,-1.3207,-0.5523
2702721.0,-5.8371,4.1132,7.1108,0.3767,-1.3979,-0.3177
2702731.0,-4.7405,3.7589,5.1715,0.4635,-1.2994,-0.2059
2702741.0,-4.3479,4.2401,4.1084,0.3203,-1.0541,-0.1729
2702751.0,-4.2018,4.4772,3.8188,0.0899,-0.8014,-0.1357
2702761.0,-3.9241,4.1587,4.1659,-0.1389,-0.5087,-0.0873
2702771.0,-4.276,3.5626,5.964,-0.3374,-0.183,-0.0521
2702781.0,-4.7525,2.5762,8.418,-0.4496,-0.0654,-0.0341
2702791.0,-4.774,1.8555,9.426,-0.3533,-0.1921,-0.0383
2702801.0,-4.616,1.2234,9.5217,-0.1841,-0.3592,-0.0713
2702811.0,-4.4724,1.2378,8.6957,-0.0527,-0.4911,-0.1501
2702821.0,-4.5753,1.5323,8.157,-0.067,-0.5864,-0.2565
2702831.0,-4.4819,2.4684,6.7876,-0.1341,-0.6566,-0.3528
2702841.0,-4.6663,3.3902,5.9544,-0.339,-0.6226,-0.4188
2702851.0,-4.8507,3.8307,5.7868,-0.5353,-0.472,-0.4156
2702861.0,-4.9919,3.7661,6.3111,-0.7003,-0.3118,-0.3714
2702871.0,-5.3271,3.3399,7.106,-0.8258,-0.2054,-0.3134
2702881.0,-5.5378,2.3535,8.6359,-0.8381,-0.1362,-0.2522
2702891.0,-5.4372,1.5467,9.3757,-0.647,-0.1777,-0.2219
2702901.0,-5.3965,1.1396,9.5265,-0.4326,-0.2852,-0.2426
2702911.0,-5.2433,1.1756,9.7564,-0.281,-0.3986,-0.3049
2702921.0,-5.284,1.8435,9.9479,-0.1447,-0.5124,-0.373
2702931.0,-5.3965,2.885,9.4308,-0.066,-0.6832,-0.4076
2702941.0,-5.2601,3.893,8.2361,-0.183,-0.911,-0.3991
2702951.0,-5.1284,4.0989,7.5776,-0.4347,-1.0594,-0.3443
2702961.0,-4.8602,3.7637,6.7325,-0.6002,-1.1217,-0.2565
2702971.0,-4.4484,2.6863,6.3135,-0.6896,-1.1302,-0.1703
2702981.0,-3.984,1.5012,6.0693,-0.6306,-1.0664,-0.1219
2702991.0,-3.5243,0.34,6.4093,-0.431,-0.9424,-0.1256
2703001.0,-3.3615,-0.0503,6.9935,-0.1059,-0.8418,-0.1857
2703011.0,-3.5554,0.0455,7.7452,0.2661,-0.8024,-0.2618
2703021.0,-3.4644,0.5459,7.774,0.6268,-0.9051,-0.3299
2703031.0,-3.0909,1.2043,6.857,0.8189,-1.1047,-0.397
2703041.0,-2.7509,2.1883,5.5976,0.8333,-1.2627,-0.4613
2703051.0,-2.5402,3.1723,4.3167,0.7444,-1.3095,-0.489
2703061.0,-2.2697,3.6368,3.6464,0.6066,-1.2489,-0.4672
2703071.0,-1.8986,3.5745,3.3662,0.4991,-1.0951,-0.4156
2703081.0,-1.8148,3.3255,3.6871,0.4129,-0.9147,-0.3735
2703091.0,-1.9154,3.395,3.9935,0.3038,-0.82,-0.3443
2703101.0,-1.901,3.1556,4.4436,0.2065,-0.7657,-0.3017
2703111.0,-1.64,2.8802,4.6663,0.1969,-0.7066,-0.2559
2703121.0,-1.561,2.4325,5.2433,0.2528,-0.6151,-0.2182
2703131.0,-1.6185,2.2146,5.6623,0.389,-0.5263,-0.1916
2703141.0,-1.652,1.9465,6.0549,0.5257,-0.5076,-0.1799
2703151.0,-1.6855,1.7023,6.2872,0.7056,-0.4874,-0.1735
2703161.0,-1.6424,1.3072,7.1611,0.9184,-0.4198,-0.1809
2703171.0,-1.5969,1.6999,7.604,1.1797,-0.4049,-0.2139
2703181.0,-1.7933,2.6073,7.8554,1.3234,-0.4821,-0.2469
2703191.0,-2.1763,4.312,7.1347,1.3393,-0.6263,-0.2283
2703201.0,-2.1596,5.8371,3.9792,1.0179,-0.9472,-0.1304
2703211.0,-0.972,5.8754,-3.4453,0.0862,-1.3409,0.0005
2703221.0,4.9081,4.6448,-11.6071,-1.8656,-1.4521,0.0218
2703231.0,0.0192,4.0917,-17.2742,-4.5086,-0.779,-0.0431
2703241.0,0.4334,2.1859,-18.9166,-7.0611,-0.1905,-0.0766
2703251.0,0.0718,0.2825,-14.9326,-7.1479,1.2398,0.1479
2703261.0,-8.6814,-0.3376,-5.3127,-3.9121,3.961,0.7657
2703271.0,-9.9647,-2.6624,1.1684,1.1057,5.7676,1.4734
2703281.0,-16.3716,-3.4644,5.2984,5.8846,7.5459,1.7682
2703291.0,-14.3317,-1.482,10.0293,8.6043,8.8655,1.483
2703301.0,-23.5757,-1.2594,18.7681,7.6076,8.9187,0.7082
2703311.0,-12.7898,1.7621,33.0567,4.4639,7.1809,-0.5656
2703321.0,-20.82,7.118,38.3599,2.6084,5.6686,-1.2302
2703331.0,-19.8982,8.3941,40.6296,0.4326,3.0565,-1.5596
2703341.0,-19.1249,9.3613,34.5364,-1.4867,0.273,-1.6059
2703351.0,-17.4872,8.7005,27.6506,-2.4887,-1.5506,-1.3627
2703361.0,-15.3588,7.3598,19.9317,-2.0465,-2.1221,-0.8461
2703371.0,-13.0556,2.9401,15.0116,-0.7247,-1.7102,-0.282
2703381.0,-10.7236,0.5411,12.7132,0.6141,-1.0408,0.0069
2703391.0,-9.4834,0.8739,11.2432,1.3856,-0.6518,0.0101
2703401.0,-8.8178,2.5259,10.2137,1.5043,-0.4911,-0.0756
2703411.0,-8.3414,3.5171,9.4355,1.0818,-0.4257,-0.1261
2703421.0,-7.695,3.3447,9.3374,0.2118,-0.5273,-0.1815
2703431.0,-7.2401,2.1117,9.8737,-0.622,-0.6385,-0.2421
2703441.0,-6.5577,0.8499,10.1873,-1.0084,-0.687,-0.3139
2703451.0,-6.2656,0.1006,10.3166,-1.0222,-0.7024,-0.4081
2703461.0,-6.0382,0.2682,9.8713,-0.8179,-0.7317,-0.506
2703471.0,-5.6814,1.1492,8.4851,-0.6093,-0.8184,-0.5938
2703481.0,-5.5569,2.1428,7.0126,-0.4848,-0.8221,-0.6433
2703491.0,-5.6144,3.4477,6.0334,-0.4188,-0.6784,-0.6396
2703501.0,-5.7581,4.2018,5.8682,-0.4028,-0.4805,-0.5608
2703511.0,-5.8754,4.2306,5.9233,-0.3884,-0.3049,-0.4273
2703521.0,-5.5115,3.7182,6.4691,-0.3863,-0.1697,-0.2857
2703531.0,-5.3295,3.146,7.3023,-0.3124,-0.0452,-0.174
2703541.0,-5.3965,2.7366,8.0206,-0.1948,0.0202,-0.0958
2703551.0,-5.2864,2.5379,8.4108,-0.1091,-0.0261,-0.0506
2703561.0,-5.2505,2.7869,7.5896,-0.125,-0.1894,-0.0367
2703571.0,-5.1188,2.557,6.7732,-0.3166,-0.315,-0.0325
2703581.0,-5.0302,2.0207,6.4117,-0.4784,-0.3054,-0.0309
2703591.0,-4.9536,1.1779,6.4548,-0.4954,-0.1825,-0.0357
2703601.0,-4.9967,0.5387,6.7876,-0.4491,-0.0639,-0.0851
2703611.0,-5.0805,0.6153,6.7995,-0.4241,-0.0309,-0.1735
2703621.0,-5.2505,0.6345,7.2065,-0.4438,0.0106,-0.2602
2703631.0,-5.2074,0.9409,7.5992,-0.3906,0.0585,-0.3315
2703641.0,-5.4061,1.5395,7.7165,-0.3347,0.0766,-0.3927
2703651.0,-5.4588,2.2673,7.3526,-0.4065,0.0362,-0.4353
2703661.0,-5.5809,2.6384,7.2616,-0.646,-0.0197,-0.4512
2703671.0,-5.7078,2.4157,7.9344,-0.8317,-0.0202,-0.4331
2703681.0,-5.8035,1.9106,8.8442,-0.7966,0.0059,-0.3884
2703691.0,-5.8706,1.1396,9.9216,-0.5523,0.0271,-0.3406
2703701.0,-5.8682,0.8284,10.4866,-0.2288,-0.0186,-0.3241
2703711.0,-5.8993,1.1803,10.4339,-0.0952,-0.2315,-0.3597
2703721.0,-5.9927,1.8699,9.8785,-0.1112,-0.4778,-0.397
2703731.0,-5.9328,2.3631,9.3398,-0.1697,-0.6417,-0.3975
2703741.0,-5.8395,2.6647,8.4611,-0.2474,-0.7678,-0.3709
2703751.0,-5.6695,2.6025,7.8434,-0.3783,-0.8657,-0.3315
2703761.0,-5.4157,2.3583,7.4747,-0.4337,-0.8966,-0.2847
2703771.0,-5.2553,2.0135,7.5274,-0.3432,-0.8258,-0.2277
2703781.0,-5.1978,1.5251,7.9799,-0.1447,-0.7152,-0.1697
2703791.0,-5.0996,1.0965,8.6048,0.033,-0.6992,-0.1394
2703801.0,-5.0829,0.8475,8.9088,0.1548,-0.8062,-0.1389
2703811.0,-4.9033,0.7207,9.0357,0.2735,-0.9333,-0.1511
2703821.0,-4.9297,0.826,8.9136,0.4055,-1.0403,-0.1724
2703831.0,-5.0949,1.1253,8.6742,0.4906,-1.1456,-0.1979
2703841.0,-5.0326,1.3791,8.4396,0.5098,-1.2606,-0.2112
2703851.0,-5.0326,1.3791,8.4396,0.5098,-1.2606,-0.2112
2703861.0,-4.786,2.217,7.7716,0.4427,-1.4931,-0.2006
2703871.0,-4.786,2.217,7.7716,0.4427,-1.4931,-0.2006
2703881.0,-4.6807,2.6025,7.4124,0.4081,-1.5421,-0.1458
2703891.0,-4.5322,2.5402,7.4029,0.3895,-1.5394,-0.0585
2703901.0,-4.276,2.1069,7.3909,0.3783,-1.5676,0.0234
2703911.0,-3.984,1.5754,7.5896,0.3831,-1.5947,0.074
2703921.0,-3.7493,1.1803,7.6279,0.3815,-1.657,0.0867
2703931.0,-3.565,0.7326,7.7165,0.3437,-1.7874,0.0639
2703941.0,-3.1053,0.5148,7.2736,0.4358,-1.8885,0.0394
2703951.0,-2.8539,0.4932,6.9264,0.6502,-1.9108,0.0245
2703961.0,-2.4852,0.6081,6.0669,0.9695,-1.8629,0.0261
2703971.0,-2.071,0.8667,5.2744,1.1877,-1.7858,0.0197
2703981.0,-1.7454,1.245,4.8674,1.2776,-1.69,0.0069
2703991.0,-1.1708,1.6783,4.6974,1.3079,-1.6224,0.0
2704001.0,-0.6081,2.4493,3.486,1.3175,-1.632,0.008
2704011.0,0.0599,3.0406,-0.0455,1.1313,-1.7464,0.0394
2704021.0,4.3718,3.4979,-6.4835,0.3347,-2.0013,0.0772
2704031.0,2.4756,2.5522,-11.8824,-1.0094,-1.7507,0.1389
2704041.0,3.0358,2.7102,-18.7322,-2.1146,-1.2558,0.0889
2704051.0,1.5897,2.2482,-23.772,-2.4637,0.1527,0.124
2704061.0,-4.2449,3.735,-20.5351,-1.748,2.8899,0.2549
2704071.0,-8.5353,6.1483,-17.741,-0.2496,5.0396,0.5811
2704081.0,-14.0013,5.9711,-14.0564,1.4713,7.2479,1.0376
2704091.0,-21.5718,3.7637,-6.1196,2.5057,9.5349,1.3659
2704101.0,-22.5055,1.1899,3.1747,2.1721,10.6992,1.2435
2704111.0,-22.2517,-3.8259,16.4194,0.7306,10.944,0.7029
2704121.0,-25.5797,-5.3534,26.7624,-1.3282,10.3267,-0.0809
2704131.0,-23.8367,-6.0478,41.4149,-3.7812,8.3169,-0.92
2704141.0,-22.2517,-3.5578,42.1427,-4.5038,5.6244,-1.3399
2704151.0,-19.9629,-4.0342,43.8666,-4.6991,3.1836,-1.4165
2704161.0,-18.1744,-6.4165,38.4269,-3.529,1.1706,-1.2866
2704171.0,-17.1928,-2.3583,34.1677,-2.3163,-0.2363,-1.1568
2704181.0,-15.9095,-1.0271,29.4559,-0.049,-0.9945,-1.0211
2704191.0,-15.1505,0.3017,24.2221,2.1386,-1.5969,-0.7444
2704201.0,-13.6302,1.2378,17.3987,3.4939,-2.1237,-0.4965
2704211.0,-11.7627,1.7406,12.9646,3.7418,-2.469,-0.3996
2704221.0,-10.4387,1.8962,8.4228,3.3566,-2.692,-0.4273
2704231.0,-8.3222,1.6472,4.5849,2.3727,-2.5781,-0.514
2704241.0,-7.8171,1.245,8.0589,0.9695,-2.2737,-0.7769
2704251.0,-8.758,2.138,10.58,0.6598,-2.1423,-0.9786
2704261.0,-8.7987,3.2274,8.7149,0.9285,-2.3754,-1.0131
2704271.0,-7.7069,3.5291,5.5952,0.9429,-2.5408,-0.9812
2704281.0,-6.3662,3.3208,4.027,0.5837,-2.4046,-0.9828
2704291.0,-5.9544,2.8084,5.4851,0.2081,-2.013,-1.0312
2704301.0,-5.9855,2.8395,6.6295,0.1032,-1.7991,-1.0743
2704311.0,-5.8323,3.3974,6.7109,0.0623,-1.8603,-1.0924
2704321.0,-5.7174,3.9097,6.8043,0.1527,-1.8305,-1.0467
2704331.0,-5.4755,4.0917,6.8809,0.3555,-1.6767,-0.9216
2704341.0,-5.2816,3.8044,8.2959,0.4778,-1.5665,-0.7918
2704351.0,-5.3008,3.9456,9.1195,0.6167,-1.6299,-0.671
2704361.0,-5.3702,3.5841,8.5736,0.6188,-1.8927,-0.5624
2704371.0,-4.7357,2.9449,7.6207,0.4262,-2.2083,-0.4789
2704381.0,-3.9385,2.4469,6.4093,0.3113,-2.3482,-0.4401
2704391.0,-3.7086,2.636,5.521,0.3512,-2.3046,-0.4294
2704401.0,-3.8762,3.213,5.0039,0.5571,-2.1221,-0.3741
2704411.0,-3.7254,3.5817,4.7836,0.8982,-1.8725,-0.2389
2704421.0,-3.3088,3.7493,3.6344,1.1206,-1.6942,-0.0926
2704431.0,-2.9209,3.3327,3.4165,0.9615,-1.4963,0.0074
2704441.0,-2.7773,2.3463,4.7716,0.6066,-1.2595,0.0511
2704451.0,-2.6695,0.972,6.6391,0.2964,-1.1542,0.0282
2704461.0,-2.3607,-0.3735,7.9751,0.1399,-1.2201,-0.0649
2704471.0,-2.0877,-0.7614,8.3821,0.1229,-1.3718,-0.2293
2704481.0,-2.2769,0.0766,8.406,0.2224,-1.5325,-0.4108
2704491.0,-2.3703,1.7095,7.4915,0.5342,-1.6208,-0.5066
2704501.0,-2.478,3.3064,6.1435,0.9349,-1.5298,-0.4725
2704511.0,-2.6911,4.5753,5.1763,1.1584,-1.3399,-0.3432
2704521.0,-2.9042,4.5586,5.5593,1.0988,-1.1393,-0.1437
2704531.0,-2.4205,2.9281,6.9504,0.9413,-0.9844,0.0585
2704541.0,-2.0877,0.668,8.5401,0.8274,-0.9285,0.1618
2704551.0,-1.7909,-1.4126,9.6798,0.7806,-1.0456,0.1235
2704561.0,-1.245,-1.8004,9.9814,0.8056,-1.2398,-0.0479
2704571.0,-1.6927,-1.1923,9.6391,0.8955,-1.4042,-0.29
2704581.0,-1.5802,-0.4788,6.5841,0.8519,-1.6128,-0.4959
2704591.0,-1.0606,-0.4597,5.6264,0.3406,-1.6469,-0.7327
2704601.0,-0.723,-0.0096,4.5921,-0.166,-1.5426,-0.978
2704611.0,-0.905,-0.103,6.1435,-0.4917,-1.2643,-1.1973
2704621.0,-1.3024,0.2729,7.4939,-0.2735,-0.9541,-1.3266
2704631.0,-1.5275,0.9074,8.3677,0.2027,-0.8365,-1.3814
2704641.0,-1.4437,1.245,8.0469,0.8269,-0.7833,-1.367
2704651.0,-0.735,2.0351,6.6056,1.2962,-0.7928,-1.3638
2704661.0,-0.6033,3.0335,4.8507,1.4713,-0.7556,-1.3787
2704671.0,-0.3855,3.6464,2.7701,1.4186,-0.5901,-1.3941
2704681.0,0.3112,3.8738,0.9601,0.9945,-0.3698,-1.4431
2704691.0,0.826,4.3718,0.4788,0.3198,-0.0803,-1.5586
2704701.0,0.6177,5.6144,-0.0359,-0.3177,0.2448,-1.6793
2704711.0,2.083,7.3861,-2.1979,-0.9509,0.4496,-1.7507
2704721.0,1.2522,10.0509,-5.1427,-1.7288,0.8062,-1.7874
2704731.0,0.6464,13.1442,-5.7509,-2.6052,1.5325,-1.699
2704741.0,-1.3862,15.6772,0.2993,-3.0309,2.6957,-1.3638
2704751.0,-6.3518,18.9812,7.6567,-2.5616,3.3151,-0.7854
2704761.0,-10.41,21.646,8.8562,-1.152,2.9367,0.05
2704771.0,-9.8809,22.721,3.4381,0.9674,2.6701,1.0461
2704781.0,-11.1091,21.8662,-3.1268,2.9713,3.6099,2.0023
2704791.0,-12.8377,22.563,-6.2537,3.6508,5.0168,2.6318
2704801.0,-18.6987,29.0105,-2.5857,3.2134,6.5567,3.1198
2704811.0,-21.9022,25.9029,0.2298,2.6137,7.863,3.985
2704821.0,-26.2788,19.3715,11.8106,0.6439,8.8496,4.8944
2704831.0,-32.2427,11.6765,23.6332,-0.9466,8.377,5.5824
2704841.0,-30.3776,7.616,26.1207,-1.5272,6.6072,6.1124
2704851.0,-27.1431,1.7645,28.3019,-1.4101,5.4531,6.546
2704861.0,-25.8574,-3.0191,31.7375,-0.7508,5.1093,6.7669
2704871.0,-23.1495,-6.7205,33.4254,-0.8375,3.8365,6.5514
2704881.0,-19.5319,-7.7405,28.1534,-1.947,1.6884,5.9022
2704891.0,-15.4091,-9.2416,20.1688,-4.0462,-0.406,5.0348
2704901.0,-9.2536,-9.7348,11.5472,-6.164,-1.7453,3.96
2704911.0,-10.5752,-7.0509,4.3503,-7.9663,-2.1364,2.9814
2704921.0,-10.5465,-8.7963,9.3757,-8.6059,-1.8007,2.4046
2704931.0,-7.3454,-5.6982,3.3854,-6.8004,-1.5218,2.1865
2704941.0,-7.7596,-5.6479,4.0773,-4.8699,-0.5507,2.0816
2704951.0,-8.0397,-4.6831,5.3654,-2.6685,0.6332,2.0662
2704961.0,-7.3861,-3.8427,9.7109,-1.0616,1.2675,2.0124
2704971.0,-7.513,-2.5929,11.169,0.2283,1.293,1.8805
2704981.0,-6.8977,-1.2713,9.3925,0.7737,0.9647,1.7193
2704991.0,-5.9352,-1.3982,8.5401,0.4502,0.7811,1.492
2705001.0,-4.6208,-1.9154,8.339,-0.5433,0.5821,1.1345
2705011.0,-4.5322,-1.9369,8.6766,-1.9305,0.1916,0.6391
2705021.0,-4.5945,-2.1739,8.7556,-3.1464,-0.2629,0.1841
2705031.0,-3.9576,-2.7485,8.7604,-3.7051,-0.4624,-0.165
2705041.0,-3.6871,-2.2098,8.43,-3.6375,-0.4507,-0.455
2705051.0,-4.2306,-0.7853,8.5353,-3.2012,-0.2794,-0.647
2705061.0,-4.8578,0.6823,9.5792,-2.5307,-0.0319,-0.6955
2705071.0,-5.2265,1.6975,10.659,-1.8118,0.0474,-0.6306
2705081.0,-5.5162,2.2745,10.4555,-1.1845,-0.0591,-0.5082
2705091.0,-5.2313,2.1117,10.5824,-0.8828,-0.2081,-0.3799
2705101.0,-5.0829,1.9106,11.3198,-0.7513,-0.348,-0.3129
2705111.0,-4.8842,1.4916,11.4826,-0.6651,-0.5694,-0.2921
2705121.0,-4.6855,1.1947,11.4682,-0.6891,-0.7801,-0.3129
2705131.0,-4.64,1.3455,11.564,-0.8423,-1.0248,-0.381
2705141.0,-4.6615,1.9513,10.9295,-1.0488,-1.3404,-0.4518
2705151.0,-4.628,2.4445,10.0269,-1.2356,-1.6096,-0.4768
2705161.0,-4.5681,2.6312,8.9687,-1.3095,-1.7517,-0.4459
2705171.0,-4.391,2.1404,8.6383,-1.2574,-1.7586,-0.3746
2705181.0,-4.1635,1.1109,9.0118,-0.9881,-1.6559,-0.29
2705191.0,-3.711,-0.0479,9.7181,-0.589,-1.6006,-0.2416
2705201.0,-3.3327,-0.814,10.2807,-0.1293,-1.6086,-0.2517
2705211.0,-3.2226,-0.7853,10.5656,0.2708,-1.6953,-0.3097
2705221.0,-3.4477,-0.2011,10.1059,0.5092,-1.9209,-0.3847
2705231.0,-3.4022,0.34,8.5665,0.5571,-2.2162,-0.4321
2705241.0,-2.7078,-0.0503,6.9025,0.4688,-2.3993,-0.4518
2705251.0,-1.7813,-0.5148,5.5019,0.3363,-2.4004,-0.5135
2705261.0,-1.166,-1.0032,5.0781,0.2059,-2.2519,-0.6252
2705271.0,-0.9098,-0.7685,5.1882,0.1841,-2.0007,-0.7646
2705281.0,-1.2115,-0.0814,5.7365,0.1235,-1.8374,-0.8924
2705291.0,-1.506,0.4956,6.1483,0.0782,-1.8251,-0.9493
2705301.0,-1.4126,0.6871,5.964,0.2118,-1.7916,-0.919
2705311.0,-1.1684,0.4788,5.6048,0.4262,-1.7054,-0.8461
2705321.0,-0.6464,0.0263,5.4708,0.6779,-1.5618,-0.7806
2705331.0,-0.5363,-0.0096,5.1978,0.8812,-1.4117,-0.7572
2705341.0,-0.6369,-0.0311,4.9967,0.8333,-1.3984,-0.7716
2705351.0,-0.4549,-0.3017,4.2282,0.7093,-1.4606,-0.7859
2705361.0,0.0599,-1.0487,3.304,0.6258,-1.4399,-0.8088
2705371.0,0.565,-1.6831,2.2577,0.6513,-1.2861,-0.8594
2705381.0,0.8595,-2.0159,0.7709,0.6721,-1.1164,-0.9355
2705391.0,1.6376,-1.9106,-2.0207,0.4523,-1.11,-1.0397
2705401.0,3.8642,-1.7478,-5.6838,-0.0628,-1.1238,-1.1515
2705411.0,3.1867,-1.2617,-11.7053,-0.8445,-1.0903,-1.2308
2705421.0,5.2481,-2.3272,-15.0691,-1.7091,-0.8642,-1.2787
2705431.0,0.6728,-2.4086,-17.3436,-1.0424,0.4379,-1.1808
2705441.0,-2.2913,-2.9233,-22.1296,0.3895,1.5591,-0.9876
2705451.0,-0.7781,-3.4572,-30.9044,2.2141,3.2289,-0.8498
2705461.0,-8.4108,-1.2115,-32.6306,3.7743,6.5737,-0.9759
2705471.0,-7.2257,-2.1428,-16.3596,3.9908,9.7127,-1.2686
2705481.0,-29.8748,2.8898,-7.0246,4.8183,12.5174,-1.6751
2705491.0,-34.2443,-0.0622,9.481,3.1443,11.9417,-2.295
2705501.0,-26.4296,-1.0247,17.1856,2.2578,11.9209,-2.8388
2705511.0,-35.3336,1.0798,30.957,0.6827,12.0375,-3.5284
2705521.0,-33.1908,-0.1772,48.9495,-2.2881,9.4003,-4.3367
2705531.0,-29.894,1.7454,52.9166,-3.2826,6.28,-4.6677
2705541.0,-30.1789,3.2968,58.488,-3.1565,3.7769,-4.5575
2705551.0,-28.74,8.1786,55.5694,-1.3361,1.2063,-4.0643
2705561.0,-27.5836,9.7061,46.8306,0.9041,-1.3223,-3.2134
2705571.0,-23.2812,8.6479,32.4175,2.6962,-3.4609,-2.2945
2705581.0,-18.9022,5.5426,21.385,3.595,-4.441,-1.673
2705591.0,-15.2582,4.4963,11.5879,4.0845,-4.5363,-1.3755
2705601.0,-12.8928,4.8961,7.6638,3.8301,-4.2308,-1.2856
2705611.0,-11.7771,5.6695,3.2154,3.6125,-3.7381,-1.2068
2705621.0,-9.0046,5.4971,0.735,2.8761,-3.2911,-1.1643
2705631.0,-5.9999,5.2313,-0.4046,1.8432,-2.6952,-1.2036
2705641.0,-7.422,5.442,1.9201,0.705,-2.0109,-1.3074
2705651.0,-6.2297,5.2409,3.4548,-0.1,-1.7501,-1.3516
2705661.0,-5.3774,4.2521,4.027,-0.4672,-1.5357,-1.2984
2705671.0,-4.8219,3.4381,5.1475,-0.4725,-1.118,-1.2388
2705681.0,-5.3415,3.3255,7.1563,-0.2857,-0.7077,-1.201
2705691.0,-5.9161,3.4644,9.1506,-0.0011,-0.5635,-1.1371
2705701.0,-5.8275,3.6536,10.1562,0.3746,-0.6417,-1.0291
2705711.0,-5.715,4.2928,10.2927,0.8242,-0.7157,-0.9051
2705721.0,-5.8107,5.047,10.1897,1.102,-0.8264,-0.7657
2705731.0,-5.7365,5.7078,9.2608,1.1244,-1.028,-0.622
2705741.0,-5.1858,5.8299,8.0876,0.8125,-1.2829,-0.5023
2705751.0,-4.6663,5.8203,6.7373,0.3187,-1.4564,-0.4262
2705761.0,-4.3383,5.7413,5.9089,-0.1963,-1.4729,-0.3741
2705771.0,-4.3407,5.6599,5.5282,-0.5843,-1.375,-0.315
2705781.0,-4.3981,5.6,5.217,-0.7854,-1.2042,-0.2293
2705791.0,-4.5179,5.1787,5.2385,-0.8626,-0.9935,-0.1197
2705801.0,-4.5873,4.2306,6.0789,-0.8274,-0.7412,0.0032
2705811.0,-4.4125,2.624,7.6303,-0.5784,-0.4752,0.108
2705821.0,-3.972,1.3503,8.9878,-0.1479,-0.3017,0.1362
2705831.0,-3.948,1.47,9.6822,0.2607,-0.2528,0.0575
2705841.0,-4.6926,2.6169,10.1514,0.473,-0.2794,-0.0511
2705851.0,-5.1739,3.4093,10.9798,0.4954,-0.3581,-0.108
2705861.0,-5.4109,4.0294,12.1099,0.5279,-0.3884,-0.1091
2705871.0,-5.6838,4.9584,12.7443,0.4017,-0.5917,-0.0899
2705881.0,-5.7293,5.7676,12.5408,-0.0128,-1.027,-0.0447
2705891.0,-5.6862,6.0908,12.1338,-0.5539,-1.4761,0.05
2705901.0,-5.4851,5.5498,11.8968,-0.9376,-1.8289,0.2001
2705911.0,-5.1571,4.6998,11.5281,-0.9541,-2.063,0.3714
2705921.0,-4.8195,3.972,10.7763,-0.6125,-2.1636,0.5475
2705931.0,-4.525,3.2609,10.5369,-0.1016,-2.1614,0.7146
2705941.0,-4.1252,2.5235,10.307,0.4895,-2.1018,0.8673
2705951.0,-3.8259,1.9201,9.9814,0.9152,-2.1253,0.9653
2705961.0,-3.2298,1.5467,8.7077,1.0115,-2.3221,0.9876
2705971.0,-2.4995,1.0247,7.3813,0.7678,-2.5435,0.9312
2705981.0,-1.9489,0.8787,6.1052,0.4294,-2.6531,0.8184
2705991.0,-1.6137,1.0918,4.956,0.1495,-2.6435,0.6933
2706001.0,-1.1564,0.8284,4.3072,-0.0074,-2.486,0.5997
2706011.0,-0.6201,0.5866,4.312,-0.0271,-2.146,0.5087
2706021.0,-0.5531,0.8164,5.1523,-0.1485,-1.889,0.3815
2706031.0,-0.6225,1.2689,6.1699,-0.3533,-1.8166,0.2623
2706041.0,-0.747,1.573,6.9911,-0.4773,-1.8337,0.2011
2706051.0,-0.5602,1.6185,7.3574,-0.4613,-1.9023,0.191
2706061.0,-0.2155,1.7837,7.5058,-0.2932,-1.9534,0.2011
2706071.0,-0.328,2.3008,7.6447,0.0346,-1.9252,0.2437
2706081.0,-0.4836,2.7054,7.8626,0.4502,-1.8762,0.3459
2706091.0,-0.4884,2.8539,7.5274,0.8232,-1.881,0.4874
2706101.0,-0.249,2.6552,6.8139,1.0062,-1.9321,0.621
2706111.0,0.1915,2.4253,5.2912,0.9408,-2.0343,0.6997
2706121.0,0.7997,2.0231,3.7469,0.6353,-2.0832,0.7173
2706131.0,1.3791,1.4102,2.6336,0.2751,-1.9811,0.6795
2706141.0,2.0997,0.6943,2.4972,0.0197,-1.7421,0.6002
2706151.0,2.5546,0.2658,2.4948,-0.0005,-1.4282,0.4991
2706161.0,2.7653,0.17,2.5642,0.1022,-1.1536,0.3847
2706171.0,3.0167,0.4956,2.3391,0.3288,-0.895,0.282
2706181.0,2.873,1.3455,2.1763,0.6572,-0.5795,0.2171
2706191.0,2.4565,2.6264,1.5802,1.0041,-0.2826,0.2139
2706201.0,2.0614,3.2848,0.1748,1.1845,-0.0995,0.2943
2706211.0,2.3918,2.7725,-2.1021,1.1206,-0.0293,0.4001
2706221.0,5.4061,4.0079,-4.8219,1.0115,0.1628,0.4688
2706231.0,2.2505,1.8555,-9.56,0.8173,0.7721,0.6465
2706241.0,5.3965,2.1404,-9.8952,0.3719,1.2515,0.4268
2706251.0,4.4484,3.8188,-17.3699,0.68,2.1316,0.4103
2706261.0,0.8811,3.5267,-18.1887,0.4821,3.6854,0.5013
2706271.0,-1.6328,2.806,-15.0045,0.282,5.2371,0.5944
2706281.0,-4.3862,2.0925,-10.0868,0.7263,6.5482,0.6747
2706291.0,-8.521,1.9345,-7.5346,1.7161,7.8056,0.7604
2706301.0,-12.2799,2.1596,-2.636,2.2769,8.9155,0.7221
2706311.0,-20.1089,3.3351,-0.0527,2.46,9.7244,0.5608
2706321.0,-18.9812,2.6863,7.7141,1.8432,10.4651,0.29
2706331.0,-26.3099,1.4772,18.0475,1.1366,11.4026,-0.0399
2706341.0,-29.0417,-1.9034,34.1533,-0.2043,10.9115,-0.5321
2706351.0,-27.8446,-3.0526,43.5098,-1.0233,9.1151,-1.1254
2706361.0,-20.9181,-2.5881,48.7795,-1.4207,6.8217,-1.7858
2706371.0,-24.9739,4.2593,52.354,-1.0509,4.8257,-2.2961
2706381.0,-25.9388,11.5903,46.9862,0.1788,2.9447,-2.3642
2706391.0,-23.4632,15.2391,41.9033,0.3006,1.168,-2.2115
2706401.0,-20.8631,16.18,34.4741,-0.6082,-0.2677,-1.988
2706411.0,-20.3028,15.0954,35.6999,-2.2194,-1.3138,-1.8597
2706421.0,-21.385,17.2622,32.293,-2.5568,-2.246,-1.5538
2706431.0,-21.3275,15.8688,30.7368,-2.4275,-3.2225,-0.9296
2706441.0,-18.6053,14.1378,23.9923,-1.5724,-4.0574,-0.1362
2706451.0,-16.2231,11.461,18.0786,-1.1568,-4.5373,0.4507
2706461.0,-14.0061,10.556,13.6853,-1.2936,-4.6443,0.7923
2706471.0,-13.1561,8.7724,12.5672,-1.8225,-4.6166,1.0014
2706481.0,-12.3517,6.5553,11.8537,-2.3296,-4.7965,1.1435
2706491.0,-11.8082,4.5562,10.8673,-2.684,-5.1546,1.2212
2706501.0,-11.3294,4.3215,8.8514,-2.7484,-5.5467,1.2872
2706511.0,-10.5656,3.3016,5.2337,-2.602,-5.9288,1.4144
2706521.0,-8.6598,2.2745,0.2418,-2.42,-6.1001,1.5304
2706531.0,-6.4308,1.1396,-3.9959,-2.4009,-5.8628,1.5479
2706541.0,-4.1731,-0.0239,-5.7509,-2.4318,-5.219,1.4628
2706551.0,-2.8204,-0.9242,-4.8937,-2.204,-4.2691,1.3377
2706561.0,-2.4493,-1.3767,-3.7637,-1.7448,-3.4694,1.2132
2706571.0,-1.47,-1.9417,-2.7773,-1.4442,-2.925,1.0876
2706581.0,-0.9433,-2.2051,-0.7829,-1.3095,-2.4929,0.9014
2706591.0,-0.9313,-2.0806,1.2905,-1.1398,-2.2812,0.6944
2706601.0,-1.075,-1.2641,1.6783,-0.7497,-2.1934,0.5417
2706611.0,-0.9433,-1.1133,1.5586,-0.2602,-2.0428,0.4816
2706621.0,0.0862,-1.6927,1.4054,0.1719,-1.8092,0.4534
2706631.0,1.0511,-1.6951,0.9625,0.3363,-1.5538,0.3592
2706641.0,1.3719,-0.9577,0.5698,-0.0133,-1.4154,0.1729
2706651.0,1.2689,0.0455,0.7638,-0.7748,-1.3377,-0.0202
2706661.0,1.0463,1.0463,2.4134,-1.4825,-1.2137,-0.1261
2706671.0,0.51,1.3312,3.4357,-1.723,-1.1105,-0.0846
2706681.0,0.7159,0.6752,4.2258,-1.5905,-1.0419,0.0639
2706691.0,1.166,-0.3615,5.1523,-1.0461,-0.8626,0.2501
2706701.0,1.4605,-0.7039,6.1435,-0.1346,-0.5699,0.4193
2706711.0,1.1516,-0.4669,6.371,0.7843,-0.3326,0.5651
2706721.0,1.1253,-0.1413,5.5617,1.2861,-0.3038,0.6641
2706731.0,1.652,-0.2107,4.4388,1.2079,-0.357,0.6955
2706741.0,2.0758,-0.237,4.1779,0.7146,-0.3592,0.6476
2706751.0,1.9034,-0.4501,4.5729,0.2501,-0.2831,0.588
2706761.0,1.889,-0.6584,5.0398,0.0234,-0.1479,0.547
2706771.0,1.7789,-1.087,5.4061,-0.0665,0.0059,0.506
2706781.0,2.15,-1.3455,5.7676,-0.2017,0.0788,0.4268
2706791.0,2.0303,-1.3886,6.2704,-0.3384,0.1245,0.3155
2706801.0,1.7478,-0.929,6.2393,-0.3826,0.1219,0.2075
2706811.0,2.3679,-0.7135,5.9209,-0.3161,0.1027,0.1421
2706821.0,2.3248,-0.5171,5.7054,-0.0138,0.3054,0.1517
2706831.0,1.221,-0.2322,6.1411,0.4023,0.6577,0.2011
2706841.0,0.5171,0.079,7.3167,0.7593,0.9147,0.2533
2706851.0,2.7198,-2.3607,6.1746,0.8088,1.0046,0.2703
2706861.0,1.3767,-3.6009,12.5624,0.116,1.1196,0.0442
2706871.0,0.814,-2.4876,12.5576,0.1304,0.7646,-0.1522
2706881.0,0.3926,-3.4692,13.9893,0.0569,0.2671,-0.3108
2706891.0,0.68,-2.9185,11.0133,0.2677,-0.1841,-0.4496
2706901.0,1.3288,-3.316,10.0102,0.2352,-0.4241,-0.6077
2706911.0,1.7693,-2.8898,7.6279,0.4278,-0.5295,-0.7865
2706921.0,2.2817,-2.241,5.5881,0.6428,-0.4055,-0.9493
2706931.0,1.8723,-1.1803,4.8052,0.8838,0.0011,-1.069
2706941.0,1.3336,-0.759,5.7293,1.0504,0.3581,-1.1206
2706951.0,0.9744,-0.1053,6.2106,1.2941,0.5699,-1.1281
2706961.0,0.6967,0.34,5.9616,1.5128,0.6806,-1.1036
2706971.0,0.6847,0.407,5.1092,1.5421,0.713,-1.1031
2706981.0,0.5746,0.5028,3.5698,1.3564,0.6902,-1.1744
2706991.0,0.2849,0.6416,0.8188,0.9477,0.6428,-1.3122
2707001.0,0.2274,0.7159,-2.4181,0.2533,0.7104,-1.4889
2707011.0,-0.1987,0.6895,-3.5554,-0.5795,1.0334,-1.6905
2707021.0,-0.7997,1.1564,-1.9297,-1.061,1.467,-1.8587
2707031.0,-1.2546,3.1053,-5.8586,-0.7934,1.7139,-1.9156
2707041.0,-1.2354,3.4189,-7.9631,-0.7875,2.146,-1.9135
2707051.0,-2.059,5.442,-11.4467,-0.6832,2.9628,-1.8576
2707061.0,-3.4477,7.6207,-11.5855,-0.9504,3.8701,-1.7379
2707071.0,-5.9376,9.56,-11.8058,-1.2318,4.7959,-1.4303
2707081.0,-7.6136,9.7755,-5.521,-1.3963,5.9942,-0.8716
2707091.0,-13.6589,9.6438,1.1349,-0.6848,7.1191,-0.0963
2707101.0,-14.042,4.9057,5.5761,-0.0974,7.1835,0.7003
2707111.0,-16.532,0.7566,10.0892,0.4624,7.1441,1.1914
2707121.0,-16.7379,-1.4365,11.6071,1.541,7.2325,1.3872
2707131.0,-17.0539,-3.2801,13.5775,2.4419,7.6124,1.2489
2707141.0,-20.1927,-3.4788,18.0762,2.5738,7.9875,0.8056
2707151.0,-15.1529,-3.7924,26.0776,1.7177,7.6741,0.199
2707161.0,-21.3012,-2.0446,32.5994,0.6561,6.9116,-0.4092
2707171.0,-18.1648,-2.8299,39.9018,-0.547,5.2775,-0.8886
2707181.0,-17.3819,-1.5347,40.7493,-0.9344,3.4901,-1.1834
2707191.0,-16.7379,0.3424,40.1532,-1.0227,1.7916,-1.3399
2707201.0,-16.0005,2.569,34.6226,-0.9839,-0.0112,-1.3297
2707211.0,-14.4394,3.8068,27.4256,-0.9775,-1.4026,-1.2223
2707221.0,-13.1849,5.8371,19.7641,-1.0073,-2.137,-1.06
2707231.0,-12.2631,7.2281,14.8201,-1.0291,-2.2668,-0.7593
2707241.0,-11.224,7.4053,10.9583,-0.6375,-1.9161,-0.2655
2707251.0,-9.8378,5.7652,9.5217,-0.1479,-1.2435,0.2708
2707261.0,-9.1363,3.8978,9.4595,0.124,-0.6199,0.6699
2707271.0,-9.0549,1.6879,12.2703,0.041,-0.2538,0.8833
2707281.0,-9.0237,0.4118,14.0588,-0.0027,-0.273,0.9573
2707291.0,-9.1578,-1.2115,15.3229,-0.0569,-0.538,0.9408
2707301.0,-8.5736,-2.5211,14.6046,-0.158,-1.0445,0.8328
2707311.0,-7.5058,-3.3926,12.5672,-0.4092,-1.6277,0.6125
2707321.0,-6.8714,-3.486,10.082,-0.605,-1.9518,0.3331
2707331.0,-6.4141,-3.134,8.1618,-0.572,-1.9098,0.0809
2707341.0,-6.529,0.3783,7.197,-0.415,-1.6506,-0.1235
2707351.0,-8.011,1.9297,7.0749,-0.2246,-1.3069,-0.1532
2707361.0,-6.6415,1.6065,4.6878,-0.4369,-1.3425,-0.0277
2707371.0,-5.4348,0.4621,5.2553,-1.0068,-1.0828,0.0266
2707381.0,-5.3056,0.2011,7.8578,-1.3478,-0.5997,0.0085
2707391.0,-6.5793,-0.4094,11.576,-1.4367,-0.4156,0.0021
2707401.0,-7.1922,-0.8523,14.0085,-1.1174,-0.5582,0.0511
2707411.0,-6.8929,-1.2091,14.8776,-0.6348,-0.9041,0.0905
2707421.0,-6.7876,-1.2809,14.2623,-0.1522,-1.2781,0.0947
2707431.0,-6.2465,-1.2498,12.7563,0.1431,-1.5697,0.0601
2707441.0,-6.1387,-0.7901,11.8968,0.1538,-1.7358,-0.0341
2707451.0,-5.8371,-0.1676,10.3406,-0.0234,-1.9231,-0.1357
2707461.0,-5.5929,0.2849,9.7731,-0.4119,-2.0321,-0.2384
2707471.0,-5.6886,0.6704,8.7293,-0.7657,-2.0928,-0.3134
2707481.0,-5.6599,0.4046,8.3222,-1.1291,-2.1673,-0.3549
2707491.0,-4.9297,0.1221,7.1204,-1.2563,-2.1657,-0.3672
2707501.0,-4.2282,0.4908,6.7876,-1.201,-1.9598,-0.3677
2707511.0,-4.2066,0.6105,6.6152,-0.9711,-1.6437,-0.3331
2707521.0,-3.96,0.2298,6.4284,-0.8588,-1.4197,-0.2724
2707531.0,-2.217,-1.3815,5.9975,-1.0743,-1.2893,-0.281
2707541.0,-2.2697,-2.1308,10.5752,-1.3702,-1.102,-0.4534
2707551.0,-3.2298,-0.6991,10.0149,-0.9216,-1.1579,-0.5252
2707561.0,-3.4955,-0.2394,10.2113,-0.7221,-1.3532,-0.5268
2707571.0,-3.1987,0.2514,8.3055,-0.596,-1.6394,-0.4757
2707581.0,-2.7414,-0.2107,6.7229,-0.5933,-1.7751,-0.415
2707591.0,-2.1261,-0.8763,5.7341,-0.4619,-1.6315,-0.364
2707601.0,-1.6185,-1.2115,5.5498,-0.2788,-1.3617,-0.3512
2707611.0,-1.3815,-1.1612,5.7892,-0.1458,-1.1584,-0.3751
2707621.0,-1.1732,-0.7901,5.8586,-0.0633,-1.0435,-0.4055
2707631.0,-1.0774,-0.2514,5.9137,-0.0287,-0.9408,-0.4166
2707641.0,-1.0487,0.3041,5.9879,-0.0154,-0.8306,-0.3916
2707651.0,-1.1085,0.6297,5.9735,-0.0319,-0.7492,-0.3288
2707661.0,-0.9026,0.3639,5.8227,-0.1117,-0.7162,-0.2453
2707671.0,-0.5435,-0.3974,5.7197,-0.1974,-0.6689,-0.1767
2707681.0,-0.3543,-1.2761,6.1938,-0.1644,-0.5417,-0.1405
2707691.0,-0.2705,-1.7047,6.6056,0.0053,-0.3805,-0.1415
2707701.0,-0.3328,-1.7095,6.9336,0.1144,-0.3187,-0.1857
2707711.0,-0.4453,-1.482,6.857,0.1799,-0.331,-0.2416
2707721.0,-0.2131,-1.1708,6.4189,0.2373,-0.3272,-0.2921
2707731.0,-0.1101,-0.6871,5.9999,0.249,-0.2538,-0.3432
2707741.0,-0.2969,0.0742,5.8993,0.2017,-0.158,-0.3842
2707751.0,-0.5674,0.8164,5.9759,0.165,-0.0548,-0.3751
2707761.0,-0.7111,1.3743,5.9903,0.1825,0.0569,-0.3065
2707771.0,-0.8068,1.5395,6.2273,0.2235,0.1804,-0.1942
2707781.0,-0.8595,1.2953,6.2968,0.2794,0.2953,-0.0649
2707791.0,-0.7518,0.723,6.7062,0.306,0.3821,0.0452
2707801.0,-0.4286,0.3256,6.3805,0.3507,0.4417,0.1171
2707811.0,-0.3711,0.1652,6.3566,0.3171,0.5502,0.1458
2707821.0,-0.4286,0.6297,6.1794,0.2416,0.6651,0.1634
2707831.0,-0.4717,1.2282,5.6743,0.041,0.7327,0.1932
2707841.0,-0.5435,1.9896,4.774,-0.3533,0.7689,0.2395
2707851.0,-0.1197,3.043,2.8419,-1.0025,0.7567,0.3092
2707861.0,-0.0646,3.316,2.1308,-1.8949,0.8296,0.4241
2707871.0,2.3798,2.7078,2.9113,-2.4914,1.0568,0.6337
2707881.0,0.3879,2.4732,3.5003,-2.5818,1.268,0.8913
2707891.0,0.5914,1.6664,3.146,-2.3876,1.1988,1.2004
2707901.0,0.0263,1.0918,2.6959,-1.7757,1.2074,1.5171
2707911.0,-3.3998,1.4485,-0.4908,-0.622,1.1935,1.8198
2707921.0,0.1652,-0.6297,-3.8451,0.9216,1.4809,2.1582
2707931.0,-4.7621,0.3855,-6.8642,3.2411,3.1065,2.4296
2707941.0,-8.3079,0.5148,-2.6145,4.8885,4.6868,2.6292
2707951.0,-11.3916,1.9561,1.3455,6.4434,6.1055,2.7947
2707961.0,-15.2846,3.5243,6.8594,7.3251,7.4804,2.8825
2707971.0,-19.3068,2.5929,11.9183,6.5865,8.2286,2.7345
2707981.0,-21.3012,-1.494,21.9524,3.8568,8.1583,2.1545
2707991.0,-22.0362,-6.6798,33.5212,0.5231,7.2149,1.1754
2708001.0,-22.6348,-11.8369,44.9368,-2.1609,5.4063,-0.0255
2708011.0,-22.5845,-12.0548,49.2535,-3.0213,3.1395,-1.2052
2708021.0,-22.9341,-7.4627,48.2839,-2.4898,1.0621,-2.1481
2708031.0,-23.5949,1.1827,41.8698,-1.3239,-0.5837,-2.6994
2708041.0,-23.705,8.0852,36.4924,-0.6332,-1.7746,-2.7798
2708051.0,-22.8072,12.8233,31.5723,-0.3549,-2.6627,-2.4605
2708061.0,-21.5598,14.0707,28.0792,-0.4885,-3.4774,-1.9082
2708071.0,-19.5774,13.3165,23.7146,-0.7471,-4.2388,-1.284
2708081.0,-17.7626,10.7284,21.2126,-1.0302,-4.8119,-0.721
2708091.0,-16.0675,8.1834,17.8272,-0.9429,-5.2658,-0.2645
2708101.0,-14.4394,6.1004,13.872,-0.7008,-5.56,0.067
2708111.0,-12.797,4.5394,10.0126,-0.6029,-5.6819,0.2623
2708121.0,-11.6143,3.3567,7.1204,-0.7865,-5.7069,0.332
2708131.0,-10.4555,2.2003,4.9225,-1.1861,-5.7697,0.3182
2708141.0,-8.8107,0.7159,2.8539,-1.5841,-5.883,0.2458
2708151.0,-6.675,-0.4741,-0.2873,-1.8118,-5.948,0.1288
2708161.0,-4.3527,-1.4916,-3.5099,-1.9231,-5.783,-0.0378
2708171.0,-2.1883,-2.1284,-6.3039,-1.8698,-5.2748,-0.2506
2708181.0,-0.7709,-1.4796,-6.8618,-1.8129,-4.5512,-0.5167
2708191.0,1.8148,-0.4717,-6.0693,-1.6703,-3.8168,-0.7136
2708201.0,-3.6871,0.0766,-3.8068,-1.6613,-3.1118,-0.7971
2708211.0,-0.2251,0.3448,-1.0199,-1.7256,-3.1107,-0.878
2708221.0,0.51,0.1676,1.5874,-0.9892,-2.7978,-0.8115
2708231.0,-0.4812,1.4485,1.2474,0.2049,-2.4089,-0.6428
2708241.0,-0.4621,1.3264,1.0223,0.7513,-2.4131,-0.4331
2708251.0,0.3735,1.5203,-1.0487,0.8822,-2.4541,-0.2634
2708261.0,1.8483,1.0151,-2.3056,0.5741,-2.3424,-0.1719
2708271.0,1.4293,1.142,-3.3782,0.2522,-1.9401,-0.1341
2708281.0,2.1907,1.549,-3.2441,-0.1309,-1.4974,-0.1197
2708291.0,2.3224,1.087,-2.8898,-0.3177,-0.9615,-0.0543
2708301.0,3.0311,0.3807,-1.2809,-0.3299,-0.29,0.0474
2708311.0,2.6839,-0.3304,1.6233,-0.216,0.4294,0.1261
2708321.0,2.138,-1.5323,6.4332,-0.2336,0.8583,0.1607
2708331.0,1.9489,-2.4948,10.4291,-0.1703,0.9535,0.1554
2708341.0,1.6281,-3.4764,13.8792,-0.1868,0.6997,0.0724
2708351.0,1.5347,-3.62,14.9135,-0.2331,0.0788,-0.0825
2708361.0,1.5562,-3.1316,14.3724,-0.2379,-0.6039,-0.2474
2708371.0,1.6951,-1.8986,12.0165,-0.0016,-1.0839,-0.3384
2708381.0,1.9537,-0.4022,8.7891,0.3682,-1.2616,-0.3193
2708391.0,2.229,0.7614,5.5881,0.6008,-1.1728,-0.2187
2708401.0,2.375,1.5921,3.2872,0.5406,-0.8434,-0.0713
2708411.0,2.1668,1.4222,3.2944,0.1836,-0.3656,0.0883
2708421.0,2.0423,0.1748,4.8698,-0.2522,0.0612,0.2288
2708431.0,2.15,-1.3384,6.8211,-0.6423,0.2692,0.2964
2708441.0,2.2458,-2.5714,8.4013,-0.8902,0.2927,0.282
2708451.0,2.2194,-3.4261,9.8354,-0.8769,0.2485,0.2246
2708461.0,2.3439,-3.7517,10.2735,-0.5124,0.1543,0.1612
2708471.0,2.3942,-3.3926,9.2033,0.0367,0.0202,0.0974
2708481.0,2.3942,-2.8299,7.4603,0.5342,-0.025,0.0479
2708491.0,2.4205,-2.3128,5.9376,0.8849,0.0825,0.0186
2708501.0,2.4636,-1.9441,4.8746,1.0695,0.2889,-0.0059
2708511.0,2.2338,-1.6209,4.2401,1.0312,0.4832,-0.0426
2708521.0,2.229,-1.6113,4.1707,0.8354,0.6651,-0.0905
2708531.0,2.1668,-1.6137,4.0893,0.5901,0.8003,-0.1591
2708541.0,2.1308,-1.4653,3.8762,0.3512,0.8886,-0.2426
2708551.0,2.1644,-1.1779,3.5865,0.2112,0.9807,-0.3113
2708561.0,1.8842,-0.8428,3.4979,0.29,1.152,-0.3342
2708571.0,1.3479,-0.5219,3.2106,0.6731,1.4457,-0.2889
2708581.0,1.1756,-0.8571,3.055,1.2111,1.8395,-0.1969
2708591.0,1.0918,-1.0534,2.8419,1.624,2.246,-0.157
2708601.0,0.7015,-0.8954,3.4237,1.6831,2.6196,-0.2001
2708611.0,0.0814,-0.4405,4.4149,1.4309,2.8729,-0.2948
2708621.0,-0.5531,0.1389,5.2361,0.9498,2.9639,-0.4012
2708631.0,-1.0989,0.7039,5.9472,0.3326,2.9442,-0.4906
2708641.0,-1.6328,1.3671,6.5984,-0.2458,2.8553,-0.5337
2708651.0,-1.9872,2.3774,6.4643,-0.571,2.7196,-0.4895
2708661.0,-2.8084,2.6312,4.6352,-0.5007,2.709,-0.3219
2708671.0,-2.9832,2.5043,2.4038,-0.2543,2.9479,-0.0894
2708681.0,-3.2178,2.7102,2.2936,0.0878,3.5274,0.1235
2708691.0,-6.7205,2.9808,3.7781,0.5284,4.2292,0.3868
2708701.0,-7.7812,3.0358,9.9096,1.1526,4.7305,0.6018
2708711.0,-9.6654,2.8706,6.3805,1.8752,4.3362,0.8301
2708721.0,-9.5768,-1.1133,4.9895,1.8369,4.2617,0.969
2708731.0,-8.1858,-3.9097,8.5521,1.6373,4.7991,0.7822
2708741.0,-8.1068,-3.8738,10.8529,1.8188,5.3046,0.3491
2708751.0,-10.999,-2.2482,16.0052,1.9353,5.8123,-0.1926
2708761.0,-13.6972,1.5347,20.1616,1.6091,5.8043,-0.6518
2708771.0,-15.7179,4.2234,26.1255,0.4911,5.1205,-0.9344
2708781.0,-15.8927,4.9608,31.0408,-0.68,3.9073,-0.9541
2708791.0,-15.7155,3.3878,35.925,-1.177,2.6808,-0.7865
2708801.0,-14.2048,1.7645,35.3839,-0.705,1.3367,-0.5364
2708811.0,-13.0101,0.2394,33.9641,-0.0506,0.1096,-0.3938
2708821.0,-12.2487,1.0487,29.1973,0.7029,-0.9887,-0.3517
2708831.0,-11.4275,2.1548,24.4927,1.1456,-1.8049,-0.3294
2708841.0,-10.307,3.6105,18.6197,1.351,-2.2849,-0.2815
2708851.0,-9.2344,4.197,14.6118,1.002,-2.4701,-0.2533
2708861.0,-8.2361,4.4341,12.038,0.4353,-2.4158,-0.2453
2708871.0,-7.6231,4.1515,11.3653,-0.1235,-2.1854,-0.24
2708881.0,-7.2999,3.7589,11.5616,-0.5066,-1.9566,-0.2256
2708891.0,-7.0174,2.9808,12.3158,-0.7668,-1.8879,-0.2017
2708901.0,-6.6535,2.2434,12.7252,-0.8189,-1.9507,-0.1799
2708911.0,-6.4428,1.7549,12.9622,-0.6455,-2.0465,-0.157
2708921.0,-5.8921,2.1237,11.5281,-0.2921,-2.2125,-0.1181
2708931.0,-5.3486,2.2625,9.8593,-0.0676,-2.3392,-0.0681
2708941.0,-4.5897,2.5546,7.8745,0.0569,-2.3344,-0.0138
2708951.0,-3.9385,2.5881,6.6415,0.0516,-2.1896,0.0372
2708961.0,-3.6727,2.988,5.8227,-0.0245,-1.9438,0.0857
2708971.0,-3.7469,3.1196,5.9065,-0.2208,-1.6953,0.1479
2708981.0,-3.5674,2.5953,6.3782,-0.4629,-1.5469,0.2336
2708991.0,-2.9784,1.3862,6.845,-0.629,-1.4543,0.3054
2709001.0,-2.5067,0.3496,7.2712,-0.6619,-1.3548,0.3166
2709011.0,-2.2817,0.0144,7.7644,-0.6109,-1.2712,0.274
2709021.0,-2.0614,-0.3304,7.2712,-0.513,-1.2553,0.2086
2709031.0,-1.8387,-0.316,6.9073,-0.5912,-1.2957,0.099
2709041.0,-1.6783,-0.1508,6.517,-0.6396,-1.2568,0.0021
2709051.0,-1.494,-0.0359,6.9145,-0.5624,-1.0695,-0.0591
2709061.0,-1.6735,0.4022,7.1682,-0.397,-0.9057,-0.0921
2709071.0,-1.8555,0.8763,7.3334,-0.3193,-0.8562,-0.0974
2709081.0,-1.6352,1.2115,7.0509,-0.3288,-0.8705,-0.0772
2709091.0,-1.4174,1.142,7.0773,-0.4023,-0.853,-0.0426
2709101.0,-1.257,0.9792,7.0701,-0.4103,-0.7913,0.0032
2709111.0,-1.3192,0.7015,7.4005,-0.3837,-0.7162,0.0474
2709121.0,-1.3455,0.1125,7.7572,-0.3001,-0.646,0.0926
2709131.0,-1.2354,-0.6991,8.3558,-0.1878,-0.5577,0.1139
2709141.0,-0.9242,-1.6712,9.2799,-0.1006,-0.5013,0.0793
2709151.0,-0.5962,-2.2482,9.8593,-0.1123,-0.588,-0.0442
2709161.0,-0.5028,-1.8818,9.6869,-0.2315,-0.8189,-0.2304
2709171.0,-0.5124,-0.9337,8.7891,-0.3155,-1.0131,-0.3863
2709181.0,-0.4932,0.0694,7.6112,-0.3145,-1.0621,-0.4587
2709191.0,-0.3256,0.9313,6.1339,-0.3134,-0.9897,-0.4523
2709201.0,-0.2346,1.2498,5.7126,-0.4454,-0.8067,-0.4023
2709211.0,-0.2179,1.166,6.292,-0.5773,-0.5741,-0.3278
2709221.0,-0.4357,0.7207,7.3981,-0.6444,-0.4156,-0.2506
2709231.0,-0.3017,0.0144,8.5186,-0.5965,-0.3624,-0.1862
2709241.0,-0.1269,-0.3543,9.1459,-0.4145,-0.3821,-0.1522
2709251.0,-0.0838,-0.1844,9.0932,-0.2054,-0.4949,-0.1479
2709261.0,-0.0144,0.328,8.1618,-0.0016,-0.6316,-0.132
2709271.0,0.1341,1.0391,6.6463,0.199,-0.6747,-0.0835
2709281.0,0.146,1.6496,5.1547,0.34,-0.5656,0.0048
2709291.0,0.2705,1.7238,4.2258,0.4347,-0.3304,0.1192
2709301.0,0.3855,1.391,3.9672,0.5268,0.0106,0.2315
2709311.0,0.3567,0.6416,4.4436,0.596,0.3821,0.3049
2709321.0,0.5483,-0.1963,5.3367,0.6231,0.6641,0.3134
2709331.0,0.6393,-0.4884,5.849,0.6141,0.8413,0.2453
2709341.0,0.3496,-0.3065,6.6511,0.5635,0.9982,0.1405
2709351.0,0.0455,0.4645,7.2975,0.505,1.0807,0.0394
2709361.0,-0.2179,1.3408,7.2065,0.4284,1.0531,-0.025
2709371.0,-0.2442,2.1069,6.3638,0.2682,0.978,-0.0458
2709381.0,-0.1197,2.5833,5.2194,0.0383,0.9653,-0.033
2709391.0,0.0814,2.6983,4.4436,-0.2373,1.0717,-0.0016
2709401.0,0.0,2.5474,4.4293,-0.4635,1.2622,0.0325
2709411.0,-0.1532,3.1101,4.2425,-0.5747,1.3989,0.0766
2709421.0,-0.7877,3.6655,4.6184,-0.5396,1.55,0.1793
2709431.0,-1.312,4.3144,4.2593,-0.2714,1.648,0.3874
2709441.0,-1.4341,4.7285,2.5355,0.0846,1.7038,0.6806
2709451.0,-1.9656,4.6112,-0.7278,0.2506,1.7959,1.0078
2709461.0,-3.3926,3.948,-4.1132,-0.0952,1.9305,1.2824
2709471.0,-4.2665,2.9616,-6.4524,-0.547,2.3078,1.4846
2709481.0,-5.7604,2.0255,-7.3765,-0.4943,3.1858,1.6927
2709491.0,-9.5912,1.6496,-7.9535,0.223,4.5645,1.9374
2709501.0,-13.1106,0.3184,-3.4477,1.0424,6.2113,2.1497
2709511.0,-18.0714,0.3639,2.3487,2.1359,7.9354,2.287
2709521.0,-23.5877,-0.17,12.0021,2.7643,9.188,2.2918
2709531.0,-25.9962,-6.517,19.6301,3.0224,9.9069,2.1316
2709541.0,-22.7665,-10.6997,39.1644,1.383,9.8297,1.3282
2709551.0,-22.2445,-8.8155,49.1793,0.2671,8.3414,0.2315
2709561.0,-24.0761,-11.4012,63.4894,-1.3159,5.5718,-0.9025
2709571.0,-22.8263,-6.3087,58.9357,-2.1024,1.5101,-1.9396
2709581.0,-22.8287,-2.7294,52.8831,-2.7675,-2.0965,-2.626
2709591.0,-22.5486,4.1037,39.2481,-1.6538,-4.027,-2.7627
2709601.0,-22.2757,7.2018,32.6186,-0.3996,-4.5368,-2.5105
2709611.0,-20.5925,8.0613,25.0242,0.8109,-4.7619,-2.0827
2709621.0,-18.5096,6.6894,23.0729,1.0392,-4.9242,-1.8001
2709631.0,-19.2733,7.5393,24.9332,1.4394,-4.9188,-1.5947
2709641.0,-21.4951,8.442,23.2836,2.3333,-5.41,-1.1563
2709651.0,-20.3411,8.6359,16.4027,2.568,-6.6067,-0.5699
2709661.0,-17.1952,9.1195,8.9974,1.8124,-7.5214,-0.1006
2709671.0,-11.7292,7.9511,1.8675,0.4571,-7.8715,0.3076
2709681.0,-13.872,5.8251,2.0542,-1.5314,-7.7497,0.3815
2709691.0,-11.1977,5.8227,-2.5043,-2.6185,-8.1254,0.2831
2709701.0,-9.2703,3.1149,-4.4484,-3.2815,-8.0088,0.3214
2709711.0,-7.7213,2.332,-7.4795,-3.1304,-7.5597,0.249
2709721.0,-6.62,2.1548,-9.3613,-2.3104,-6.6903,0.2203
2709731.0,-2.7653,2.0782,-13.8481,-1.3686,-6.0996,0.2959
2709741.0,-0.8811,2.8802,-19.1656,-0.1857,-4.5671,0.4981
2709751.0,0.5986,0.7518,-17.7913,0.1309,-2.9969,0.6816
2709761.0,2.7581,-0.4286,-16.1441,0.3012,-1.5314,0.7641
2709771.0,2.3655,-0.6177,-12.6653,0.3304,-0.0032,0.7407
2709781.0,1.0439,-1.8651,-6.4907,-0.0947,0.9019,0.6268
2709791.0,-0.4956,-3.7445,6.1148,0.2299,2.0316,0.4757
2709801.0,-0.4477,-0.5219,3.3639,0.2911,1.7757,0.3299
2709811.0,2.6456,-2.5067,7.7524,-1.0371,0.8567,0.0702
2709821.0,2.5714,-0.5483,8.825,-0.9158,0.9131,-0.0713
2709831.0,0.7398,-0.5243,10.92,-0.8216,0.7029,-0.0479
2709841.0,-0.6847,-0.4693,12.4786,-0.3704,0.3437,0.0202
2709851.0,0.5794,-1.2258,10.2424,0.2049,-0.1463,0.1522
2709861.0,1.2498,-1.4892,8.9304,0.5342,-0.3097,0.1623
2709871.0,0.9074,-1.1732,7.0916,0.5678,-0.4007,0.0995
2709881.0,1.9944,-0.9146,5.9951,0.2969,-0.4949,0.0064
2709891.0,1.6328,-0.2227,5.284,0.0559,-0.3746,-0.058
2709901.0,1.6041,-0.2011,5.6216,-0.0926,-0.1596,-0.058
2709911.0,1.5347,-0.3184,6.2082,-0.0617,0.0346,-0.0186
2709921.0,1.7358,-0.9505,6.6822,0.1048,0.2192,0.0357
2709931.0,1.3527,-1.1253,7.4436,0.3437,0.4624,0.0628
2709941.0,0.8164,-0.8691,8.169,0.5215,0.6013,0.0575
2709951.0,1.5443,-1.4796,8.758,0.5843,0.563,0.0186
2709961.0,1.8004,-0.8787,8.3534,0.7221,0.6013,-0.0697
2709971.0,1.154,-0.8428,8.5641,0.7146,0.721,-0.1107
2709981.0,1.2282,-0.9744,9.232,0.4454,0.7497,-0.1676
2709991.0,1.3192,-0.6249,10.5991,0.0713,0.6518,-0.2804
2710001.0,0.2035,-0.182,10.9391,-0.0287,0.547,-0.3613
2710011.0,1.0798,0.6057,10.7811,0.0974,0.4475,-0.3852
2710021.0,-0.0096,1.1085,11.3174,0.3991,0.5779,-0.2975
2710031.0,-0.2251,1.0798,12.0883,0.7152,0.5997,-0.1735
2710041.0,-0.2346,0.4597,12.0883,0.9179,0.4417,-0.0803
2710051.0,0.0694,-0.0982,11.3318,0.9493,0.2267,-0.0676
2710061.0,0.5148,-0.5028,10.3837,0.8088,0.0447,-0.1293
2710071.0,0.7709,-0.4238,9.3302,0.5912,-0.0921,-0.2469
2710081.0,0.9433,0.0551,8.2073,0.4379,-0.1176,-0.3613
2710091.0,1.0056,0.589,7.7692,0.4363,0.049,-0.4337
2710101.0,0.8906,1.3791,7.5561,0.53,0.2868,-0.4693
2710111.0,0.5124,2.0566,7.6255,0.5412,0.472,-0.4715
2710121.0,0.2586,1.6065,7.9751,0.3916,0.5502,-0.4597
2710131.0,0.5602,1.8435,8.2887,0.1836,0.5316,-0.4715
2710141.0,0.0862,1.8244,8.5976,0.0718,0.5124,-0.464
2710151.0,0.2897,1.8914,8.2265,0.132,0.4949,-0.4161
2710161.0,0.4142,1.6281,8.0302,0.3368,0.5906,-0.3491
2710171.0,0.5243,1.4509,7.774,0.6375,0.779,-0.2863
2710181.0,0.4262,1.5155,7.7788,0.8519,0.9679,-0.2607
2710191.0,0.0503,1.834,8.0924,0.9014,1.077,-0.2661
2710201.0,-0.1197,2.0877,7.9679,0.8391,1.1148,-0.2735
2710211.0,-0.5124,2.2793,7.8338,0.5965,1.086,-0.3012
2710221.0,-0.2227,2.6264,6.857,0.2166,0.9557,-0.3278
2710231.0,-0.237,2.794,6.0142,-0.1495,0.9509,-0.3288
2710241.0,-0.577,2.9712,5.2625,-0.3374,1.1595,-0.2783
2710251.0,-0.7829,2.4062,5.0087,-0.5028,1.3856,-0.1937
2710261.0,-0.917,1.6472,5.1116,-0.6252,1.5681,-0.1266
2710271.0,-1.2857,1.087,5.1164,-0.6407,1.7283,-0.0905
2710281.0,-1.5299,1.0798,5.0494,-0.4943,1.8677,-0.0729
2710291.0,-1.9178,1.5874,3.5338,-0.1825,1.9869,-0.0436
2710301.0,-2.0135,1.8938,0.8787,0.0037,2.1215,-0.0016
2710311.0,-2.909,1.9632,-0.7422,0.1474,2.6111,0.0532
2710321.0,-4.2282,1.719,0.3256,0.456,3.5056,0.124
2710331.0,-6.608,1.4796,3.948,0.9136,4.4729,0.1889
2710341.0,-9.232,0.9122,8.5952,1.4388,5.1812,0.2097
2710351.0,-9.7372,1.6759,12.6294,1.9406,5.5127,0.1075
2710361.0,-9.074,1.7478,16.2997,1.9544,5.6393,0.0303
2710371.0,-11.4539,2.5474,21.4113,1.0988,5.3781,-0.1495
2710381.0,-11.8776,3.5554,29.3936,-0.0378,4.4948,-0.4331
2710391.0,-12.6462,5.4253,31.6873,-0.464,3.2134,-0.5417
2710401.0,-13.0125,5.6647,32.8987,-0.6375,1.9241,-0.4677
2710411.0,-12.5815,5.8131,30.5524,-0.6093,0.6295,-0.3352
2710421.0,-11.6622,4.8626,28.1845,-0.6992,-0.4645,-0.241
2710431.0,-10.5225,4.3239,25.0888,-0.5454,-1.2175,-0.1735
2710441.0,-9.5098,3.8403,21.9979,-0.2448,-1.7102,-0.1314
2710451.0,-8.6287,3.8762,18.895,0.1783,-1.9177,-0.0851
2710461.0,-7.8793,3.9648,16.3763,0.5928,-1.8874,-0.0101
2710471.0,-7.1563,4.2689,13.8313,0.7545,-1.8257,0.0607
2710481.0,-6.5864,4.3383,11.7412,0.4204,-1.8278,0.1011
2710491.0,-5.8945,3.9313,10.7404,-0.2027,-1.7863,0.1165
2710501.0,-5.4803,2.6767,10.2687,-0.8317,-1.7139,0.1101
2710511.0,-5.1499,0.917,10.8745,-1.3005,-1.5878,0.0532
2710521.0,-5.0853,0.1293,12.22,-1.4399,-1.4559,-0.049
2710531.0,-5.3774,-0.2658,12.9263,-1.2638,-1.4442,-0.1474
2710541.0,-4.7669,-0.5219,12.3684,-1.002,-1.5532,-0.2176
2710551.0,-3.9217,-0.6369,11.5544,-0.8955,-1.6517,-0.331
2710561.0,-3.6033,0.6943,11.3868,-0.8913,-1.6549,-0.4757
2710571.0,-4.4125,2.5833,11.4922,-0.8173,-1.5825,-0.5396
2710581.0,-4.7932,3.9935,11.0971,-0.8508,-1.674,-0.4789
2710591.0,-4.3622,4.3862,9.8785,-1.1169,-1.9252,-0.3411
2710601.0,-3.8164,3.9241,8.7724,-1.4782,-2.0827,-0.1905
2710611.0,-3.3567,2.8347,8.2432,-1.7145,-2.0556,-0.0479
2710621.0,-3.1939,1.2498,8.5952,-1.7485,-1.9411,0.0686
2710631.0,-2.6049,-0.5315,9.0908,-1.5314,-1.8257,0.1431
2710641.0,-2.1117,-0.9673,9.4786,-1.1813,-1.7836,0.1378
2710651.0,-2.1045,-0.9146,9.3015,-0.7918,-1.7895,0.1117
2710661.0,-1.5802,-0.8547,8.3127,-0.5444,-1.8624,0.0851
2710671.0,-1.0271,-0.5195,7.3741,-0.5667,-1.9401,0.0101
2710681.0,-1.3384,0.1915,7.1036,-0.6955,-1.9252,-0.0761
2710691.0,-1.5083,0.51,7.0509,-0.7396,-1.8964,-0.0968
2710701.0,-1.2402,0.2514,6.5338,-0.6588,-1.8821,-0.0702
2710711.0,-0.7566,-0.4022,5.9185,-0.5662,-1.8262,-0.0521
2710721.0,-0.0814,-1.0367,5.8945,-0.4901,-1.7017,-0.0825
2710731.0,0.2322,-0.972,5.8993,-0.3884,-1.5804,-0.1607
