time_ms,ax,ay,az,gx,gy,gz
1253871.0,1.3886,11.7029,35.9513,-0.3187,1.3494,-1.2946
1253881.0,0.9577,11.9135,36.7462,-0.4284,1.4287,-1.0318
1253891.0,0.316,11.6646,37.1197,-0.4842,1.4372,-0.7944
1253901.0,0.6895,10.6111,37.2442,-0.4459,1.4936,-0.6242
1253911.0,-0.1628,10.2185,37.4645,-0.4172,1.5426,-0.4688
1253921.0,-0.5842,10.6877,37.0527,-0.5561,1.5926,-0.3379
1253931.0,-1.1492,11.6646,37.158,-0.6263,1.7741,-0.0756
1253941.0,-2.0973,12.4115,37.8092,-0.6013,1.9215,0.2826
1253951.0,-2.9497,12.3062,38.1923,-0.4959,2.072,0.6843
1253961.0,-3.6679,11.3294,38.7861,-0.3416,2.3413,1.1015
1253971.0,-5.2002,9.9407,39.3224,0.0426,2.6121,1.4521
1253981.0,-5.2194,8.1882,40.6344,0.5646,3.0059,1.6852
1253991.0,-6.0717,7.0485,41.4867,1.0307,3.3624,1.773
1254001.0,-6.2345,6.4069,42.9137,1.26,3.4194,1.8081
1254011.0,-6.5218,6.2345,44.1108,1.5064,3.322,1.7549
1254021.0,-6.7995,7.3263,43.8809,1.1893,3.3454,1.6671
1254031.0,-7.8338,8.3031,45.1163,0.6306,3.0123,1.6144
1254041.0,-8.8107,9.414,46.0453,-0.2246,2.3211,1.6533
1254051.0,-9.2608,9.979,45.6909,-0.8487,1.6527,1.8092
1254061.0,-8.8107,10.6781,43.6894,-1.3138,1.1584,2.0492
1254071.0,-9.4332,10.9942,41.3239,-1.5793,0.853,2.3456
1254081.0,-9.7971,10.3813,38.3168,-1.7634,1.1531,2.7106
1254091.0,-9.8354,8.8585,37.6368,-1.5362,1.7565,3.1081
1254101.0,-10.1418,6.9815,38.1636,-1.2271,2.4243,3.4869
1254111.0,-9.7875,4.4245,39.5809,-0.6843,3.1538,3.7759
1254121.0,-9.1554,2.8347,41.6591,-0.0899,3.8419,3.9467
1254131.0,-8.5808,1.9537,43.4883,0.2118,4.0989,4.018
1254141.0,-7.6806,1.0822,44.5992,0.0239,4.2867,3.9382
1254151.0,-8.4659,0.8236,46.2081,-0.5837,4.4495,3.7386
1254161.0,-10.7548,0.316,48.4778,-1.242,4.3266,3.5359
1254171.0,-12.3637,-0.2011,52.117,-1.6341,4.3532,3.3731
1254181.0,-14.03,-1.5706,57.1544,-1.5884,4.3005,3.2315
1254191.0,-15.3516,-3.1603,62.2301,-1.036,3.9403,3.0618
1254201.0,-15.5527,-4.2808,65.716,-0.439,3.298,2.7861
1254211.0,-15.0069,-4.6448,67.7272,-0.2325,2.328,2.3525
1254221.0,-15.0547,-4.3096,68.0719,-0.6098,1.0073,1.7938
1254231.0,-15.0643,-2.7964,67.2962,-1.3867,-0.3932,1.1552
1254241.0,-15.9262,-1.8675,66.4247,-2.2652,-1.8278,0.6151
1254251.0,-16.8073,-1.245,64.4615,-3.0394,-3.1639,0.1564
1254261.0,-17.3915,-1.5897,62.7472,-3.3183,-4.1143,-0.2331
1254271.0,-16.9701,-1.6089,60.1902,-3.3214,-4.8284,-0.6109
1254281.0,-16.5008,-1.0056,58.5909,-2.9862,-5.3227,-0.9211
1254291.0,-16.0603,0.5267,57.1735,-2.4392,-5.7734,-1.086
1254301.0,-15.3899,2.1356,55.5072,-1.897,-6.3369,-1.1063
1254311.0,-14.9781,2.9018,52.9789,-1.3569,-6.9308,-1.0158
1254321.0,-13.8768,3.2082,49.8569,-1.0099,-7.4943,-0.9477
1254331.0,-13.1394,2.5666,46.256,-0.8439,-7.9583,-0.9434
1254341.0,-12.0668,2.3367,43.6511,-0.7625,-8.3355,-0.9775
1254351.0,-10.726,1.8196,40.5865,-0.6678,-8.6601,-1.0605
1254361.0,-9.1746,0.9864,37.9912,-0.4986,-8.7208,-1.2058
1254371.0,-7.6902,-0.0287,36.0375,-0.3049,-8.6532,-1.4032
1254381.0,-6.0717,-0.3352,34.0455,-0.2368,-8.6468,-1.7107
1254391.0,-4.8171,0.2011,32.8101,-0.2022,-8.6702,-2.0407
1254401.0,-3.0454,1.8579,30.5309,-0.3661,-8.6958,-2.3147
1254411.0,-1.9154,3.5147,29.1326,-0.5114,-8.6404,-2.4562
1254421.0,-0.8523,5.7365,26.9491,-0.7668,-8.5846,-2.461
1254431.0,0.6512,6.6272,25.4647,-0.9647,-8.2408,-2.3083
1254441.0,1.1779,6.5984,23.8175,-1.2063,-7.9561,-2.1716
1254451.0,2.6528,4.8076,23.8941,-1.3968,-7.6246,-2.055
1254461.0,5.0757,3.0454,23.4919,-1.3079,-7.1968,-2.1269
1254471.0,7.5082,1.7909,23.8558,-0.9589,-6.6248,-2.3078
1254481.0,9.1267,2.2505,23.3674,-0.6295,-6.2098,-2.5371
1254491.0,9.979,4.4819,22.0362,-0.5811,-5.7825,-2.6803
1254501.0,9.5577,7.4029,20.5327,-0.7524,-5.2147,-2.6175
1254511.0,9.663,8.9543,20.7529,-1.0743,-4.631,-2.3509
1254521.0,9.9407,8.9352,21.5957,-1.4415,-3.9355,-1.9811
1254531.0,10.6111,6.675,24.4975,-1.657,-3.4896,-1.7522
1254541.0,11.5879,4.865,26.3745,-2.0944,-3.6088,-1.7416
1254551.0,12.5265,3.9935,26.5278,-2.3913,-3.8456,-1.8427
1254561.0,12.967,3.6679,26.6235,-2.3019,-3.8259,-1.9321
1254571.0,12.5552,4.2234,24.2964,-1.9427,-3.6583,-1.9454
1254581.0,12.1625,4.865,22.879,-1.5325,-3.0671,-1.864
1254591.0,11.3102,5.5929,22.8215,-0.745,-2.2732,-1.6224
1254601.0,10.4579,5.8993,23.626,0.0591,-1.6432,-1.3808
1254611.0,10.228,7.422,21.9213,0.2953,-1.3372,-1.168
1254621.0,10.3142,9.347,20.4656,0.0468,-0.9615,-0.9275
1254631.0,10.3046,10.6781,19.6037,-0.1272,-0.3634,-0.5853
1254641.0,10.3238,10.9271,19.326,-0.0803,0.1639,-0.0979
1254651.0,10.6494,10.161,17.6788,-0.1128,0.7109,0.3704
1254661.0,11.3389,8.734,16.4434,-0.2176,1.5633,0.7359
1254671.0,11.8561,7.9775,15.4857,-0.696,2.2051,1.0041
1254681.0,10.5345,6.9911,15.6964,-1.4282,2.7675,1.1983
1254691.0,9.232,6.1962,15.2654,-1.9305,3.264,1.4271
1254701.0,9.5864,4.0797,15.1792,-2.1109,4.2005,1.6166
1254711.0,9.5193,1.9249,16.1848,-1.3351,5.452,1.7065
1254721.0,9.1363,0.5363,17.1712,0.3017,6.8041,1.7267
1254731.0,8.0062,1.6185,17.2478,2.4461,8.2403,1.7001
1254741.0,6.9528,5.3247,14.9685,4.6049,9.8302,1.7836
1254751.0,4.3191,10.4387,11.8274,6.1608,11.5639,2.0556
1254761.0,-0.5555,15.2846,7.106,6.6605,13.6769,2.6372
1254771.0,-4.051,13.5033,8.0924,6.711,16.3114,3.2523
1254781.0,-7.5274,9.6438,11.0038,5.3254,17.4357,3.2464
1254791.0,-10.908,6.0717,19.9964,3.2571,17.4357,2.842
1254801.0,-14.5567,4.0223,34.1222,1.6937,17.4357,2.2801
1254811.0,-17.6022,4.2425,47.884,1.4106,17.4357,1.8384
1254821.0,-19.7953,7.3933,55.7466,1.4505,17.4357,1.5224
1254831.0,-21.5861,12.3637,63.6091,1.2191,17.4357,1.3787
1254841.0,-24.871,19.2207,69.0871,0.2522,16.5609,1.648
1254851.0,-27.0257,20.9924,77.9648,-0.7662,14.2824,2.2721
1254861.0,-27.1981,21.8255,78.4508,-1.6448,11.4404,2.9596
1254871.0,-26.7384,20.3794,78.4508,-1.7182,8.5713,3.8057
1254881.0,-24.689,17.8703,78.4508,-0.124,5.9767,4.7113
1254891.0,-23.5015,14.7866,75.877,1.2739,3.7115,5.3844
1254901.0,-20.7146,10.1227,62.029,1.2866,2.552,5.4589
1254911.0,-18.0427,7.3071,49.2439,-0.0346,2.0194,4.9673
1254921.0,-17.6596,6.3398,41.7261,-2.1801,2.0827,4.2622
1254931.0,-18.1576,7.1826,38.154,-3.6093,2.7404,3.7993
1254941.0,-19.0291,7.6998,39.6384,-3.7913,3.7423,3.6992
1254951.0,-19.6229,8.3222,42.5689,-2.6042,4.7454,3.8866
1254961.0,-20.1592,8.2744,44.0437,-0.969,5.9352,4.1191
1254971.0,-20.2933,6.9336,47.6925,0.0793,6.727,4.1718
1254981.0,-20.8008,6.7804,50.3261,0.083,6.5045,3.8732
1254991.0,-21.7106,9.3853,52.2511,-0.8588,5.9182,3.5444
1255001.0,-23.0801,11.971,55.737,-1.6469,5.3286,3.4832
1255011.0,-24.2389,14.3173,58.6867,-2.0311,4.5474,3.7147
1255021.0,-24.4783,15.5049,60.8415,-2.2061,3.7557,4.1084
1255031.0,-25.2636,15.84,62.7664,-1.839,2.8106,4.6368
1255041.0,-25.6275,15.9167,60.5541,-1.5953,1.6511,5.1471
1255051.0,-24.9284,14.8441,56.9724,-1.9156,0.704,5.4845
1255061.0,-24.1336,13.0819,52.5192,-2.5233,0.1394,5.7303
1255071.0,-23.128,9.0597,51.8776,-2.8686,-0.1612,5.8229
1255081.0,-22.1416,5.9568,51.0923,-3.0761,-0.5768,5.6941
1255091.0,-22.0362,4.2521,50.8912,-2.9575,-0.945,5.4951
1255101.0,-21.816,4.1084,50.3165,-2.0987,-1.0977,5.3892
1255111.0,-21.5574,4.9608,49.0045,-0.7854,-1.044,5.4584
1255121.0,-21.3946,6.3207,46.007,0.1921,-0.9083,5.5648
1255131.0,-20.9157,7.173,43.2776,0.4762,-0.8439,5.6883
1255141.0,-19.9389,7.9104,40.9696,0.1415,-0.7774,5.7527
1255151.0,-19.6803,8.1786,40.5386,-0.1511,-0.622,5.816
1255161.0,-20.1783,8.5234,41.8698,-0.1517,-0.6933,6.0187
1255171.0,-20.4848,8.3318,41.6495,0.3272,-0.6832,6.263
1255181.0,-20.0155,8.169,40.1843,0.9605,-0.4044,6.5311
1255191.0,-19.6516,8.0158,38.154,1.1121,-0.0601,6.6966
1255201.0,-19.7665,7.2784,36.9856,0.6348,0.2921,6.7115
1255211.0,-19.5941,5.7557,37.7422,-0.3735,0.4592,6.5482
1255221.0,-19.2781,4.2425,41.2856,-1.4011,0.3363,6.2848
1255231.0,-19.7378,1.9154,46.2464,-1.9779,-0.041,5.9416
1255241.0,-18.0523,0.3639,50.9199,-1.7491,-0.4725,5.6191
1255251.0,-17.7554,-0.0575,54.9996,-0.8423,-1.2526,5.3142
1255261.0,-17.7746,0.6895,55.5455,-0.0777,-2.3519,5.0513
1255271.0,-17.4298,2.557,53.496,0.3656,-3.4013,4.8406
1255281.0,-17.5926,3.2082,50.2016,0.497,-4.3319,4.6996
1255291.0,-17.0659,3.8882,45.8346,0.3124,-4.8683,4.5453
1255301.0,-16.7498,3.5338,43.5074,0.0803,-5.0705,4.4336
1255311.0,-16.0507,1.7238,42.6072,0.1426,-5.0758,4.2659
1255321.0,-15.3995,-0.6704,43.9863,0.7774,-5.1008,4.0377
1255331.0,-14.0875,-1.6472,43.8905,1.6224,-5.1668,3.7434
1255341.0,-13.4841,-1.992,44.4938,2.5142,-5.368,3.4406
1255351.0,-12.5743,-1.6472,43.3255,3.2086,-5.5441,3.1661
1255361.0,-12.2104,-0.2682,41.707,3.4178,-5.7878,2.8803
1255371.0,-11.6071,1.3886,40.0023,3.2225,-6.0666,2.6803
1255381.0,-11.3964,1.7142,38.6807,2.9623,-6.222,2.5696
1255391.0,-10.6973,1.1109,39.1596,3.0309,-6.3391,2.4887
1255401.0,-10.4866,-0.4118,40.0885,3.6237,-6.454,2.3589
1255411.0,-9.347,-1.2737,40.1651,4.5192,-6.7062,2.2115
1255421.0,-8.0828,-1.6281,38.5562,5.3658,-7.0021,2.0029
1255431.0,-6.5218,-1.4461,35.664,5.8325,-7.2607,1.7294
1255441.0,-5.8514,-1.0056,32.6856,5.9905,-7.5182,1.4309
1255451.0,-4.5777,-0.0575,27.8494,5.6212,-7.5629,1.0206
1255461.0,-3.6105,0.68,25.7999,5.0311,-7.3096,0.5992
1255471.0,-2.557,0.9768,25.2923,4.3804,-7.0356,0.1692
1255481.0,-2.0207,1.245,24.6507,3.6088,-6.9893,-0.3443
1255491.0,-1.0056,1.2067,24.938,2.6366,-6.9813,-0.9115
1255501.0,-0.3543,1.2163,25.4743,2.3275,-7.092,-1.458
1255511.0,1.6759,1.8387,24.8422,2.2769,-6.8749,-2.0135
1255521.0,3.0933,3.3136,23.5302,2.2844,-6.5296,-2.5036
1255531.0,3.9073,4.8171,22.9843,2.2327,-6.2688,-2.9639
1255541.0,4.2329,7.3454,21.7202,1.9103,-5.8596,-3.3528
1255551.0,3.5817,9.4332,21.136,1.2302,-5.6516,-3.6258
1255561.0,4.0031,10.8601,20.5039,0.4778,-5.5409,-3.8695
1255571.0,4.9033,11.4922,19.9964,-0.2405,-5.2551,-4.0435
1255581.0,5.43,11.4922,19.8144,-0.6614,-4.7688,-4.1893
1255591.0,5.5258,11.0421,20.9445,-0.6114,-4.143,-4.2633
1255601.0,6.675,10.4004,21.7298,-0.1107,-3.4369,-4.3681
1255611.0,7.2975,10.7164,22.3714,0.2192,-2.8553,-4.5059
1255621.0,7.1156,11.0133,23.3004,0.4635,-2.4871,-4.6613
1255631.0,6.9719,11.2432,22.946,0.5039,-2.2774,-4.8263
1255641.0,6.9049,10.9463,22.2661,0.3704,-2.038,-4.9875
1255651.0,7.0102,9.6822,20.4752,-0.1219,-1.724,-5.3025
1255661.0,7.5274,7.7668,18.7227,-0.6689,-1.1722,-5.8011
1255671.0,7.2688,6.0813,18.8088,-1.1589,-0.3783,-6.5019
1255681.0,6.7229,5.9185,19.2207,-1.2361,0.597,-7.2798
1255691.0,4.9799,8.0254,20.8774,-1.317,1.7171,-8.0322
1255701.0,2.4804,11.655,23.7313,-1.3675,2.5137,-8.5308
1255711.0,0.6608,15.0643,26.8917,-1.7235,2.8553,-8.8262
1255721.0,-0.9194,17.8512,28.4527,-2.4051,3.0144,-8.9336
1255731.0,-2.3559,20.0443,30.1191,-3.3943,3.1097,-8.8905
1255741.0,-4.0127,20.6955,32.1398,-4.2601,3.033,-8.6772
1255751.0,-4.9704,20.1113,34.0743,-4.706,2.9825,-8.4579
1255761.0,-6.2824,19.0387,35.8268,-4.8252,2.9564,-8.2775
1255771.0,-7.0773,18.1289,36.5547,-4.3628,3.1405,-8.1248
1255781.0,-6.924,18.1097,37.0431,-3.5678,3.5859,-7.9875
1255791.0,-7.6327,18.7131,38.4605,-2.5951,4.0457,-7.8311
1255801.0,-8.6,20.1879,39.4756,-2.0002,4.2409,-7.6023
1255811.0,-9.3374,21.3946,40.9121,-1.5937,4.1792,-7.2468
1255821.0,-9.8258,22.3235,40.2417,-1.5729,4.0403,-6.8047
1255831.0,-11.3868,21.1647,40.5482,-1.6799,3.8301,-6.3795
1255841.0,-11.224,19.4792,39.5043,-1.6517,3.852,-6.098
1255851.0,-11.0516,18.2342,39.6671,-1.3452,4.2319,-5.9261
1255861.0,-11.406,16.7498,41.3335,-0.6758,4.7363,-5.8016
1255871.0,-11.7699,15.4091,43.5553,0.017,5.0221,-5.7894
1255881.0,-11.9519,14.4514,45.2408,0.3895,5.096,-5.9538
1255891.0,-12.4498,15.0835,46.4571,0.1713,4.7023,-6.2305
1255901.0,-13.0723,16.4434,47.4818,-0.5396,4.1627,-6.4806
1255911.0,-14.6238,17.4681,47.568,-1.3377,3.5503,-6.6152
1255921.0,-15.208,17.6979,46.4954,-2.3727,3.0192,-6.7169
1255931.0,-15.1697,17.3244,47.2711,-3.3055,2.7649,-6.8509
1255941.0,-16.7786,17.0563,49.9047,-3.3347,2.5643,-6.893
1255951.0,-17.5447,17.4489,50.7092,-2.7085,2.4993,-6.8158
1255961.0,-17.6788,18.0523,52.9789,-1.5825,2.6568,-6.6498
1255971.0,-18.1289,19.6899,54.7314,-0.5481,2.5254,-6.4976
1255981.0,-18.4832,22.9843,54.9134,-0.2043,2.0965,-6.3295
1255991.0,-19.7091,25.436,56.2733,-0.3741,1.442,-6.0049
1256001.0,-21.318,27.0832,55.8902,-0.9982,0.4704,-5.6106
1256011.0,-21.6819,26.748,56.0147,-1.6038,-0.3879,-5.1998
1256021.0,-21.95,25.7233,55.2582,-2.1088,-1.0493,-4.8688
1256031.0,-22.065,24.3442,56.1297,-2.1971,-1.5926,-4.6012
1256041.0,-21.0977,24.0665,55.4784,-1.9183,-2.0843,-4.3431
1256051.0,-20.7051,24.0186,55.0954,-1.5878,-2.4429,-4.059
1256061.0,-20.3699,24.6028,55.0283,-1.2627,-2.8101,-3.7791
1256071.0,-20.3603,25.3594,54.1281,-1.3516,-3.5167,-3.4098
1256081.0,-19.4026,24.8997,52.4426,-1.7139,-4.1393,-3.0405
1256091.0,-18.5407,23.5398,50.7475,-2.3035,-4.6006,-2.7558
1256101.0,-17.6979,21.4042,48.9088,-3.0873,-5.1205,-2.6329
1256111.0,-16.8169,18.9717,48.2767,-3.8371,-5.5228,-2.676
1256121.0,-15.8783,17.7075,47.1275,-4.3452,-5.908,-2.8112
1256131.0,-15.5049,17.9852,46.2656,-4.5347,-6.1592,-2.8968
1256141.0,-14.9207,17.7362,46.0357,-4.4149,-6.2257,-2.8399
1256151.0,-14.2216,16.8456,45.7005,-4.093,-6.1688,-2.6207
1256161.0,-13.2926,14.7196,46.6199,-3.5189,-5.9937,-2.4328
1256171.0,-12.3732,12.4498,48.0181,-3.1884,-6.1975,-2.4371
1256181.0,-11.0516,11.971,47.386,-3.2597,-6.8031,-2.6169
1256191.0,-10.8026,12.3637,46.2751,-3.7929,-7.3288,-2.8622
1256201.0,-10.5536,13.7044,45.2887,-4.1659,-7.7837,-3.0341
1256211.0,-10.6973,14.2024,45.9112,-4.0526,-7.9812,-3.0016
1256221.0,-10.0652,13.8289,46.639,-3.3012,-8.2132,-2.8181
1256231.0,-9.4332,12.8904,44.2927,-2.8378,-8.5675,-2.6622
1256241.0,-7.92,11.1953,41.7645,-2.8569,-8.8501,-2.6999
1256251.0,-6.8378,10.5919,38.4126,-3.7125,-9.2396,-3.0027
1256261.0,-5.4971,10.1323,36.9761,-4.8534,-9.4642,-3.3901
1256271.0,-4.7501,10.8984,36.4876,-5.6356,-9.4493,-3.7386
1256281.0,-5.4779,12.5073,38.1348,-5.8798,-9.3487,-3.886
1256291.0,-5.5641,13.5416,40.4524,-5.3275,-9.3152,-3.6992
1256301.0,-5.5354,14.5472,40.8738,-4.284,-9.3913,-3.2603
1256311.0,-4.367,14.3556,39.7437,-2.8431,-9.3652,-2.6536
1256321.0,-3.4572,14.1737,36.3057,-2.1215,-9.3194,-2.1002
1256331.0,-1.6855,12.9287,34.1988,-1.6804,-9.0943,-1.665
1256341.0,-1.0534,11.9327,32.2451,-1.7006,-9.0087,-1.3106
1256351.0,0.4693,9.2033,32.858,-1.6416,-8.9022,-1.0291
1256361.0,1.4557,7.3071,31.8333,-1.5171,-8.9368,-0.9301
1256371.0,2.7964,6.7804,29.8222,-1.5117,-8.9911,-0.9589
1256381.0,3.4764,8.0445,27.0928,-1.7858,-9.056,-0.9562
1256391.0,4.3287,10.161,24.4783,-2.2274,-9.0033,-0.8104
1256401.0,5.3726,12.038,21.8064,-2.5866,-8.7937,-0.4784
1256411.0,6.1483,12.5456,19.1153,-2.8308,-8.352,0.0021
1256421.0,7.92,11.3389,16.7786,-3.0064,-7.7284,0.4587
1256431.0,9.0309,9.6247,14.7291,-3.3566,-7.0398,0.7913
1256441.0,9.8928,6.7421,13.532,-3.7487,-6.3226,0.978
1256451.0,12.6127,3.2944,12.6222,-4.3,-5.4382,0.9211
1256461.0,13.5991,1.8004,13.4554,-4.7693,-4.797,0.6407
1256471.0,14.5089,3.1316,12.8521,-5.1657,-4.1084,0.4438
1256481.0,14.1354,4.4341,14.7579,-5.029,-3.264,0.4699
1256491.0,14.6717,6.11,15.093,-4.3106,-2.5877,0.7269
1256501.0,15.0547,7.0581,14.5567,-3.5854,-1.6969,1.0791
1256511.0,14.5567,6.6846,14.8345,-2.5557,-0.6109,1.5394
1256521.0,15.0835,5.3822,14.9494,-1.5947,0.4049,1.9108
1256531.0,14.3556,4.798,13.8768,-1.1313,1.2702,2.1769
1256541.0,13.8289,5.1715,14.2407,-0.8221,2.2562,2.4828
1256551.0,13.4267,4.9225,15.0452,-0.6369,3.2895,2.9043
1256561.0,12.785,4.3958,16.7498,-0.5215,4.0574,3.3608
1256571.0,12.402,4.3383,17.2095,-0.5263,4.8614,3.8365
1256581.0,11.406,3.8499,19.1728,-0.3368,5.7383,4.3112
1256591.0,9.73,3.3519,21.4137,0.0607,6.5844,4.8263
1256601.0,7.9871,1.8962,24.7177,0.9647,7.3107,5.3648
1256611.0,8.1307,1.3599,25.4552,1.7858,7.8902,5.8059
1256621.0,7.3071,0.996,26.2596,2.0848,8.6346,6.2193
1256631.0,5.8227,0.3735,28.7113,2.1391,9.2247,6.6775
1256641.0,4.3,-1.7047,30.3681,1.6836,9.2859,7.0212
1256651.0,4.0127,-4.9704,31.6705,0.7221,9.1757,7.1096
1256661.0,3.802,-7.7668,32.8197,-0.6572,8.9342,6.8919
1256671.0,2.4995,-9.0022,34.9553,-1.8688,8.4867,6.5386
1256681.0,0.3543,-9.2512,36.3536,-2.2349,8.1323,6.3508
1256691.0,-0.3735,-10.0078,38.1061,-1.6432,8.1424,6.2949
1256701.0,-0.067,-8.9639,37.2538,-0.7572,8.4484,6.2098
1256711.0,-0.7087,-6.4643,37.905,-0.307,9.0119,6.206
1256721.0,-3.4189,-3.3998,40.8834,-0.1846,9.1358,6.3587
1256731.0,-5.612,-2.1548,45.0206,0.0511,8.7836,6.7685
1256741.0,-7.1156,-3.5243,48.1043,0.9567,8.2004,7.1654
1256751.0,-7.4508,-5.0661,44.9727,1.8379,7.6385,7.3714
1256761.0,-7.4029,-5.9951,38.3455,1.7437,7.6523,7.2335
1256771.0,-8.7245,-4.865,33.0113,0.9961,8.385,6.9765
1256781.0,-10.659,-5.1619,33.4422,0.0846,9.6722,6.8217
1256791.0,-12.0859,-7.0006,38.1636,-0.5513,10.622,6.6365
1256801.0,-14.0492,-7.3933,44.4651,-1.218,11.0328,6.2991
1256811.0,-17.0084,-6.292,53.8025,-0.7359,11.0206,6.1677
1256821.0,-18.9238,-4.9033,60.8798,1.0988,10.8508,6.3981
1256831.0,-20.0538,-3.6392,64.0688,3.305,10.3022,6.6493
1256841.0,-19.7761,-1.1013,59.5965,3.9509,9.4812,6.6333
1256851.0,-20.9445,2.2697,56.4744,2.9878,8.8485,6.5029
1256861.0,-23.1759,5.1332,55.0379,1.4857,8.4659,6.5631
1256871.0,-24.5454,4.6639,56.915,-0.0649,7.9726,6.7126
1256881.0,-24.6507,2.8635,59.1751,-1.5202,7.349,6.7578
1256891.0,-25.7233,0.5076,64.3083,-1.9949,6.6759,6.8153
1256901.0,-25.8191,-1.0822,69.4797,-1.1744,5.7777,6.9398
1256911.0,-25.369,-0.929,71.692,0.5981,4.7278,7.1766
1256921.0,-25.4264,0.8715,68.3018,2.3546,3.654,7.4948
1256931.0,-25.1391,3.0933,60.6308,3.1879,2.7462,7.8077
1256941.0,-24.8327,4.7884,50.9773,2.6664,2.4009,7.9721
1256951.0,-25.2157,5.2385,44.1682,1.1706,2.4286,8.0823
1256961.0,-26.2979,2.7869,42.7509,-0.356,3.0932,8.2419
1256971.0,-25.005,-3.5243,48.4778,-0.4432,3.6886,8.2712
1256981.0,-24.124,-7.422,52.6054,-0.1091,3.6237,7.9971
1256991.0,-23.377,-8.7053,59.1751,1.1754,3.2975,7.705
1257001.0,-23.4919,-7.5561,61.3969,2.6084,2.2397,7.5427
1257011.0,-22.563,-6.2153,58.1983,3.7338,1.2068,7.4517
1257021.0,-22.0362,-4.6064,52.3372,3.753,0.4581,7.2554
1257031.0,-21.4904,-2.6624,44.1682,2.1705,-0.0138,6.777
1257041.0,-22.381,-1.0439,41.4101,-0.4432,-0.3092,6.2028
1257051.0,-23.4057,-0.2011,41.5729,-2.6494,-0.6337,5.7074
1257061.0,-24.2006,-0.4118,43.9863,-3.662,-0.7396,5.4307
1257071.0,-24.0091,-0.5746,46.6965,-3.049,-0.5545,5.3962
1257081.0,-23.6643,-0.7757,49.1194,-1.6187,-0.2395,5.5297
1257091.0,-23.2525,-0.0096,50.4506,0.0894,-0.1953,5.7064
1257101.0,-22.5917,1.1971,49.6366,1.0413,-0.3501,5.8814
1257111.0,-22.3906,1.4461,48.066,1.4,-0.663,5.9863
1257121.0,-22.5342,1.5036,45.9304,0.9711,-0.911,5.9096
1257131.0,-22.8311,1.2833,46.3517,0.2847,-1.1057,5.6835
1257141.0,-22.2086,-0.2682,48.6885,-0.0617,-1.3941,5.3727
1257151.0,-21.816,-0.3352,50.374,-0.1772,-1.806,4.98
1257161.0,-21.5957,-0.4788,52.5479,-0.067,-2.4738,4.6209
1257171.0,-19.9102,0.2873,53.2183,0.0772,-3.007,4.3697
1257181.0,-19.4601,1.4269,51.7435,0.0053,-4.0276,4.1537
1257191.0,-18.9142,1.6855,48.9949,-0.8296,-5.1466,3.9387
1257201.0,-17.2095,1.9537,44.446,-1.6591,-5.9549,3.6381
1257211.0,-17.2957,1.4748,41.142,-2.8995,-6.3481,3.3369
1257221.0,-16.2806,-0.2682,39.1308,-3.5582,-6.5019,2.9862
1257231.0,-14.9685,-1.4461,39.2362,-3.7189,-6.296,2.6707
1257241.0,-14.1737,-3.0646,41.6974,-2.8979,-6.0214,2.4062
1257251.0,-13.3213,-2.5857,41.9273,-1.8012,-5.932,2.1891
1257261.0,-13.0532,-1.9345,41.8698,-0.8924,-5.9187,2.0838
1257271.0,-12.3637,-0.8332,40.3758,-0.3847,-6.0182,2.0194
1257281.0,-11.8274,-0.5842,39.0159,-0.4225,-6.2082,1.9353
1257291.0,-11.2432,-0.2203,37.4932,-0.8822,-6.3912,1.7155
1257301.0,-10.2376,-0.5746,37.3783,-1.5554,-6.437,1.4718
1257311.0,-10.228,-1.1492,38.8435,-1.9252,-6.6424,1.2052
1257321.0,-9.3374,-1.3982,39.9544,-1.9018,-6.8515,0.9754
1257331.0,-8.7436,-2.1069,42.7413,-1.0695,-6.8994,0.8775
1257341.0,-8.5521,-2.4612,43.2201,0.2464,-7.1479,0.8524
1257351.0,-7.3646,-2.2218,41.3622,1.259,-7.5102,0.7795
1257361.0,-6.4643,-1.4748,37.9337,1.8794,-7.7497,0.7561
1257371.0,-5.3726,-0.7278,34.2754,1.9704,-7.7976,0.6992
1257381.0,-3.7445,-1.0534,30.483,1.7044,-7.6853,0.5678
1257391.0,-2.5187,-1.3791,28.0026,1.0488,-7.3879,0.3097
1257401.0,-1.3982,-2.6145,27.0641,0.4975,-7.0223,-0.0271
1257411.0,0.5076,-3.802,26.7768,0.1511,-6.5668,-0.4688
1257421.0,2.0111,-4.7788,27.4376,0.0271,-6.0347,-0.961
1257431.0,3.2082,-5.3247,28.5676,0.3815,-5.6127,-1.4963
1257441.0,3.8307,-3.9935,28.0026,0.6417,-5.2104,-1.9678
1257451.0,4.2425,-2.2601,27.0066,0.8248,-4.6363,-2.362
1257461.0,4.4149,-0.6512,26.8342,0.7684,-4.1356,-2.6185
1257471.0,4.6543,0.2394,27.8494,0.8556,-3.9307,-2.7835
1257481.0,5.2864,1.1205,26.6523,0.5369,-3.6109,-2.9718
1257491.0,5.9472,0.9002,26.93,0.2256,-3.3289,-3.1874
1257501.0,5.8802,0.5555,27.1215,-0.0952,-3.1299,-3.4055
1257511.0,6.5601,-0.6704,26.9683,-0.1006,-2.8303,-3.6663
1257521.0,7.2305,-1.6376,26.4894,0.2059,-2.2296,-3.9621
1257531.0,7.7189,-2.0877,26.7097,0.6518,-1.648,-4.2883
1257541.0,7.8051,-0.8619,26.681,0.9365,-1.0206,-4.6304
1257551.0,7.1347,0.3448,28.7017,1.0126,-0.6162,-4.8891
1257561.0,6.6367,2.3272,29.6211,0.8642,-0.5954,-5.0843
1257571.0,5.9664,3.5913,30.7032,0.5034,-0.7008,-5.22
1257581.0,5.8897,4.1372,30.9714,0.2166,-0.9142,-5.2876
1257591.0,5.7652,4.1851,30.5596,0.0878,-0.9456,-5.3781
1257601.0,6.2058,3.6679,30.866,0.4858,-0.6864,-5.4228
1257611.0,5.9855,4.4245,30.981,1.0382,-0.3672,-5.476
1257621.0,5.0853,5.43,31.3736,1.6719,-0.0239,-5.5169
1257631.0,4.3766,6.8857,30.866,2.4036,0.3288,-5.4813
1257641.0,4.3862,8.4755,30.9522,2.809,0.6337,-5.4472
1257651.0,3.9552,10.2568,30.234,2.8133,0.7561,-5.4435
1257661.0,3.5338,12.1242,29.7264,2.3961,0.8099,-5.4206
1257671.0,2.806,13.6182,28.5197,1.7342,0.7125,-5.3621
1257681.0,2.3655,14.2407,27.5908,1.0892,0.845,-5.2073
1257691.0,2.7198,12.967,26.93,0.8285,1.2084,-5.0604
1257701.0,3.0263,12.402,25.9819,0.6039,1.7251,-5.0247
1257711.0,2.4325,12.4498,26.5852,0.4496,2.3807,-5.0859
1257721.0,1.8292,14.2503,27.428,0.2895,2.8766,-5.0497
1257731.0,0.9864,14.9111,29.5253,0.108,3.0368,-4.8784
1257741.0,0.249,15.9071,28.6347,0.0825,3.2363,-4.6273
1257751.0,-0.8811,15.5049,29.056,0.0266,3.6423,-4.275
1257761.0,-1.0534,14.1737,29.0465,0.2027,4.1127,-4.01
1257771.0,-1.4748,12.3732,30.4064,0.4874,4.7092,-3.8594
1257781.0,-1.7334,11.0038,32.111,0.7577,5.3291,-3.877
1257791.0,-3.4285,10.477,34.9075,0.8939,5.7213,-3.9674
1257801.0,-2.9592,11.2623,37.2155,0.795,5.8767,-4.0951
1257811.0,-4.1946,12.8617,40.0215,0.6992,5.6058,-4.1031
1257821.0,-5.0087,14.3844,42.023,0.4805,5.22,-3.9898
1257831.0,-5.5162,15.6389,41.7836,0.3831,4.8284,-3.7562
1257841.0,-7.1826,15.3899,41.1803,0.224,4.5219,-3.4821
1257851.0,-7.8051,14.4418,39.1691,0.2841,4.4538,-3.2752
1257861.0,-7.422,12.469,37.4357,0.0623,4.7236,-3.247
1257871.0,-7.7668,10.5058,37.0144,-0.1719,5.0125,-3.4428
1257881.0,-8.2648,10.1801,37.8284,-0.406,5.2349,-3.6875
1257891.0,-8.418,10.975,38.652,-0.4326,5.4941,-3.845
1257901.0,-9.0214,12.4307,39.15,-0.5571,5.6798,-3.8328
1257911.0,-9.9407,14.0779,38.7382,-0.9222,5.6979,-3.7136
1257921.0,-11.2144,14.9494,38.9201,-1.6299,5.5632,-3.5322
1257931.0,-13.2639,14.6525,37.1197,-2.369,5.3919,-3.3065
1257941.0,-13.5512,10.9654,36.3536,-2.826,5.8176,-3.1613
1257951.0,-13.0628,5.8323,37.4357,-2.8,6.321,-3.3475
1257961.0,-13.0915,2.7294,38.7478,-2.8734,6.7057,-3.8812
1257971.0,-14.0013,2.1644,41.3239,-2.759,6.9622,-4.4091
1257981.0,-15.2271,3.1125,43.5074,-2.469,7.0766,-4.7816
1257991.0,-16.271,4.6926,44.3981,-2.2929,6.9957,-5.0098
1258001.0,-18.2821,6.5888,44.5992,-2.5595,6.86,-5.2078
1258011.0,-20.6763,9.0501,45.3653,-3.2698,6.612,-5.3318
1258021.0,-21.95,9.3661,47.5393,-3.8903,6.2827,-5.3344
1258031.0,-22.7928,8.169,49.9239,-4.4091,5.9916,-5.3919
1258041.0,-23.0993,6.5888,52.7395,-4.7975,5.5622,-5.5212
1258051.0,-23.3866,5.9185,55.8615,-4.822,5.0604,-5.6361
1258061.0,-22.5725,6.7708,58.0546,-4.6336,4.5506,-5.6191
1258071.0,-22.9173,7.4699,61.1,-4.0004,3.9866,-5.435
1258081.0,-23.693,8.8585,62.029,-3.4002,3.2342,-5.1093
1258091.0,-24.8997,9.3565,63.59,-2.7872,2.2008,-4.7065
1258101.0,-24.4783,9.4427,61.8662,-2.0848,1.2047,-4.3064
1258111.0,-24.1048,8.6574,60.6595,-1.1957,0.5108,-3.9414
1258121.0,-22.3906,7.8434,57.2501,-0.3592,0.1953,-3.703
1258131.0,-22.4385,6.7421,56.7713,0.5098,-0.0516,-3.5508
1258141.0,-21.4616,7.6136,53.7163,0.961,-0.3661,-3.504
1258151.0,-21.3467,8.6191,52.2319,0.9131,-0.6673,-3.497
1258161.0,-21.2988,10.7356,50.0771,0.2772,-1.0733,-3.4688
1258171.0,-21.5478,11.9614,49.4451,-0.9237,-1.6825,-3.4364
1258181.0,-21.5957,12.402,48.8513,-2.3067,-2.42,-3.3832
1258191.0,-21.5287,10.9846,49.7707,-3.1166,-2.8457,-3.2507
1258201.0,-20.8104,9.0118,49.3301,-3.2305,-3.1485,-3.1725
1258211.0,-20.4082,7.0006,49.3397,-3.1022,-3.2746,-3.165
1258221.0,-19.9102,6.292,49.2822,-2.4525,-3.2794,-3.1576
1258231.0,-19.9772,6.6463,49.0524,-1.9305,-3.3645,-3.1299
1258241.0,-19.4696,8.5521,48.4299,-1.6485,-3.621,-3.057
1258251.0,-19.6133,11.2049,47.6733,-1.8667,-3.9701,-2.8926
1258261.0,-19.9198,13.0149,46.2943,-2.3913,-4.549,-2.594
1258271.0,-19.0195,13.3213,45.1546,-3.0139,-5.0412,-2.2024
1258281.0,-18.7035,12.2775,43.9097,-3.4433,-5.336,-1.8108
1258291.0,-17.4681,9.7492,42.6551,-3.4566,-5.3791,-1.4367
1258301.0,-16.7498,7.5082,42.7509,-2.9202,-5.07,-1.1031
1258311.0,-16.3859,5.296,44.2065,-1.8087,-4.7677,-0.7854
1258321.0,-15.4857,3.1412,45.1546,-0.5773,-4.6964,-0.5731
1258331.0,-14.5089,2.49,44.3023,0.1793,-4.8236,-0.5704
1258341.0,-13.6182,2.5379,43.7564,0.4108,-5.0104,-0.5992
1258351.0,-13.3213,3.6679,41.956,0.2905,-5.3626,-0.6678
1258361.0,-13.2543,4.6639,40.5386,-0.3533,-5.7255,-0.7093
1258371.0,-12.9861,5.3822,39.2936,-1.1009,-5.9511,-0.7146
1258381.0,-12.6605,4.8554,39.0542,-1.7177,-5.9974,-0.6465
1258391.0,-11.4251,3.3327,39.3511,-1.7538,-5.832,-0.5954
1258401.0,-10.8026,2.5474,41.1611,-1.5075,-5.5191,-0.5608
1258411.0,-11.1857,2.5857,43.8905,-1.0664,-5.6154,-0.4901
1258421.0,-10.9654,2.9401,44.0246,-0.7992,-6.1619,-0.3629
1258431.0,-10.477,3.237,43.019,-0.6683,-6.6062,-0.2081
1258441.0,-9.7205,3.3902,40.5195,-0.506,-6.7025,-0.0293
1258451.0,-8.7436,2.8156,38.221,-0.4576,-6.5881,0.116
1258461.0,-7.6902,2.4708,36.4781,-0.3789,-6.3167,0.2496
1258471.0,-6.9049,1.8292,36.4206,-0.2182,-5.6904,0.381
1258481.0,-6.292,1.6185,37.7997,0.2953,-4.9981,0.513
1258491.0,-6.6272,1.0151,42.0996,0.6843,-4.6267,0.6657
1258501.0,-6.6846,0.4788,45.327,1.1031,-4.9721,0.7928
1258511.0,-5.9759,0.2777,45.6239,1.2733,-5.6595,0.8689
1258521.0,-5.047,0.565,43.6511,1.1403,-6.3518,0.8737
1258531.0,-4.0606,0.814,40.2513,0.7487,-6.7701,0.8806
1258541.0,-2.5283,0.2107,37.2825,0.4161,-6.761,0.9014
1258551.0,-1.4844,-0.2107,34.7734,-0.0585,-6.528,0.8413
1258561.0,0.0096,-0.5459,34.3137,-0.3539,-5.9378,0.738
1258571.0,0.249,0.0862,36.4685,-0.538,-5.3243,0.6742
1258581.0,-0.3926,0.5555,39.0255,-0.6848,-5.3536,0.6774
1258591.0,0.6129,1.4653,39.9736,-1.0573,-5.6564,0.704
1258601.0,0.747,1.2067,40.3184,-1.1169,-5.9687,0.8216
1258611.0,1.9058,0.68,39.2841,-0.8929,-5.9325,0.9631
1258621.0,3.0933,0.0096,38.4221,-0.4805,-5.684,1.0648
1258631.0,3.4189,0.6416,37.6464,-0.53,-5.518,1.1573
1258641.0,3.5434,0.3256,38.2019,-0.6662,-5.5866,1.2851
1258651.0,4.5394,-0.7278,37.091,-0.8775,-5.6505,1.3627
1258661.0,5.8802,-3.9265,38.0199,-0.7237,-5.3371,1.3627
1258671.0,7.2113,-6.0047,38.9489,-0.5279,-5.2057,1.1488
1258681.0,6.8761,-6.6176,40.2034,-0.6045,-5.5191,0.763
1258691.0,6.857,-4.616,38.834,-0.7364,-5.8974,0.4592
1258701.0,7.3263,-1.7813,37.1389,-1.0057,-5.9911,0.3336
1258711.0,7.2592,0.9768,34.2754,-1.7884,-6.0597,0.3704
1258721.0,7.6327,1.2546,33.6529,-2.5664,-6.1065,0.5007
1258731.0,8.4851,-0.0287,34.2275,-3.0405,-6.0038,0.6572
1258741.0,9.2608,-2.4229,36.1046,-2.6893,-5.8894,0.7748
1258751.0,10.9846,-4.1755,36.0471,-1.9614,-5.717,0.8801
1258761.0,12.2009,-5.2864,35.9226,-0.7849,-5.278,0.9312
1258771.0,12.6127,-5.6407,35.8268,-0.2065,-5.029,0.8535
1258781.0,12.5169,-5.9376,34.7351,-0.182,-5.2275,0.7061
1258791.0,14.0492,-6.4548,33.3273,-0.5385,-5.2903,0.4677
1258801.0,14.8632,-6.7229,31.7088,-0.9668,-5.2951,0.1719
1258811.0,15.4282,-6.292,30.55,-1.4378,-5.3073,-0.116
1258821.0,16.3668,-4.8937,29.4104,-1.3856,-4.797,-0.2889
1258831.0,16.6828,-3.3423,29.803,-1.1738,-4.1483,-0.2895
1258841.0,16.6541,-2.0494,31.479,-0.5795,-3.7854,-0.1383
1258851.0,17.0754,-0.5555,31.1629,-0.1059,-3.6343,0.1266
1258861.0,17.832,-0.9002,31.2204,0.6614,-3.4704,0.5119
1258871.0,19.326,-2.2314,29.171,1.3042,-3.1645,0.8056
1258881.0,20.1304,-4.5681,27.4184,1.4968,-2.9319,0.8386
1258891.0,21.5478,-6.0908,26.0202,1.4537,-2.7367,0.6971
1258901.0,22.2469,-6.043,23.6643,1.2036,-2.3716,0.4571
1258911.0,22.3906,-5.3917,21.9788,0.911,-1.8241,0.2357
1258921.0,22.946,-4.6352,21.7777,0.4353,-1.0759,0.0447
1258931.0,22.199,-4.0893,23.942,0.1054,-0.5199,-0.1421
1258941.0,21.6627,-2.4038,26.5661,-0.4837,-0.2246,-0.2884
1258951.0,20.4944,-0.9385,28.8645,-0.6098,-0.3406,-0.1995
1258961.0,20.5422,0.0,29.0177,-0.5502,-0.4816,0.0218
1258971.0,21.069,-0.3926,28.4048,-0.1453,-0.2368,0.2746
1258981.0,20.7817,-0.9577,27.2077,0.1873,0.0096,0.4927
1258991.0,21.5765,-1.6664,25.9723,0.3666,0.2315,0.6039
1259001.0,21.4329,-1.9441,24.191,0.2884,0.5651,0.6173
1259011.0,21.5574,-2.6815,23.5877,-0.1761,0.903,0.539
1259021.0,21.0211,-3.6488,23.7122,-0.48,1.2739,0.4124
1259031.0,20.5997,-4.2425,24.2676,-0.8498,1.532,0.2379
1259041.0,20.4082,-3.7445,25.187,-1.0557,1.7773,0.1107
1259051.0,19.508,-2.624,25.7712,-1.0084,2.0763,0.1309
1259061.0,19.3643,-3.1603,27.3131,-0.6327,2.6196,0.2017
1259071.0,19.3739,-3.4093,28.673,-0.0096,3.4194,0.274
1259081.0,18.2725,-2.5666,32.6665,0.3496,3.9387,0.2831
1259091.0,16.6636,-1.0343,36.3727,0.3517,3.7982,0.4071
1259101.0,15.2942,-1.2833,40.1172,0.4672,3.4736,0.6039
1259111.0,15.8017,-2.1165,43.1914,1.0206,2.9995,0.7785
1259121.0,15.0547,-3.0933,43.7756,1.2537,2.1817,0.8695
1259131.0,15.0643,-4.0031,40.9408,1.4048,1.4367,0.911
1259141.0,16.4817,-5.0757,37.5794,1.4346,1.4787,0.8508
1259151.0,16.1273,-5.0182,36.4781,1.3271,2.0428,0.6763
1259161.0,15.342,-5.0949,40.213,1.2851,2.4802,0.5603
1259171.0,13.9247,-4.9225,44.4364,1.2776,2.1529,0.4119
1259181.0,13.7236,-4.7022,46.5241,1.1717,1.4266,0.241
1259191.0,13.9821,-3.6009,47.0892,1.2191,0.7567,0.0862
1259201.0,12.8042,-2.7964,48.1139,1.4511,-0.1527,-0.0553
1259211.0,12.8521,-1.0726,44.8099,1.997,-1.0935,-0.1421
1259221.0,12.1434,1.3982,39.8204,2.3445,-1.9252,-0.1453
1259231.0,11.2719,5.3726,31.3257,2.419,-2.3062,0.0591
1259241.0,12.1913,8.4851,22.9077,2.3142,-1.715,0.4289
1259251.0,12.1338,10.1801,16.2614,1.5288,-1.0339,0.763
1259261.0,7.5369,13.1681,6.0525,-0.5811,-0.97,1.011
1259271.0,6.6463,16.52,2.2889,-2.9671,-0.5337,1.2441
1259281.0,3.055,22.4863,-3.7445,-4.1808,-1.0802,1.7932
1259291.0,-0.5938,22.5821,-9.8928,-2.163,-3.3704,2.9176
1259301.0,0.4597,15.9071,-53.5343,3.0841,-6.47,4.5171
1259311.0,1.8675,-11.4826,-78.4532,11.7022,-1.7874,4.4937
1259321.0,-9.6534,-18.7897,-78.4532,10.7449,9.9122,1.0397
1259331.0,-32.1302,-22.8694,-78.4532,5.9565,17.4357,-3.3145
1259341.0,-78.4532,3.8595,-78.4532,2.0045,17.4357,-6.1257
1259351.0,-78.4532,33.4518,-78.4532,4.0041,17.4357,-6.1039
1259361.0,-78.4532,71.1174,-78.4532,9.2476,17.4357,-3.0937
1259371.0,-78.4532,78.4508,-44.2544,15.6383,17.4357,1.4085
1259381.0,-78.4532,66.9898,12.6701,10.7056,17.4357,5.0646
1259391.0,-78.4532,18.7897,78.4508,11.2334,17.4357,6.9824
1259401.0,-78.4532,-26.4607,78.4508,9.4828,17.4357,6.4838
1259411.0,-78.4532,-77.553,78.4508,10.0447,17.4357,2.892
1259421.0,-78.4532,-78.4532,78.4508,12.3024,17.4357,-2.6361
1259431.0,-78.4532,-51.0731,78.4508,14.6687,17.4357,-7.9663
1259441.0,-78.4532,25.6467,78.4508,11.334,17.4357,-10.9567
1259451.0,-78.4532,78.4508,78.4508,6.3673,4.805,-9.677
1259461.0,-78.4532,78.4508,78.4508,3.7631,-8.5957,-6.3162
1259471.0,-78.4532,78.4508,78.4508,2.6973,-17.4363,-2.5643
1259481.0,-78.4532,78.4508,78.4508,-0.687,-17.4363,-0.7875
1259491.0,-78.4532,78.4508,78.4508,-7.5379,-17.4363,-0.5587
1259501.0,-78.4532,74.5171,78.4508,-10.5917,-17.4363,-1.2441
1259511.0,-78.4532,78.4508,78.4508,-11.102,-17.4363,-0.6582
1259521.0,-78.4532,78.4508,78.4508,-7.5709,-17.4363,2.3381
1259531.0,-78.4532,78.4508,47.3669,-8.849,-17.4363,5.3956
1259541.0,-78.4532,53.5439,-22.4672,-14.309,-17.4363,6.4077
1259551.0,-78.4532,20.7912,-78.4532,-17.4363,-17.4363,5.0444
1259561.0,-78.4532,-22.2278,-78.4532,-17.4363,-17.4363,-0.4736
1259571.0,-78.4532,-19.0483,-78.4532,-17.4363,-17.4363,-7.4017
1259581.0,-78.4532,17.6309,-78.4532,-17.4363,-17.4363,-11.1238
1259591.0,-78.0318,61.3011,-78.4532,-7.772,-17.4363,-11.3468
1259601.0,-78.4532,78.4508,-78.4532,0.0351,-17.4363,-7.0787
1259611.0,-78.4532,78.4508,-78.4532,0.2331,3.6588,-1.2515
1259621.0,-78.4532,78.4508,-78.4532,-1.2116,17.4357,5.6553
1259631.0,-78.4532,78.4508,-78.4532,1.3468,17.4357,11.1611
1259641.0,-78.4532,71.7494,-78.4532,2.3839,17.4357,16.1986
1259651.0,-78.4532,14.1928,-78.4532,4.6198,17.4357,17.4357
1259661.0,-78.4532,-55.421,-78.4532,7.664,17.4357,17.4357
1259671.0,-78.4532,-78.4532,78.4508,17.4357,17.4357,14.5437
1259681.0,-78.4532,-78.4532,78.4508,17.4357,17.4357,4.5501
1259691.0,-78.4532,36.3057,78.4508,17.4357,17.4357,-3.2432
1259701.0,-78.4532,78.4508,78.4508,17.4357,17.4357,-4.9513
1259711.0,-78.4532,78.4508,78.4508,7.0244,17.4357,-1.8922
1259721.0,-78.4532,78.4508,78.4508,-2.8394,17.4357,0.4864
1259731.0,-78.4532,78.4508,78.4508,-3.7807,11.7331,2.5206
1259741.0,-78.4532,78.4508,78.4508,-8.0434,-13.9467,4.283
1259751.0,-78.4532,48.6693,78.4508,-10.8993,-17.4363,5.9586
1259761.0,-78.4532,28.9315,78.4508,-12.4147,-17.4363,5.5228
1259771.0,-78.4532,12.8425,78.4508,-14.2186,-17.4363,4.3378
1259781.0,-78.4532,20.389,78.4508,-16.72,-17.4363,3.3119
1259791.0,-78.4532,0.2777,9.5577,-17.4363,-17.4363,2.6292
1259801.0,-78.4532,-11.3294,-78.4532,-13.4172,-17.4363,1.6192
1259811.0,-78.4532,-38.0965,-78.4532,-9.9234,-17.4363,-1.8565
1259821.0,-78.4532,-16.7211,-78.4532,-17.4363,-17.4363,-6.8275
1259831.0,-78.4532,-8.4659,-78.4532,-17.4363,-17.4363,-11.914
1259841.0,-78.4532,45.9112,-78.4532,-7.7412,-17.4363,-13.4758
1259851.0,-69.5563,78.4508,-78.4532,-1.4388,-17.4363,-10.9296
1259861.0,-74.1819,78.4508,-78.4532,0.3166,-13.6045,-5.4526
1259871.0,-75.3216,78.4508,-78.4532,-3.8935,-5.8878,1.2435
1259881.0,-75.0822,78.4508,-78.4532,-2.3328,10.8461,7.9854
1259891.0,-78.4532,67.5548,-78.4532,2.0135,17.4357,12.9085
1259901.0,-78.4532,6.541,-78.4532,7.8183,17.4357,14.5347
1259911.0,-78.4532,-40.8259,-78.4532,14.4453,17.4357,12.4004
1259921.0,-78.4532,-60.8893,-78.4532,17.4357,17.4357,6.2396
1259931.0,-78.4532,-36.4493,70.5332,17.4357,17.4357,-1.0099
1259941.0,-78.4532,64.4328,78.4508,17.4357,17.4357,-5.4808
1259951.0,-78.4532,78.4508,78.4508,17.4357,17.4357,-5.6558
1259961.0,-78.4532,78.4508,78.4508,10.8455,17.4357,-1.6469
1259971.0,-78.4532,78.4508,78.4508,8.9959,17.4357,0.9003
1259981.0,-78.4532,78.4508,78.4508,3.5135,15.7415,2.0534
1259991.0,-78.4532,78.4508,78.4508,6.3343,-4.4086,2.7643
1260001.0,-78.4532,78.4508,78.4508,-3.8929,-17.4363,1.7932
1260011.0,-78.4532,78.4508,78.4508,-12.511,-17.4363,1.5788
1260021.0,-78.4532,78.4508,78.4508,-12.311,-17.4363,3.8791
1260031.0,-78.4532,60.4584,78.4508,-17.4363,-17.4363,4.8098
1260041.0,-78.4532,24.0474,60.6786,-17.4363,-17.4363,5.087
1260051.0,-78.4532,-0.0766,-31.8046,-17.4363,-17.4363,3.6141
1260061.0,-78.4532,-1.0918,-78.4532,-17.4363,-17.4363,0.5933
1260071.0,-78.4532,6.7612,-78.4532,-17.4363,-17.4363,-3.4917
1260081.0,-78.4532,29.0943,-78.4532,-17.4363,-17.4363,-5.4047
1260091.0,-78.4532,55.4784,-78.4532,-14.4543,-17.4363,-4.9157
1260101.0,-78.4532,69.4031,-78.4532,-10.9333,-17.4363,-2.5031
1260111.0,-58.7058,50.0867,-78.4532,-11.5415,-17.4363,0.3459
1260121.0,-43.8522,28.4527,-78.4532,-8.2371,-12.999,1.9449
1260131.0,-48.4586,16.5296,-78.4532,-5.4637,-2.0492,2.0071
1260141.0,-37.5698,17.9948,-78.4532,-1.947,13.9892,1.5378
1260151.0,-61.5023,27.8398,-78.4532,2.1753,17.4357,1.7767
1260161.0,-78.4532,24.3155,-78.4532,8.9943,17.4357,2.4339
1260171.0,-78.4532,35.8843,-78.4532,13.2698,17.4357,2.7579
1260181.0,-78.4532,38.6711,-78.4532,13.455,17.4357,3.2592
1260191.0,-78.4532,38.47,38.6137,17.4357,17.4357,3.7679
1260201.0,-78.4532,41.4676,78.4508,17.4357,17.4357,4.8736
1260211.0,-78.4532,37.3304,78.4508,17.4357,17.4357,5.0524
1260221.0,-78.4532,61.7896,78.4508,17.4357,17.4357,2.9953
1260231.0,-78.4532,78.4508,78.4508,16.0608,17.4357,0.2139
1260241.0,-78.4532,78.4508,78.4508,1.9949,17.4357,-1.5921
1260251.0,-78.4532,78.4508,78.4508,0.7082,8.1062,2.3833
1260261.0,-78.4532,78.4508,78.4508,-0.861,-17.4363,8.0376
1260271.0,-78.4532,65.0074,78.4508,-13.0176,-17.4363,8.8873
1260281.0,-78.4532,19.6037,78.4508,-17.0079,-17.4363,7.3596
1260291.0,-78.4532,-12.7467,78.4508,-17.4363,-17.4363,1.7538
1260301.0,-78.4532,-23.5111,73.1668,-17.4363,-17.4363,-2.7191
1260311.0,-78.4532,0.6895,-0.7853,-17.4363,-17.4363,-4.7225
1260321.0,-78.4532,35.1756,-78.4532,-14.5352,-17.4363,-4.0712
1260331.0,-78.4532,33.6721,-78.4532,-10.8546,-17.4363,-3.0655
1260341.0,-78.4532,33.5859,-78.4532,-14.9726,-17.4363,-2.1306
1260351.0,-78.4532,17.2574,-78.4532,-10.2011,-17.4363,-2.3142
1260361.0,-78.4532,26.1255,-78.4532,-14.6437,-17.4363,-3.0836
1260371.0,-74.565,18.895,-78.4532,-14.7273,-17.4363,-4.523
1260381.0,-47.6638,24.44,-78.4532,-7.9503,-17.4363,-5.0157
1260391.0,-38.2976,38.1253,-78.4532,-0.4741,-1.8129,-4.8816
1260401.0,-52.6533,48.9183,-78.4532,6.1406,17.4357,-3.8333
1260411.0,-78.4532,58.5334,-78.4532,10.2336,17.4357,-2.0449
1260421.0,-78.4532,65.3521,-78.4532,10.1298,17.4357,0.199
1260431.0,-78.4532,71.3185,-78.4532,8.1238,17.4357,2.9389
1260441.0,-78.4532,28.8453,-71.0024,6.9334,17.4357,4.6235
1260451.0,-78.4532,0.9002,78.4508,11.5554,17.4357,5.2935
1260461.0,-78.4532,-22.4097,78.4508,17.4357,17.4357,4.7129
1260471.0,-78.4532,-8.2169,78.4508,17.4357,17.4357,2.8489
1260481.0,-78.4532,38.47,78.4508,17.4357,17.4357,0.5066
1260491.0,-78.4532,52.682,78.4508,16.7365,17.4357,-1.5469
1260501.0,-78.4532,78.4508,78.4508,4.7188,17.4357,-2.1348
1260511.0,-78.4532,78.4508,78.4508,2.9809,11.9661,0.3283
1260521.0,-78.4532,78.4508,78.4508,-0.9812,-4.1249,2.8596
1260531.0,-78.4532,45.3941,78.4508,-11.8656,-17.4363,2.618
1260541.0,-78.4532,22.9556,78.4508,-10.6683,-17.4363,1.5559
1260551.0,-78.4532,10.0556,78.4508,-17.4363,-17.4363,-1.2717
1260561.0,-78.4532,13.465,78.4508,-15.7857,-17.4363,-3.1565
1260571.0,-78.4532,44.4077,78.4508,-13.0964,-17.4363,-2.535
1260581.0,-78.4532,56.5415,73.0998,-10.0889,-17.4363,-0.2549
1260591.0,-78.4532,55.9286,8.0924,-10.5188,-17.4363,2.0614
1260601.0,-78.4532,35.7885,-36.4589,-15.6037,-17.4363,2.7505
1260611.0,-78.4532,8.5329,-78.4532,-17.4363,-17.4363,2.2274
1260621.0,-78.4532,-20.7625,-78.4532,-17.4363,-17.4363,-0.481
1260631.0,-78.4532,-36.2865,-78.4532,-17.4363,-17.4363,-3.6673
1260641.0,-78.4532,-31.8142,-78.4532,-11.4686,-17.4363,-6.9946
1260651.0,-72.257,-12.9,-78.4532,-5.2876,-17.4363,-9.5653
1260661.0,-53.4577,17.5926,-78.4532,-1.7342,-17.4363,-10.7444
1260671.0,-56.5702,68.7232,-78.4532,-5.692,-17.4363,-9.8207
1260681.0,-57.2214,78.4508,-78.4532,-8.2552,-9.6392,-6.5482
1260691.0,-61.6651,78.4508,-78.4532,-8.1238,9.6813,-1.8853
1260701.0,-78.4532,78.4508,-78.4532,-0.3262,17.4357,3.5231
1260711.0,-78.4532,76.6049,-78.4532,5.6633,17.4357,8.0972
1260721.0,-78.4532,48.9471,-78.4532,12.3179,17.4357,10.6359
1260731.0,-78.4532,20.6093,-78.4532,14.872,17.4357,11.6863
1260741.0,-78.4532,-7.7381,-78.4532,12.6914,17.4357,9.7861
1260751.0,-78.4532,-63.6858,38.8818,17.4357,17.4357,4.3772
1260761.0,-78.4532,-33.2986,78.4508,17.4357,17.4357,-3.555
1260771.0,-78.4532,31.3257,78.4508,17.4357,17.4357,-4.8672
1260781.0,-78.4532,78.4508,78.4508,17.4357,17.4357,-2.4786
1260791.0,-78.4532,78.4508,78.4508,1.0914,17.4357,-0.629
1260801.0,-78.4532,13.3213,78.4508,17.4357,17.4357,6.2247
1260811.0,-78.4532,78.4508,78.4508,7.225,17.4357,5.484
1260821.0,-78.4532,78.4508,78.4508,6.1193,6.2028,7.7332
1260831.0,-78.4532,78.4508,78.4508,-7.5294,-4.7949,8.0344
1260841.0,-78.4532,70.016,78.4508,-6.7945,-17.4363,9.9404
1260851.0,-78.4532,17.0563,78.4508,-16.6338,-17.4363,9.0337
1260861.0,-78.4532,-29.5157,78.4508,-10.0335,-17.4363,8.3483
1260871.0,-78.4532,-42.272,78.4508,-13.7391,-17.4363,5.0343
1260881.0,-78.4532,-55.5551,65.3521,-15.1115,-17.4363,0.4268
1260891.0,-78.4532,-37.5794,6.4452,-14.1047,-17.4363,-3.6535
1260901.0,-78.4532,-7.9392,-18.4354,-12.5424,-17.4363,-5.9586
1260911.0,-78.4532,25.5126,-66.5875,-10.0266,-17.4363,-5.7835
1260921.0,-78.4532,39.8682,-62.5844,-7.4107,-17.4363,-4.0084
1260931.0,-78.4532,41.8123,-71.5004,-5.5308,-17.4363,-1.085
1260941.0,-59.8742,18.9812,-63.3027,-1.144,-17.4363,1.2201
1260951.0,-47.7595,-4.1946,-56.5894,3.6317,-17.4363,2.0949
1260961.0,-34.0647,-21.6627,-55.3156,2.112,-17.4363,0.2953
1260971.0,-23.875,-11.4156,-60.0657,-2.983,-17.4363,-2.9282
1260981.0,-23.9803,12.287,-57.9014,-8.3089,-17.4363,-4.8177
1260991.0,-19.7474,37.9816,-64.5477,-8.9507,-17.4363,-4.457
1261001.0,-16.7977,56.8958,-71.2131,-7.3777,-15.759,-1.69
1261011.0,-11.0325,57.9014,-78.4532,-3.3757,-11.052,2.833
1261021.0,-0.929,34.419,-78.4532,-1.0371,-3.0618,6.6115
1261031.0,3.1987,-4.1659,-78.4532,0.7455,5.2067,8.3419
1261041.0,8.5808,-44.7141,-42.7796,2.3232,10.8269,7.1324
1261051.0,9.4427,-61.8662,-7.1443,2.0774,12.0481,3.3965
1261061.0,10.6207,-58.7633,27.5716,1.027,10.0165,-0.6731
1261071.0,2.1931,-33.7199,45.3079,1.2627,6.7679,-3.2459
1261081.0,-7.2784,-5.9472,51.4083,1.2872,2.6685,-3.5854
1261091.0,-9.9407,15.6677,38.0295,1.5708,0.5018,-2.0646
1261101.0,-11.8848,20.1783,30.3681,3.0187,1.8342,0.4991
1261111.0,-11.7316,10.5058,27.993,4.6757,3.7759,2.6494
1261121.0,-10.6686,-6.2249,33.9019,5.9118,5.6484,3.6588
1261131.0,-9.0501,-22.3714,41.027,6.4657,6.8983,3.1741
1261141.0,-8.9543,-31.2491,54.4346,5.5382,6.7552,1.3649
1261151.0,-10.7643,-27.3322,62.278,3.4885,4.4995,-0.8924
1261161.0,-13.5703,-17.2574,67.3537,0.4443,1.4202,-2.7138
1261171.0,-15.8783,-2.1069,63.2931,-0.4326,-0.9477,-3.4529
1261181.0,-17.7841,11.3677,54.8559,-0.9748,-1.8741,-3.0016
1261191.0,-17.6884,18.646,47.2137,-0.357,-1.5538,-1.7815
1261201.0,-17.018,18.2247,41.8123,-0.4677,-0.8014,-0.3629
1261211.0,-15.5144,9.3853,43.2584,-0.1447,-0.1676,0.6119
1261221.0,-12.9957,0.7661,44.829,0.1075,0.1852,0.8365
1261231.0,-12.3924,-3.7733,47.635,0.4028,-0.0862,0.5438
1261241.0,-11.7795,-3.6679,46.7444,0.1878,-0.5646,0.0266
1261251.0,-12.7946,-0.7853,46.074,-0.2033,-1.3271,-0.4592
1261261.0,-12.7084,5.5354,41.9847,-0.4746,-1.7097,-0.5348
1261271.0,-13.0723,9.845,38.6137,-0.9142,-1.6315,-0.1288
1261281.0,-13.4363,9.5768,37.7326,-0.8248,-1.218,0.531
1261291.0,-12.1434,6.7612,36.7079,-0.7572,-0.7423,1.1111
1261301.0,-10.8888,1.4174,37.5985,-0.8418,-0.4422,1.4319
1261311.0,-9.9886,-4.0989,38.0582,-1.0131,-0.5369,1.3516
1261321.0,-8.9639,-8.3989,38.4221,-1.2733,-0.6816,0.8876
1261331.0,-8.4467,-8.9639,39.2936,-1.2473,-0.5731,0.3108
1261341.0,-9.5098,-8.1403,41.6208,-0.5406,-0.7125,-0.0894
1261351.0,-9.0692,-4.4724,39.8491,0.1857,-0.9243,-0.2517
1261361.0,-10.4483,0.3065,38.3168,0.6705,-0.6976,-0.075
1261371.0,-9.4715,4.1946,35.7981,0.6247,-0.4464,0.3342
1261381.0,-9.3374,3.802,35.5491,0.3304,-0.1522,0.8184
1261391.0,-8.916,-0.3926,36.9665,-0.3294,-0.1506,1.0701
1261401.0,-7.7381,-6.2441,38.4892,-0.4752,-0.4331,0.994
1261411.0,-7.7381,-10.0652,36.9569,-0.7737,-0.4581,0.522
1261421.0,-6.7038,-11.7603,36.9282,-0.7817,-0.4411,-0.1261
1261431.0,-7.7859,-8.6383,36.0184,-1.4346,-0.2756,-0.7519
1261441.0,-9.4332,-4.9895,40.1077,-1.1254,-0.1022,-0.9887
1261451.0,-9.8067,0.6033,39.9449,-0.0686,-0.0176,-0.7215
1261461.0,-10.4579,4.3096,39.4086,0.6183,0.1713,-0.1793
1261471.0,-9.9599,5.6216,37.6943,1.3191,0.3533,0.48
1261481.0,-9.4715,4.6735,35.3959,1.1488,0.6806,0.9567
1261491.0,-9.2225,0.9002,35.7215,0.9716,0.9855,1.1983
1261501.0,-8.1786,-2.7773,35.8651,0.3916,1.3282,1.0626
1261511.0,-8.4851,-6.5984,39.466,-0.3299,1.2712,0.5816
1261521.0,-8.4755,-6.9623,41.8123,-0.8806,0.8684,0.0564
1261531.0,-9.4715,-5.2194,44.4555,-0.7561,0.5779,-0.3491
1261541.0,-10.3334,-0.7757,43.7085,-0.3735,0.4182,-0.4353
1261551.0,-11.2815,3.1508,43.7373,-0.0122,0.3916,-0.2097
1261561.0,-11.4826,5.9472,43.1531,0.4768,0.4528,0.2442
1261571.0,-11.8465,6.3686,43.4308,0.6939,0.4869,0.7434
1261581.0,-11.7029,4.8363,43.5936,0.7588,0.4044,1.1611
1261591.0,-11.157,1.312,42.5114,0.2618,0.1261,1.3436
1261601.0,-10.5536,-2.2314,42.4061,-0.216,-0.3241,1.1919
1261611.0,-9.8833,-4.3574,41.7453,-0.754,-0.389,0.9009
1261621.0,-10.0269,-5.9855,42.3965,-0.6859,-0.3682,0.5885
1261631.0,-9.8737,-4.9416,41.9081,-0.4672,-0.5013,0.3358
1261641.0,-9.8928,-3.6775,41.8506,-0.0085,-0.3725,0.1825
1261651.0,-10.161,-1.9824,41.1037,0.3203,-0.1431,0.1282
1261661.0,-10.9367,1.063,40.2896,0.0144,-0.3044,0.1086
1261671.0,-10.9367,2.9592,40.8547,-0.7231,-0.6167,0.2054
1261681.0,-10.8314,2.7198,42.2529,-0.5848,-0.7907,0.4672
1261691.0,-10.9176,2.0207,41.0462,-0.3996,-1.0259,0.7215
1261701.0,-9.7971,-0.2203,38.7286,-0.3358,-1.2781,0.8913
1261711.0,-8.6191,-3.0646,36.3823,-0.2751,-1.0286,0.845
1261721.0,-8.1403,-4.2521,35.0032,-0.0468,-0.4438,0.6673
1261731.0,-7.9775,-5.363,35.9418,0.4273,0.0963,0.456
1261741.0,-8.0732,-3.4189,35.8077,0.6045,0.5348,0.2086
1261751.0,-8.7628,-1.0151,36.909,0.0372,0.5938,0.0011
1261761.0,-9.2129,0.4118,39.7533,-0.1862,0.5624,-0.0239
1261771.0,-9.9886,2.2122,40.9696,-0.5071,0.3358,0.0394
1261781.0,-10.3142,2.8539,41.7453,-0.563,-0.0096,0.2703
1261791.0,-10.0748,2.6719,40.0885,-0.4938,-0.1703,0.5071
1261801.0,-10.1514,1.6376,39.6767,-0.3661,-0.1862,0.7561
1261811.0,-9.2225,-1.0534,38.2498,-0.3565,-0.0926,0.8801
1261821.0,-8.5904,-3.9648,36.7845,-0.2357,0.1916,0.7678
1261831.0,-8.2456,-4.9033,37.0144,-0.2857,0.6731,0.4608
1261841.0,-8.2456,-4.4341,38.2881,-0.4837,0.9509,0.1474
1261851.0,-8.6957,-2.7102,40.6727,-0.6981,0.9142,-0.0607
1261861.0,-9.596,-0.8619,42.4157,-0.9583,0.654,-0.1272
1261871.0,-9.7492,-0.0287,43.7756,-1.0094,0.3773,-0.0633
1261881.0,-10.1801,0.0862,45.1163,-0.8503,0.0059,0.0921
1261891.0,-10.0556,-0.2777,44.4077,-0.3358,-0.2597,0.3038
1261901.0,-9.6151,-0.6704,41.6591,-0.0064,-0.2719,0.4619
1261911.0,-9.1171,-1.6376,40.0023,0.1032,-0.1415,0.4975
1261921.0,-8.9447,-2.1261,38.9776,-0.0665,0.0325,0.4257
1261931.0,-9.0405,-2.4134,40.1556,-0.2767,0.1075,0.2873
1261941.0,-8.5329,-1.6376,40.5961,-0.2097,0.1564,0.1729
1261951.0,-9.0884,-0.5746,41.4101,-0.2139,0.0984,0.1846
1261961.0,-9.3661,-0.498,42.0518,-0.1442,-0.0803,0.2256
1261971.0,-8.734,-0.5171,40.6823,-0.1016,-0.1511,0.2336
1261981.0,-8.4659,-1.245,40.644,-0.2118,-0.0974,0.2347
1261991.0,-8.0637,-2.5283,40.8738,-0.0543,-0.0782,0.1942
1262001.0,-8.4084,-3.6392,40.8451,-0.0511,-0.0926,0.0654
1262011.0,-8.1307,-3.3423,39.8395,-0.0532,-0.1591,-0.1288
1262021.0,-7.9775,-2.2314,39.0255,-0.2756,-0.1602,-0.3022
1262031.0,-8.3127,-0.7661,39.3511,-0.2565,0.0,-0.3837
1262041.0,-9.73,1.0343,38.6711,-0.2469,0.1442,-0.357
1262051.0,-9.481,1.5227,39.3798,-0.2155,0.2841,-0.2543
1262061.0,-9.3757,1.2833,38.5083,-0.3842,0.3868,-0.1767
1262071.0,-9.3853,0.2777,40.644,-0.6146,0.5284,-0.1761
1262081.0,-9.3948,-0.1532,42.0422,-0.4172,0.4762,-0.1623
1262091.0,-9.4619,-0.2969,43.201,-0.3549,0.2187,-0.1607
1262101.0,-9.165,-0.1245,42.5306,-0.2112,-0.1064,-0.1304
1262111.0,-10.4579,0.3448,41.027,-0.1804,-0.3326,-0.0676
1262121.0,-8.7245,0.5555,38.8435,-0.2261,-0.2474,-0.0027
1262131.0,-9.3757,0.4884,38.6711,-0.4135,0.0835,0.0085
1262141.0,-9.347,0.6704,39.15,-0.6268,0.1101,0.0426
1262151.0,-9.1554,0.3926,40.7397,-0.4241,0.1868,0.1463
1262161.0,-9.347,0.0096,40.8068,-0.1628,0.2618,0.2038
1262171.0,-9.0884,-0.1724,41.0079,-0.0394,0.191,0.2533
1262181.0,-9.0788,-0.2107,41.3814,0.017,0.1203,0.2964
1262191.0,-10.0365,-0.0383,40.6344,-0.0064,-0.05,0.331
1262301.0,-9.232,0.9098,40.1172,-0.7253,-0.3821,0.1836
1262311.0,-8.7628,0.6895,39.7629,-0.5119,-0.2075,0.2937
1262321.0,-8.2648,0.2107,38.719,-0.4188,0.0117,0.3656
1262331.0,-8.2839,-0.5267,38.9201,-0.2783,0.2128,0.3847
1262341.0,-8.0349,-0.6704,39.5043,-0.2139,0.3608,0.3586
1262351.0,-8.3031,-0.4884,39.9353,-0.2948,0.3852,0.3331
1262361.0,-8.6383,0.1915,40.8834,-0.3586,0.3155,0.3272
1262371.0,-8.849,0.1532,40.8834,-0.4182,0.3469,0.3576
1262381.0,-9.1363,-0.249,42.4731,-0.2464,0.3528,0.4225
1262391.0,-9.3182,-0.7949,42.6168,-0.3746,0.1192,0.4135
1262401.0,-9.2703,-1.3791,42.8179,-0.5231,-0.1149,0.3773
1262411.0,-8.9256,-1.4557,42.3965,-0.4363,-0.1804,0.3235
1262421.0,-8.8777,-0.7374,41.9847,-0.4464,-0.2288,0.3411
1262431.0,-8.5617,-0.8523,41.9656,-0.389,-0.2916,0.4065
1262441.0,-8.5521,-1.7526,41.458,-0.3257,-0.3682,0.4369
1262451.0,-8.1307,-3.0263,41.3335,-0.3735,-0.3975,0.4033
1262461.0,-7.9775,-4.0701,39.9927,-0.4832,-0.3778,0.2575
1262471.0,-7.6902,-4.0031,39.7916,-0.7189,-0.3193,0.0548
1262481.0,-7.5944,-4.0606,40.1556,-0.7556,-0.2288,-0.1038
1262491.0,-7.604,-3.4189,40.5674,-0.8418,-0.1985,-0.2304
1262501.0,-7.7859,-2.8443,42.3678,-0.7785,-0.3139,-0.3092
1262511.0,-7.8913,-2.059,41.956,-0.7551,-0.4949,-0.3251
1262521.0,-8.102,-2.2697,41.4867,-0.5763,-0.68,-0.2719
1262531.0,-7.671,-1.7334,40.3088,-0.4874,-0.7311,-0.2432
1262541.0,-7.6998,-2.0782,40.0598,-0.2139,-0.712,-0.1543
1262551.0,-7.2496,-2.8347,38.7956,0.0399,-0.5704,-0.1548
1262561.0,-7.1635,-3.2753,37.9433,0.0734,-0.4284,-0.2325
1262571.0,-7.039,-3.5817,38.1253,-0.0889,-0.3539,-0.3714
1262581.0,-7.1635,-2.7677,37.838,-0.1953,-0.2927,-0.5358
1262591.0,-7.4986,-2.1644,38.5179,-0.2214,-0.1703,-0.6306
1262601.0,-7.5753,-0.3831,37.8284,-0.2176,-0.0681,-0.6497
1262611.0,-8.0349,1.2067,38.47,-0.3975,-0.0069,-0.5582
1262621.0,-8.4755,1.4269,39.9161,-0.3491,0.0341,-0.3911
1262631.0,-8.3797,0.7183,40.9504,-0.1256,0.1133,-0.2033
1262641.0,-8.0445,-0.6416,41.3431,0.1559,0.0995,-0.1101
1262651.0,-7.9104,-1.4269,41.391,0.2863,0.025,-0.1288
1262661.0,-7.6423,-1.743,41.4676,0.2528,-0.0548,-0.1692
1262671.0,-7.3358,-1.7526,41.4101,0.1117,-0.2469,-0.2533
1262681.0,-7.4412,-1.7142,40.4237,-0.025,-0.3794,-0.3017
1262691.0,-7.039,-1.6281,40.2417,-0.1059,-0.3874,-0.3453
1262701.0,-7.1635,-2.2218,40.4716,0.0367,-0.2373,-0.3789
1262711.0,-7.1539,-2.3463,41.0558,0.191,-0.1075,-0.4305
1262721.0,-7.1347,-1.9728,41.3814,0.3182,-0.1203,-0.4821
1262731.0,-7.2592,-1.7526,42.4827,0.4177,-0.1208,-0.506
1262741.0,-7.3071,0.2873,42.4253,0.4103,-0.2208,-0.5044
1262751.0,-8.0637,1.8196,42.4827,0.1815,-0.456,-0.3975
1262761.0,-7.7764,2.2505,43.2106,-0.017,-0.7492,-0.2288
1262771.0,-7.5848,1.5897,42.5976,-0.0676,-0.9578,-0.0388
1262781.0,-6.8091,0.6512,41.8123,0.099,-0.9237,0.1038
1262791.0,-6.675,-1.2833,41.6591,0.3118,-0.8019,0.1591
1262801.0,-6.1196,-2.2505,41.1037,0.4645,-0.8088,0.0564
1262811.0,-5.9185,-2.2793,40.9121,0.4581,-0.8402,-0.0745
1262821.0,-5.43,-1.3216,40.4045,0.4342,-0.7939,-0.1777
1262831.0,-5.794,-0.8523,40.4716,0.1969,-0.8226,-0.2868
1262841.0,-5.928,-0.1628,40.644,-0.0947,-0.9887,-0.3411
1262851.0,-5.7461,0.2011,39.9832,-0.414,-1.1706,-0.3496
1262861.0,-5.9855,0.0,40.0023,-0.68,-1.2584,-0.3283
1262871.0,-5.794,-0.2011,39.6767,-0.571,-1.1882,-0.3203
1262881.0,-5.4013,-0.4214,39.5043,-0.3959,-1.0275,-0.2778
1262891.0,-5.296,-0.4501,40.2513,-0.2416,-0.9136,-0.2708
1262901.0,-5.2481,-0.7566,39.8491,-0.0984,-0.9456,-0.2836
1262911.0,-5.1236,-0.0096,40.0119,-0.1086,-0.9567,-0.3235
1262921.0,-5.3439,0.68,40.2226,-0.0357,-0.9339,-0.2996
1262931.0,-5.4779,1.3599,40.2322,0.0697,-0.9509,-0.2134
1262941.0,-5.5737,2.308,39.4948,-0.0782,-1.0451,-0.0527
1262951.0,-5.1044,1.7717,38.9489,-0.2937,-1.0983,0.1022
1262961.0,-4.798,0.7087,38.2976,-0.6513,-1.0717,0.1926
1262971.0,-4.2329,-1.5706,38.7286,-0.6566,-0.9009,0.2097
1262981.0,-3.6871,-3.0742,39.2266,-0.48,-0.6486,0.0984
1262991.0,-3.6392,-3.9935,40.4141,-0.4427,-0.5507,-0.1266
1263001.0,-3.4477,-3.802,41.3622,-0.4773,-0.6492,-0.3539
1263011.0,-3.5243,-3.122,41.0079,-0.7652,-0.9445,-0.5859
1263021.0,-3.5913,-2.7007,41.2186,-1.0616,-1.1408,-0.7891
1263031.0,-3.7158,-1.7334,40.3854,-1.2217,-1.1866,-0.92
1263041.0,-4.0797,-0.6704,40.9408,-1.3117,-1.1472,-0.9392
1263051.0,-4.5011,-0.4884,41.6687,-1.1605,-1.1339,-0.8711
1263061.0,-4.051,-0.5459,42.1284,-0.7801,-1.1265,-0.7513
1263071.0,-3.8595,-0.2682,41.7549,-0.539,-1.2026,-0.6353
1263081.0,-3.4285,0.0575,41.6591,-0.3006,-1.3122,-0.5183
1263091.0,-3.0454,-0.7566,41.1707,-0.1841,-1.4011,-0.3863
1263101.0,-3.0263,-1.7526,40.3471,-0.1336,-1.4218,-0.373
1263111.0,-2.6624,-2.1069,39.0925,-0.1719,-1.45,-0.4512
1263121.0,-2.9975,-2.8826,38.3551,-0.5316,-1.5383,-0.6008
1263131.0,-2.0303,-3.3136,37.7901,-0.8344,-1.342,-0.8407
1263141.0,-2.3367,-3.6488,39.0638,-0.8673,-1.0813,-1.0972
1263151.0,-2.8635,-2.9113,40.2609,-0.7684,-1.1153,-1.2909
1263161.0,-2.1452,-1.6855,40.7014,-0.705,-1.1706,-1.4207
1263171.0,-1.9824,-0.8906,40.9025,-0.6167,-1.2127,-1.4676
1263181.0,-2.0877,0.6129,40.4333,-0.8216,-1.5091,-1.4564
1263191.0,-2.4517,1.063,40.5769,-0.9376,-1.7123,-1.3941
1263201.0,-2.5283,1.9441,39.4277,-1.093,-1.7634,-1.2489
1263211.0,-2.8443,1.063,40.2705,-1.1323,-1.9289,-1.0605
1263221.0,-2.2889,0.1915,39.4948,-0.9232,-1.9944,-0.928
1263231.0,-1.8771,-1.0151,38.8244,-0.6843,-1.9837,-0.8391
1263241.0,-0.7949,-2.1069,38.3168,-0.3735,-1.9199,-0.853
1263251.0,0.0096,-2.2697,37.7518,0.0239,-1.773,-0.9003
1263261.0,1.1971,-1.5993,36.0854,0.1458,-1.8108,-0.9317
1263271.0,2.4804,-1.3024,34.8787,-0.19,-1.7054,-0.9817
1263281.0,3.0837,-2.1165,34.6489,-0.4959,-1.4857,-0.9642
1263291.0,3.122,-4.0031,35.6832,-1.0334,-1.525,-1.0626
1263301.0,3.62,-6.3782,37.2346,-1.4133,-1.7927,-1.2909
1263311.0,3.62,-8.1977,38.2976,-1.0967,-2.0678,-1.5628
1263321.0,3.6966,-9.2225,37.0527,-0.2623,-2.312,-1.8587
1263331.0,5.114,-9.912,34.1509,0.8344,-2.1982,-2.2232
1263341.0,6.1004,-9.7971,30.981,1.9247,-1.7969,-2.6414
1263351.0,6.8474,-8.5042,26.9108,2.6558,-1.3803,-3.1991
1263361.0,6.7325,-5.679,22.6491,2.5744,-0.8822,-3.7695
1263371.0,6.3303,-1.6185,20.0634,2.2482,-0.2581,-4.1686
1263381.0,5.3822,2.3846,16.9509,1.7533,0.4651,-4.3117
1263391.0,3.9935,4.5203,15.591,1.1595,1.3021,-4.2356
1263401.0,3.1316,4.7118,15.4953,1.2521,2.3668,-3.9328
1263411.0,5.2672,3.0167,14.5855,2.0736,3.678,-3.7578
1263421.0,6.9432,4.2617,10.7643,1.9188,5.186,-3.8924
1263431.0,5.545,6.6367,11.7029,1.093,6.7344,-4.0286
1263441.0,4.4819,10.2855,13.5512,-0.2554,8.0333,-3.9877
1263451.0,1.4557,12.3637,18.895,-1.7363,8.7373,-3.729
1263461.0,-0.4405,13.398,21.318,-3.1714,8.6942,-3.331
1263471.0,-2.5474,11.9997,23.6451,-4.0563,8.3733,-2.8511
1263481.0,-2.9209,10.2951,21.3946,-3.2203,8.7538,-2.3099
1263491.0,-3.9744,10.6398,11.1474,-3.1469,9.6201,-2.0178
1263501.0,-7.3837,10.8697,3.8211,-3.6359,10.3187,-1.9454
1263511.0,-7.853,16.7498,-12.9191,-4.8156,12.1056,-2.0321
1263521.0,-14.4418,27.3801,-26.3075,-7.5863,15.9857,-1.79
1263531.0,-29.554,35.415,-21.136,-8.6825,17.4357,-0.3523
1263541.0,-45.4036,35.7598,-0.498,-6.8148,17.4357,2.0635
1263551.0,-61.6651,31.862,32.1685,-2.1684,17.4357,4.6267
1263561.0,-76.1069,34.8883,59.1751,5.6846,17.4357,7.3416
1263571.0,-78.4532,46.5529,65.0457,11.9523,17.4357,9.9196
1263581.0,-78.4532,57.049,60.6499,12.072,17.4357,11.8379
1263591.0,-78.4532,57.7864,69.7958,5.7016,17.4357,12.7957
1263601.0,-78.4532,46.6678,78.4508,-3.3901,17.4357,13.0091
1263611.0,-78.4532,29.6306,78.4508,-9.5115,17.4357,13.1591
1263621.0,-78.4532,16.6541,78.4508,-11.5192,10.8716,13.3401
1263631.0,-78.4532,10.3908,78.4508,-12.4089,-0.8195,13.5912
1263641.0,-78.4532,0.9577,78.4508,-12.4568,-9.3753,13.7237
1263651.0,-77.1986,-9.098,78.4508,-12.7888,-14.2037,13.3358
1263661.0,-68.2922,-18.3683,68.9817,-13.6178,-16.5029,12.453
1263671.0,-59.3283,-25.618,45.0972,-13.0251,-16.131,11.458
1263681.0,-51.3987,-28.5963,26.2309,-11.6048,-13.8583,10.4635
1263691.0,-44.8769,-29.9946,18.3396,-9.2604,-10.9088,9.6312
1263701.0,-38.2402,-28.7879,15.457,-6.3231,-7.5592,8.9139
1263711.0,-34.8596,-25.1774,17.5926,-3.2837,-4.7097,8.4175
1263721.0,-32.9442,-19.5846,23.0705,-0.787,-2.8138,8.1472
1263731.0,-31.115,-13.6661,25.6658,0.4007,-1.9278,8.0051
1263741.0,-30.052,-10.8601,29.5732,-0.207,-1.8831,7.7385
1263751.0,-28.2612,-9.0118,32.111,-1.9811,-2.4754,7.2016
1263761.0,-27.8781,-7.7572,35.5587,-4.308,-3.6008,6.5099
1263771.0,-27.3705,-6.6463,38.0199,-6.9089,-5.0833,5.7404
1263781.0,-28.0026,-6.2824,39.8587,-8.9384,-6.9691,5.045
1263791.0,-27.6387,-5.2002,38.0008,-9.8957,-8.765,4.5352
1263801.0,-26.681,-4.4628,32.9921,-9.5355,-9.4705,4.3607
1263811.0,-25.5605,-4.9416,25.5126,-8.1615,-9.0459,4.4703
1263821.0,-22.6204,-7.9583,19.1345,-6.6706,-7.6725,4.4969
1263831.0,-19.259,-11.157,16.0986,-5.4318,-5.808,4.2271
1263841.0,-18.2247,-12.6893,16.5104,-5.1152,-4.3261,3.6716
1263851.0,-17.0754,-13.4746,20.4848,-5.1205,-3.571,2.9234
1263861.0,-15.5719,-11.7029,24.0186,-5.3797,-2.9915,2.1896
1263871.0,-16.9414,-9.0214,28.7304,-5.8809,-3.1097,1.4809
1263881.0,-17.1999,-5.2481,33.1453,-5.9096,-3.4428,1.0892
1263891.0,-18.6077,-1.7813,35.6928,-4.8603,-3.6168,1.1999
1263901.0,-18.4066,-1.7717,37.2921,-3.4864,-3.438,1.5745
1263911.0,-17.267,-3.3902,37.656,-2.1423,-3.1937,1.7879
1263921.0,-16.7403,-4.0414,38.2306,-1.8358,-3.4225,1.7246
1263931.0,-15.8592,-4.7692,38.4605,-2.3328,-4.1553,1.5144
1263941.0,-14.9781,-5.9185,37.8092,-3.3087,-5.0412,1.1222
1263951.0,-14.212,-6.6272,36.3248,-4.1718,-5.8069,0.6348
1263961.0,-13.2639,-7.0102,34.2754,-4.8417,-6.2262,0.1298
1263971.0,-13.0149,-6.7612,33.0687,-4.8816,-6.2204,-0.2182
1263981.0,-12.3828,-7.0102,32.044,-4.54,-5.9049,-0.4262
1263991.0,-11.4156,-8.6191,33.0591,-3.6817,-5.2951,-0.5789
1264001.0,-10.1993,-9.3087,34.9937,-2.6925,-4.847,-0.7859
1264011.0,-10.2759,-8.6766,36.8803,-1.8384,-4.9252,-0.994
1264021.0,-9.481,-7.4699,36.909,-1.5101,-5.418,-1.2329
1264031.0,-9.0118,-6.1292,34.5531,-1.6176,-6.065,-1.4175
1264041.0,-8.102,-5.7461,32.0248,-2.0838,-6.4598,-1.6054
1264051.0,-6.8091,-5.679,29.1614,-2.3791,-6.3502,-1.7735
1264061.0,-6.0238,-5.7844,28.673,-2.6153,-5.8367,-1.9183
1264071.0,-6.1675,-7.3358,31.0193,-2.5467,-5.5255,-2.03
1264081.0,-5.2385,-7.8721,32.4366,-2.3418,-5.5313,-2.171
1264091.0,-5.2672,-8.5138,35.2235,-1.7608,-5.6159,-2.2317
1264101.0,-4.5011,-8.4946,35.6544,-1.0217,-5.8767,-2.2572
1264111.0,-3.4955,-8.3989,35.0224,-0.3491,-6.1448,-2.3094
1264121.0,-2.6145,-7.3167,32.5611,0.0867,-6.355,-2.3636
1264131.0,-1.8962,-6.2345,30.1095,0.439,-6.446,-2.312
1264141.0,-1.1588,-5.6886,26.9012,0.3725,-6.1826,-2.2806
1264151.0,0.3065,-7.1922,26.8629,0.5023,-5.5345,-2.2274
1264161.0,0.9002,-9.3661,29.0465,0.729,-4.9263,-2.3136
1264171.0,1.494,-11.904,33.3273,0.9253,-4.9204,-2.544
1264181.0,0.5938,-12.3349,35.7885,1.0722,-5.6744,-2.8974
1264191.0,1.6568,-10.8505,34.6872,1.1962,-6.5109,-3.1937
1264201.0,2.6336,-9.3182,31.8333,1.6905,-6.8648,-3.3454
1264211.0,2.4038,-8.2169,28.2228,2.0619,-6.9494,-3.4178
1264221.0,3.3327,-8.8394,27.3992,2.8803,-6.5535,-3.4598
1264231.0,3.4572,-9.4236,26.8725,4.059,-6.0118,-3.479
1264241.0,2.806,-10.228,26.9587,4.7166,-5.9208,-3.5561
1264251.0,3.9169,-12.6222,26.7384,5.4339,-5.7947,-3.7647
1264261.0,4.0893,-14.6525,26.6331,6.0879,-5.6446,-4.1962
1264271.0,6.7229,-15.1409,25.5605,6.09,-5.7053,-4.8875
1264281.0,6.9145,-14.2216,24.3347,5.6968,-5.9597,-5.7537
1264291.0,5.3343,-10.2855,20.2454,4.7794,-6.1347,-6.5157
1264301.0,6.675,-6.0717,18.2055,4.4889,-5.2972,-6.9132
1264311.0,7.4412,-1.312,16.1752,4.1531,-3.9573,-7.0372
1264321.0,6.4548,1.5227,17.3149,3.3603,-3.0836,-6.9451
1264331.0,8.5329,2.5953,17.3819,2.3397,-2.1545,-6.7142
1264341.0,9.1554,2.059,20.7338,1.4255,-1.21,-6.5551
1264351.0,9.2703,1.9154,23.2621,0.2283,-0.8397,-6.5221
1264361.0,9.4523,1.2163,26.5565,-0.5651,-0.8359,-6.4758
1264371.0,10.4579,1.1779,27.677,-0.6753,-0.8657,-6.429
1264381.0,11.406,1.2833,24.2389,-0.3927,-0.5555,-6.3289
1264391.0,11.4922,1.0056,20.2549,0.2246,0.5773,-6.1954
1264401.0,12.1338,0.0766,17.2478,0.9046,2.2498,-6.1427
1264411.0,12.0285,0.0383,16.6445,1.1036,3.9733,-6.2518
1264421.0,9.5193,1.0534,18.1672,0.5997,5.2355,-6.3816
1264431.0,7.3071,0.2777,23.7984,-0.0016,6.0294,-6.4779
1264441.0,5.4779,-0.0862,28.491,0.1139,6.2619,-6.6136
1264451.0,5.7652,1.4844,26.9874,-0.9163,5.5547,-6.8132
1264461.0,6.3398,1.5131,21.7489,-2.3743,4.9391,-6.9457
1264471.0,4.5873,0.6512,13.5703,-3.6476,5.7553,-7.0542
1264481.0,4.2329,-2.4517,10.8505,-3.5747,8.1466,-7.1947
1264491.0,1.2163,-2.3463,10.6494,-3.0666,11.0568,-7.4405
1264501.0,-3.5817,-1.7909,21.634,-2.0657,13.3151,-7.4905
1264511.0,-7.2209,1.0822,30.9044,-0.3315,14.0818,-7.4017
1264521.0,-10.1706,5.1715,36.1716,0.3081,13.4231,-7.1931
1264531.0,-10.5345,9.0597,36.411,0.3198,12.2226,-6.8776
1264541.0,-10.5249,14.3652,31.3832,-0.3549,11.2233,-6.3396
1264551.0,-13.532,16.0507,26.5086,-0.8296,10.68,-5.3153
1264561.0,-13.7236,12.4786,18.8663,0.3852,11.5266,-4.0707
1264571.0,-12.2583,5.5737,12.967,2.2748,14.4607,-3.2161
1264581.0,-15.8975,-0.6512,11.406,3.2427,16.8626,-3.0208
1264591.0,-18.3683,-5.2289,14.4227,2.2647,17.4357,-3.4662
1264601.0,-24.373,-7.1635,20.7529,0.4363,17.4357,-4.1159
1264611.0,-27.4471,-11.0708,27.7632,-1.086,17.4357,-4.6794
1264621.0,-29.3433,-12.1721,30.1478,-2.5462,17.4357,-5.4041
1264631.0,-34.9553,-10.8409,34.5244,-4.0116,17.4357,-5.8383
1264641.0,-39.3511,-8.2648,39.6959,-3.4162,17.4357,-5.7197
1264651.0,-42.6359,-3.2274,40.2034,-0.8764,17.4357,-5.0604
1264661.0,-46.888,1.3982,40.5195,1.7943,17.4357,-4.1643
1264671.0,-52.7778,3.984,36.344,3.2698,17.4357,-3.1804
1264681.0,-54.176,-10.8697,47.0317,4.5203,17.4357,-2.809
1264691.0,-57.2789,-22.4672,58.9836,4.6363,17.4357,-4.11
1264701.0,-60.9851,-28.6921,78.4508,2.6792,17.4357,-6.23
1264711.0,-62.5461,-30.2531,78.4508,1.608,17.4357,-8.5718
1264721.0,-64.6147,-19.6899,78.4508,-0.6497,14.1154,-10.8583
1264731.0,-67.0664,-5.114,78.4508,-1.8464,8.4744,-12.0678
1264741.0,-67.6506,13.9055,78.4508,-2.4014,3.4098,-12.1572
1264751.0,-68.6178,29.9563,78.4508,-2.4898,-0.3821,-11.1196
1264761.0,-67.9187,43.7181,78.4508,-1.5618,-3.0149,-9.0347
1264771.0,-64.5189,48.0085,67.7559,-0.6492,-3.1607,-6.2459
1264781.0,-59.4241,42.2241,60.0753,0.9653,-1.881,-3.5902
1264791.0,-55.7657,31.8429,59.3858,1.7177,-0.9275,-1.6522
1264801.0,-54.0132,21.7872,64.0976,2.1311,-1.2936,-0.4289
1264811.0,-53.3045,13.5895,67.5452,2.4568,-2.9798,0.1862
1264821.0,-50.9582,10.5536,62.4982,2.0955,-5.4025,0.2496
1264831.0,-47.501,12.3349,53.18,0.8338,-7.4171,-0.0021
1264841.0,-45.9399,17.7267,41.5155,-1.2547,-8.6101,-0.248
1264851.0,-47.8074,19.2015,34.7255,-3.1437,-8.7559,0.041
1264861.0,-42.6551,8.983,36.8516,-3.1336,-7.606,0.4108
1264871.0,-40.9025,0.067,42.1763,-2.4445,-6.8792,0.0841
1264881.0,-41.7166,-3.0071,50.805,-1.3239,-8.0892,-0.4166
1264891.0,-41.6016,-0.9481,49.0332,-0.0314,-9.8851,-0.7029
1264901.0,-37.7422,2.1165,41.7549,0.7471,-10.9205,-0.77
1264911.0,-37.34,5.2481,35.4342,0.9722,-11.2079,-0.821
1264921.0,-33.3464,10.1801,26.499,-0.2405,-11.0052,-0.8163
1264931.0,-32.9346,12.4211,23.4823,-2.8042,-10.8599,-0.6997
1264941.0,-31.23,9.1554,26.7384,-5.0093,-10.6524,-0.4917
1264951.0,-29.1805,2.49,33.5763,-5.6,-10.5449,-0.448
1264961.0,-29.6881,-1.2833,42.4157,-4.4841,-10.7503,-0.4581
1264971.0,-30.8086,-1.1109,48.8609,-0.6295,-11.4665,-0.0069
1264981.0,-30.7703,2.1452,43.7085,3.6466,-12.3003,0.8072
1264991.0,-28.0888,5.7078,30.6458,5.9884,-12.6558,1.6863
1265001.0,-25.0529,7.4603,18.2821,6.3401,-12.1503,2.3663
1265011.0,-21.9883,6.5793,10.228,5.1556,-10.8647,2.7931
1265021.0,-18.9333,2.5091,8.6479,3.3507,-9.022,2.8867
1265031.0,-16.2231,-2.5953,13.9151,1.6746,-7.3517,2.5073
1265041.0,-15.9837,-4.7118,23.2046,0.1612,-6.8472,1.8964
1265051.0,-16.5008,-4.8842,31.4598,-0.9376,-7.6752,1.3367
1265061.0,-15.7251,-3.9648,34.6585,-1.8464,-8.9517,0.8817
1265071.0,-14.8536,-3.1029,34.036,-2.5227,-9.9702,0.5151
1265081.0,-13.7523,-2.1452,30.3297,-2.9053,-10.4395,0.2623
1265091.0,-13.1777,-2.0111,27.5237,-3.0118,-10.2341,0.1389
1265101.0,-10.7835,-3.9935,27.2364,-2.7893,-9.4503,-0.0681
1265111.0,-9.9982,-4.7884,28.807,-2.7968,-9.0661,-0.3677
1265121.0,-9.7013,-4.1755,32.4462,-3.2156,-9.3279,-0.6939
1265131.0,-9.2416,-2.2218,35.1373,-3.6189,-10.1187,-0.8908
1265141.0,-9.4236,-0.3639,37.3495,-3.479,-11.1589,-0.7987
1265151.0,-9.4715,1.8866,34.0168,-2.826,-12.0688,-0.4135
1265161.0,-7.853,2.1835,27.7344,-1.8661,-12.0784,0.2033
1265171.0,-5.8035,-1.3982,22.6779,-0.7955,-11.2132,0.7742
1265181.0,-3.7637,-5.6024,19.0962,-0.0692,-10.1793,0.9988
1265191.0,-0.5842,-10.0078,18.2247,0.1006,-9.1364,0.8163
1265201.0,1.1588,-12.0859,19.077,-0.1655,-8.4936,0.3581
1265211.0,2.6336,-11.904,19.326,-1.1036,-8.2813,-0.2086
1265221.0,4.6448,-11.2719,19.9964,-2.0869,-7.9466,-0.7375
1265231.0,4.9321,-10.6111,20.5901,-3.2326,-7.7864,-1.2664
1265241.0,4.8746,-9.5193,20.9924,-4.3633,-7.8604,-1.6836
1265251.0,6.1483,-10.3717,22.0745,-4.8582,-7.423,-1.9954
1265261.0,6.6272,-11.9519,23.2525,-4.5985,-6.8541,-2.337
1265271.0,7.355,-13.216,24.7273,-4.0558,-6.1991,-2.7085
1265281.0,8.3031,-12.9383,25.7616,-3.6386,-5.7356,-3.1464
1265291.0,8.5425,-10.1514,26.7576,-3.7003,-5.7543,-3.4864
1265301.0,10.094,-8.351,27.8494,-3.7535,-5.816,-3.6657
1265311.0,11.157,-5.4875,25.934,-4.1505,-6.1438,-3.811
1265321.0,12.1817,-2.9209,24.1623,-4.7667,-6.4173,-3.8275
1265331.0,12.3158,-1.3024,22.065,-4.6491,-6.272,-3.5668
1265341.0,13.5799,-1.6281,19.2973,-3.91,-5.6021,-3.2001
1265351.0,14.7004,-2.7485,16.7881,-3.0128,-4.5724,-2.8915
1265361.0,16.1465,-4.2042,15.8688,-2.1332,-3.4055,-2.6377
1265371.0,16.1944,-4.0414,15.7826,-1.6586,-2.419,-2.4834
1265381.0,16.2614,-4.4819,16.8839,-1.3697,-1.7624,-2.3493
1265391.0,17.2383,-5.0853,17.1233,-1.3473,-1.4952,-2.2955
1265401.0,17.7746,-4.9799,15.9071,-1.267,-1.2122,-2.2748
1265411.0,18.3396,-4.6735,13.963,-0.7412,-0.3363,-2.1763
1265421.0,17.8799,-3.9169,12.2583,-0.0074,0.9232,-2.0029
1265431.0,17.7746,-2.988,11.4443,0.8248,2.3051,-1.7687
1265441.0,16.4913,-1.8962,11.7603,1.9241,3.7306,-1.4537
1265451.0,14.4706,-2.0111,12.651,2.6691,4.971,-1.1712
1265461.0,15.5049,-2.9113,13.8002,2.9325,5.5654,-1.0121
1265471.0,16.1273,-3.9169,13.0723,2.5925,6.3422,-1.0429
1265481.0,15.2271,-3.7445,14.6525,2.3902,7.3745,-1.0914
1265491.0,13.3788,-3.2274,17.334,2.253,8.2605,-1.1158
1265501.0,11.3102,-2.0686,19.9006,2.3083,9.1135,-1.0254
1265511.0,8.8681,-1.7047,24.689,2.6547,9.8521,-0.8679
1265521.0,6.5027,-0.8619,29.5253,3.2885,10.0681,-0.6992
1265531.0,5.4971,1.7047,31.9099,3.6929,9.7994,-0.5055
1265541.0,5.7365,5.9089,30.7415,3.8238,9.3338,-0.1591
1265551.0,5.2098,10.2376,26.3458,3.5524,9.2646,0.4236
1265561.0,3.3327,12.1625,22.2852,3.3959,10.4331,1.2537
1265571.0,0.8619,9.3661,22.4959,3.7849,12.2269,2.1018
1265581.0,-1.063,4.3862,26.4703,3.8525,13.7312,2.4493
1265591.0,-4.3,1.3791,33.2315,3.3598,14.1952,2.3775
1265601.0,-6.4165,0.68,39.0063,2.7026,13.7881,2.2232
1265611.0,-8.5234,0.9098,43.3446,2.3338,13.041,2.1114
1265621.0,-9.7683,2.9975,42.2912,2.1327,12.1237,2.1279
1265631.0,-10.4291,6.4356,37.4453,1.7389,11.8214,2.303
1265641.0,-11.7603,10.1801,32.791,1.3303,12.4552,2.6451
1265651.0,-14.4227,14.7866,28.4335,0.4454,13.0889,3.1943
1265661.0,-21.4233,18.3492,26.8246,-0.5481,14.1941,4.176
1265671.0,-26.6044,13.0819,35.1756,0.8115,16.355,5.7617
1265681.0,-27.0066,1.8004,44.1778,3.8057,17.4357,6.7727
1265691.0,-28.7113,-6.2153,49.1099,4.7848,17.4357,6.5929
1265701.0,-29.3433,-9.7683,51.8297,3.8339,17.1947,5.6521
1265711.0,-30.0903,-8.7149,52.8927,1.3606,16.1661,4.3585
1265721.0,-32.7623,-4.3479,56.0435,-1.3819,14.5001,3.2682
1265731.0,-34.6202,5.0853,54.2813,-4.0318,12.6286,2.7414
1265741.0,-40.2034,15.457,49.876,-6.0757,11.599,3.2454
1265751.0,-47.7595,14.8345,52.1074,-5.5627,12.7888,5.0726
1265761.0,-46.2464,0.8332,61.9236,-1.3441,15.1482,6.7828
1265771.0,-43.7564,-12.5073,74.1053,2.0907,16.1368,6.926
1265781.0,-44.5417,-15.5815,78.4508,3.3741,13.9366,6.1017
1265791.0,-42.3965,-13.6565,78.4508,3.3065,10.671,5.1365
1265801.0,-40.529,-9.7109,78.4508,2.4264,7.6427,4.2298
1265811.0,-39.1691,-4.7405,78.4508,1.4713,5.0561,3.4284
1265821.0,-38.4317,2.2793,71.3855,0.2107,3.3161,2.9415
1265831.0,-38.0391,7.8721,64.6339,-1.2781,2.1625,2.8053
1265841.0,-37.9816,12.2583,58.5909,-2.9048,1.2643,2.9734
1265851.0,-39.0829,15.3133,54.358,-4.7874,0.7077,3.3656
1265861.0,-44.1299,14.1449,53.8217,-5.7138,0.6731,4.3468
1265871.0,-39.897,2.9975,62.1152,-4.9151,0.9413,5.162
1265881.0,-36.8899,-6.6846,66.712,-3.4593,-0.1729,5.1615
1265891.0,-37.2346,-12.5169,69.2307,-1.905,-2.1912,4.6294
1265901.0,-30.6841,-11.4922,62.0673,-0.4539,-4.0393,3.9009
1265911.0,-29.3912,-8.1882,50.5081,-0.4087,-4.9577,3.1458
1265921.0,-30.0233,-5.8993,42.6168,-0.6321,-4.8997,2.4546
1265931.0,-28.4527,-0.2586,35.099,-1.79,-4.4942,1.9523
1265941.0,-28.7687,1.9345,32.6473,-3.7349,-4.1797,1.6368
1265951.0,-46.4571,10.726,28.1367,-5.741,-4.0047,2.0561
1265961.0,-22.4959,5.1044,38.2115,-8.2062,-3.8365,1.9215
1265971.0,-24.8901,2.624,41.4388,-7.2176,-3.5119,2.2551
1265981.0,-29.1997,-3.8116,48.7843,-6.5711,-3.3763,2.3259
1265991.0,-26.2692,-7.1156,53.5727,-3.2187,-4.2622,2.2546
1266001.0,-24.7369,-5.2672,48.6981,-1.9678,-5.1109,1.9667
1266011.0,-24.9188,-3.4093,42.8562,-1.3941,-5.8916,1.7006
1266021.0,-23.3578,-0.2394,36.8899,-2.0838,-5.99,1.4505
1266031.0,-22.7162,1.4365,32.8963,-3.4146,-6.321,1.267
1266041.0,-22.5246,1.9249,29.2093,-5.3914,-6.6668,1.0791
1266051.0,-21.0881,-0.1628,28.4431,-6.7866,-6.5024,0.9073
1266061.0,-19.9581,-2.9018,28.9315,-6.3497,-5.5052,0.821
1266071.0,-20.14,-4.7214,30.0712,-4.6975,-4.2032,0.8099
1266081.0,-19.7091,-5.6407,31.3545,-3.0857,-2.9468,0.7524
1266091.0,-19.0866,-4.8459,32.3792,-1.989,-2.2907,0.5869
1266101.0,-18.7322,-2.9018,33.7678,-2.071,-2.1758,0.3751
1266111.0,-18.5982,-1.1301,36.3248,-2.4381,-2.444,0.2246
1266121.0,-18.3013,0.182,38.0008,-2.8303,-2.8048,0.2075
1266131.0,-18.3587,0.3065,38.8244,-3.0932,-3.0495,0.2501
1266141.0,-19.077,-0.6704,41.2186,-3.0458,-3.0272,0.3863
1266151.0,-19.4122,-2.624,45.6335,-2.3221,-2.9894,0.5092
1266161.0,-19.6325,-4.6926,49.3301,-1.5245,-3.5385,0.5193
1266171.0,-19.144,-5.8419,50.5368,-1.0882,-4.7065,0.3618
1266181.0,-17.6788,-5.612,49.0907,-0.8689,-5.89,0.1346
1266191.0,-16.6924,-4.1372,46.9647,-0.7881,-6.6865,-0.0234
1266201.0,-15.9262,-2.8635,43.0094,-0.9163,-7.4778,-0.0793
1266211.0,-14.7866,-2.0782,38.6999,-1.7538,-8.0775,-0.1697
1266221.0,-14.0683,-2.7198,35.2714,-2.527,-8.3563,-0.2118
1266231.0,-12.9478,-3.6871,33.2794,-2.9809,-8.095,-0.2315
1266241.0,-12.2775,-5.3056,33.4039,-2.9703,-7.6736,-0.2831
1266251.0,-12.0955,-6.5027,34.1126,-2.6042,-7.4432,-0.332
1266261.0,-11.3102,-6.9528,34.2754,-1.9183,-7.2905,-0.4161
1266271.0,-10.4387,-6.5027,33.5092,-1.0749,-7.0159,-0.4518
1266281.0,-9.9216,-4.9225,31.5173,-0.5773,-6.8909,-0.4491
1266291.0,-8.3606,-3.6488,28.9507,-0.63,-6.7179,-0.4544
1266301.0,-7.0198,-3.0167,26.6331,-1.0057,-6.4114,-0.5247
1266311.0,-6.1483,-2.0303,26.0585,-1.7081,-5.9405,-0.5875
1266321.0,-6.2058,-1.9058,28.0026,-1.765,-5.5004,-0.5002
1266331.0,-6.0334,-2.5283,30.3393,-1.4064,-5.0231,-0.3443
1266341.0,-5.5258,-3.0742,31.6705,-0.6279,-4.7299,-0.1767
1266351.0,-4.6735,-3.7924,33.289,-0.1506,-4.465,-0.0474
1266361.0,-4.0797,-4.4628,34.1988,0.4326,-4.5139,0.0128
1266371.0,-2.9592,-4.0031,34.285,0.4023,-4.8321,-0.0202
1266381.0,-2.1069,-3.7733,33.8349,0.3411,-5.1769,-0.0516
1266391.0,-1.494,-3.2848,32.8293,0.1777,-5.3025,-0.0899
1266401.0,-0.9481,-2.5091,32.3026,0.0575,-5.4004,-0.0862
1266411.0,-0.6416,-3.1508,32.3792,-0.1144,-5.4914,-0.0548
1266421.0,0.3831,-4.2425,32.3121,-0.1708,-5.6303,-0.0846
1266431.0,0.9768,-5.0661,31.9674,-0.2464,-5.9134,-0.1841
1266441.0,1.8675,-5.5354,31.4311,-0.2224,-6.1656,-0.3421
1266451.0,2.49,-4.1755,29.2571,0.0543,-6.2039,-0.4661
1266461.0,2.6336,-2.0494,28.491,0.2666,-5.9623,-0.3975
1266471.0,3.0263,-0.4693,27.7344,0.7902,-5.7809,-0.1485
1266481.0,3.5434,0.2777,25.8382,1.1754,-5.6015,0.1926
1266491.0,4.9129,-0.498,24.1623,1.4787,-5.3147,0.5523
1266501.0,6.359,-1.7717,22.065,1.4665,-4.9683,0.7492
1266511.0,7.9966,-3.0646,20.0059,1.0876,-4.6853,0.7625
1266521.0,8.7532,-3.6966,19.0387,0.6832,-4.2393,0.7205
1266531.0,9.6534,-4.0223,17.8224,0.2857,-3.7408,0.6556
1266541.0,9.73,-4.4628,17.1042,-0.0814,-3.2262,0.5619
1266551.0,10.0269,-4.6543,16.3955,-0.2756,-2.5552,0.5151
1266561.0,10.41,-5.1619,16.2614,-0.0937,-1.6155,0.5358
1266571.0,11.8752,-6.6463,17.583,0.7306,-0.1511,0.5231
1266581.0,11.4443,-7.1826,19.8048,1.8358,1.0834,0.5098
1266591.0,11.2336,-7.6519,22.5055,2.5898,2.0109,0.4252
1266601.0,11.1761,-7.9966,24.3634,3.0714,2.5765,0.2033
1266611.0,10.1897,-7.9009,25.7233,3.1427,2.9149,-0.0756
1266621.0,9.1937,-7.3071,27.1598,3.0586,3.1059,-0.3794
1266631.0,8.3989,-7.1635,27.3609,2.8457,3.2001,-0.6556
1266641.0,8.1977,-7.2401,26.8438,2.5717,3.4763,-0.9786
1266651.0,8.916,-7.853,26.4224,2.3674,4.2691,-1.383
1266661.0,7.6327,-7.0964,28.989,2.1237,5.1322,-1.8651
1266671.0,5.2864,-5.3534,32.9155,2.0119,5.51,-2.2407
1266681.0,3.9073,-3.0167,37.1101,2.0029,5.4664,-2.4637
1266691.0,2.5666,-1.4748,41.7549,2.5126,5.2323,-2.5217
1266701.0,0.7566,0.249,43.8522,3.0463,4.5623,-2.444
1266711.0,-0.0766,1.7238,43.4404,3.2672,3.1065,-2.2812
1266721.0,1.6568,2.3655,38.0391,2.9883,1.9949,-2.2013
1266731.0,4.0127,3.2848,30.3489,2.7159,2.3349,-2.1833
1266741.0,3.2848,4.8076,26.1255,2.0689,3.4321,-2.2056
1266751.0,1.063,6.0621,25.12,1.3617,4.3984,-2.1652
1266761.0,0.7566,6.4548,27.3897,0.7955,5.4446,-1.9912
1266771.0,-0.9002,6.2153,31.5268,1.0525,6.2827,-1.7453
1266781.0,-2.8156,6.0142,35.7311,1.3776,6.5258,-1.5139
1266791.0,-4.0414,5.1906,39.1021,1.7326,6.0001,-1.3175
1266801.0,-2.8922,4.8746,36.6313,1.6597,5.0934,-1.1808
1266811.0,-1.6089,4.2329,31.2012,1.5117,5.1189,-1.1861
1266821.0,-1.7813,4.0797,25.5892,1.1621,6.2055,-1.21
1266831.0,-3.4093,3.237,23.6547,0.571,7.6677,-1.3058
1266841.0,-4.9321,3.5721,22.3427,-0.273,9.2024,-1.4197
1266851.0,-6.9911,2.4995,27.7249,-1.1696,10.7178,-1.5261
1266861.0,-10.7739,1.7238,36.7175,-1.0807,11.384,-1.5075
1266871.0,-12.2583,1.5706,42.952,-0.8572,11.1009,-1.4154
1266881.0,-12.5073,0.5746,45.1068,-0.4651,10.3022,-1.3074
1266891.0,-12.2104,0.431,42.0805,-0.1421,9.951,-1.2755
1266901.0,-13.034,1.3503,34.9841,-0.2985,10.2581,-1.3031
1266911.0,-15.84,1.7621,29.8222,-1.0621,11.5458,-1.268
1266921.0,-17.7267,-0.7661,30.8565,-1.3505,13.7482,-1.3047
1266931.0,-21.5095,-3.0837,38.5179,-1.624,15.2796,-1.4873
1266941.0,-25.7425,-4.9704,47.8649,-1.9566,15.1253,-1.7219
1266951.0,-28.5772,-5.679,52.2223,-2.336,14.308,-1.9656
1266961.0,-30.3681,-6.3686,54.1951,-2.1418,13.9259,-2.2359
1266971.0,-32.9921,-4.1755,51.5711,-2.4999,13.6285,-2.5047
1266981.0,-36.2099,-0.9002,48.9566,-3.886,13.4114,-2.7175
1266991.0,-40.9217,1.1396,47.7595,-5.2126,13.9807,-2.4866
1267001.0,-43.2584,-4.1276,56.4265,-5.104,15.5164,-2.0939
1267011.0,-44.7141,-11.4156,72.1804,-3.4124,16.2693,-2.0364
1267021.0,-47.1179,-15.9358,78.4508,-1.84,14.6129,-2.5132
1267031.0,-47.1083,-17.5734,78.4508,-0.3874,11.2004,-3.2299
1267041.0,-46.3039,-15.457,78.4508,0.4576,7.5406,-4.0441
1267051.0,-46.0453,-11.2432,78.4508,-0.166,4.3591,-4.9258
1267061.0,-45.7676,-4.7022,78.4508,-1.9656,1.8294,-5.7681
1267071.0,-46.3039,2.0973,78.4508,-4.574,-0.3757,-6.3215
1267081.0,-48.0851,6.8091,78.4508,-6.3497,-2.8234,-6.3513
1267091.0,-47.4339,10.5824,78.4508,-6.7653,-5.3898,-5.8405
1267101.0,-46.7635,11.3294,78.4508,-5.8213,-7.6497,-4.9322
1267111.0,-45.4036,11.4347,76.8922,-4.0616,-9.3652,-3.9195
1267121.0,-43.699,10.2568,69.2882,-2.2397,-10.5412,-2.9256
1267131.0,-41.2952,8.6287,60.9851,-0.8971,-11.3202,-2.1056
1267141.0,-39.1979,7.039,53.4482,-0.3709,-12.0002,-1.5931
1267151.0,-37.6177,6.1579,46.7827,-0.6444,-12.6111,-1.3462
1267161.0,-35.4916,5.6599,42.7509,-1.2904,-13.1341,-1.2068
1267171.0,-33.7008,5.5833,39.399,-1.8118,-13.4507,-1.1462
1267181.0,-32.1781,6.2632,37.2442,-2.0928,-13.8924,-0.9493
1267191.0,-30.9139,5.2098,36.2291,-1.8496,-14.1058,-0.5561
1267201.0,-28.0792,1.9058,35.2139,-0.7258,-13.8903,-0.099
1267211.0,-25.5126,-1.0056,33.1932,0.3427,-13.6652,0.1846
1267221.0,-24.2581,-2.8826,32.6282,0.9935,-13.7966,0.3379
1267231.0,-22.5917,-3.7637,31.4407,1.3005,-14.1734,0.4145
1267241.0,-21.5574,-5.1811,30.3872,1.5266,-14.6033,0.4619
1267251.0,-19.9485,-6.9528,28.7591,1.6511,-15.2748,0.3815
1267261.0,-18.8663,-7.5561,24.2676,1.1504,-16.2018,0.083
1267271.0,-17.2478,-6.6655,18.2725,0.5316,-16.6966,-0.2512
1267281.0,-14.9877,-5.2194,12.3732,-0.0474,-16.2459,-0.4699
1267291.0,-12.7563,-6.3303,9.5577,-0.4848,-15.1248,-0.5981
1267301.0,-10.5824,-8.7436,9.2991,-0.7013,-13.9116,-0.8503
1267311.0,-8.7724,-10.726,10.9846,-0.7455,-12.8165,-1.2015
1267321.0,-8.102,-11.0133,15.0069,-0.2379,-11.5878,-1.5069
1267331.0,-5.9185,-11.7029,22.4576,1.0195,-10.2416,-1.6059
1267341.0,-6.9145,-12.8904,32.2834,2.2945,-10.4129,-1.7922
1267351.0,-8.9352,-11.2336,36.4876,2.7707,-12.5632,-2.021
1267361.0,-8.3414,-9.73,34.0264,3.4178,-14.5543,-2.0178
1267371.0,-7.422,-10.6015,28.2037,4.7454,-15.3483,-1.8267
1267381.0,-5.1619,-12.0189,20.073,6.2337,-15.3749,-1.7145
1267391.0,-3.1699,-12.5169,12.785,7.0489,-14.8305,-1.7182
1267401.0,-2.8826,-11.5975,4.5969,6.4476,-14.623,-1.9039
1267411.0,-0.7183,-11.6646,-0.8523,5.3068,-14.6432,-2.1072
1267421.0,0.5267,-12.9861,-7.4508,4.1329,-14.5655,-2.444
1267431.0,0.0096,-13.0149,-21.5574,1.5341,-15.783,-3.1251
1267441.0,11.0612,-15.3229,-48.5544,-3.8514,-17.4363,-4.6491
1267451.0,13.1681,-19.2877,-78.4532,-8.2015,-17.4363,-7.4198
1267461.0,27.6482,-11.5975,-78.4532,-7.3463,-17.2298,-10.5656
1267471.0,21.9883,4.8746,-78.4532,-4.2021,-8.9501,-13.8615
1267481.0,-3.1412,64.9691,-78.4532,-1.3228,-0.174,-15.0971
1267491.0,-19.4792,78.4508,-78.4532,-8.1057,11.4628,-9.8271
1267501.0,-78.4532,78.4508,-78.4532,-15.1237,17.4357,1.2164
1267511.0,-78.4532,78.4508,-78.4532,-10.2586,17.4357,15.2919
1267521.0,-78.4532,78.4508,-78.4532,1.1526,17.4357,17.4357
1267531.0,-78.4532,48.5161,-78.4532,17.4357,17.4357,17.4357
1267541.0,-78.4532,-78.4532,-78.4532,17.4357,17.4357,17.4357
1267551.0,-78.4532,-78.4532,78.4508,17.4357,17.4357,17.4357
1267561.0,-78.4532,-78.4532,78.4508,17.4357,17.4357,-6.4285
1267571.0,-78.4532,-39.466,78.4508,17.4357,17.4357,-17.4363
1267581.0,-78.4532,75.3599,78.4508,12.5547,17.4357,-17.4363
1267591.0,-78.4532,78.4508,78.4508,-17.4363,17.4357,-17.4363
1267601.0,-78.4532,78.4508,78.4508,-17.0462,-4.217,-17.4363
1267611.0,-78.4532,78.4508,78.4508,4.5001,-17.4363,-13.0777
1267621.0,-78.4532,78.4508,78.4508,0.5566,-17.4363,-1.922
1267651.0,-78.4532,35.1469,-28.1079,0.0,0.0,0.0
1267661.0,-78.4532,-6.359,-17.3244,-1.0866,-3.3076,0.7524
1267671.0,-78.4532,-15.2463,0.1053,-3.8312,-15.0838,3.9536
1267681.0,-78.4532,-5.5545,45.4898,-5.4818,-13.1049,0.5949
1267691.0,-78.4532,16.1273,75.3695,-9.5621,-17.4363,-1.4798
1267701.0,-78.4532,29.5444,78.4508,-8.9379,-17.4363,-1.1611
1267711.0,-78.4532,39.9257,78.4508,-5.1455,-17.4363,1.2627
1267721.0,-78.4532,30.2531,66.0895,-4.5618,-17.4363,3.4853
1267731.0,-78.4532,15.8879,16.7594,-3.5896,-17.4363,5.054
1267741.0,-78.4532,0.4788,-27.6482,-6.4843,-17.4363,5.253
1267751.0,-78.4532,-15.5623,-73.2147,-8.7352,-17.4363,3.9807
1267761.0,-78.4532,-24.0857,-77.0646,-10.8609,-17.4363,1.2946
1267771.0,-68.5125,-22.9269,-78.4532,-15.7575,-17.4363,-2.1795
1267781.0,-49.876,-14.3652,-78.0318,-12.0885,-17.4363,-4.5602
1267791.0,-46.3613,-6.8187,-67.957,-9.9766,-17.4363,-5.5675
1267801.0,-26.4224,0.0575,-78.4532,-3.9547,-17.4363,-5.3318
1267811.0,-16.7594,9.1554,-78.4532,-0.6657,-17.4363,-4.1345
1267821.0,-6.3398,11.3198,-78.4532,-2.1247,-13.8323,-2.5962
1267831.0,4.4819,4.3191,-70.3512,-4.557,-7.5528,-1.6352
1267841.0,8.4946,-4.1372,-49.7515,-6.2087,-4.1835,-1.4505
1267851.0,13.8289,-14.3652,-18.2821,-7.721,-2.0524,-2.2423
1267861.0,14.9494,-16.4817,11.2719,-6.5982,-1.6416,-3.331
1267871.0,11.3102,-12.8138,40.5482,-2.4706,-3.8067,-3.6588
1267881.0,9.9982,-4.6064,46.7157,3.2448,-7.1074,-3.0027
1267891.0,11.3389,3.9169,28.9124,6.6764,-9.7648,-1.7475
1267901.0,13.8193,7.1635,8.1403,6.9978,-10.2293,-0.5577
1267911.0,16.8743,6.1196,-8.6383,5.4728,-8.7064,0.323
1267921.0,19.2111,2.739,-15.8496,2.4467,-6.8499,0.7199
1267931.0,21.9309,-3.0071,-13.963,-0.8817,-4.8667,0.6502
1267941.0,24.3634,-6.675,-8.5425,-3.0006,-2.9852,0.34
1267951.0,24.0952,-9.1363,-0.1532,-4.3766,-1.3691,0.0021
1267961.0,23.1663,-9.6343,9.9982,-4.689,-0.2645,-0.2597
1267971.0,21.8255,-9.2703,19.7378,-3.9674,0.0287,-0.2836
1267981.0,19.5846,-8.7532,27.8781,-2.0103,-0.0612,0.0144
1267991.0,19.326,-8.734,29.2859,1.1089,0.0458,0.4736
1268001.0,18.8567,-8.0732,26.116,3.3645,0.4257,0.845
1268011.0,18.828,-8.6287,24.2772,3.8993,0.4762,0.9301
1268021.0,20.7242,-8.849,22.6779,3.0134,0.2017,0.7641
1268031.0,21.385,-9.3087,21.385,1.0664,-0.4576,0.4204
1268041.0,22.2948,-9.7971,20.9157,-1.2228,-0.9482,0.0298
1268051.0,22.2852,-11.1857,21.9883,-2.5084,-0.9998,-0.2357
1268061.0,22.3044,-12.7467,22.812,-2.8851,-1.011,-0.4805
1268071.0,22.63,-12.5456,24.2006,-2.3514,-0.6816,-0.6002
1268081.0,22.7832,-11.7316,24.0282,-1.1675,-0.5305,-0.5561
1268091.0,24.1527,-10.2951,21.6436,-0.0782,-0.1133,-0.3986
1268101.0,25.0721,-9.098,18.6748,0.7737,0.8024,-0.2575
1268111.0,25.1774,-8.8011,17.4872,0.8854,1.582,-0.1064
1268121.0,25.436,-9.73,18.3875,0.9626,2.4089,-0.0623
1268131.0,24.4879,-10.4962,20.4561,0.9546,3.3326,-0.116
1268141.0,23.3866,-12.0189,25.3019,0.9892,3.8195,-0.2943
1268151.0,22.2373,-12.3541,30.0329,1.2483,3.935,-0.5034
1268161.0,20.9445,-11.5975,33.8349,1.8874,3.8147,-0.6976
1268171.0,20.3124,-8.8011,35.5491,2.3269,3.389,-0.8088
1268181.0,19.5941,-5.047,35.5683,2.1689,2.8271,-0.8163
1268191.0,19.8336,-2.2984,35.8651,1.7991,2.3088,-0.6385
1268201.0,18.9429,0.0,35.1756,1.7358,1.7171,-0.2692
1268211.0,19.2494,0.0479,34.1988,1.7379,1.3744,0.2006
1268221.0,19.4792,-1.81,32.5899,1.9949,1.2467,0.5928
1268231.0,18.5886,-4.2234,31.9003,2.6153,1.061,0.8226
1268241.0,20.1496,-5.7748,27.8685,3.1985,1.1206,0.9003
1268251.0,20.4465,-6.7325,25.2157,3.5338,1.5878,0.8365
1268261.0,21.136,-6.0621,22.2852,3.3507,2.1604,0.6646
1268271.0,20.8583,-4.5394,21.1647,2.6563,2.5978,0.5295
1268281.0,20.1113,-2.8539,20.7625,1.5128,3.0575,0.4619
1268291.0,18.7514,-3.1412,22.2469,0.6455,3.4641,0.563
1268301.0,18.2917,-6.0142,25.2157,0.332,3.9233,0.58
1268311.0,17.1042,-8.8011,29.554,0.4927,4.0579,0.3884
1268321.0,16.1273,-11.4443,33.6146,1.6809,3.6317,0.1522
1268331.0,16.6732,-12.3445,34.2658,3.7998,3.0687,-0.1298
1268341.0,18.9812,-10.9942,26.7672,5.4031,2.4365,-0.5438
1268351.0,20.6189,-8.1307,16.4434,5.6085,2.5243,-1.0259
1268361.0,20.5231,-5.3056,9.7492,5.3318,3.6577,-1.3643
1268371.0,19.01,-2.5379,5.8035,4.6485,4.8193,-1.5527
1268381.0,17.2861,-1.6759,2.9688,3.4726,5.7436,-1.6426
1268391.0,15.1984,-1.7047,1.8962,2.452,7.274,-1.7347
1268401.0,11.7507,-3.6775,7.8338,2.7606,8.7501,-1.7501
1268411.0,10.1993,-6.6846,13.6182,4.9646,9.677,-1.8475
1268421.0,11.5688,-5.4684,10.3908,6.7637,9.992,-2.1684
1268431.0,11.3294,-0.7278,2.9592,6.6477,11.3792,-2.5398
1268441.0,7.7381,4.7501,-0.8811,5.9288,13.3076,-2.5978
1268451.0,3.486,9.8162,-0.7661,4.2526,15.335,-2.3456
1268461.0,-0.68,12.1147,3.1125,2.5435,17.4357,-1.8012
1268471.0,-6.4835,10.4962,13.9438,0.7678,17.4357,-1.1584
1268481.0,-13.2256,5.1811,30.0233,1.1302,17.4357,-0.4975
1268491.0,-15.2175,-2.1261,43.9001,3.8078,17.4357,-0.0825
1268501.0,-14.71,-7.0677,52.3085,7.7476,17.4357,-0.2474
1268511.0,-13.714,-5.9759,51.054,9.6935,17.4357,-0.9722
1268521.0,-13.5416,-0.067,45.0014,9.7403,17.4357,-1.7815
1268531.0,-16.3955,5.7844,41.525,8.0998,17.3841,-2.4062
1268541.0,-18.761,9.0501,42.3582,5.8069,17.0899,-2.8441
1268551.0,-22.3044,10.8601,45.9399,3.1421,16.3566,-3.165
1268561.0,-25.0242,10.8026,51.054,1.143,15.7213,-3.2911
1268571.0,-25.5126,8.2456,62.8143,0.687,15.3999,-3.3704
1268581.0,-27.926,9.1746,70.9163,0.6066,12.7462,-3.4731
1268591.0,-26.2404,11.9902,70.5236,0.1362,10.0846,-3.3901
1268601.0,-25.8382,14.4227,67.3537,1.3383,9.4375,-2.9522
1268611.0,-26.2021,16.8073,64.7679,2.6425,9.2651,-2.3211
1268621.0,-25.867,17.8607,61.0234,3.6418,8.9831,-1.7145
1268631.0,-25.2445,17.8799,57.2501,3.3496,8.848,-1.3085
1268641.0,-25.6563,15.2367,58.1121,2.8692,8.5745,-1.1009
1268651.0,-25.6946,12.4977,60.3147,2.2141,8.0493,-1.1552
1268661.0,-26.5086,11.0229,62.3929,1.1148,6.6892,-1.4149
1268671.0,-26.6906,10.1035,62.2876,0.0692,4.6331,-1.7272
1268681.0,-24.9476,11.2049,56.3308,-0.5396,3.7578,-1.9779
1268691.0,-25.7041,13.6182,52.0021,-0.9823,3.877,-2.0029
1268701.0,-26.4033,15.1314,50.3932,-1.2664,3.8732,-1.8299
1268711.0,-25.8382,16.3189,48.0468,-1.7161,3.9749,-1.5128
1268721.0,-25.7233,15.3325,48.5736,-2.1098,4.2234,-1.1504
1268731.0,-25.4839,13.6948,50.2208,-2.1348,4.2649,-0.8051
1268741.0,-25.4264,10.8218,52.0978,-2.2402,3.9163,-0.5236
1268751.0,-25.3498,6.5697,54.1568,-2.1029,3.1634,-0.4672
1268761.0,-24.4879,3.9169,54.2909,-1.7597,2.2077,-0.6093
1268771.0,-24.1144,3.304,51.7914,-0.861,1.4926,-0.8024
1268781.0,-23.1854,5.7652,45.5952,0.0074,1.4447,-1.0264
1268791.0,-23.5015,10.2185,40.4907,0.0628,1.7975,-1.0786
1268801.0,-25.4456,13.2447,38.652,0.0452,1.8975,-0.8679
1268811.0,-25.2253,15.1697,34.8692,-0.3608,2.163,-0.5188
1268821.0,-24.5454,13.7714,33.8157,-0.7125,2.8867,-0.165
1268831.0,-24.4209,13.3596,31.8716,-1.425,3.455,0.0979
1268841.0,-24.2581,11.9231,33.1166,-2.5291,4.0041,0.2735
1268851.0,-24.6124,9.5577,35.4342,-3.1283,4.4064,0.5161
1268861.0,-25.0434,7.0677,39.0925,-3.314,4.4889,0.6726
