time_ms,ax,ay,az,gx,gy,gz
1427791.0,-1.4533,1.5299,10.0485,-0.0654,0.2309,0.1208
1427801.0,-1.4988,1.5586,10.0796,-0.033,0.2448,0.1086
1427811.0,-1.5203,1.561,10.1347,-0.0122,0.2559,0.0984
1427821.0,-1.4964,1.5682,10.2376,-0.0117,0.2629,0.0883
1427831.0,-1.4844,1.549,10.4028,-0.033,0.2607,0.0772
1427841.0,-1.5251,1.5179,10.5297,-0.0521,0.241,0.0633
1427851.0,-1.4844,1.4437,10.6279,-0.0521,0.2192,0.0511
1427861.0,-1.4748,1.4557,10.6494,-0.0341,0.1969,0.0351
1427871.0,-1.4581,1.4676,10.6063,-0.0255,0.166,0.0154
1427881.0,-1.5107,1.5586,10.5752,-0.033,0.1383,-0.0069
1427891.0,-1.5586,1.585,10.5752,-0.0628,0.1086,-0.0266
1427901.0,-1.5371,1.5706,10.501,-0.083,0.0713,-0.0442
1427911.0,-1.5467,1.6185,10.4291,-0.0793,0.0463,-0.0617
1427921.0,-1.6017,1.6951,10.3717,-0.0548,0.0431,-0.0777
1427931.0,-1.6305,1.7669,10.2855,-0.0245,0.0479,-0.0873
1427941.0,-1.5682,1.8603,10.1083,-0.0016,0.0543,-0.0921
1427951.0,-1.5467,1.9417,10.0628,0.0,0.0649,-0.0968
1427961.0,-1.5778,2.0087,10.1107,-0.0239,0.0676,-0.1048
1427971.0,-1.5945,2.0806,10.1059,-0.0463,0.0644,-0.1117
1427981.0,-1.6137,2.1356,10.173,-0.0639,0.0617,-0.1155
1427991.0,-1.585,2.2122,10.1706,-0.0654,0.0575,-0.1144
1428001.0,-1.6544,2.3248,10.1514,-0.0591,0.0479,-0.1086
1428011.0,-1.6831,2.3655,10.1442,-0.0527,0.0362,-0.0984
1428021.0,-1.6831,2.4062,10.0868,-0.0383,0.0341,-0.0814
1428031.0,-1.7549,2.3583,10.0317,-0.0325,0.0309,-0.0644
1428041.0,-1.6999,2.2529,10.0652,-0.0213,0.0271,-0.0511
1428051.0,-1.6352,2.2386,9.9886,-0.0016,0.0234,-0.0484
1428061.0,-1.6305,2.2913,9.821,0.0005,0.0255,-0.0516
1428071.0,-1.6089,2.4086,9.7851,-0.0202,0.0298,-0.05
1428081.0,-1.6017,2.4157,9.7947,-0.05,0.0346,-0.0399
1428091.0,-1.5706,2.4157,9.821,-0.074,0.0346,-0.025
1428101.0,-1.5706,2.3655,9.7348,-0.0729,0.042,-0.008
1428111.0,-1.5897,2.2625,9.7683,-0.0633,0.0511,0.0106
1428121.0,-1.5802,2.1284,9.8067,-0.042,0.0617,0.0245
1428131.0,-1.5323,2.0255,9.7875,-0.0117,0.0793,0.0346
1428141.0,-1.5155,1.9417,9.7444,0.0128,0.0963,0.0346
1428151.0,-1.4988,1.8794,9.7252,0.0218,0.1149,0.0218
1428161.0,-1.5131,1.8723,9.833,0.0069,0.1314,0.0032
1428171.0,-1.5131,1.8651,9.9431,-0.0213,0.1362,-0.0208
1428181.0,-1.5778,1.9513,10.0293,-0.049,0.1336,-0.0431
1428191.0,-1.6568,2.0399,10.2185,-0.0697,0.1203,-0.058
1428201.0,-1.6592,2.1213,10.2568,-0.0649,0.1054,-0.0612
1428211.0,-1.7262,2.1835,10.2352,-0.0415,0.0921,-0.0527
1428221.0,-1.7286,2.1668,10.2208,-0.0064,0.0782,-0.0367
1428231.0,-1.7573,2.1428,10.161,0.0271,0.0718,-0.0197
1428241.0,-1.7286,2.0446,10.1323,0.0479,0.0649,-0.0101
1428251.0,-1.6735,1.9513,9.9647,0.0686,0.0665,-0.0096
1428261.0,-1.6281,1.9154,9.8306,0.0729,0.0756,-0.025
1428271.0,-1.6472,2.083,9.7252,0.0452,0.0968,-0.0484
1428281.0,-1.7645,2.2314,9.9024,-0.0293,0.1149,-0.0681
1428291.0,-1.8603,2.3128,10.1107,-0.0889,0.1176,-0.0708
1428301.0,-1.8531,2.2865,10.3597,-0.1107,0.107,-0.0601
1428311.0,-1.8292,2.1668,10.4698,-0.0851,0.0883,-0.0415
1428321.0,-1.798,2.1045,10.4866,-0.041,0.0628,-0.0266
1428331.0,-1.7693,2.1141,10.3262,-0.0037,0.0404,-0.0176
1428341.0,-1.7502,2.0686,10.2065,-0.0011,0.0122,-0.016
1428351.0,-1.7286,2.0255,10.0173,-0.0069,-0.0059,-0.017
1428361.0,-1.7262,1.9944,9.8689,-0.0229,-0.0053,-0.0239
1428371.0,-1.6448,1.913,9.845,-0.0426,0.0069,-0.0346
1428381.0,-1.6185,1.8651,9.8833,-0.0639,0.016,-0.0506
1428391.0,-1.5969,1.8675,9.8641,-0.0702,0.0192,-0.0654
1428401.0,-1.6568,1.9106,9.8952,-0.0569,0.0303,-0.0761
1428411.0,-1.6328,1.9082,9.8665,-0.0277,0.0426,-0.0788
1428421.0,-1.6185,1.9369,9.845,0.0043,0.0617,-0.0814
1428431.0,-1.652,1.9369,9.7779,0.0223,0.0761,-0.0862
1428441.0,-1.6496,1.9824,9.8019,0.0271,0.0937,-0.0947
1428451.0,-1.6281,2.0159,9.8474,0.0192,0.1107,-0.1054
1428461.0,-1.652,2.0446,9.9838,-0.009,0.116,-0.1165
1428471.0,-1.6951,2.0782,10.1275,-0.0298,0.1048,-0.125
1428481.0,-1.6999,2.15,10.24,-0.0404,0.0873,-0.1277
1428491.0,-1.719,2.1237,10.2424,-0.0357,0.0623,-0.125
1428501.0,-1.6927,2.1644,10.1778,-0.0218,0.0426,-0.125
1428511.0,-1.6783,2.1715,10.1538,-0.0128,0.0303,-0.124
1428521.0,-1.664,2.2075,10.0748,-0.0197,0.0122,-0.1261
1428531.0,-1.6831,2.3008,9.979,-0.0298,0.0005,-0.1282
1428541.0,-1.6903,2.3655,9.9527,-0.0378,-0.0037,-0.1235
1428551.0,-1.7071,2.387,9.8785,-0.0303,0.0053,-0.1117
1428561.0,-1.6568,2.3128,9.8737,-0.0149,0.0154,-0.0968
1428571.0,-1.6017,2.2553,9.8234,0.0043,0.0314,-0.0878
1428581.0,-1.573,2.2314,9.8234,-0.0005,0.0383,-0.0883
1428591.0,-1.5706,2.2601,9.8114,-0.0122,0.0479,-0.0974
1428601.0,-1.5897,2.3008,9.8043,-0.0325,0.0548,-0.1038
1428611.0,-1.6113,2.296,9.8881,-0.0463,0.058,-0.1064
1428621.0,-1.6352,2.3176,9.9359,-0.0426,0.0617,-0.1048
1428631.0,-1.6257,2.3056,9.9383,-0.0234,0.0676,-0.1027
1428641.0,-1.5897,2.3511,9.9048,-0.0032,0.0713,-0.1016
1428651.0,-1.6328,2.4373,9.8904,-0.008,0.0772,-0.1011
1428661.0,-1.6831,2.5019,9.9216,-0.0255,0.0782,-0.0963
1428671.0,-1.6927,2.5019,9.9742,-0.0436,0.074,-0.0889
1428681.0,-1.7071,2.5163,9.9742,-0.0506,0.0724,-0.0782
1428691.0,-1.7142,2.478,10.003,-0.0559,0.0777,-0.067
1428701.0,-1.7142,2.4469,10.0509,-0.0612,0.0702,-0.0569
1428711.0,-1.7095,2.4421,10.07,-0.0559,0.066,-0.0511
1428721.0,-1.7286,2.4804,9.9958,-0.0521,0.0686,-0.0458
1428731.0,-1.719,2.478,10.0556,-0.0575,0.0724,-0.0394
1428741.0,-1.7142,2.4157,10.1418,-0.0628,0.0686,-0.0298
1428751.0,-1.7262,2.3535,10.1466,-0.0527,0.0585,-0.0208
1428761.0,-1.7334,2.308,10.094,-0.0367,0.0569,-0.0138
1428771.0,-1.6735,2.2386,10.0892,-0.0223,0.0628,-0.0106
1428781.0,-1.6735,2.1907,10.0197,-0.0144,0.0644,-0.016
1428791.0,-1.6759,2.1907,9.9934,-0.0239,0.067,-0.0271
1428801.0,-1.6281,2.1931,10.0078,-0.0404,0.0788,-0.0442
1428811.0,-1.6664,2.217,10.1825,-0.0564,0.0809,-0.0639
1428821.0,-1.7645,2.3511,10.1754,-0.0575,0.0825,-0.0782
1428831.0,-1.7861,2.478,10.2376,-0.05,0.0905,-0.0788
1428841.0,-1.7861,2.5666,10.3142,-0.0372,0.0968,-0.0697
1428851.0,-1.8435,2.6025,10.3932,-0.0319,0.0899,-0.0553
1428861.0,-1.8723,2.6695,10.331,-0.0378,0.075,-0.0388
1428871.0,-1.8579,2.6671,10.4076,-0.0516,0.0553,-0.0197
1428881.0,-1.8483,2.6624,10.331,-0.0857,0.0202,-0.0021
1428891.0,-1.7454,2.5498,10.2544,-0.1437,-0.0266,0.0096
1428901.0,-1.6568,2.478,10.1347,-0.1942,-0.0782,0.0149
1428911.0,-1.5443,2.3966,10.0269,-0.2256,-0.1261,0.0133
1428921.0,-1.506,2.4014,9.7181,-0.2272,-0.1564,0.0101
1428931.0,-1.4293,2.4062,9.3996,-0.2102,-0.1607,0.0096
1428941.0,-1.4341,2.4517,9.1818,-0.1948,-0.1421,0.0128
1428951.0,-1.4365,2.49,9.0621,-0.1735,-0.1117,0.0229
1428961.0,-1.3743,2.4493,8.9399,-0.133,-0.0654,0.0399
1428971.0,-1.3503,2.4852,8.8921,-0.0899,-0.0037,0.0564
1428981.0,-1.3623,2.4397,8.9854,-0.0708,0.0564,0.0724
1428991.0,-1.4389,2.4445,9.0166,-0.05,0.0963,0.0857
1429001.0,-1.5443,2.4205,9.1315,-0.017,0.1474,0.1022
1429011.0,-1.6376,2.3176,9.4164,0.009,0.2001,0.1187
1429021.0,-1.7142,2.1691,9.6798,0.025,0.224,0.1282
1429031.0,-1.7669,2.0686,9.9311,0.049,0.2251,0.1219
1429041.0,-1.9441,2.1189,10.0676,0.0825,0.2272,0.1086
1429051.0,-2.2194,2.1069,10.3238,0.0947,0.2256,0.0995
1429061.0,-2.375,2.0877,10.5082,0.1133,0.2198,0.0942
1429071.0,-2.4229,2.0255,10.7571,0.1298,0.1974,0.0889
1429081.0,-2.3942,1.9656,10.8074,0.1479,0.1543,0.0761
1429091.0,-2.3846,1.9585,10.896,0.1469,0.1038,0.0548
1429101.0,-2.2936,1.9369,10.8481,0.1272,0.0479,0.0303
1429111.0,-2.2505,1.9178,10.7164,0.0974,-0.0154,0.0016
1429121.0,-2.1859,1.9585,10.5177,0.0511,-0.083,-0.0341
1429131.0,-2.2338,2.059,10.2544,0.009,-0.1309,-0.066
1429141.0,-2.2529,2.1332,10.0533,-0.0144,-0.1538,-0.0835
1429151.0,-2.1691,2.1332,9.8114,-0.0027,-0.1458,-0.0835
1429161.0,-2.0375,2.047,9.6151,0.0293,-0.1298,-0.0777
1429171.0,-1.7454,1.9944,9.3422,0.0591,-0.1192,-0.0883
1429181.0,-1.6328,2.1117,9.0525,0.0793,-0.0883,-0.1133
1429191.0,-1.6137,2.3894,8.7867,0.0676,-0.0506,-0.1431
1429201.0,-1.6448,2.8132,8.5904,0.0176,-0.0117,-0.1586
1429211.0,-1.7142,3.134,8.4851,-0.0383,0.0654,-0.1309
1429221.0,-1.7454,3.1651,8.7221,-0.0974,0.1628,-0.0601
1429231.0,-1.6424,2.8515,9.1339,-0.1458,0.2395,0.0271
1429241.0,-1.4389,2.3248,9.6271,-0.1639,0.2746,0.1016
1429251.0,-1.3024,1.8387,9.924,-0.1559,0.2682,0.1437
1429261.0,-1.221,1.4006,10.1155,-0.1272,0.2389,0.1506
1429271.0,-1.1492,1.166,10.094,-0.0835,0.2081,0.1272
1429281.0,-1.0678,0.9768,9.9814,-0.0506,0.1799,0.0819
1429291.0,-1.0199,0.9074,9.8354,-0.0197,0.1692,0.0208
1429302.0,-1.0319,0.9649,9.6917,0.0069,0.183,-0.0532
1429311.0,-1.063,1.1037,9.6798,0.0234,0.2192,-0.1266
1429321.0,-1.1037,1.2354,9.7205,0.0319,0.2575,-0.1921
1429331.0,-1.1372,1.3886,9.7995,0.033,0.2879,-0.249
1429341.0,-1.1827,1.6305,9.9527,0.0154,0.3108,-0.306
1429351.0,-1.336,1.9609,10.1418,-0.009,0.3171,-0.3528
1429361.0,-1.4892,2.3128,10.3789,-0.0319,0.3054,-0.381
1429371.0,-1.6113,2.6432,10.5082,-0.0404,0.2863,-0.3868
1429381.0,-1.7166,2.9066,10.6159,-0.0436,0.2565,-0.3735
1429391.0,-1.7837,3.1388,10.7117,-0.0426,0.2256,-0.3464
1429401.0,-1.8675,3.3184,10.7188,-0.0442,0.1937,-0.3097
1429411.0,-1.9225,3.4046,10.7188,-0.0521,0.1517,-0.2639
1429421.0,-1.9106,3.4596,10.7045,-0.074,0.1022,-0.2182
1429431.0,-1.9273,3.4261,10.5991,-0.1086,0.0521,-0.1761
1429441.0,-2.0016,3.3543,10.5321,-0.1266,0.0165,-0.1373
1429451.0,-1.9321,3.2489,10.4507,-0.1336,-0.0144,-0.1064
1429461.0,-1.9345,3.2082,10.3525,-0.1341,-0.0394,-0.0883
1429471.0,-1.8986,3.2202,10.1538,-0.1341,-0.0585,-0.0729
1429481.0,-1.889,3.2825,9.9575,-0.1293,-0.0639,-0.0607
1429491.0,-1.8747,3.3543,9.7875,-0.1368,-0.0654,-0.0463
1429501.0,-1.9225,3.4189,9.6079,-0.1485,-0.0516,-0.0229
1429511.0,-2.0159,3.4165,9.5936,-0.1527,-0.0245,0.0101
1429521.0,-2.0351,3.3208,9.5888,-0.1293,0.0096,0.0537
1429531.0,-1.9225,3.1412,9.6007,-0.0803,0.0447,0.0984
1429541.0,-1.7597,2.9999,9.5577,-0.0442,0.0793,0.1261
1429551.0,-1.7597,2.909,9.6271,-0.0431,0.0942,0.1383
1429561.0,-1.7765,2.897,9.6295,-0.0484,0.0905,0.1442
1429571.0,-1.7478,2.9616,9.6438,-0.0335,0.099,0.1538
1429581.0,-1.7693,3.0335,9.5768,-0.0282,0.1096,0.1676
1429591.0,-1.8052,3.0454,9.6271,-0.0537,0.1091,0.1894
1429601.0,-1.7957,2.9664,9.7037,-0.0809,0.1006,0.2155
1429611.0,-1.7909,2.873,9.6247,-0.0857,0.0974,0.2405
1429621.0,-1.8387,2.6935,9.5912,-0.0921,0.0937,0.2618
1429631.0,-1.798,2.4684,9.5696,-0.1054,0.0915,0.2751
1429641.0,-1.7549,2.3367,9.4427,-0.1107,0.1011,0.2698
1429651.0,-1.743,2.2673,9.3613,-0.1437,0.1059,0.2442
1429661.0,-1.7885,2.2913,9.268,-0.1857,0.1229,0.215
1429671.0,-1.7645,2.2266,9.3925,-0.2357,0.1485,0.19
1429681.0,-1.7861,2.1931,9.5433,-0.2506,0.1804,0.1692
1429691.0,-1.7861,2.1332,9.7612,-0.2405,0.2102,0.1586
1429701.0,-1.8411,2.1404,9.9144,-0.1963,0.2299,0.1559
1429711.0,-1.8794,2.0183,9.9982,-0.1666,0.2309,0.1548
1429721.0,-1.9465,1.9728,10.0221,-0.1261,0.2267,0.1431
1429731.0,-1.901,1.9824,9.9599,-0.0819,0.2315,0.1245
1429741.0,-1.9106,2.0806,9.7779,-0.0756,0.2368,0.0968
1429751.0,-1.9273,2.2338,9.7851,-0.1112,0.2464,0.0649
1429761.0,-2.0063,2.4828,9.8306,-0.1809,0.2549,0.0378
1429771.0,-2.1668,2.7007,10.1131,-0.2277,0.2629,0.0378
1429781.0,-1.8124,2.6193,10.3501,-0.1958,0.2559,0.0692
1429791.0,-2.4205,2.9999,10.4076,-0.0979,0.2474,0.1043
1429801.0,-2.1907,3.1987,9.8641,0.0112,0.2182,0.1868
1429811.0,-1.8364,2.8108,9.7348,0.017,0.2304,0.2772
1429821.0,-1.7765,2.5211,9.5361,0.0186,0.29,0.3315
1429831.0,-1.7837,2.2051,9.5888,-0.0383,0.3171,0.3427
1429841.0,-1.719,1.9537,9.3757,-0.0995,0.3187,0.3336
1429851.0,-1.6999,1.7478,9.232,-0.149,0.3741,0.3017
1429861.0,-1.8531,1.6831,9.2823,-0.2038,0.4741,0.2474
1429871.0,-2.1237,1.7286,9.572,-0.3049,0.5231,0.1788
1429881.0,-2.1141,1.8268,9.6391,-0.4161,0.5348,0.1064
1429891.0,-2.3631,2.0231,9.845,-0.5247,0.564,0.0436
1429901.0,-2.4588,2.2434,10.1394,-0.63,0.589,0.009
1429911.0,-2.5642,2.3631,10.7117,-0.6811,0.6337,0.016
1429921.0,-2.6767,2.4612,11.3174,-0.6252,0.6875,0.0708
1429931.0,-2.3703,2.2075,11.7651,-0.5268,0.712,0.1543
1429941.0,-2.2865,1.98,12.4139,-0.4236,0.7322,0.2277
1429951.0,-2.5642,1.9345,13.0987,-0.2512,0.7503,0.2895
1429961.0,-2.885,2.0423,13.4506,0.0202,0.7412,0.3517
1429971.0,-3.0023,2.3343,13.0269,0.3187,0.7508,0.4065
1429981.0,-3.3351,2.715,12.5504,0.4055,0.7913,0.4252
1429991.0,-3.4812,2.9497,12.5265,0.1974,0.828,0.3991
1430001.0,-3.7733,3.134,13.1154,-0.2251,0.854,0.3336
1430011.0,-4.1061,3.0813,14.4873,-0.7359,0.8242,0.2581
1430021.0,-4.616,2.9999,16.1082,-1.151,0.7061,0.1985
1430031.0,-4.9057,2.9209,17.82,-1.3633,0.4789,0.1703
1430041.0,-5.4037,3.2202,18.8543,-1.26,0.1836,0.1963
1430051.0,-5.8035,3.7038,18.7729,-0.9136,-0.1346,0.281
1430061.0,-5.8586,3.984,18.0068,-0.5215,-0.4044,0.406
1430071.0,-5.7772,3.9241,17.0228,-0.2767,-0.6258,0.5209
1430081.0,-5.5976,3.6631,16.1728,-0.2884,-0.8562,0.5715
1430091.0,-5.4444,3.1987,15.6988,-0.5135,-1.0983,0.5555
1430101.0,-5.3295,2.6863,15.366,-0.8088,-1.3521,0.4895
1430111.0,-5.1858,2.3272,14.7866,-1.0935,-1.632,0.3884
1430121.0,-5.1356,2.2577,14.0635,-1.3654,-1.8964,0.2692
1430131.0,-5.2696,2.387,13.1537,-1.5937,-2.1072,0.1666
1430141.0,-5.2074,2.3176,12.7132,-1.74,-2.2274,0.1054
1430151.0,-5.3295,2.1332,12.9239,-1.6985,-2.246,0.0968
1430161.0,-5.4229,1.8052,13.2136,-1.4681,-2.2822,0.1309
1430171.0,-5.2529,1.47,13.204,-1.0876,-2.3775,0.1884
1430181.0,-5.0159,1.4341,12.4091,-0.6428,-2.4584,0.2538
1430191.0,-4.7764,1.4485,11.5664,-0.3406,-2.5185,0.3081
1430201.0,-4.4652,1.2929,10.6638,-0.2267,-2.5637,0.34
1430211.0,-4.2234,1.0702,10.0437,-0.3363,-2.6223,0.3214
1430221.0,-4.0438,0.6967,9.9671,-0.5896,-2.6861,0.2538
1430231.0,-3.8882,0.2179,10.3453,-0.8125,-2.7393,0.1639
1430241.0,-3.6607,0.0886,10.5656,-0.9706,-2.858,0.0511
1430251.0,-3.5602,0.2179,10.6925,-1.0658,-3.0251,-0.0591
1430261.0,-3.6105,0.5004,10.4866,-1.0733,-3.2049,-0.1282
1430271.0,-3.122,0.6297,9.8689,-0.9924,-3.389,-0.1554
1430281.0,-2.8084,1.0295,8.6838,-0.8743,-3.5375,-0.1655
1430291.0,-2.3032,1.3958,7.4771,-0.8189,-3.6157,-0.1564
1430301.0,-1.8052,1.6544,6.3327,-0.8312,-3.6423,-0.1352
1430311.0,-1.391,1.8028,5.4875,-0.9461,-3.6716,-0.1149
1430321.0,-0.8475,1.4988,5.1811,-1.044,-3.6694,-0.0788
1430331.0,-0.3376,1.1971,4.537,-1.0046,-3.6466,-0.0314
1430341.0,0.3974,0.8547,3.6416,-0.9115,-3.6354,0.0128
1430351.0,1.0822,0.51,2.4541,-0.7928,-3.5875,0.0596
1430361.0,1.9178,0.0359,1.4222,-0.7141,-3.5519,0.0963
1430371.0,2.8347,-0.249,-0.4238,-0.5305,-3.4944,0.1314
1430381.0,3.5578,-0.3567,-3.2753,-0.2559,-3.3071,0.1841
1430391.0,4.7022,-0.7853,-6.1339,-0.1032,-2.9671,0.2363
1430401.0,5.6479,-1.2139,-8.5066,-0.1022,-2.4658,0.257
1430411.0,6.1435,-1.5227,-9.7971,-0.2091,-1.8927,0.2437
1430421.0,6.6774,-1.4413,-11.71,-0.4752,-1.5708,0.207
1430431.0,6.7157,-1.6113,-14.8656,-0.7471,-1.5437,0.1644
1430441.0,6.6535,-0.5914,-22.9053,-0.5997,-1.5224,0.174
1430451.0,6.2752,-0.0431,-32.6234,-0.2357,-1.0451,0.2575
1430461.0,5.8299,1.6879,-45.236,0.3464,0.2341,0.4049
1430471.0,2.3511,2.2625,-50.283,0.2123,2.4137,0.5518
1430481.0,-3.4907,2.7509,-49.9335,0.041,5.029,0.763
1430491.0,-10.6901,2.0566,-43.9312,0.0282,7.5001,1.035
1430501.0,-18.4784,0.5578,-36.0399,0.455,9.4386,1.3228
1430511.0,-24.5765,-1.7119,-28.7735,1.3755,10.9285,1.5027
1430521.0,-30.878,-4.2186,-21.5239,2.3179,12.1444,1.4165
1430531.0,-36.6816,-6.4093,-14.528,2.9958,13.1325,1.0456
1430541.0,-40.893,-7.8961,-4.1276,3.264,14.0919,0.3874
1430551.0,-46.1004,-6.0406,10.7021,3.5231,14.9577,-0.4166
1430561.0,-48.4251,-1.5419,25.2109,3.9706,14.8076,-1.0717
1430571.0,-46.3422,4.64,35.0679,4.4266,13.7189,-1.4516
1430581.0,-44.5298,11.3246,42.5521,4.2654,12.1327,-1.5894
1430591.0,-43.9408,14.1737,47.7332,3.4082,9.9558,-1.4367
1430601.0,-39.703,12.4618,52.3564,2.7627,7.8774,-1.0594
1430611.0,-37.8906,9.0477,55.0595,2.9447,6.2262,-0.6625
1430621.0,-34.4526,8.181,54.3532,3.0788,3.9967,-0.6385
1430631.0,-32.36,10.8026,52.0643,3.1522,1.963,-0.8354
1430641.0,-30.0496,15.5001,46.0812,3.1496,0.1171,-1.027
1430651.0,-27.3945,20.0323,40.4117,2.4711,-1.6352,-1.1174
1430661.0,-24.5861,22.5223,34.9434,1.9273,-2.8314,-0.895
1430671.0,-23.0849,23.7481,28.4072,1.5825,-3.671,-0.3954
1430681.0,-20.4393,22.8503,21.4592,1.0259,-4.3516,0.2363
1430691.0,-18.3061,20.3268,15.7874,0.373,-4.5522,0.8812
1430701.0,-16.7139,16.4889,12.2703,-0.0415,-4.1233,1.4878
1430711.0,-16.0962,10.8457,12.8832,-0.2533,-3.3747,1.947
1430721.0,-15.1337,6.3279,14.3269,-0.2309,-2.8527,2.1439
1430731.0,-14.4466,3.3471,16.168,-0.2315,-2.7021,2.0619
1430741.0,-13.4817,2.5163,16.745,-0.2863,-2.8942,1.7661
1430751.0,-12.4977,3.9911,16.2231,-0.5859,-3.248,1.3516
1430761.0,-11.9758,5.9879,15.0811,-1.3457,-3.7535,0.9466
1430771.0,-11.9902,7.2185,13.6805,-2.5898,-4.4591,0.6087
1430781.0,-12.0811,6.6391,12.311,-3.9014,-5.2142,0.3815
1430791.0,-11.552,4.4005,10.6734,-4.8103,-5.8506,0.241
1430801.0,-11.0708,2.2051,9.0094,-5.1626,-6.3013,0.0702
1430811.0,-10.635,1.5826,6.6559,-4.9614,-6.586,-0.1479
1430821.0,-9.7755,1.913,3.5721,-4.4442,-6.7376,-0.3203
1430831.0,-8.9232,2.6576,0.34,-3.7716,-6.6312,-0.3815
1430841.0,-8.0732,3.5338,-2.3367,-3.0996,-6.2795,-0.3368
1430851.0,-6.6439,3.7781,-4.2306,-2.5616,-5.8224,-0.1979
1430861.0,-5.2577,3.5793,-6.0837,-2.1364,-5.2982,-0.0053
1430871.0,-3.7781,2.3559,-6.9025,-1.9443,-4.731,0.1777
1430881.0,-2.4876,0.7422,-6.3303,-1.773,-4.0159,0.3038
1430891.0,-1.7262,-0.8691,-4.5298,-1.6038,-3.3065,0.348
1430901.0,-1.2881,-2.3703,-1.9537,-1.5123,-2.7963,0.2985
1430911.0,-1.0702,-3.5362,1.5107,-1.3409,-2.4371,0.1697
1430921.0,-1.0343,-4.1444,5.1356,-0.986,-2.2971,-0.0059
1430931.0,-1.1301,-4.1013,7.264,-0.489,-2.4658,-0.2017
1430941.0,-0.7302,-3.3782,7.3717,-0.0351,-2.8436,-0.39
1430951.0,-0.5004,-2.1021,6.1052,0.1064,-3.281,-0.5555
1430961.0,-0.0742,-0.905,4.2808,-0.0415,-3.6327,-0.663
1430971.0,0.5962,0.0287,2.4014,-0.3177,-3.7823,-0.7045
1430981.0,1.2258,0.8068,1.0032,-0.6444,-3.7328,-0.6997
1430991.0,1.731,1.4629,0.0168,-1.027,-3.5987,-0.6604
1431001.0,2.1404,1.6161,0.6728,-1.3734,-3.3954,-0.5869
1431011.0,2.2673,1.5993,1.5203,-1.3888,-3.1714,-0.4587
1431021.0,2.6217,0.8715,1.5251,-1.2563,-3.1405,-0.2868
1431031.0,3.5338,-0.4118,0.6177,-1.0946,-3.1996,-0.1469
1431041.0,4.1946,-1.2857,-0.9313,-0.8711,-3.157,-0.0894
1431051.0,4.9081,-1.7573,-2.5953,-0.6875,-3.0336,-0.1075
1431061.0,5.4013,-1.5227,-4.3407,-0.5044,-2.7968,-0.158
1431071.0,5.5905,-1.1803,-4.0654,-0.2778,-2.3918,-0.1878
1431081.0,5.4013,-0.2825,-5.0589,0.2166,-2.1061,-0.1336
1431091.0,6.6391,-0.0718,-8.6455,0.5076,-2.2732,-0.0442
1431101.0,7.5298,0.2131,-16.8935,0.4448,-2.5818,-0.0037
1431111.0,8.3701,0.9744,-26.6762,0.1639,-2.3663,-0.067
1431121.0,8.2648,3.6057,-36.332,0.2107,-1.1126,-0.0756
1431131.0,4.9273,4.7333,-39.7677,0.017,0.7519,0.0798
1431141.0,1.7765,5.2888,-41.8506,0.0234,2.5403,0.3719
1431151.0,-2.1141,5.8658,-43.1914,0.282,4.258,0.6848
1431161.0,-7.7692,7.3837,-44.0126,0.7173,5.8644,0.9828
1431171.0,-14.9709,9.7157,-45.5233,1.3697,7.5704,1.3569
1431181.0,-23.7792,10.8745,-47.0748,1.7741,9.3519,1.8081
1431191.0,-34.4981,9.0764,-45.2193,1.7246,11.4197,2.2721
1431201.0,-46.0381,4.8698,-38.4964,1.5633,13.82,2.6499
1431211.0,-57.6548,-2.3966,-25.6299,1.6043,16.3582,2.8367
1431221.0,-67.119,-9.6271,-7.9703,2.2359,17.4357,2.6462
1431231.0,-74.9361,-11.3844,11.0181,3.0043,17.4357,1.8571
1431241.0,-76.6097,-9.2464,32.9275,3.4417,17.4357,0.8498
1431251.0,-72.9202,-2.3391,52.4139,4.7672,17.4357,0.107
1431261.0,-67.1909,7.1371,64.3944,5.5377,15.8303,-0.3161
1431271.0,-58.9931,10.2232,70.1621,5.3727,11.4186,-0.2256
1431281.0,-54.7219,11.9638,69.1326,5.8309,8.1355,0.2591
1431291.0,-49.7371,6.0573,72.2666,5.9831,5.5925,0.7396
1431301.0,-44.6303,2.5642,69.4749,5.6888,2.1684,0.6561
1431311.0,-39.8467,3.316,61.5597,4.8651,-1.4186,0.0101
1431321.0,-37.0598,8.6455,48.7962,3.8222,-4.325,-0.8195
1431331.0,-33.6361,14.042,35.7215,2.2365,-6.5647,-1.491
1431341.0,-30.0784,17.4202,24.5789,0.6502,-7.895,-1.8124
1431351.0,-26.0705,19.8336,14.37,-0.2868,-8.2084,-1.732
1431361.0,-22.5175,19.9198,8.2169,-0.7769,-7.6151,-1.301
1431371.0,-19.3643,19.0243,5.2553,-0.87,-6.6344,-0.6662
1431381.0,-15.4187,15.4378,2.6073,-0.3805,-5.5877,0.0793
1431391.0,-14.7148,11.7675,5.3893,-0.2916,-4.3128,0.6593
1431401.0,-12.9526,8.0613,7.2329,-0.1586,-3.787,1.0499
1431411.0,-11.9279,5.6551,8.0134,0.0298,-3.5519,1.2031
1431421.0,-10.1251,4.9129,7.0006,-0.0229,-3.4768,1.1813
1431431.0,-8.9088,4.7429,8.2121,-0.5811,-3.4385,1.019
1431441.0,-8.7556,5.1451,9.2967,-1.0493,-3.4194,0.9014
1431451.0,-9.572,4.6639,10.8074,-1.3723,-3.4768,0.8929
1431461.0,-9.2703,2.7246,11.5472,-1.5969,-3.8573,0.9461
1431471.0,-8.588,0.7877,11.0684,-1.5782,-4.3213,0.92
1431481.0,-8.3366,0.0048,9.7252,-1.3702,-4.6432,0.787
1431491.0,-8.1499,0.2251,9.0237,-1.0578,-4.7257,0.6194
1431501.0,-8.0709,1.2785,8.3462,-0.6859,-4.7592,0.4917
1431511.0,-7.3382,2.4301,7.2018,-0.4385,-4.9236,0.4305
1431521.0,-5.8754,3.9672,5.1475,-0.3118,-5.0748,0.4528
1431531.0,-6.256,5.4133,3.4237,-0.4113,-5.0588,0.5773
1431541.0,-5.5641,5.4205,2.3128,-0.6848,-4.9949,0.7987
1431551.0,-4.695,4.2066,2.6145,-0.8743,-4.805,1.0312
1431561.0,-4.2234,3.2202,2.7605,-0.7726,-4.5549,1.242
1431571.0,-3.7685,2.15,3.134,-0.6593,-4.4171,1.384
1431581.0,-3.2609,1.4245,2.8587,-0.5832,-4.4256,1.4612
1431591.0,-2.4301,0.5986,2.2769,-0.5859,-4.4559,1.4926
1431601.0,-1.5778,-0.3472,1.3791,-0.6263,-4.4176,1.4873
1431611.0,-0.6512,-1.5012,0.1317,-0.8397,-4.4006,1.4207
1431621.0,0.4788,-2.6695,-1.1875,-1.2191,-4.3692,1.2531
1431631.0,1.4437,-3.5817,-1.5754,-1.5676,-4.1771,1.0004
1431641.0,1.834,-3.9576,-1.0918,-1.6708,-3.8626,0.7178
1431651.0,1.9824,-3.8283,-0.5387,-1.5069,-3.6136,0.4629
1431661.0,2.3343,-3.486,-0.7805,-1.1898,-3.4843,0.2692
1431671.0,3.0885,-3.0765,-2.229,-0.8998,-3.4263,0.1362
1431681.0,4.2401,-3.0023,-4.0773,-0.8083,-3.3268,0.0239
1431691.0,5.2744,-2.9257,-5.1164,-0.8173,-3.0596,-0.1022
1431701.0,5.6479,-2.7533,-5.4588,-0.7529,-2.6441,-0.2208
1431711.0,6.2776,-2.6336,-5.2265,-0.6236,-2.295,-0.3374
1431721.0,6.7349,-2.0494,-5.6168,-0.3326,-2.0231,-0.4353
1431731.0,6.4859,-0.9266,-6.6128,0.1,-1.6879,-0.4587
1431741.0,5.8275,-0.3089,-7.4867,0.4363,-1.3313,-0.3805
1431751.0,5.6623,-0.4477,-8.0397,0.6423,-1.0227,-0.2538
1431761.0,5.7389,-0.2538,-10.4651,0.7184,-0.7918,-0.1543
1431771.0,5.9424,-0.668,-13.9103,0.1272,-0.8077,-0.1426
1431781.0,5.8131,-0.3017,-19.6157,-0.9594,-0.8737,-0.2591
1431791.0,5.8873,0.4501,-25.4863,-2.3663,-0.8503,-0.4374
1431801.0,3.893,3.6799,-32.1517,-3.0687,-0.3108,-0.5167
1431811.0,1.7119,9.0573,-41.0558,-2.7313,0.6029,-0.2661
1431821.0,-1.4222,12.6198,-50.2208,-1.8427,1.9651,0.4725
1431831.0,-12.7108,14.0061,-58.5837,-0.2107,4.458,1.632
1431841.0,-21.792,9.7659,-62.0194,1.4505,7.9008,2.8319
1431851.0,-33.9019,3.4788,-58.1121,2.5094,12.105,3.5721
1431861.0,-48.303,-2.1404,-43.5338,2.6228,16.0453,3.5763
1431871.0,-61.2461,-4.4077,-22.3235,2.618,17.4357,2.9937
1431881.0,-70.3129,-1.4629,-5.5929,3.4896,17.4357,2.2556
1431891.0,-76.3367,-0.7638,12.1147,3.9302,17.4357,1.5985
1431901.0,-73.9282,-2.6456,25.7664,4.6347,17.4357,1.1451
1431911.0,-69.949,-2.2075,37.2993,5.7862,17.4357,0.5326
1431921.0,-66.2667,-1.6089,51.7626,5.658,17.382,-0.3469
1431931.0,-56.8383,-1.8531,64.8877,4.407,14.1585,-1.3862
1431941.0,-49.6773,1.0032,71.8859,2.9154,10.0995,-2.4137
1431951.0,-46.4068,5.1523,75.5969,1.4761,5.8128,-3.0756
1431961.0,-44.5345,10.9846,70.9857,0.87,1.0914,-3.1443
1431971.0,-42.2289,16.7834,57.4297,1.599,-2.6914,-2.5499
1431981.0,-38.5778,20.0275,41.2018,2.6111,-4.7262,-1.5022
1431991.0,-33.4638,18.9525,29.1135,2.6803,-5.7266,-0.4182
1432001.0,-27.811,15.0883,19.4266,2.4908,-5.7505,0.5028
1432011.0,-22.7976,9.5217,14.7626,2.071,-4.955,1.0674
1432021.0,-19.0195,4.4843,13.8026,1.5618,-4.0387,1.2153
1432031.0,-16.2303,1.4341,14.5807,0.9839,-3.496,0.9929
1432041.0,-14.5137,0.8116,15.8017,0.4273,-3.3603,0.5757
1432051.0,-13.7858,1.8579,17.1473,0.033,-3.4199,0.1644
1432061.0,-14.0588,4.2784,17.3484,-0.0889,-3.6386,-0.0835
1432071.0,-13.8624,6.6415,16.5152,-0.1389,-4.0749,-0.1383
1432081.0,-13.6326,8.4994,14.6094,0.0011,-4.3841,0.0192
1432091.0,-13.6039,8.8107,12.9047,0.1953,-4.3894,0.3549
1432101.0,-13.1729,7.5896,11.813,0.2299,-4.3772,0.7168
1432111.0,-11.7938,5.7988,10.1035,0.0223,-4.5054,0.9509
1432121.0,-10.4674,3.3782,8.9902,-0.4677,-4.6597,0.9945
1432131.0,-9.2943,1.561,8.1547,-0.87,-4.6374,0.879
1432141.0,-8.9759,0.6297,9.2608,-1.077,-4.4463,0.6524
1432151.0,-8.9399,1.0654,10.6614,-0.8876,-4.3027,0.4395
1432161.0,-9.0237,2.0279,11.9112,-0.4087,-4.2681,0.3304
1432171.0,-9.5553,3.5458,11.8896,0.1149,-4.4362,0.3347
1432181.0,-9.3039,4.8147,10.8338,0.3714,-4.8438,0.4198
1432191.0,-8.9902,5.8466,8.6191,0.3863,-5.2514,0.5736
1432201.0,-8.5784,6.1459,6.256,0.1846,-5.4754,0.7865
1432211.0,-7.5226,5.5354,3.9217,-0.2166,-5.5712,0.994
1432221.0,-6.3494,4.4819,2.047,-0.8466,-5.6042,1.1068
1432231.0,-5.4372,3.3902,0.905,-1.5192,-5.592,1.1212
1432241.0,-4.5179,2.2745,0.5124,-1.9257,-5.4882,1.0935
1432251.0,-3.5267,1.2881,0.3711,-1.8544,-5.252,1.0722
1432261.0,-2.6432,0.7925,-0.5602,-1.4037,-4.9279,1.0648
1432271.0,-1.9297,0.4908,-1.4054,-1.0392,-4.6459,1.0499
1432281.0,-0.838,0.2179,-2.5307,-0.8397,-4.3979,1.0254
1432291.0,0.1173,0.2274,-4.3167,-0.8535,-4.1372,0.9759
1432301.0,1.2163,-0.2298,-4.7381,-1.1233,-3.8248,0.8881
1432311.0,1.9968,-0.1006,-4.5155,-1.2153,-3.3156,0.7854
1432321.0,1.8316,0.1125,-2.5163,-1.2127,-2.7558,0.7146
1432331.0,1.7166,-0.0048,0.1748,-1.1169,-2.4381,0.687
1432341.0,1.9225,0.1939,1.5347,-0.8913,-2.4291,0.6843
1432351.0,1.7885,0.2753,1.7813,-0.7386,-2.6047,0.6965
1432361.0,2.2338,0.2873,0.7518,-0.6018,-2.7526,0.7402
1432371.0,2.624,-0.316,-0.7757,-0.6513,-2.8707,0.7976
1432381.0,3.4117,-1.5993,-1.6544,-0.8626,-3.0134,0.8056
1432391.0,4.1492,-2.399,-2.557,-0.6492,-2.9197,0.7732
1432401.0,4.3407,-2.4541,-4.1731,-0.0926,-2.6824,0.7317
1432411.0,4.8052,-2.0877,-6.043,0.3964,-2.5036,0.6854
1432421.0,5.6383,-1.5945,-8.0565,0.8844,-2.1662,0.6859
1432431.0,6.1196,-1.2665,-10.1825,1.2228,-1.7017,0.7327
1432441.0,6.7852,-1.3551,-12.9047,1.0557,-1.4112,0.7561
1432451.0,7.6088,-2.2218,-16.8025,0.3257,-1.3191,0.7231
1432461.0,7.7883,-3.3112,-20.0969,-0.5486,-1.118,0.5837
1432471.0,7.1132,-2.241,-25.5461,-0.6268,-0.4693,0.4395
1432481.0,5.5426,-1.585,-29.5971,-0.3145,0.5832,0.4103
1432491.0,3.6344,-0.3879,-34.8237,0.1224,1.7193,0.4651
1432501.0,0.5148,1.2617,-39.6863,0.5087,3.041,0.572
1432511.0,-4.4748,2.7078,-43.3374,0.919,4.6677,0.7833
1432521.0,-11.576,3.6631,-45.8322,1.5048,6.6743,1.0754
1432531.0,-20.3148,3.1005,-46.6917,2.0635,8.9938,1.383
1432541.0,-29.8413,0.7925,-43.7899,2.3732,11.6932,1.5825
1432551.0,-41.889,-2.1141,-33.107,2.3338,14.598,1.5389
1432561.0,-52.3181,-5.1954,-15.7491,2.4435,16.9781,1.2616
1432571.0,-58.5191,-6.4667,1.257,3.0873,17.4357,0.7545
1432581.0,-59.7305,-8.0876,19.235,3.5524,17.4357,0.0213
1432591.0,-57.5327,-6.9623,32.3002,4.193,16.8493,-0.8817
1432601.0,-55.9621,-0.8332,38.5873,5.2248,14.9529,-1.7592
1432611.0,-55.9621,-0.8332,38.5873,5.2248,14.9529,-1.7592
1432621.0,-53.7666,5.4564,44.106,5.7724,13.3464,-2.4365
1432631.0,-49.8353,11.3629,51.1545,5.0003,11.5048,-2.9899
1432641.0,-46.1027,14.303,62.2157,3.1618,8.9645,-3.2879
1432651.0,-41.9081,16.5463,67.5859,2.0571,5.6755,-3.0783
1432661.0,-38.0247,18.2007,64.7751,1.5761,1.8374,-2.4999
1432671.0,-34.3664,18.2821,54.9972,1.7507,-1.6256,-1.6362
1432681.0,-30.2938,17.7051,40.2106,2.5589,-3.7679,-0.6955
1432691.0,-25.3857,16.3787,25.5054,2.7462,-4.7906,-0.0059
1432701.0,-21.0283,13.7882,16.8839,2.2125,-4.6528,0.3544
1432711.0,-17.8823,12.1458,12.8784,1.8656,-3.5242,0.5087
1432721.0,-16.0435,11.0277,13.3213,1.5469,-2.2445,0.5326
1432731.0,-14.5424,10.0485,15.6485,1.1499,-1.4223,0.5013
1432741.0,-13.5081,9.1889,18.6125,0.5587,-1.2175,0.4039
1432751.0,-12.9742,8.9064,20.401,-0.1442,-1.6219,0.2714
1432761.0,-12.6821,8.4731,20.7769,-0.7407,-2.3849,0.1788
1432771.0,-12.7036,8.5353,18.737,-1.0259,-3.2677,0.1559
1432781.0,-12.6749,8.1379,15.6988,-0.8652,-3.8291,0.2698
1432791.0,-11.5975,7.7788,12.5576,-0.2075,-3.7775,0.4991
1432801.0,-10.6374,7.2927,10.8122,0.2794,-3.3443,0.7274
1432811.0,-10.161,6.5386,11.1905,0.0388,-3.1815,0.8429
1432821.0,-9.5984,5.7006,12.2368,-0.5763,-3.4422,0.8578
1432831.0,-9.0668,4.9967,11.7675,-0.986,-3.7839,0.8711
1432841.0,-8.8035,3.9073,10.8577,-1.3276,-4.0643,0.8812
1432851.0,-8.26,2.49,9.7372,-1.7086,-4.3809,0.8418
1432861.0,-7.5178,1.0822,8.5856,-1.9885,-4.6517,0.7279
1432871.0,-6.8522,0.3472,7.2951,-1.9193,-4.6831,0.5704
1432881.0,-6.2465,0.2538,6.4835,-1.6362,-4.5011,0.4017
1432891.0,-5.7748,0.68,6.2824,-1.3409,-4.3436,0.2357
1432901.0,-5.3798,1.7142,5.2074,-1.1137,-4.3239,0.1038
1432911.0,-4.7645,2.5905,4.1252,-1.0871,-4.3532,0.0282
1432921.0,-3.6631,3.1364,3.0095,-1.0467,-4.2133,0.033
1432931.0,-3.1029,3.5027,2.2434,-1.0387,-3.8967,0.0921
1432941.0,-2.4588,3.1244,2.7342,-1.1983,-3.6178,0.1639
1432951.0,-1.8794,2.6408,3.5291,-1.2696,-3.3715,0.2288
1432961.0,-1.9225,2.411,4.9321,-1.1855,-3.1464,0.2831
1432971.0,-1.8699,2.3894,5.9783,-0.9461,-3.0714,0.3629
1432981.0,-1.5562,2.2841,6.0142,-0.6912,-3.1751,0.4699
1432991.0,-0.7733,2.0949,5.4444,-0.5587,-3.3667,0.564
1433001.0,-0.3472,2.0853,4.2928,-0.456,-3.4497,0.6577
1433011.0,0.0742,1.4437,3.1987,-0.4794,-3.4422,0.7583
1433021.0,1.0367,-0.0407,2.648,-0.621,-3.3943,0.8109
1433031.0,1.8579,-1.0582,2.0638,-0.7114,-3.2927,0.7615
1433041.0,2.3894,-1.5083,1.8172,-0.729,-3.1139,0.6407
1433051.0,2.5881,-1.1516,1.652,-0.6194,-2.8457,0.5119
1433061.0,2.7892,-0.4022,1.664,-0.5172,-2.5818,0.4198
1433071.0,2.7964,0.2179,2.0039,-0.5289,-2.3924,0.3815
1433081.0,2.9856,0.4166,2.5498,-0.6082,-2.3126,0.3868
1433091.0,2.9592,0.589,2.8587,-0.5965,-2.2764,0.4289
1433101.0,2.7821,0.6321,2.6121,-0.4853,-2.2732,0.5023
1433111.0,2.7078,0.328,2.2434,-0.3363,-2.246,0.5949
1433121.0,2.9185,0.0431,1.7645,-0.1011,-2.1093,0.6795
1433131.0,3.2944,0.0694,1.2091,0.0511,-1.9364,0.7295
1433141.0,4.0773,-0.1125,1.1253,-0.0734,-1.8108,0.7503
1433151.0,4.391,-0.3519,1.2546,-0.4427,-1.7799,0.7423
1433161.0,4.8554,-0.7254,0.7542,-0.9988,-1.9704,0.6912
1433171.0,5.1882,-1.2115,-0.0575,-1.5602,-2.2365,0.6119
1433181.0,5.8921,-1.2617,-1.834,-1.8007,-2.3498,0.5374
1433191.0,5.5665,-1.1803,-3.4429,-1.8076,-2.2748,0.5028
1433201.0,5.4109,-1.4485,-4.9608,-1.5293,-2.1343,0.5337
1433211.0,5.8754,-1.822,-7.4005,-0.8551,-1.8486,0.6066
1433221.0,5.9879,-1.9728,-10.6805,-0.0772,-1.3649,0.6784
1433231.0,6.5936,-2.2553,-13.9438,0.3943,-0.8237,0.7003
1433241.0,6.3662,-1.8435,-17.571,0.398,-0.306,0.638
1433251.0,5.9041,-0.6464,-22.2445,-0.0851,-0.0346,0.5183
1433261.0,6.0789,1.0487,-29.0081,-0.6109,0.2256,0.4448
1433271.0,4.0175,2.8371,-37.2969,-0.9424,0.8413,0.5316
1433281.0,2.624,2.8395,-45.2815,-0.9562,1.8331,0.7705
1433291.0,-2.5091,3.9552,-51.9853,-0.3421,3.6024,0.9945
1433301.0,-10.9726,6.201,-55.9573,0.5986,5.9054,1.234
1433311.0,-21.8399,7.7812,-56.0004,1.7661,8.7192,1.6038
1433321.0,-34.8308,8.0206,-52.5048,2.8814,11.574,2.0066
1433331.0,-48.0061,6.2608,-47.7787,3.5364,14.0222,2.2891
1433341.0,-60.9899,2.0662,-39.7797,3.6444,16.611,2.3158
1433351.0,-74.6344,-3.7828,-22.3164,3.347,17.4357,1.8773
1433361.0,-78.4532,-7.3741,-1.5874,3.6982,17.4357,0.9743
1433371.0,-78.4532,-5.126,15.9717,4.664,17.4357,-0.274
1433381.0,-78.4532,0.7542,35.4198,4.3623,17.4357,-1.6304
1433391.0,-78.4532,14.1713,75.4054,3.5263,17.4357,-2.494
1433401.0,-73.1764,24.0593,59.4169,3.6599,13.5864,-2.2987
1433411.0,-69.5156,17.3292,68.8237,1.2776,9.9191,-1.5165
1433421.0,-64.4806,14.3245,64.2292,2.7026,7.9769,-0.1554
1433431.0,-58.8902,3.6512,75.7932,2.9724,5.7346,0.77
1433441.0,-51.6381,-2.569,75.6472,3.9882,2.1976,1.2074
1433451.0,-44.9248,-2.909,71.3903,4.3149,-1.4761,0.8567
1433461.0,-43.6511,0.7709,61.1072,2.6717,-6.1198,-0.1229
1433471.0,-42.2481,6.3614,43.8546,0.2698,-10.7721,-1.1855
1433481.0,-42.0685,11.4754,27.0377,-1.0855,-13.463,-1.856
1433491.0,-38.2809,17.0898,7.2975,-0.8695,-14.2521,-1.8805
1433501.0,-32.3624,18.0068,-6.2225,-0.8338,-13.5109,-1.4644
1433511.0,-20.626,14.1114,-12.5313,-0.1607,-11.1323,-0.7716
1433521.0,-16.7881,12.8233,-15.0835,1.3909,-7.415,0.0069
1433531.0,-12.4666,7.5896,-7.9224,1.5894,-5.2578,0.5529
1433541.0,-6.8354,6.3015,-7.5058,1.9789,-3.9967,0.8248
1433551.0,-5.1284,6.0573,-2.9257,1.7469,-2.56,0.8812
1433561.0,-4.9368,7.2568,1.1181,1.0078,-1.7682,0.861
1433571.0,-4.7669,6.9504,5.3989,-0.1799,-1.6857,0.8652
1433581.0,-4.7166,5.0015,8.6718,-1.0307,-1.7416,0.9349
1433591.0,-5.3606,2.7797,11.0157,-1.5069,-1.8624,0.9546
1433601.0,-5.6192,0.5171,13.6254,-1.666,-2.0486,0.8902
1433611.0,-6.0358,-0.8428,15.5695,-1.3218,-2.1875,0.7795
1433621.0,-6.2537,-1.2426,17.1832,-0.8461,-2.4903,0.6002
1433631.0,-5.9592,-0.0144,16.7331,-0.4581,-3.0878,0.3789
1433641.0,-5.4755,2.2362,14.3413,-0.3751,-3.7844,0.1921
1433651.0,-5.5522,4.6064,11.5903,-0.6816,-4.309,0.1027
1433661.0,-5.794,5.9376,9.1482,-1.2563,-4.697,0.1469
1433671.0,-5.5306,5.6982,6.9049,-1.7847,-4.9577,0.3113
1433681.0,-5.2457,4.3335,5.2529,-1.9406,-4.8933,0.538
1433691.0,-4.6519,2.5331,4.7908,-1.5814,-4.4336,0.7625
1433701.0,-4.0965,0.8667,5.3295,-0.9993,-3.9116,0.9179
1433711.0,-3.2633,-0.2753,6.0645,-0.5108,-3.6051,0.9631
1433721.0,-2.4157,-0.5219,6.3039,-0.3661,-3.6375,0.8961
1433731.0,-2.2003,-0.34,6.1339,-0.5289,-3.8722,0.7779
1433741.0,-2.2625,0.249,4.8674,-0.7343,-4.1494,0.6864
1433751.0,-1.7789,0.0144,3.1173,-0.9759,-4.3926,0.6598
1433761.0,-0.9337,-0.5339,1.2881,-1.052,-4.4133,0.6593
1433771.0,-0.2322,-1.0798,0.1532,-0.8982,-4.1324,0.6625
1433781.0,0.2298,-1.4269,-0.3184,-0.704,-3.7892,0.6556
1433791.0,0.9912,-1.6065,-0.7638,-0.5763,-3.6077,0.629
1433801.0,1.5778,-1.3048,-1.7789,-0.4406,-3.4848,0.5992
1433811.0,2.1859,-0.8475,-3.9456,-0.3847,-3.3912,0.6188
1433821.0,2.8994,-1.5993,-5.9568,-0.513,-3.2507,0.6843
1433831.0,3.7804,-2.8563,-7.8386,-0.6008,-2.9367,0.7253
1433841.0,4.3191,-4.3455,-8.2408,-0.539,-2.4169,0.6944
1433851.0,4.8435,-5.3439,-7.6974,-0.1139,-1.7804,0.596
1433861.0,5.454,-5.8371,-7.3574,0.4805,-1.2111,0.4587
1433871.0,5.8251,-6.0454,-7.0366,0.8019,-0.9041,0.2602
1433881.0,6.2034,-5.6551,-6.8618,0.8924,-0.7599,0.0
1433891.0,6.1579,-4.3862,-7.6519,0.9402,-0.6284,-0.2639
1433901.0,6.3183,-2.9928,-8.9998,0.7716,-0.6188,-0.4991
1433911.0,6.2393,-1.2785,-11.9614,0.4949,-0.6146,-0.6827
1433921.0,5.5402,0.51,-15.7898,0.075,-0.4773,-0.8019
1433931.0,5.1068,2.4325,-19.7977,-0.3453,-0.1527,-0.8429
1433941.0,2.636,4.8842,-23.7361,-0.6673,0.4613,-0.7593
1433951.0,1.0343,6.7971,-28.57,-0.6875,1.0871,-0.5002
1433961.0,-1.3695,8.1499,-34.9003,-0.0772,2.121,-0.0756
1433971.0,-4.4197,8.1882,-41.2976,0.9094,3.745,0.4369
1433981.0,-10.4052,7.7644,-45.8945,1.8321,5.9863,0.8679
1433991.0,-17.0276,7.6806,-47.7308,2.2955,8.5106,1.1174
1434001.0,-28.1582,7.4723,-44.4915,2.0619,11.2893,1.2845
1434011.0,-39.6671,5.8155,-34.3855,1.3553,13.8179,1.4654
1434021.0,-51.5232,3.1699,-19.587,1.3601,16.3108,1.7054
1434031.0,-60.8869,-2.3104,-1.6328,2.2162,17.4357,1.8326
1434041.0,-66.7815,-7.2257,14.0803,3.5614,17.4357,1.5059
1434051.0,-65.9674,-10.671,34.3951,4.2356,17.4357,0.5816
1434061.0,-63.5277,-6.8977,50.0843,5.0811,17.4357,-0.6311
1434071.0,-59.4887,-0.9529,63.59,4.9157,15.0157,-1.7448
1434081.0,-50.8217,5.1691,64.2676,4.8843,11.2579,-2.3461
1434091.0,-50.4195,15.7778,67.8373,5.1205,9.6147,-2.5978
1434101.0,-44.1467,14.801,78.4508,1.9858,4.0345,-2.7915
1434111.0,-40.0646,18.0499,69.3337,0.8908,-1.6964,-2.3775
1434121.0,-40.9959,18.2127,61.768,1.4165,-4.7496,-1.4543
1434131.0,-39.1763,19.3451,44.8985,2.7931,-7.4602,-0.2661
1434141.0,-33.9043,16.745,28.6538,3.1735,-9.5956,0.7758
1434151.0,-25.7999,14.5041,11.5712,3.4449,-10.033,1.5261
1434161.0,-19.4481,12.4642,1.245,3.14,-8.6325,1.9481
1434171.0,-14.2599,9.5098,-2.739,2.195,-6.7967,2.0705
1434181.0,-10.1778,6.8354,-2.5115,1.1526,-5.1088,1.922
1434191.0,-7.853,4.6663,-0.2251,0.473,-3.5534,1.5873
1434201.0,-6.6535,5.0254,2.2051,-0.0037,-2.3929,1.168
1434211.0,-5.7916,5.1619,5.9999,-0.5906,-1.8039,0.7636
1434221.0,-5.5833,6.4739,7.4077,-0.8881,-1.583,0.4885
1434231.0,-5.8538,7.0605,9.1243,-1.1536,-1.3856,0.3757
1434241.0,-5.8251,7.2257,10.3334,-1.3995,-1.3537,0.3592
1434251.0,-5.7581,7.027,11.3677,-1.648,-1.45,0.3837
1434261.0,-5.8897,6.7588,11.8992,-1.8092,-1.5458,0.4401
1434271.0,-6.2369,5.9664,12.8784,-1.9736,-1.6565,0.5124
1434281.0,-6.4069,4.8363,13.6709,-2.0284,-1.8209,0.5832
1434291.0,-6.4596,3.4261,14.6621,-1.9731,-1.9922,0.6188
1434301.0,-6.1675,2.4086,15.1792,-1.8161,-2.2359,0.5779
1434311.0,-6.0023,1.8627,15.4378,-1.74,-2.6212,0.4379
1434321.0,-6.2704,2.4134,14.9925,-1.6762,-3.09,0.2565
1434331.0,-6.4045,3.4668,14.0492,-1.5229,-3.439,0.141
1434341.0,-6.5841,4.3646,13.0532,-1.3659,-3.6295,0.1224
1434351.0,-6.462,4.8195,12.3062,-1.3207,-3.8003,0.165
1434361.0,-6.4428,5.1404,11.2743,-1.4489,-4.0723,0.2277
1434371.0,-6.2944,4.8722,10.3549,-1.6495,-4.3468,0.3118
1434381.0,-6.0454,4.3646,9.2249,-1.7044,-4.4862,0.4135
1434391.0,-5.624,3.6559,8.5832,-1.665,-4.4958,0.5055
1434401.0,-5.5881,3.3878,8.169,-1.566,-4.4932,0.5699
1434411.0,-5.1906,3.1053,7.8697,-1.4984,-4.6108,0.6316
1434421.0,-4.6902,2.8659,7.003,-1.3457,-4.7762,0.7104
1434431.0,-4.2329,2.7366,5.0015,-1.1983,-4.9093,0.804
1434441.0,-3.4309,2.0853,3.1699,-1.2808,-4.9907,0.8812
1434451.0,-2.4062,1.3862,1.5347,-1.4798,-4.9891,0.9078
1434461.0,-1.6999,0.5986,0.7063,-1.6692,-4.8624,0.8828
1434471.0,-0.9385,0.0982,0.182,-1.69,-4.673,0.8306
1434481.0,-0.3591,-0.2586,-0.5315,-1.5314,-4.4772,0.7859
1434491.0,0.3543,-0.4645,-1.98,-1.3255,-4.3085,0.7519
1434501.0,1.3264,-0.6081,-3.7182,-1.1802,-4.0685,0.721
1434511.0,2.2769,-0.7733,-5.3989,-1.1547,-3.728,0.6902
1434521.0,3.2346,-1.1995,-6.5864,-1.2888,-3.3582,0.6502
1434531.0,4.3886,-1.913,-7.501,-1.5197,-3.0283,0.5922
1434541.0,5.2529,-2.7438,-8.1092,-1.6213,-2.6313,0.5055
1434551.0,5.5474,-3.5003,-7.5346,-1.4591,-2.1109,0.3922
1434561.0,5.5498,-3.9385,-6.3925,-0.9211,-1.5453,0.2868
1434571.0,5.2241,-3.948,-5.2505,-0.2272,-1.1696,0.1942
1434581.0,5.3654,-3.7661,-4.8147,0.4965,-1.0174,0.1043
1434591.0,5.4779,-2.6169,-5.8562,1.2664,-0.912,0.033
1434601.0,4.8961,-0.9266,-8.1427,1.8326,-0.8248,0.0234
1434611.0,4.5562,0.4884,-11.7244,2.013,-0.7513,0.0819
1434621.0,4.549,1.7597,-16.2159,1.8177,-0.4927,0.1511
1434631.0,4.1683,3.5626,-21.8184,1.0605,-0.1575,0.1618
1434641.0,2.4588,5.5952,-25.6874,-0.2506,0.2634,0.1261
1434651.0,0.7063,7.7883,-28.5006,-1.1377,0.9344,0.2187
1434661.0,-2.5522,7.355,-28.922,-1.1435,1.8746,0.4874
1434671.0,-4.3886,9.7636,-35.1684,0.1458,2.7978,0.8817
1434681.0,-11.6071,10.2855,-39.7461,1.9167,4.3484,1.4175
1434691.0,-17.2359,11.2647,-46.4906,3.7918,6.5519,1.9273
1434701.0,-26.4272,11.4084,-49.3349,5.0141,9.7169,2.3152
1434711.0,-39.4852,8.2337,-42.3869,5.2674,13.2842,2.5116
1434721.0,-51.7746,5.1834,-31.4359,5.0178,16.5615,2.3647
1434731.0,-65.0624,0.261,-12.8784,4.225,17.4357,1.9034
1434741.0,-70.7439,-4.7573,4.0725,3.7541,17.4357,1.1728
1434751.0,-73.7821,-7.1084,25.5557,2.7861,17.4357,0.0335
1434761.0,-70.7774,-6.3398,46.4834,2.1391,17.4357,-1.0525
1434771.0,-70.5523,0.7709,58.2749,2.4057,16.8313,-1.7283
1434781.0,-76.0039,5.1427,66.3146,3.3773,14.3394,-1.7017
1434791.0,-51.7962,16.9079,62.1583,4.5815,11.2755,-1.3915
1434801.0,-46.1434,6.7684,78.4508,1.1914,5.9778,-1.2978
1434811.0,-41.446,9.7061,66.0584,2.3056,1.8087,-0.5523
1434821.0,-41.0079,4.6352,67.9235,2.4083,-0.2501,-0.0788
1434831.0,-37.8858,6.0573,55.0259,1.8092,-4.1271,-0.0415
1434841.0,-35.7694,1.9465,47.647,0.075,-7.7433,-0.3719
1434851.0,-30.6625,5.0733,28.4575,0.3645,-9.6376,-0.6316
1434861.0,-27.3681,6.3925,19.223,0.2735,-9.5152,-0.854
1434871.0,-22.4935,8.8418,9.4116,0.3358,-9.056,-0.9355
1434881.0,-18.1433,9.6247,4.7549,0.0463,-8.2451,-0.9514
1434891.0,-13.8888,9.8474,1.4054,0.3629,-6.951,-0.7897
1434901.0,-10.92,9.5505,0.0024,0.8439,-5.4111,-0.5539
1434911.0,-8.8801,9.596,-0.3352,0.9397,-4.1526,-0.34
1434921.0,-7.1874,8.8777,1.0319,0.5577,-3.2576,-0.165
1434931.0,-5.8466,7.4699,3.0646,0.1447,-2.5749,-0.0037
1434941.0,-5.1092,5.4516,5.0781,-0.1958,-2.1029,0.0963
1434951.0,-4.4412,3.632,7.1132,-0.4624,-1.8667,0.0756
1434961.0,-3.948,2.4493,8.6407,-0.5465,-1.7246,-0.0399
1434971.0,-4.2329,2.2553,9.7971,-0.563,-1.6676,-0.2155
1434981.0,-4.0462,2.5426,11.5209,-0.5156,-1.6634,-0.3874
1434991.0,-4.1611,3.8834,12.5025,-0.2719,-1.6368,-0.489
1435001.0,-4.7429,5.5067,13.3022,-0.3049,-1.8177,-0.5225
1435011.0,-5.0685,6.6894,13.8552,-0.7013,-2.3211,-0.4837
1435021.0,-5.2313,7.4124,13.532,-1.0371,-2.8707,-0.3432
1435031.0,-5.2768,7.4124,12.8186,-1.1142,-3.2209,-0.0942
1435041.0,-5.3079,6.6679,11.9255,-0.9333,-3.3672,0.2283
1435051.0,-5.114,5.138,11.3126,-0.6758,-3.4449,0.531
1435061.0,-4.8291,3.5243,10.5728,-0.4028,-3.5088,0.7455
1435071.0,-4.3527,2.0207,10.1778,-0.124,-3.488,0.853
1435081.0,-4.1204,1.1875,9.7947,0.0867,-3.4273,0.8471
1435091.0,-3.9624,1.3024,9.3111,-0.0117,-3.5428,0.7231
1435101.0,-3.9002,2.0303,8.6407,-0.3863,-3.8403,0.5486
1435111.0,-3.6631,2.8874,7.3071,-0.7982,-4.1042,0.4092
1435121.0,-3.5817,3.4692,6.2584,-1.1744,-4.192,0.3331
1435131.0,-3.3543,3.6296,5.8945,-1.4234,-4.1648,0.3145
1435141.0,-3.1508,3.8211,5.2505,-1.4718,-4.0978,0.3443
1435151.0,-2.9951,3.8834,4.9536,-1.433,-3.9871,0.415
1435161.0,-2.7557,3.6943,4.9991,-1.3031,-3.8206,0.5252
1435171.0,-2.4229,3.3399,5.1068,-1.1323,-3.6992,0.6572
1435181.0,-1.7813,2.8611,4.9177,-1.0759,-3.7493,0.7726
1435191.0,-0.9122,2.1332,4.2617,-1.1632,-3.9424,0.8519
1435201.0,-0.4836,1.6999,2.5067,-1.3143,-4.1335,0.8918
1435211.0,0.2753,1.1253,0.3783,-1.6368,-4.2814,0.8939
1435221.0,1.0726,0.395,-2.2362,-2.072,-4.342,0.8626
1435231.0,2.1644,-0.5722,-4.877,-2.6063,-4.2361,0.7753
1435241.0,2.7342,-1.2234,-5.9735,-2.9867,-3.762,0.6423
1435251.0,3.2441,-1.9201,-4.8483,-3.1411,-3.2246,0.4954
1435261.0,4.2306,-2.2553,-4.0151,-2.8441,-2.8441,0.3757
1435271.0,4.9871,-2.1739,-3.8355,-2.1737,-2.5132,0.3028
1435281.0,5.4061,-1.3431,-5.6695,-1.433,-2.2594,0.2751
1435291.0,6.2728,-1.1061,-7.7764,-1.0855,-2.1024,0.2639
1435301.0,7.1491,-0.9505,-10.6494,-0.9062,-1.8533,0.2618
1435311.0,7.6567,-1.0487,-12.0787,-0.6965,-1.2808,0.2368
1435321.0,7.3765,-0.316,-13.0867,-0.248,-0.4326,0.2086
1435331.0,6.6152,0.3615,-12.5073,0.1628,0.331,0.1841
1435341.0,6.1483,1.3048,-12.3134,0.5529,0.8524,0.1799
1435351.0,4.9823,2.3966,-13.0173,0.8046,1.143,0.2214
1435361.0,4.7764,3.3471,-14.8201,0.969,1.2058,0.2836
1435371.0,3.3926,4.9105,-19.0124,1.2329,1.293,0.3852
1435381.0,1.6113,6.3973,-25.8071,1.6378,1.5314,0.5523
1435391.0,-1.2474,8.6886,-33.1621,2.2971,2.5281,0.762
1435401.0,-6.1387,10.3932,-36.8396,2.8665,4.3149,1.0813
1435411.0,-11.1761,10.1347,-37.067,3.2725,6.2864,1.4974
1435421.0,-17.3412,8.5856,-35.1205,3.6317,8.2845,1.8571
1435431.0,-23.7625,6.687,-31.218,3.8743,10.3443,2.0226
1435441.0,-32.4726,4.3766,-24.6387,3.894,12.5557,1.9901
1435451.0,-40.5793,0.6369,-12.0716,3.6588,14.6842,1.6916
1435461.0,-47.0652,-0.9457,1.1085,3.7796,16.4582,1.1228
1435471.0,-52.3181,-0.4764,17.595,3.4364,17.2319,0.3416
1435481.0,-52.8688,1.0654,34.2874,3.1581,16.7302,-0.2772
1435491.0,-51.0444,4.5681,46.5241,3.4486,15.3733,-0.6135
1435501.0,-46.9383,8.2672,53.5296,3.1512,12.7356,-0.7673
1435511.0,-42.0805,7.9535,52.8783,2.5536,10.0686,-0.5662
1435521.0,-42.138,10.6638,55.7011,2.9112,9.4216,-0.1772
1435531.0,-35.6353,2.8659,69.961,0.5034,5.1024,-0.1607
1435541.0,-27.1215,0.9146,61.4975,0.7838,0.5571,0.0591
1435551.0,-26.7983,0.1915,56.2278,1.7145,-1.8688,0.1155
1435561.0,-25.0888,3.4046,44.41,2.6372,-4.3378,0.1224
1435571.0,-23.9181,5.0015,32.3696,2.6909,-6.4673,0.1256
1435581.0,-19.0914,5.9089,19.223,2.5504,-7.6241,0.1421
1435591.0,-14.8584,6.3255,8.8346,2.5174,-7.1394,0.1799
1435601.0,-10.738,6.9647,2.9832,2.0705,-5.9543,0.1772
1435611.0,-8.0134,6.3829,0.7207,1.3266,-4.7033,0.1171
1435621.0,-6.3159,6.4069,-0.2394,0.6039,-3.6524,0.0335
1435631.0,-5.3678,5.6383,0.7398,0.1958,-2.5674,-0.0069
1435641.0,-4.8435,5.4779,1.6017,0.364,-1.4144,0.0037
1435651.0,-5.1356,5.6982,3.1747,0.6311,-0.3246,0.0351
1435661.0,-5.4492,5.7604,5.2816,0.6742,0.4587,0.0692
1435671.0,-5.1332,4.9273,7.7716,0.4874,0.953,0.0814
1435681.0,-5.4779,4.549,9.7659,0.05,1.1291,-0.0245
1435691.0,-5.4923,4.0199,12.1458,-0.6577,1.0227,-0.2128
1435701.0,-5.6072,3.8235,13.872,-1.2925,0.8019,-0.414
1435711.0,-6.347,3.8786,15.67,-1.8044,0.5385,-0.5885
1435721.0,-6.7109,4.027,17.3005,-2.0284,0.2389,-0.6827
1435731.0,-7.3837,4.3311,19.1273,-1.9422,-0.0814,-0.6902
1435741.0,-8.0852,4.8411,20.0131,-1.4814,-0.4895,-0.5944
1435751.0,-8.2289,5.363,19.6396,-0.8806,-0.9658,-0.4342
1435761.0,-8.1451,5.6767,18.4784,-0.4789,-1.4314,-0.2618
1435771.0,-8.0996,5.6982,17.334,-0.4188,-1.8613,-0.125
1435781.0,-7.9368,5.1475,16.7786,-0.638,-2.2849,-0.0357
1435791.0,-7.6998,4.525,15.9358,-0.8695,-2.6808,-0.0027
1435801.0,-7.5776,4.5059,14.6884,-1.1302,-3.066,-0.0442
1435811.0,-7.3909,4.616,13.8193,-1.3792,-3.3709,-0.1075
1435821.0,-7.5489,5.138,12.6869,-1.4857,-3.5492,-0.1309
1435831.0,-7.8219,5.3486,12.3708,-1.574,-3.6796,-0.1064
1435841.0,-7.9895,5.4085,11.9088,-1.5559,-3.8461,-0.0255
1435851.0,-8.0613,4.9392,11.4108,-1.4638,-4.0329,0.0926
1435861.0,-7.8027,4.3431,10.5129,-1.3255,-4.2324,0.2027
1435871.0,-7.5561,3.7948,9.651,-1.1973,-4.4043,0.2804
1435881.0,-7.0868,3.5099,8.9112,-1.0142,-4.4873,0.3379
1435891.0,-6.6822,3.6129,7.8793,-0.7992,-4.5022,0.3991
1435901.0,-6.2034,3.5817,7.2808,-0.7492,-4.5565,0.4651
1435911.0,-5.7389,3.3878,6.5218,-0.7551,-4.6411,0.5417
1435921.0,-5.1571,2.9999,5.861,-0.7923,-4.7182,0.6119
1435931.0,-4.6471,2.5067,5.2122,-0.8423,-4.8098,0.6667
1435941.0,-4.197,1.8914,4.4197,-0.9355,-4.9449,0.6992
1435951.0,-3.8068,1.3024,3.4429,-1.052,-5.1088,0.6971
1435961.0,-3.2944,1.0319,2.138,-1.119,-5.2355,0.671
1435971.0,-2.6049,1.0247,0.7877,-1.1387,-5.2908,0.638
1435981.0,-1.968,1.087,-0.5914,-1.1185,-5.2754,0.6188
1435991.0,-0.8906,0.9481,-2.3559,-1.0722,-5.253,0.6274
1436001.0,-0.2251,0.6393,-4.6807,-0.9796,-5.1471,0.6609
1436011.0,1.1612,-0.0335,-7.2065,-0.9046,-4.9641,0.6843
1436021.0,2.9042,-1.0223,-9.2799,-0.6987,-4.549,0.679
1436031.0,4.367,-1.4485,-11.3916,-0.3799,-3.9227,0.6295
1436041.0,4.889,-1.6592,-12.639,-0.2517,-3.2571,0.5146
1436051.0,6.3063,-2.2745,-12.6007,-0.2714,-2.6866,0.356
1436061.0,6.7038,-1.889,-13.5225,-0.1564,-2.0763,0.1846
1436071.0,7.0605,-1.9561,-14.0157,-0.1979,-1.6405,0.0011
1436081.0,7.7285,-1.7549,-15.433,-0.2512,-1.3122,-0.1953
1436091.0,7.1563,-0.5794,-17.0946,-0.2453,-0.8865,-0.4039
1436101.0,6.3973,0.4118,-18.9693,-0.108,-0.4512,-0.5454
1436111.0,6.7804,0.3448,-20.7098,0.307,0.1852,-0.6625
1436121.0,2.9616,3.3303,-25.4432,0.7795,0.8987,-0.8051
1436131.0,2.9209,4.8052,-29.9108,0.6231,1.4021,-0.8663
1436141.0,-0.3591,8.2169,-33.7535,0.6194,2.7042,-0.8205
1436151.0,-6.5098,11.6669,-36.3224,0.6492,4.2521,-0.5465
1436161.0,-11.2599,13.3501,-37.7949,0.6066,5.9033,-0.0314
1436171.0,-16.5894,12.651,-35.3552,0.8902,8.0136,0.6348
1436181.0,-24.4328,10.6566,-29.7719,2.3535,10.8226,1.2627
1436191.0,-35.7861,9.3541,-23.693,4.5687,13.9307,1.6229
1436201.0,-48.5616,8.2768,-13.9175,6.338,17.2005,1.583
1436211.0,-59.563,7.8721,-2.3535,7.0212,17.4357,1.1025
1436221.0,-64.4423,7.9511,17.0012,5.799,17.4357,0.107
1436231.0,-66.2547,8.0397,32.7694,3.132,17.4357,-0.7444
1436241.0,-64.6841,4.391,48.1426,-0.2703,17.4357,-1.2265
1436251.0,-69.6186,-2.047,66.4223,-2.2184,15.3514,-1.2414
1436261.0,-51.5208,3.1149,65.0888,-0.2826,12.6334,-0.8711
1436271.0,-41.5011,-6.5338,78.4508,-2.5121,7.1676,-1.1233
1436281.0,-33.016,-0.5387,74.0934,-0.2884,1.458,-0.6827
1436291.0,-34.6704,-2.0997,69.9155,1.26,-2.0662,-0.2426
1436301.0,-31.0289,3.0047,50.2327,2.8505,-5.8745,0.1314
1436311.0,-32.882,1.913,39.7366,3.189,-8.2483,0.3847
1436321.0,-25.9771,4.8746,17.9086,3.9158,-9.8686,0.6311
1436331.0,-21.8926,2.7318,8.0445,3.4321,-9.3471,0.6933
1436341.0,-14.8464,3.9002,-2.5402,2.9878,-7.9812,0.6141
1436351.0,-11.5377,2.4517,-2.4493,1.6778,-6.1065,0.2959
1436361.0,-7.5992,3.4405,-3.7733,0.6827,-4.7427,-0.1431
1436371.0,-6.5745,3.3543,-0.656,-0.1793,-3.347,-0.5704
1436381.0,-5.8778,4.4604,2.2027,-0.3943,-2.1407,-0.9019
1436391.0,-6.4428,5.4731,6.3877,-0.3597,-1.243,-1.1286
1436401.0,-6.3279,7.0868,8.904,-0.2575,-0.9349,-1.2409
1436411.0,-6.1244,8.1642,10.5369,-0.3331,-0.9663,-1.2313
1436421.0,-5.9472,8.734,11.3749,-0.4986,-1.0834,-1.1041
1436431.0,-5.6695,8.1403,13.0316,-0.6917,-1.1291,-0.9035
1436441.0,-5.5378,7.6854,14.2144,-0.7753,-1.2318,-0.6955
1436451.0,-5.5402,6.9264,15.0356,-0.986,-1.5969,-0.5252
1436461.0,-4.8123,6.2177,14.8081,-1.234,-2.1359,-0.3954
1436471.0,-5.0206,5.5761,14.4993,-1.3494,-2.4812,-0.2804
1436481.0,-5.3199,4.9177,14.5017,-1.2467,-2.6701,-0.1527
1436491.0,-5.2792,3.7373,14.5448,-1.0142,-2.8942,-0.0282
1436501.0,-4.8076,2.6863,13.5679,-0.7971,-3.2438,0.0218
1436511.0,-4.3407,2.0734,12.4882,-0.6976,-3.5997,-0.0346
1436521.0,-3.9648,2.5522,10.8314,-0.6157,-3.8626,-0.1485
1436531.0,-3.8954,3.3998,9.3182,-0.6391,-4.0212,-0.2474
1436541.0,-3.5961,4.2665,7.7859,-0.7274,-4.1127,-0.2879
1436551.0,-3.2944,4.9105,6.3398,-0.8716,-4.1079,-0.2703
1436561.0,-3.1077,4.8866,5.3917,-1.0738,-4.0323,-0.2001
1436571.0,-2.5426,3.9433,5.5857,-1.1738,-3.8764,-0.107
1436581.0,-2.1117,3.2082,5.928,-0.977,-3.6492,-0.0213
1436591.0,-2.2649,2.7845,6.5338,-0.6306,-3.4641,0.0559
1436601.0,-1.5969,2.5355,6.6655,-0.2421,-3.4092,0.1378
1436611.0,-1.4557,2.4924,6.3566,0.017,-3.4465,0.207
1436621.0,-1.1181,2.6935,5.5234,0.0915,-3.5519,0.2581
1436631.0,-0.8092,2.6456,4.6567,0.0266,-3.5997,0.306
1436641.0,-0.407,2.4181,3.735,-0.1117,-3.5832,0.3421
1436651.0,0.1365,2.0782,3.1364,-0.3672,-3.5588,0.3304
1436661.0,0.3184,1.8603,3.0382,-0.6087,-3.4939,0.2916
1436671.0,0.4094,1.6424,3.3543,-0.6923,-3.3741,0.2645
1436681.0,0.2059,1.6664,3.4524,-0.6353,-3.3161,0.2581
1436691.0,0.1365,1.6065,3.5219,-0.5236,-3.3443,0.2826
1436701.0,0.3543,1.4629,3.1675,-0.3161,-3.3821,0.34
1436711.0,1.1133,0.9361,2.4828,-0.1235,-3.4098,0.4108
1436721.0,1.6113,0.4741,1.1516,-0.1123,-3.4954,0.439
1436731.0,2.3296,-0.0527,-0.1532,-0.4443,-3.7125,0.3826
1436741.0,2.6791,-0.4381,-2.8874,-0.919,-4.0425,0.273
1436751.0,3.7014,-1.3024,-6.9552,-1.4388,-4.316,0.1346
1436761.0,5.217,-2.2984,-10.9654,-1.6182,-4.142,-0.0303
1436771.0,6.0406,-2.9449,-13.9965,-1.226,-3.4417,-0.2086
1436781.0,6.675,-2.2865,-16.4649,-0.5146,-2.3615,-0.364
1436791.0,7.8075,-2.0758,-17.7123,0.0314,-1.4346,-0.4832
1436801.0,7.2903,-1.5155,-18.2127,0.455,-0.5757,-0.5896
1436811.0,6.2968,-0.2873,-19.7641,0.6683,0.0628,-0.688
1436821.0,6.3255,1.0894,-21.974,0.7109,0.4933,-0.7928
1436831.0,4.5705,3.9576,-27.0353,0.8503,1.0983,-0.8556
1436841.0,3.5506,6.9264,-33.4302,0.688,1.7948,-0.8147
1436851.0,-0.3663,10.0341,-39.4469,0.448,3.1187,-0.5374
1436861.0,-4.8818,11.6215,-43.1244,0.2767,5.1163,0.0442
1436871.0,-11.746,10.9343,-41.798,0.2943,7.8125,0.8503
1436881.0,-21.4592,8.2528,-34.0192,0.6582,10.8003,1.6964
1436891.0,-32.882,5.4923,-22.0745,1.5197,13.5763,2.4067
1436901.0,-41.1444,-0.6967,-5.6479,2.5472,15.7761,2.7936
1436911.0,-43.7947,-6.3159,5.7748,3.6998,16.8845,2.4839
1436921.0,-44.2927,-11.7531,19.7043,3.3816,16.8046,1.2659
1436931.0,-42.2409,-11.157,30.9618,2.5089,15.5584,-0.4108
1436941.0,-43.608,-5.964,40.3184,2.0657,14.0068,-1.8853
1436951.0,-42.3367,1.1899,43.8642,1.9358,11.7948,-2.8245
1436961.0,-41.6591,7.2305,45.7795,2.1045,10.0692,-3.1522
1436971.0,-40.6583,17.6716,44.6758,3.3246,9.3811,-2.9287
1436981.0,-36.2698,17.2383,56.0411,1.9763,6.818,-2.5674
1436991.0,-29.3074,19.4553,52.9597,1.7331,3.8477,-1.8794
1437001.0,-28.1558,17.662,56.4529,1.0222,1.5809,-1.2792
1437011.0,-25.3139,18.1169,51.54,0.8503,-1.4277,-0.6545
1437021.0,-25.2301,16.1034,45.023,0.9355,-4.018,0.0282
1437031.0,-22.2206,14.2479,32.9155,1.5442,-5.8437,0.7295
1437041.0,-19.2709,11.078,23.3363,1.8991,-6.4902,1.2334
1437051.0,-15.1888,8.5258,14.1114,1.939,-6.5551,1.467
1437061.0,-11.8609,5.9376,8.4228,1.4862,-6.0863,1.4175
1437071.0,-8.6,4.8626,4.2617,1.0259,-5.1865,1.1712
1437081.0,-6.8091,4.8195,2.7126,0.5321,-3.9669,0.8407
1437091.0,-5.7868,5.1356,2.7438,-0.0176,-2.8479,0.5161
1437101.0,-4.9177,5.7509,3.3184,-0.655,-1.9763,0.2272
1437111.0,-4.8937,6.6343,5.1068,-1.3941,-1.293,-0.0245
1437121.0,-5.126,7.2065,7.7093,-1.9757,-0.688,-0.1532
1437131.0,-5.4684,6.8785,10.8242,-2.4759,-0.3358,-0.1836
1437141.0,-6.0573,6.0047,14.3317,-2.9484,-0.4124,-0.1905
1437151.0,-6.3063,5.2529,17.3005,-3.0921,-0.7923,-0.1655
1437161.0,-6.6583,4.9009,19.0124,-2.6925,-1.2297,-0.075
1437171.0,-6.9815,5.0111,19.0531,-2.0109,-1.7214,0.0649
1437181.0,-7.2209,5.0829,18.2582,-1.5192,-2.3647,0.1958
1437191.0,-7.2951,5.2265,16.338,-1.242,-3.0474,0.3086
1437201.0,-6.8139,4.5777,14.6669,-1.0515,-3.4928,0.4161
1437211.0,-6.0238,4.2353,12.5552,-0.8998,-3.7381,0.4693
1437221.0,-5.8466,4.1922,10.8146,-1.077,-4.0031,0.439
1437231.0,-5.4109,4.1851,9.0333,-1.4112,-4.2883,0.3879
1437241.0,-4.8985,3.948,7.3646,-1.6495,-4.3729,0.3719
1437251.0,-4.2808,3.5721,6.031,-1.7778,-4.2622,0.3767
1437261.0,-3.9409,3.134,5.4708,-1.8949,-4.0877,0.3826
1437271.0,-3.7709,2.6719,5.4803,-1.964,-3.9626,0.3874
1437281.0,-3.5434,2.1189,5.5929,-1.8496,-3.8876,0.4172
1437291.0,-2.8683,1.5203,5.0494,-1.5495,-3.8291,0.4677
1437301.0,-2.3894,0.9864,4.2449,-1.2595,-3.7503,0.5055
1437311.0,-1.664,0.4788,3.699,-1.0408,-3.6434,0.5103
1437321.0,-1.0319,0.3974,3.0574,-0.812,-3.4896,0.4911
1437331.0,-0.3831,0.4094,2.3104,-0.6433,-3.3113,0.4789
1437341.0,0.3926,0.2298,1.5514,-0.613,-3.1033,0.4741
1437351.0,0.9912,-0.249,1.4796,-0.7833,-2.8958,0.448
1437361.0,1.7286,-1.0343,1.719,-1.0605,-2.7345,0.3789
1437371.0,2.0016,-1.7813,2.217,-1.3526,-2.6292,0.2528
1437381.0,2.3774,-2.4325,3.0454,-1.5905,-2.5978,0.0782
1437391.0,2.5379,-2.7509,3.6966,-1.6059,-2.6052,-0.1075
1437401.0,2.7773,-2.4421,3.541,-1.409,-2.6856,-0.2772
1437411.0,3.1029,-2.0686,3.4141,-1.0573,-2.7404,-0.389
1437421.0,3.5721,-1.4724,2.3703,-0.447,-2.6584,-0.4087
1437431.0,3.9409,-1.0439,1.2881,0.1469,-2.452,-0.3677
1437441.0,4.2066,-0.8715,0.5746,0.4938,-2.2753,-0.3257
1437451.0,4.6064,-0.7614,-0.103,0.5938,-2.2125,-0.3171
1437461.0,4.9632,-0.7877,-1.0295,0.5853,-2.2029,-0.3315
1437471.0,5.3774,-0.6871,-2.1644,0.6534,-2.0923,-0.3528
1437481.0,5.2074,-0.3543,-2.9999,0.8934,-1.764,-0.3565
1437491.0,5.3941,0.1628,-4.2641,1.1478,-1.4335,-0.3368
1437501.0,5.9209,0.6536,-6.1172,1.1557,-1.1903,-0.3129
1437511.0,5.9783,1.1325,-8.5258,0.8588,-0.9376,-0.3001
1437521.0,4.9368,2.0877,-11.1115,0.2533,-0.654,-0.3235
1437531.0,4.276,3.5314,-12.7395,-0.4635,-0.3842,-0.3794
1437541.0,3.8786,7.0988,-17.3125,-0.9365,-0.1309,-0.3613
1437551.0,2.7318,10.6374,-23.1783,-1.8491,-0.3421,-0.1846
1437561.0,0.5602,12.3134,-31.7782,-2.5206,-0.7684,0.3443
1437571.0,-3.2968,12.3565,-43.2872,-1.8012,-0.2081,1.1946
1437581.0,-7.5441,9.7731,-54.9062,0.0729,1.5655,2.0816
1437591.0,-13.1897,6.6726,-65.4335,2.1189,4.8177,2.7659
1437601.0,-23.5446,1.8435,-66.5923,3.2129,9.3907,3.0761
1437611.0,-43.1914,-0.9744,-56.3308,4.0089,14.929,2.9053
1437621.0,-66.7432,-2.0758,-38.1205,4.3697,17.4357,2.4036
1437631.0,-78.4532,-4.2856,-11.3629,3.7429,17.4357,1.5713
1437641.0,-78.4532,-3.0478,11.0038,3.9073,17.4357,0.6188
1437651.0,-78.4532,-1.968,34.8883,2.7872,17.4357,-0.4651
1437661.0,-54.2574,-4.3766,44.2712,0.7162,17.4357,-1.1302
1437671.0,-64.4926,-5.2888,67.9546,1.4649,17.4357,-1.4085
1437681.0,-60.1519,-0.1245,78.4508,1.1472,13.6178,-1.8533
1437691.0,-50.8864,-0.2322,78.4508,0.0458,6.5609,-1.9103
1437701.0,-46.2129,7.616,71.0982,1.5048,2.427,-1.5527
1437711.0,-41.3862,12.0524,66.2356,2.1896,-0.6667,-1.0084
1437721.0,-39.0614,14.8776,56.3571,2.1795,-4.4815,-0.3677
1437731.0,-36.5116,12.9,44.7883,2.2205,-7.7545,0.3661
1437741.0,-33.2291,12.1458,27.8278,3.2368,-9.3306,1.126
1437751.0,-28.0816,9.7923,17.0826,3.5801,-9.4115,1.6644
1437761.0,-22.9101,8.1547,8.1977,3.4646,-8.8315,1.9396
1437771.0,-17.5663,5.2026,4.6519,2.5611,-8.0317,1.8927
1437781.0,-12.8281,3.9289,1.2067,1.731,-7.1159,1.5335
1437791.0,-9.6534,4.1731,0.4621,0.6651,-6.1608,0.9647
1437801.0,-8.0804,4.8435,0.5962,-0.5071,-5.4834,0.3735
1437811.0,-6.5769,6.0765,0.3041,-1.5442,-5.095,-0.1346
1437821.0,-5.1858,6.6104,0.2538,-2.2455,-4.6916,-0.4704
1437831.0,-3.9983,7.0174,-0.4788,-2.3264,-4.0174,-0.6114
1437841.0,-3.5913,6.8331,-0.1221,-2.1604,-3.1485,-0.6029
1437851.0,-3.5314,6.3686,1.0175,-1.9247,-2.3573,-0.5177
1437861.0,-3.2489,5.7509,2.7366,-1.5969,-1.6762,-0.3959
1437871.0,-2.7294,5.5115,4.5825,-1.1334,-1.0637,-0.274
1437881.0,-2.6288,6.0525,6.3111,-0.7998,-0.7003,-0.1607
1437891.0,-2.5019,6.2537,7.9272,-0.7753,-0.6923,-0.0117
1437901.0,-2.7246,6.2249,9.1004,-0.8274,-0.8679,0.1799
1437911.0,-2.6719,5.6144,10.0772,-0.7955,-1.0743,0.4193
1437921.0,-2.6983,4.8387,10.2448,-0.6268,-1.326,0.6944
1437931.0,-2.6695,3.5243,10.082,-0.4039,-1.5772,0.9546
1437941.0,-2.2482,2.1955,8.9543,-0.1272,-1.756,1.1531
1437951.0,-1.6305,0.7805,7.9823,-0.0223,-1.8565,1.2398
1437961.0,-0.668,-0.2107,6.7804,-0.1958,-2.0231,1.1552
1437971.0,0.0862,-0.6105,5.8203,-0.5763,-2.2232,0.9222
1437981.0,0.7422,-0.1796,4.3359,-0.8285,-2.2881,0.663
1437991.0,0.8906,0.4525,3.0143,-0.945,-2.1114,0.4746
1438001.0,0.7542,1.075,1.9321,-0.961,-1.7703,0.3954
1438011.0,0.6776,1.3312,1.3216,-0.9339,-1.3266,0.4188
1438021.0,0.6991,1.1732,1.0726,-0.8876,-0.821,0.5156
1438031.0,0.9697,0.5171,1.3455,-0.8226,-0.2522,0.654
1438041.0,1.0247,-0.1844,1.6568,-0.771,0.3038,0.7662
1438051.0,1.5658,-0.577,2.2936,-0.9046,0.7519,0.7897
1438061.0,2.2075,-1.1133,3.6344,-1.2159,1.0993,0.7162
1438071.0,1.7262,-0.5986,4.1108,-1.5437,1.3532,0.6055
1438081.0,0.5962,-0.2753,4.6448,-2.1859,1.3415,0.5225
1438091.0,0.3112,-0.2634,4.2497,-2.8984,1.1084,0.5321
1438101.0,0.3065,-1.0487,3.8618,-3.3417,1.0584,0.6188
1438111.0,0.2538,-1.4317,3.1532,-3.3236,1.2845,0.7056
1438121.0,0.1125,-1.3527,3.8379,-2.9899,1.756,0.7742
1438131.0,1.3982,-2.059,4.561,-2.3977,2.2226,0.9349
1438141.0,-7.8171,-30.4088,35.1469,-0.5593,4.2048,1.2616
1438151.0,-8.0254,-22.0985,21.1216,5.2929,3.8131,1.2137
1438161.0,-0.3831,-19.4888,23.5925,3.9509,1.0568,0.1708
1438171.0,1.3479,-10.9367,21.488,3.5668,-0.6098,-0.5827
1438181.0,2.5881,1.6305,4.8411,3.9573,-0.5949,-0.7662
1438191.0,-2.296,1.7837,12.7276,1.2728,0.2692,-0.8269
1438201.0,-5.7868,9.5529,7.932,0.4278,0.8838,-0.6859
1438211.0,-5.8012,6.0047,20.5351,-1.4633,1.0823,-0.6582
1438221.0,-2.7653,7.5537,17.7147,-0.7801,1.1776,-0.4895
1438231.0,-1.4748,3.8259,26.7672,-1.2872,0.9195,-0.3746
1438241.0,0.6991,5.1332,21.9022,-0.6236,0.2554,-0.0553
1438251.0,-1.2881,3.0718,22.4552,-0.8461,-0.0378,0.1543
1438261.0,-2.7653,2.4612,17.7626,-0.7556,-0.2283,0.2783
1438271.0,-4.3958,-1.2785,19.5151,-1.2558,-0.1469,0.2458
1438281.0,-4.2617,-2.8228,19.1943,-1.4787,-0.2437,0.1086
1438291.0,-4.6974,-3.7421,22.5079,-1.8273,-0.4422,-0.1878
1438301.0,-4.3551,-1.6903,21.713,-1.757,-0.9993,-0.4927
1438311.0,-4.5131,0.2753,21.3659,-1.8959,-1.6198,-0.7258
1438321.0,-4.3335,2.8347,19.3954,-2.1247,-2.3642,-0.8131
1438331.0,-4.5346,3.9863,18.0331,-2.4057,-3.0293,-0.7375
1438341.0,-4.5897,4.6807,14.8656,-2.3003,-3.5114,-0.5007
1438351.0,-4.3981,3.9097,12.3948,-2.129,-3.7785,-0.1841
1438361.0,-3.6033,2.8299,9.809,-1.9018,-3.8557,0.0894
1438371.0,-2.6576,1.4437,9.2249,-1.9507,-3.9701,0.2309
1438381.0,-1.1277,0.6704,6.2656,-2.0289,-4.3724,0.2714
1438391.0,1.087,1.3719,0.7422,-1.9795,-4.2691,0.3363
1438401.0,0.6632,0.9361,0.7398,-2.2115,-3.4656,0.4385
1438411.0,-0.1484,0.2131,2.8108,-2.2019,-2.8101,0.538
1438421.0,-0.8428,-0.8811,3.9744,-1.7773,-2.5254,0.6588
1438431.0,-0.8691,-1.3503,2.5187,-0.9839,-2.3163,0.8684
1438441.0,-0.51,-2.2266,0.8882,-0.182,-1.848,1.1393
1438451.0,0.8715,-3.1508,0.0814,0.5295,-1.0813,1.3202
1438461.0,3.2872,-4.8483,1.8435,1.0914,-0.0979,1.2968
1438471.0,4.2353,-5.7676,6.5122,1.6804,0.8886,1.1047
1438481.0,2.5905,-3.2106,9.4116,2.1311,1.3627,0.7923
1438491.0,0.5746,-0.4118,11.9207,1.9268,1.2638,0.5316
1438501.0,-1.245,0.5674,14.6501,1.2382,0.804,0.4198
1438511.0,-2.6193,0.4357,15.9909,0.5821,0.0708,0.5092
1438521.0,-2.0207,-2.6264,17.8823,0.2581,-0.6385,0.6854
1438531.0,-0.9601,-4.5394,17.5974,0.4475,-1.2068,0.762
1438541.0,-0.9146,-5.964,18.184,0.389,-1.8369,0.6146
1438551.0,-0.8092,-6.1052,17.9398,0.1809,-2.709,0.3097
1438561.0,-1.0223,-5.3463,16.8456,0.1969,-3.5157,-0.0021
1438571.0,-1.6424,-3.4979,13.1274,0.5236,-4.1766,-0.19
1438581.0,-1.0391,-2.1955,8.6981,0.7391,-4.598,-0.2187
1438591.0,-1.3791,-1.0798,4.5586,0.8077,-4.6246,-0.1229
1438601.0,0.4166,-1.0965,1.5945,0.6705,-4.375,0.0181
1438611.0,1.743,-1.6089,0.1532,0.2975,-3.9728,0.1139
1438621.0,3.0478,-1.9561,-1.2617,-0.2432,-3.6625,0.1171
1438631.0,3.7469,-2.6719,-1.0367,-0.8418,-3.3332,0.0404
1438641.0,4.2856,-2.8108,-0.9505,-1.0344,-2.9234,-0.0431
1438651.0,4.7764,-3.1005,-0.3041,-0.9509,-2.5281,-0.1208
1438661.0,5.2816,-2.8132,-0.4286,-0.5683,-2.146,-0.1751
1438671.0,5.193,-2.3631,-0.0599,-0.0958,-1.69,-0.1868
1438681.0,5.2313,-2.1189,0.6608,0.3421,-1.2664,-0.1501
1438691.0,5.3798,-2.1141,1.4054,0.5906,-1.0014,-0.1059
1438701.0,5.5689,-2.0901,2.1476,0.5337,-0.9578,-0.1096
1438711.0,5.5522,-2.0255,2.6288,0.3129,-1.0743,-0.1298
1438721.0,5.1691,-2.1691,2.648,0.1501,-1.2547,-0.1224
1438731.0,5.4372,-2.4325,1.3192,0.1788,-1.45,-0.0782
1438741.0,5.5976,-2.7198,-1.075,0.2948,-1.5474,-0.0277
1438751.0,5.9855,-2.7461,-3.5362,0.3847,-1.5463,-0.0101
1438761.0,5.9113,-2.5211,-5.3534,0.6486,-1.3255,0.0053
1438771.0,4.7597,-1.4748,-7.6782,1.1999,-0.9706,0.058
1438781.0,4.3263,-0.1628,-12.287,1.674,-0.7982,0.1474
1438791.0,4.3862,0.2921,-20.638,1.5272,-0.9567,0.2379
1438801.0,5.6407,1.3886,-33.7487,0.8179,-0.853,0.1916
1438811.0,5.5138,2.9951,-44.4962,-0.4512,0.0777,-0.0032
1438821.0,1.2234,6.6583,-50.2016,-1.7028,1.7863,-0.1336
1438831.0,-8.7293,11.3437,-49.4977,-2.0513,3.9579,0.1399
1438841.0,-17.0994,12.8018,-46.7851,-0.6444,5.9969,0.9647
1438851.0,-25.4815,12.2631,-50.611,2.2923,8.2041,1.9433
1438861.0,-34.8093,7.592,-53.8456,4.7135,10.9578,2.4983
1438871.0,-46.8066,1.1133,-50.1274,6.0358,14.6815,2.2748
1438881.0,-58.8519,-5.0159,-33.593,6.6253,17.4357,1.1148
1438891.0,-74.5435,-3.3064,-5.2122,7.158,17.4357,-0.6779
1438901.0,-78.4532,9.2153,17.1401,8.6633,17.4357,-2.1966
1438911.0,-78.4532,21.7058,35.0296,8.6905,17.4357,-3.0825
1438921.0,-60.3219,28.0146,41.3934,5.9735,17.4357,-3.2384
1438931.0,-64.009,26.5828,61.6531,3.8993,17.1606,-2.5595
1438941.0,-60.1783,19.5439,78.4508,1.657,12.3759,-1.6144
1438951.0,-54.9781,17.1592,78.4508,1.5373,5.7032,-0.4784
1438961.0,-48.5999,3.9672,78.4508,3.9749,0.654,0.423
1438971.0,-40.5219,11.1857,54.1975,7.8306,-3.0453,0.8764
1438981.0,-36.0208,8.0828,46.6582,5.3312,-6.4572,0.1389
1438991.0,-30.7392,12.2392,29.7312,3.2991,-9.2295,-0.9142
1439001.0,-26.4009,16.7929,15.9717,2.3445,-9.3327,-1.5171
1439011.0,-20.4944,19.2637,5.6814,1.2127,-8.3547,-1.7219
1439021.0,-15.8999,20.6524,1.5443,-0.29,-7.0893,-1.6932
1439031.0,-12.2463,21.0331,0.2131,-1.1009,-5.4121,-1.3377
1439041.0,-10.0652,19.7737,2.6097,-1.2382,-3.5162,-0.7444
1439051.0,-9.7851,17.6524,7.2329,-0.9589,-2.1465,-0.107
1439061.0,-9.9335,15.2223,11.6286,-0.4039,-1.6501,0.5177
1439071.0,-9.6462,13.2567,12.6246,0.4273,-1.7464,1.119
1439081.0,-9.1626,10.9678,11.5329,1.0828,-1.9944,1.6442
1439091.0,-8.2624,8.0948,9.8761,1.2691,-2.2583,1.9885
1439101.0,-6.7157,5.3798,7.5034,1.0493,-2.4461,2.0949
1439111.0,-5.7293,3.2585,5.5019,0.3916,-2.4722,1.9592
1439121.0,-4.7716,1.2833,5.7772,-0.4432,-2.2993,1.6469
1439131.0,-4.1659,0.431,6.5673,-0.8849,-1.9204,1.2733
1439141.0,-4.3598,0.5387,7.6614,-1.2201,-1.6096,0.8769
1439151.0,-5.0278,0.8739,10.0844,-1.6368,-1.5969,0.5108
1439161.0,-5.1571,1.6616,11.6358,-1.6602,-1.7714,0.2677
1439171.0,-5.4085,2.4732,11.6215,-1.3399,-1.9427,0.1767
1439181.0,-5.0542,2.6839,10.9702,-1.0488,-2.0859,0.1761
1439191.0,-4.3191,2.3894,10.3525,-0.9264,-2.1545,0.1878
1439201.0,-3.8307,1.8747,10.0413,-1.0307,-2.1641,0.1511
1439211.0,-4.1587,1.4653,10.6063,-1.3372,-2.2141,0.0383
1439221.0,-4.4484,1.391,11.4778,-1.5953,-2.3583,-0.1091
1439231.0,-5.0518,1.5826,12.2655,-1.6543,-2.527,-0.2416
1439241.0,-5.0996,2.0399,12.7707,-1.4814,-2.6824,-0.3187
1439251.0,-5.272,2.387,13.1035,-1.2765,-2.8888,-0.3443
1439261.0,-5.3534,2.8467,13.0915,-1.1419,-3.2326,-0.357
1439271.0,-5.5115,3.4788,12.3038,-1.052,-3.6306,-0.3533
1439281.0,-5.4109,4.1108,11.0038,-0.9488,-3.9499,-0.3033
1439291.0,-5.1092,4.6591,9.505,-0.8695,-4.1196,-0.2118
1439301.0,-4.6495,4.9632,7.9966,-0.9088,-4.1994,-0.0995
1439311.0,-4.4819,4.9057,7.4388,-1.1185,-4.2314,0.016
1439321.0,-4.2234,4.4724,7.4101,-1.218,-4.2228,0.1527
1439331.0,-3.723,3.9145,6.9839,-1.1307,-4.2037,0.3054
1439341.0,-2.9305,3.1149,6.4596,-1.0898,-4.2431,0.4299
1439351.0,-2.2697,2.2673,5.7269,-1.127,-4.3298,0.5028
1439361.0,-1.8076,1.4245,4.7788,-1.2584,-4.4463,0.5114
1439371.0,-1.1995,0.6512,3.5769,-1.4335,-4.5778,0.4645
1439381.0,-0.3735,0.0431,2.2098,-1.5527,-4.6161,0.3773
1439391.0,0.3376,-0.4094,1.3192,-1.5559,-4.4751,0.2762
1439401.0,0.9553,-0.7063,0.7518,-1.4149,-4.226,0.1868
1439411.0,1.6975,-0.8882,0.3496,-1.2334,-4.0068,0.1
1439421.0,2.4828,-0.8763,-0.2179,-1.0892,-3.8504,0.0074
1439431.0,2.9161,-0.5722,-0.8691,-0.9972,-3.7168,-0.0857
1439441.0,3.3543,-0.1724,-1.4509,-0.9206,-3.6077,-0.1532
1439451.0,3.5243,0.237,-2.8898,-0.7923,-3.5088,-0.1639
1439461.0,4.2401,0.2418,-4.9057,-0.7226,-3.3943,-0.132
1439471.0,4.8387,-0.3256,-6.1196,-0.6311,-3.1075,-0.0851
1439481.0,5.1092,-0.6967,-7.0892,-0.3006,-2.6387,-0.041
1439491.0,5.2409,-0.8236,-7.7979,0.133,-2.1625,-0.0112
1439501.0,5.5402,-0.7829,-7.999,0.6481,-1.6879,0.0234
1439511.0,5.4612,-0.158,-10.5919,1.0993,-1.359,0.0873
1439521.0,5.3295,0.0407,-15.1625,0.7689,-1.4367,0.1043
1439531.0,6.2632,-0.9816,-21.3108,-0.0527,-1.648,0.0415
1439541.0,4.8866,0.5315,-31.2467,-0.4592,-1.2217,-0.1187
1439551.0,4.5705,3.4477,-41.4388,-0.6566,-0.2091,-0.2884
1439561.0,2.3822,6.5505,-50.5751,-0.7795,1.408,-0.2267
1439571.0,-1.2665,8.6407,-54.4585,-0.7689,3.6359,0.1123
1439581.0,-9.4451,11.497,-56.0387,-0.1325,6.2396,0.6997
1439591.0,-19.4888,12.0692,-54.6596,0.58,8.7261,1.5186
1439601.0,-31.479,10.2328,-50.3022,1.3026,11.376,2.4051
1439611.0,-45.193,6.4907,-40.8882,1.7714,13.679,3.066
1439621.0,-56.7091,1.6328,-29.1518,2.7468,15.6329,3.4364
1439631.0,-67.3297,-3.3279,-14.3389,4.7486,17.4357,3.397
1439641.0,-72.6904,-8.9328,2.0446,7.3714,17.4357,2.7441
1439651.0,-72.0942,-9.754,13.872,9.7137,17.4357,1.1552
1439661.0,-71.6034,-4.2928,25.6658,9.851,17.4357,-1.2068
1439671.0,-70.7032,7.5154,25.5006,7.1516,17.4357,-3.6157
1439681.0,-77.371,7.7524,54.8775,2.8159,17.4357,-5.2168
1439691.0,-65.9842,19.0411,65.5772,1.176,13.9419,-5.6744
1439701.0,-62.0936,19.5487,78.4508,-0.5156,8.3281,-5.0907
1439711.0,-57.6596,28.7472,78.3718,3.5029,3.9371,-3.098
1439721.0,-52.7538,30.1358,72.6856,6.578,0.7982,-0.9653
1439731.0,-47.0916,28.5413,62.1822,6.8611,-3.422,0.5678
1439741.0,-43.359,23.9157,51.1521,5.452,-7.315,1.3548
1439751.0,-39.4804,21.6196,34.3424,3.9121,-10.1197,1.6442
1439761.0,-36.5235,17.8272,21.2294,1.8874,-11.7741,1.582
1439771.0,-31.4861,16.4458,6.0094,0.1878,-12.6143,1.3755
1439781.0,-24.756,14.2287,-4.3958,-1.4058,-12.2115,1.1052
1439791.0,-16.192,11.2551,-13.2782,-1.9587,-10.4837,0.969
1439801.0,-11.8657,9.1937,-12.6797,-1.5729,-7.2165,0.8556
1439811.0,-10.3573,7.8889,-7.9799,-1.4926,-5.1567,0.7194
1439821.0,-6.8785,7.1204,-4.7022,-0.9642,-3.7461,0.7184
1439831.0,-6.2704,7.4124,-1.5562,-0.1139,-2.2269,0.8333
1439841.0,-6.1531,6.8259,2.5833,0.1799,-1.3239,0.9647
1439851.0,-5.1044,5.8131,4.1539,0.0756,-0.9754,1.0733
1439861.0,-4.1563,3.8164,6.6702,-0.6928,-0.8551,1.0387
1439871.0,-3.6703,1.9609,10.0221,-1.5761,-0.8828,0.8498
1439881.0,-4.4053,0.9361,13.4195,-2.2301,-1.1472,0.5726
1439891.0,-4.6543,0.6536,16.2351,-2.5041,-1.6762,0.2863
1439901.0,-5.5426,1.2043,17.5184,-2.2514,-2.2588,0.083
1439911.0,-6.1746,2.1859,17.4082,-1.6804,-2.8479,-0.0112
1439921.0,-6.2896,3.5243,15.6437,-1.1329,-3.4587,-0.0192
1439931.0,-6.189,4.561,13.4171,-0.8886,-4.0488,0.0303
1439941.0,-5.7174,5.387,10.3813,-0.7662,-4.4841,0.1511
1439951.0,-5.1858,5.4348,7.5681,-0.7247,-4.606,0.331
1439961.0,-4.5705,4.8722,5.3989,-0.7301,-4.458,0.5236
1439971.0,-3.8786,3.9049,4.6352,-0.7907,-4.1611,0.6721
1439981.0,-3.3806,2.8539,5.0111,-0.8093,-3.811,0.7604
1439991.0,-2.7366,1.7933,5.9161,-0.7476,-3.5056,0.803
1440001.0,-2.4134,1.1516,6.6272,-0.7503,-3.4146,0.7758
1440011.0,-2.3846,0.6536,7.3717,-0.8775,-3.5322,0.6928
1440021.0,-2.0135,0.2682,7.2903,-0.8822,-3.7014,0.6024
1440031.0,-1.6759,0.2897,6.4476,-0.8157,-3.8424,0.5013
1440041.0,-1.1756,0.6345,5.2002,-0.8599,-4.0063,0.3831
1440051.0,-0.6608,1.2091,3.4093,-1.0025,-4.1425,0.2799
1440061.0,-0.0886,1.6089,1.6879,-1.1728,-4.1249,0.2171
1440071.0,0.4764,1.8196,0.7829,-1.2707,-3.9025,0.1995
1440081.0,1.1732,1.901,0.5363,-1.2446,-3.5609,0.2341
1440091.0,1.9465,1.822,0.3136,-1.1712,-3.2374,0.3012
1440101.0,2.5355,1.6233,-0.091,-1.2457,-3.0421,0.3634
1440111.0,3.0598,1.2091,-0.3472,-1.5139,-2.974,0.3906
1440121.0,3.3782,0.7015,-0.8715,-1.782,-2.9144,0.3884
1440131.0,3.8499,0.4956,-2.0135,-2.0114,-2.8697,0.3512
1440141.0,4.2138,0.3879,-3.3591,-2.2429,-2.7606,0.3001
1440151.0,4.9704,0.2921,-4.6926,-2.427,-2.5424,0.2613
1440161.0,5.8371,-0.0814,-5.2146,-2.5398,-2.17,0.2474
1440171.0,6.371,-0.486,-5.3199,-2.5733,-1.7655,0.24
1440181.0,6.8426,-1.1277,-4.944,-2.5706,-1.4314,0.2139
1440191.0,7.2161,-1.8004,-4.063,-2.4121,-1.1244,0.1596
1440201.0,7.0533,-2.1596,-3.0311,-1.9656,-0.8482,0.0931
1440211.0,6.7588,-2.1308,-2.3152,-1.1973,-0.6167,0.0399
1440221.0,6.6894,-1.5754,-2.5187,-0.1719,-0.4017,0.0117
1440231.0,6.4093,-0.4453,-3.9911,0.8248,-0.1692,0.033
1440241.0,5.6838,0.3472,-5.3726,1.3968,0.0165,0.0974
1440251.0,5.1068,0.7015,-6.517,1.6378,0.1862,0.1862
1440261.0,4.9057,0.6776,-8.0589,1.7001,0.3826,0.2703
1440271.0,4.8842,0.0048,-9.007,1.4755,0.4715,0.2799
1440281.0,5.3151,0.1341,-12.2631,1.052,0.2959,0.19
1440291.0,5.8083,0.2346,-16.702,0.2277,-0.2591,-0.0064
1440301.0,5.387,3.1508,-27.6363,-0.1064,-0.7322,-0.2139
1440311.0,2.7677,8.5042,-40.2441,0.1336,-0.3698,-0.2746
1440321.0,-5.3678,13.2878,-50.623,1.2632,1.6666,0.1288
1440331.0,-12.4044,15.9597,-60.195,2.7505,4.7693,0.9621
1440341.0,-23.0011,14.0324,-61.3418,3.4827,8.5601,1.8113
1440351.0,-39.2098,11.8824,-55.5311,3.894,12.6872,2.312
1440361.0,-57.8511,10.6015,-47.3094,4.6182,16.5726,2.4472
1440371.0,-78.4532,6.9839,-35.8388,5.8916,17.4357,2.2551
1440381.0,-78.4532,1.8675,-16.7834,6.5886,17.4357,1.4755
1440391.0,-78.4532,3.5841,3.2848,6.4966,17.4357,0.1543
1440401.0,-78.4532,2.0638,31.2707,4.0382,17.4357,-1.3079
1440411.0,-78.4532,-5.0757,43.8642,0.5896,17.4357,-2.2737
1440421.0,-78.4532,-7.8745,78.4508,1.1105,17.4357,-2.7457
1440431.0,-71.6585,-2.9257,78.4508,0.3709,14.689,-3.5417
1440441.0,-61.9476,-3.4931,78.4508,-0.2735,5.0439,-3.5359
1440451.0,-58.2461,9.8282,78.4508,2.8489,-0.9578,-2.7409
1440461.0,-56.0507,12.5145,74.0814,3.7897,-5.1168,-1.88
1440471.0,-55.4976,17.0826,53.4889,4.6762,-9.6291,-0.8115
1440481.0,-51.2072,14.3939,36.9593,4.4751,-13.3331,0.1666
1440491.0,-42.7557,13.2495,8.5569,5.8415,-14.8119,1.1334
1440501.0,-32.7766,13.9486,-10.5465,5.6372,-13.8051,1.7815
1440511.0,-11.6885,10.9343,-26.0609,4.4463,-11.1478,2.1104
1440521.0,-13.7236,10.0916,-23.2166,2.7132,-5.6947,2.0619
1440531.0,-7.2496,3.8475,-11.1043,0.107,-3.7259,1.6341
1440541.0,-5.4181,1.2641,-4.4221,-0.3879,-2.1279,1.1063
1440551.0,-6.5266,2.1548,3.5219,0.0548,-0.4922,0.6369
1440561.0,-6.6631,3.5003,10.7093,0.3219,-0.2128,0.2847
1440571.0,-6.7564,5.9233,13.2878,0.8721,-0.5007,0.1495
1440581.0,-7.6591,8.5401,13.805,1.2978,-0.8258,0.1777
1440591.0,-7.2496,10.5225,13.2615,1.334,-1.3329,0.3214
1440601.0,-6.936,11.5544,11.5975,1.3164,-1.5586,0.6215
1440611.0,-7.1156,10.9846,10.9487,0.8402,-1.5937,0.928
1440621.0,-6.8953,9.3206,12.208,-0.041,-1.723,1.0669
1440631.0,-7.0797,7.932,13.3644,-0.829,-1.9023,1.0786
1440641.0,-7.0605,6.3566,14.3221,-1.6049,-2.2418,0.986
1440651.0,-7.4244,5.4037,15.2894,-2.3679,-2.8181,0.7886
1440661.0,-7.7764,5.4109,15.8999,-2.6361,-3.4034,0.6119
1440671.0,-8.2648,6.292,15.0619,-2.1173,-3.7988,0.5922
1440681.0,-8.3414,7.5609,12.5001,-1.2483,-4.0467,0.746
1440691.0,-7.8554,8.2959,9.56,-0.6391,-4.2175,1.003
1440701.0,-7.2042,7.8697,7.0677,-0.4044,-4.2463,1.3005
1440711.0,-5.9352,6.3255,5.6527,-0.448,-4.0925,1.5538
1440721.0,-5.2146,4.5633,5.2792,-0.696,-3.8844,1.6762
1440731.0,-4.7262,3.1651,5.3989,-1.085,-3.8131,1.6485
1440741.0,-4.2306,2.4972,5.4372,-1.425,-3.861,1.5208
1440751.0,-3.8666,2.4038,4.968,-1.5256,-3.8472,1.3931
1440761.0,-3.3662,2.5379,4.6567,-1.4644,-3.737,1.309
1440771.0,-2.9185,2.739,4.2473,-1.3537,-3.6349,1.2728
1440781.0,-2.4253,2.7485,3.5243,-1.2851,-3.5689,1.2787
1440791.0,-1.5921,2.3439,2.806,-1.2941,-3.488,1.2973
1440801.0,-0.838,1.719,1.8196,-1.392,-3.3555,1.3
1440811.0,-0.0814,0.9984,1.2234,-1.6958,-3.2347,1.2409
1440821.0,0.5411,0.1293,1.5083,-2.0896,-3.1097,1.1249
1440831.0,0.6871,-0.3376,2.3056,-2.3152,-2.9878,0.9892
1440841.0,0.6393,-0.5148,3.2154,-2.2647,-2.9229,0.8748
1440851.0,0.6201,-0.1532,3.3758,-1.905,-2.9075,0.8179
1440861.0,0.6584,0.0599,3.462,-1.4282,-2.8649,0.8344
1440871.0,1.1229,-0.1125,3.0789,-0.9259,-2.8362,0.9067
1440881.0,1.9273,-0.6776,2.3056,-0.6316,-2.8835,0.9626
1440891.0,2.6815,-1.336,1.0295,-0.6364,-3.0102,0.9461
1440901.0,3.3878,-1.9872,-0.1532,-0.8461,-3.1474,0.8519
1440911.0,4.1492,-2.296,-1.5897,-1.0025,-3.1799,0.7141
1440921.0,4.7309,-2.3224,-2.6504,-1.0094,-3.0144,0.572
1440931.0,5.0326,-1.9489,-3.8068,-0.8673,-2.7085,0.4581
1440941.0,5.1739,-1.6376,-4.1348,-0.7641,-2.3498,0.3831
1440951.0,5.7581,-1.5299,-3.8642,-0.6375,-1.9827,0.3443
1440961.0,6.1459,-1.2115,-3.0454,-0.4145,-1.608,0.3193
1440971.0,6.6128,-0.4357,-2.5259,-0.1687,-1.3361,0.3102
1440981.0,6.6679,0.5938,-3.4357,-0.2102,-1.3489,0.3347
1440991.0,7.0437,-0.0982,-3.9768,-0.6683,-1.6692,0.3964
1441001.0,7.7189,-0.668,-7.3574,-0.7934,-1.9816,0.4768
1441011.0,8.0325,-1.7885,-10.9511,-0.5396,-1.9369,0.5598
1441021.0,7.9918,-2.4972,-15.0236,0.2065,-1.3324,0.6279
1441031.0,6.0525,-2.7677,-18.1768,1.2435,-0.2996,0.638
1441041.0,5.1882,-3.1987,-20.1113,2.1716,0.68,0.5561
1441051.0,4.7788,-2.2649,-24.3251,2.8862,1.7166,0.3943
1441061.0,2.2146,-0.3112,-29.9203,2.7356,2.5089,0.133
1441071.0,1.834,2.7342,-37.8715,1.8241,3.0671,-0.1671
1441081.0,-4.6376,7.2161,-46.5098,0.8477,4.6225,-0.2384
1441091.0,-12.5743,8.5305,-48.9925,-0.2405,6.9733,0.0442
1441101.0,-22.9077,5.9209,-42.2122,-0.5465,9.8829,0.6103
1441111.0,-35.0607,3.5626,-33.3105,0.8716,12.7526,1.1664
1441121.0,-43.596,-0.0455,-24.4855,3.1895,15.1056,1.4383
1441131.0,-51.7626,-2.6169,-13.8265,5.3743,17.1601,1.1717
1441141.0,-54.3603,-3.0789,-3.2154,6.8137,17.4357,0.4124
1441151.0,-58.3658,-2.5594,10.9008,7.0265,17.4357,-0.7556
1441161.0,-59.9364,-1.8675,25.8909,5.4547,17.4357,-2.1433
1441171.0,-62.0146,2.1596,37.0024,3.7434,16.0187,-3.4667
1441181.0,-67.7008,7.944,42.5569,2.27,14.0494,-4.2782
1441191.0,-61.8853,19.1488,52.8712,3.2847,13.8328,-4.217
1441201.0,-58.2629,21.8279,70.7702,2.0561,9.7361,-3.8413
1441211.0,-50.2136,23.0083,76.0159,2.0864,4.3899,-2.7106
1441221.0,-45.6071,26.0776,69.1038,4.374,0.7338,-1.1366
1441231.0,-40.7541,26.6235,58.0139,5.1296,-2.9447,0.2091
1441241.0,-36.9258,24.9739,43.9935,3.9701,-6.7286,1.0717
1441251.0,-32.5947,21.8351,29.5828,2.7015,-9.0731,1.6629
1441261.0,-26.1974,18.3659,14.0348,2.2961,-9.5269,2.1316
1441271.0,-20.9612,14.1018,5.4516,1.8427,-8.5665,2.378
1441281.0,-15.2223,9.6774,-0.917,1.7161,-7.0601,2.4264
1441291.0,-9.7851,5.1643,-2.8587,1.4904,-5.1791,2.1822
1441301.0,-6.8522,3.1963,-1.5083,1.1212,-3.2959,1.6506
1441311.0,-6.8402,3.4596,3.067,0.4172,-1.9832,0.9786
1441321.0,-6.5577,5.4731,6.4141,-0.4124,-1.7033,0.3469
1441331.0,-6.0094,7.7045,8.679,-1.2446,-1.9747,-0.0995
1441341.0,-5.4851,9.6103,8.8107,-1.6144,-2.2476,-0.248
1441351.0,-5.4133,11.1163,7.5393,-1.8369,-2.3902,-0.1745
1441361.0,-5.9927,10.9654,7.4555,-2.17,-2.4504,0.041
1441371.0,-5.9137,9.414,6.347,-2.2141,-2.428,0.3629
1441381.0,-4.9273,6.1435,5.8538,-2.1646,-2.1971,0.6316
1441391.0,-3.948,3.2441,6.4212,-2.0433,-1.7565,0.6971
1441401.0,-4.1204,1.5419,8.8274,-1.9438,-1.3191,0.5523
1441411.0,-4.197,1.4269,11.4179,-1.8565,-1.2946,0.2836
1441421.0,-4.4508,2.6145,12.3852,-1.7778,-1.6942,0.0208
1441431.0,-4.5011,4.2737,11.7651,-1.7703,-2.2131,-0.1368
1441441.0,-4.2832,5.5043,10.6231,-1.8033,-2.5408,-0.1511
1441451.0,-4.3,6.0717,9.8665,-1.8656,-2.6297,-0.0585
1441461.0,-4.5322,5.7557,9.9479,-1.9741,-2.6643,0.0915
1441471.0,-4.5873,4.4101,10.5273,-2.0571,-2.776,0.2512
1441481.0,-4.7022,2.5809,11.0732,-1.964,-2.9639,0.3719
1441491.0,-4.3646,0.8978,11.6238,-1.5756,-3.1134,0.4321
1441501.0,-4.0606,0.2251,11.1618,-0.9791,-3.2321,0.4209
1441511.0,-3.6751,0.3926,10.2544,-0.6391,-3.446,0.331
1441521.0,-3.5075,1.075,8.9615,-0.6572,-3.7674,0.2107
1441531.0,-3.2585,1.652,7.7045,-0.8471,-4.0403,0.1181
1441541.0,-2.9066,1.8986,6.4165,-0.9339,-4.1297,0.0857
1441551.0,-2.6312,2.0997,5.4636,-0.8828,-4.0249,0.0984
1441561.0,-2.2889,1.9992,5.023,-0.754,-3.8099,0.1469
1441571.0,-1.7765,1.6951,4.9153,-0.596,-3.5912,0.2102
1441581.0,-0.9816,1.3336,5.0159,-0.456,-3.4071,0.2597
1441591.0,-0.2418,1.0846,4.9105,-0.3868,-3.2799,0.2826
1441601.0,0.012,1.0151,4.7597,-0.4805,-3.2555,0.2671
1441611.0,0.3328,1.1109,4.3718,-0.671,-3.3321,0.2277
1441621.0,0.9337,1.2234,3.8379,-0.8051,-3.3619,0.1948
1441631.0,1.3862,1.5107,2.9736,-0.7455,-3.2145,0.1979
1441641.0,1.5778,1.6328,2.6743,-0.6715,-2.933,0.2304
1441651.0,2.0973,1.2833,3.0861,-0.6971,-2.7047,0.2618
1441661.0,2.3942,0.929,3.3303,-0.8099,-2.6526,0.2575
1441671.0,2.7701,0.6704,2.9975,-0.9982,-2.7558,0.215
1441681.0,3.1627,0.3591,2.0997,-1.2084,-2.8644,0.1532
1441691.0,3.5841,0.0192,1.154,-1.3686,-2.8473,0.0846
1441701.0,4.0677,-0.1413,0.1867,-1.4378,-2.6893,0.009
1441711.0,4.6017,-0.2466,-0.012,-1.4846,-2.4663,-0.0761
1441721.0,5.035,-0.1724,0.1796,-1.4058,-2.221,-0.1458
1441731.0,5.1404,-0.0144,0.5626,-1.1382,-1.9821,-0.1799
1441741.0,5.0446,0.2873,0.905,-0.7758,-1.8384,-0.1687
1441751.0,5.0254,0.4764,0.6512,-0.357,-1.8134,-0.1192
1441761.0,5.1978,0.7446,-0.7183,-0.0122,-1.8831,-0.0601
1441771.0,5.2433,1.1037,-4.0893,0.0442,-2.0731,-0.0053
1441781.0,6.45,0.8978,-7.6543,-0.2783,-2.1886,0.0234
1441791.0,6.1339,0.6464,-9.8019,-0.3166,-1.6432,0.0484
1441801.0,5.2553,0.6416,-10.3741,-0.0926,-0.9163,0.0484
1441811.0,4.9847,0.8092,-11.4251,0.2118,-0.4289,0.0208
1441821.0,4.8123,2.0518,-14.3461,0.4757,-0.0521,-0.0218
1441831.0,3.4381,4.2545,-18.8472,0.315,0.1878,-0.0596
1441841.0,3.1556,5.8131,-24.7441,-0.2517,0.191,-0.0298
1441851.0,-0.9194,9.9311,-34.2538,-0.4842,0.6194,0.1368
1441861.0,-3.2561,12.3421,-42.2912,-0.497,1.8342,0.5795
1441871.0,-8.2313,14.4849,-48.734,-0.2251,3.8866,1.2627
1441881.0,-15.3205,13.7451,-49.2439,0.1325,6.4008,2.0928
1441891.0,-24.6292,11.4946,-45.6048,1.0131,9.1257,2.9144
1441901.0,-36.66,7.8482,-38.2354,2.6888,11.9651,3.6019
1441911.0,-50.3668,1.8818,-28.0241,5.3371,15.0072,3.9967
1441921.0,-62.4336,-4.0725,-19.5726,8.3584,17.4357,3.6982
1441931.0,-68.2587,-6.1794,-9.0046,10.3475,17.4357,2.3365
1441941.0,-70.1549,-5.3774,5.3343,9.8122,17.4357,-0.2336
1441951.0,-78.4532,1.9321,19.2853,5.5845,17.4357,-3.1916
1441961.0,-78.4532,2.2266,48.3198,0.2054,17.4357,-5.0572
1441971.0,-75.221,13.1154,63.3266,-0.3581,17.4357,-5.435
1441981.0,-68.4095,15.7299,78.4508,-2.3461,12.0821,-5.1099
1441991.0,-58.1719,21.871,78.4508,-0.9679,5.7873,-3.3603
1442001.0,-52.7969,24.9165,78.4508,2.1508,1.7916,-1.0222
1442011.0,-48.3701,21.6579,72.2426,4.3468,-2.4727,1.1238
1442021.0,-46.1818,16.8743,55.9693,4.9588,-7.0074,2.6276
1442031.0,-41.4101,8.169,38.6472,4.979,-10.3884,3.4428
1442041.0,-31.8668,2.5067,18.7753,5.4659,-11.6208,3.6561
1442051.0,-22.9197,-0.4788,4.2545,5.187,-10.9759,3.2512
1442061.0,-12.4355,0.5459,-9.6462,3.7785,-9.5025,2.3722
1442071.0,-6.6391,-0.1556,-10.8553,1.0754,-7.159,1.2137
1442081.0,-4.5131,1.1396,-9.3685,-0.4901,-4.5304,0.1368
1442091.0,-4.7094,3.4189,-3.948,-1.4899,-2.4983,-0.7343
1442101.0,-4.9344,6.4883,1.1444,-1.6974,-1.1957,-1.2483
1442111.0,-5.2146,9.9503,5.5857,-1.1047,-0.0639,-1.3819
1442121.0,-6.3422,12.7994,9.1866,-0.4927,0.6779,-1.2334
1442131.0,-7.2664,14.2623,12.797,-0.4007,0.7646,-0.9301
1442141.0,-7.3095,14.3341,14.8417,-0.5034,0.447,-0.513
1442151.0,-8.2241,13.295,16.4123,-0.7056,0.1479,-0.1059
1442161.0,-8.5138,11.4371,18.6101,-1.1201,-0.3485,0.1852
1442171.0,-8.3414,9.8258,19.5822,-1.4553,-0.9876,0.3331
1442181.0,-8.6957,8.916,20.1281,-1.7884,-1.6964,0.3698
1442191.0,-9.3063,8.1355,20.3914,-1.9757,-2.4552,0.3996
1442201.0,-9.5289,7.9655,19.1129,-1.806,-3.1666,0.4752
1442211.0,-9.402,7.999,16.5703,-1.516,-3.728,0.6029
1442221.0,-9.1578,7.9799,13.5584,-1.3893,-4.1058,0.7535
1442231.0,-8.7939,7.2951,11.2695,-1.5304,-4.3032,0.9003
1442241.0,-8.1738,5.7628,9.8019,-1.732,-4.3303,1.011
1442251.0,-7.3837,4.5514,8.6048,-1.9257,-4.3085,1.0254
1442261.0,-6.7421,3.7924,7.9751,-2.1402,-4.2968,0.9472
1442271.0,-6.0118,3.6823,6.9647,-2.2572,-4.309,0.8445
1442281.0,-5.5689,3.5674,5.8897,-2.3828,-4.3261,0.754
1442291.0,-4.8961,3.486,4.8052,-2.4562,-4.3075,0.6816
1442301.0,-4.2258,3.2753,4.0318,-2.3684,-4.1303,0.6518
1442311.0,-4.0151,2.8276,3.4309,-2.1316,-3.794,0.6689
1442321.0,-3.474,1.8962,3.9241,-1.9406,-3.4534,0.6774
1442331.0,-2.794,0.8811,4.6926,-1.8369,-3.2714,0.6279
1442341.0,-2.399,0.3879,4.9895,-1.8459,-3.3071,0.5071
1442351.0,-1.8244,0.079,4.7405,-1.9672,-3.4816,0.3528
1442361.0,-0.8116,0.1101,3.7876,-2.0454,-3.613,0.1979
1442371.0,0.079,0.6728,2.3104,-2.112,-3.6093,0.0601
1442381.0,0.4214,1.1349,1.2019,-2.2599,-3.4736,-0.0218
1442391.0,0.8523,1.2665,0.7159,-2.37,-3.2528,-0.0372
1442401.0,1.2043,0.972,0.905,-2.2343,-2.9112,0.0144
1442411.0,1.1875,0.6919,0.9816,-1.8369,-2.5121,0.1203
1442421.0,1.4341,-0.1891,1.6017,-1.475,-2.1673,0.2341
1442431.0,2.0063,-1.5993,2.2913,-1.2366,-1.9853,0.3065
1442441.0,2.6695,-2.8802,3.0215,-1.1781,-1.9981,0.257
1442451.0,3.1196,-3.3902,3.1651,-1.1855,-2.1338,0.0905
1442461.0,3.3399,-3.0454,3.0287,-1.1659,-2.2737,-0.1192
1442471.0,3.5674,-2.0351,2.4086,-0.9897,-2.3338,-0.2778
1442481.0,3.5554,-1.0104,1.992,-0.7428,-2.2998,-0.3374
1442491.0,3.4788,-0.3352,1.8411,-0.4486,-2.2492,-0.3006
1442501.0,3.486,0.1365,1.2809,-0.1612,-2.2652,-0.2001
1442511.0,3.8618,0.1245,0.2442,-0.0335,-2.3599,-0.0766
1442521.0,4.47,-0.4717,-1.1947,-0.1149,-2.4961,0.0245
1442531.0,5.0829,-1.312,-2.6959,-0.4252,-2.6638,0.0543
1442541.0,5.5857,-2.1835,-4.2713,-0.7513,-2.7904,0.009
1442551.0,6.7325,-2.3487,-7.2329,-0.803,-2.7776,-0.0825
1442561.0,6.3997,-1.9082,-8.3965,-0.4257,-2.0752,-0.1543
1442571.0,6.0932,-1.1468,-9.6917,0.0351,-1.4175,-0.1783
1442581.0,6.8139,-1.0678,-10.5776,0.182,-1.0616,-0.2219
1442591.0,6.6942,-0.158,-12.5073,0.5662,-0.5013,-0.2724
1442601.0,5.5234,1.9393,-15.1002,0.8312,0.1048,-0.3267
1442611.0,2.5259,4.7764,-18.2989,0.4145,0.3288,-0.3602
1442621.0,2.0973,7.8051,-23.6068,-0.3799,0.1607,-0.299
1442631.0,0.759,11.6167,-31.965,-0.8195,0.5635,0.0208
1442641.0,-3.9337,14.5352,-36.9449,-0.9615,1.6799,0.6029
1442651.0,-8.3127,15.876,-39.9544,-0.2011,3.1517,1.4245
1442661.0,-16.4051,16.4745,-43.0573,1.8667,5.6063,2.4158
1442671.0,-25.2612,13.1274,-44.5896,3.8264,8.2882,3.3374
1442681.0,-34.6561,6.0789,-45.1738,5.0811,11.1754,3.827
1442691.0,-47.1897,-1.1468,-40.8092,5.4621,14.5448,3.5614
1442701.0,-63.1471,-3.8618,-25.3474,5.7809,17.4357,2.7665
1442711.0,-75.4868,-3.2465,-12.3445,7.0015,17.4357,1.599
1442721.0,-78.4532,1.0223,0.2466,7.3006,17.4357,-0.2448
1442731.0,-78.4532,9.2368,20.0874,7.0569,17.4357,-1.9018
1442741.0,-78.4532,19.2087,25.6994,5.1429,17.4357,-2.9692
1442751.0,-78.4532,18.9094,63.6403,2.7324,17.4357,-3.1182
1442761.0,-74.7398,21.2198,78.4508,0.7114,16.6008,-2.8197
1442771.0,-62.7975,16.2949,78.4508,-0.7109,8.6165,-1.8012
1442781.0,-56.2374,16.5344,78.4508,1.3436,2.1093,-0.1703
1442791.0,-52.6269,9.1411,78.4508,2.5861,-3.7833,1.1696
1442801.0,-52.7323,5.7509,67.0257,3.0123,-9.744,1.8039
1442811.0,-53.4122,1.4102,46.1985,3.1352,-14.4985,1.922
1442821.0,-48.6885,-2.2218,19.9245,4.897,-16.5599,1.996
1442831.0,-35.5802,-0.0072,-5.296,5.9895,-16.2864,1.8762
1442841.0,-17.7674,3.2872,-30.0496,5.2301,-14.5118,1.5186
1442851.0,-9.7995,8.1403,-32.5061,3.0272,-8.236,1.0765
1442861.0,-4.4915,4.7597,-20.9804,-0.7274,-5.145,0.3927
1442871.0,0.1676,4.9728,-18.5838,-1.9129,-2.7436,-0.2889
1442881.0,-3.4979,4.4077,-1.6472,-2.2253,0.7684,-0.7902
1442891.0,-5.5952,7.5776,6.7852,-1.5256,1.8172,-1.0397
1442901.0,-6.268,8.5976,14.1449,-1.0855,1.7757,-1.0179
1442911.0,-5.9783,10.6925,17.3915,-0.1708,1.5208,-0.7322
1442921.0,-7.0749,13.1178,18.1816,0.3049,0.9509,-0.3549
1442931.0,-6.8354,13.1609,17.5902,-0.3549,-0.3108,0.0218
1442941.0,-7.173,11.9878,16.0675,-0.8716,-1.0589,0.4289
1442951.0,-6.5745,9.596,14.4346,-1.1446,-1.2984,0.7795
1442961.0,-6.201,6.8594,13.9486,-1.7746,-1.5751,0.9019
1442971.0,-6.9049,4.1468,15.8592,-2.4158,-1.9161,0.8226
1442981.0,-6.9887,2.5067,16.4889,-2.3115,-2.2535,0.6859
1442991.0,-7.0797,2.0255,15.7347,-1.8124,-2.5541,0.5044
1443001.0,-6.8929,2.5187,14.7004,-1.458,-2.9059,0.2794
1443011.0,-6.6511,4.1731,13.0891,-1.2302,-3.2283,0.0718
1443021.0,-6.5434,6.3829,10.9439,-1.1584,-3.4353,-0.0261
1443031.0,-6.5553,7.7907,9.1818,-1.3851,-3.5492,0.0085
1443041.0,-6.4045,8.2959,8.6646,-1.7459,-3.5811,0.1426
1443051.0,-6.6894,7.8817,8.8609,-1.8134,-3.4992,0.3842
1443061.0,-6.8091,6.6343,9.1866,-1.5341,-3.4055,0.6981
1443071.0,-6.1866,4.4628,8.7867,-1.1063,-3.3912,0.9935
1443081.0,-5.363,2.545,8.0445,-0.9057,-3.5066,1.1377
1443091.0,-4.6232,0.893,7.865,-0.9434,-3.6796,1.1169
1443101.0,-3.6296,0.3184,6.6822,-0.9078,-3.8211,0.9924
1443111.0,-3.0239,0.2873,5.7892,-1.0307,-3.8711,0.7907
1443121.0,-3.1125,0.9936,4.7285,-1.2537,-3.8935,0.5805
1443131.0,-3.1603,1.6735,4.0582,-1.6059,-3.9121,0.4124
1443141.0,-2.9856,1.8387,4.2689,-1.873,-3.8701,0.3241
1443151.0,-2.7964,1.7238,4.2784,-1.789,-3.7636,0.3363
1443161.0,-2.0327,1.1013,3.7781,-1.558,-3.7051,0.4076
1443171.0,-0.9505,0.1125,3.0478,-1.3995,-3.6961,0.4518
1443181.0,-0.0359,-0.7638,2.15,-1.3143,-3.6588,0.4427
1443191.0,0.7207,-1.3767,1.4629,-1.2755,-3.5428,0.3746
1443201.0,1.3144,-1.4605,0.589,-1.2872,-3.3938,0.2634
1443211.0,1.2019,-1.5682,0.9337,-1.376,-3.2049,0.1453
1443221.0,1.5131,-1.64,1.1995,-1.2185,-2.9974,0.075
1443231.0,2.1548,-1.6568,1.2498,-0.92,-2.7931,0.0388
1443241.0,2.7581,-1.8579,1.6041,-0.6832,-2.6643,0.0138
1443251.0,3.304,-1.9609,1.6664,-0.4443,-2.6201,-0.0208
1443261.0,3.9504,-2.0063,1.1588,-0.2192,-2.6074,-0.0548
1443271.0,4.5945,-1.8316,0.0742,-0.1139,-2.5877,-0.0958
1443281.0,4.7477,-1.7502,-0.656,-0.1905,-2.5281,-0.1463
1443291.0,5.1308,-1.719,-1.6616,-0.2943,-2.4153,-0.1878
1443301.0,5.8538,-2.0111,-2.6121,-0.481,-2.246,-0.2246
1443311.0,6.4093,-2.7485,-2.5546,-0.7795,-2.0705,-0.298
1443321.0,6.6774,-3.2226,-2.4349,-0.8892,-1.9646,-0.4012
1443331.0,6.8857,-3.0789,-3.6224,-0.7902,-1.9411,-0.5135
1443341.0,6.9312,-2.8539,-5.3726,-0.6614,-1.9289,-0.6151
1443351.0,8.1594,-2.0351,-9.7133,-0.3821,-1.8847,-0.679
1443361.0,7.8003,-1.0606,-12.0931,0.2086,-1.0988,-0.6902
1443371.0,6.9671,1.403,-15.3612,0.8487,-0.2565,-0.6486
1443381.0,5.6192,3.1125,-18.105,0.8429,0.2959,-0.5497
1443391.0,5.9017,5.3343,-23.0107,0.7152,0.8801,-0.3741
1443401.0,3.5817,6.596,-26.6786,0.166,1.7767,-0.1293
1443411.0,1.9656,7.0198,-31.8764,-0.9812,2.2742,0.1405
1443421.0,-0.6009,6.2489,-33.629,-1.9603,3.3092,0.448
1443431.0,-6.4596,5.8299,-30.8948,-1.6352,5.0615,0.8125
1443441.0,-10.8409,6.1411,-30.3513,-0.0958,6.4774,1.2036
1443451.0,-16.0507,6.7421,-30.8948,1.7762,8.0317,1.5394
1443461.0,-22.551,6.2656,-28.9196,3.1698,9.7472,1.7352
1443471.0,-29.5851,5.2146,-25.3235,3.8977,11.1738,1.7145
1443481.0,-38.3791,3.6823,-19.8862,4.3718,12.5919,1.525
1443491.0,-46.5624,1.0606,-12.0404,5.2339,14.4256,1.2324
1443501.0,-49.8856,1.0367,-6.201,6.1342,16.2512,0.6492
1443511.0,-54.3963,0.2442,5.6503,5.625,17.4357,-0.3911
1443521.0,-63.5325,3.7158,16.1728,4.3059,17.4357,-1.6001
1443531.0,-70.8109,8.7843,36.6121,2.8644,17.4357,-2.3833
1443541.0,-63.2692,16.7403,46.1315,3.4976,17.34,-2.4339
1443551.0,-57.9924,15.3492,68.9626,1.1111,13.4609,-2.5951
1443561.0,-50.4578,17.9398,71.8739,0.1751,8.103,-2.2407
1443571.0,-47.1251,19.9222,73.7965,0.3682,4.3841,-1.5431
1443581.0,-44.3598,20.2956,69.2044,1.21,0.8365,-0.6359
1443591.0,-42.6503,19.8575,62.8119,1.2462,-2.8819,0.141
1443601.0,-39.9592,16.6397,54.492,1.1898,-6.3811,0.8471
1443611.0,-37.3208,13.4123,40.3519,2.1865,-8.7038,1.6102
1443621.0,-32.5372,10.0365,24.5382,2.7989,-9.8787,2.2109
1443631.0,-25.1726,7.1587,12.3828,2.3482,-10.1085,2.4307
1443641.0,-18.5383,2.8036,2.5402,1.7581,-9.313,2.2993
1443651.0,-11.5089,1.075,-4.7477,1.0557,-7.5885,1.8491
1443661.0,-7.1204,0.3903,-6.6583,-0.2187,-5.3626,1.1307
1443671.0,-5.8035,-0.2538,-2.5067,-1.6235,-3.347,0.2416
1443681.0,-6.1531,1.7047,2.5881,-2.2317,-1.8661,-0.5922
1443691.0,-7.343,5.3079,7.9152,-2.1726,-0.8317,-1.1414
1443701.0,-8.3462,9.6127,12.2392,-1.8299,-0.3427,-1.3047
1443711.0,-9.5265,12.7204,16.0388,-1.7256,-0.4448,-1.0882
1443721.0,-10.0293,13.4027,18.4808,-1.8299,-1.0552,-0.5949
1443731.0,-10.0892,11.643,19.393,-1.98,-1.8975,-0.0138
1443741.0,-10.1825,8.5066,18.8065,-2.1056,-2.817,0.4571
1443751.0,-9.5624,5.3439,17.2311,-2.1987,-3.6838,0.6891
1443761.0,-9.1626,2.9999,14.8991,-2.2849,-4.4431,0.6683
1443771.0,-8.6718,1.47,12.8928,-2.3801,-5.0875,0.4667
1443781.0,-8.2265,1.1947,9.8258,-2.2609,-5.6175,0.1905
1443791.0,-7.5872,2.0423,5.8203,-2.0822,-5.9304,-0.0697
1443801.0,-6.7109,3.5219,1.7526,-1.9725,-5.9134,-0.2246
1443811.0,-5.8466,4.7285,-1.1779,-1.9465,-5.4738,-0.216
1443821.0,-4.9512,4.8866,-2.4445,-1.898,-4.7305,-0.0899
1443831.0,-4.0677,4.4412,-2.4038,-1.9193,-3.9786,0.067
1443841.0,-3.4477,2.6719,0.1197,-2.0167,-3.4092,0.1932
1443851.0,-2.9329,1.3695,1.6783,-1.7501,-3.1272,0.2767
1443861.0,-2.1476,0.1963,2.636,-1.3015,-3.0016,0.3187
1443871.0,-1.0463,-0.2897,2.2338,-0.8109,-2.9447,0.3278
1443881.0,-0.4717,-0.5674,1.8364,-0.5587,-2.8404,0.3145
1443891.0,-0.0934,-0.9505,1.7119,-0.513,-2.6967,0.298
1443901.0,0.3831,-1.5802,2.0806,-0.5561,-2.5132,0.2661
1443911.0,0.8619,-2.217,2.7294,-0.5928,-2.328,0.1878
1443921.0,1.1995,-2.5474,3.6823,-0.5428,-2.138,0.0745
1443931.0,1.8794,-2.6456,4.2066,-0.4512,-2.0114,-0.0623
1443941.0,2.2745,-2.7174,4.968,-0.53,-1.9991,-0.2299
1443951.0,2.2865,-2.6264,5.8586,-0.6598,-2.1018,-0.4124
1443961.0,2.715,-2.2051,6.1268,-0.5864,-2.2189,-0.5656
1443971.0,3.1268,-1.2617,5.3032,-0.4097,-2.2833,-0.6753
1443981.0,2.964,-0.0407,4.4963,-0.4422,-2.32,-0.7396
1443991.0,2.8922,0.6656,4.1803,-0.5906,-2.328,-0.7311
1444001.0,3.0095,0.7805,3.8427,-0.6188,-2.246,-0.6508
1444011.0,3.3088,0.4788,3.8906,-0.5263,-2.0885,-0.547
1444021.0,3.4931,-0.0096,4.5705,-0.3235,-1.9145,-0.4608
1444031.0,3.9337,-0.1891,4.7166,-0.0495,-1.8379,-0.4033
1444041.0,4.051,-0.0622,4.5035,0.0064,-1.9284,-0.3959
1444051.0,4.2066,0.1628,4.3479,-0.1298,-2.137,-0.4214
1444061.0,4.1132,0.5004,3.6871,-0.1463,-2.2961,-0.4177
1444071.0,4.3527,0.7805,2.2577,-0.0112,-2.3519,-0.3656
1444081.0,4.8387,0.5531,0.6393,-0.0112,-2.3519,-0.3033
1444091.0,5.43,-0.0742,-0.3089,-0.132,-2.3104,-0.2831
1444101.0,6.1723,-0.328,-1.5443,-0.1123,-2.154,-0.3044
1444111.0,6.4979,-0.2682,-2.5402,0.0303,-1.8411,-0.3421
1444121.0,6.505,0.1389,-3.0047,0.1979,-1.4729,-0.3837
1444131.0,6.45,0.8356,-3.0885,0.3469,-1.1589,-0.4113
1444141.0,6.4189,1.98,-4.1132,0.4172,-0.9929,-0.4028
1444151.0,6.1363,3.2489,-6.019,0.1527,-1.0062,-0.3725
1444161.0,5.5617,4.5801,-8.8011,-0.4715,-1.1605,-0.3241
1444171.0,6.6056,5.5067,-13.781,-1.2675,-1.3441,-0.2187
1444181.0,6.3446,5.4755,-16.4553,-1.5293,-0.7114,-0.0122
1444191.0,4.4293,5.4396,-16.3644,-1.3031,0.091,0.2219
1444201.0,4.5418,6.2728,-19.8886,-0.5406,0.3427,0.48
1444211.0,3.2346,8.2791,-27.8278,0.6018,0.7019,0.7753
1444221.0,0.668,11.7005,-37.5147,1.3627,1.4713,1.0834
1444231.0,-5.2768,16.2255,-46.5624,1.8491,3.1639,1.5623
1444241.0,-15.3181,18.4665,-51.437,2.071,5.7255,2.3195
1444251.0,-25.2349,16.3596,-52.0691,2.0295,8.7671,3.2603
1444261.0,-41.4173,10.9391,-43.9312,2.0971,12.445,4.1068
1444271.0,-57.7577,3.565,-29.9539,3.2033,16.0879,4.7385
1444281.0,-75.051,-2.4612,-15.0308,5.7798,17.4357,4.9417
1444291.0,-73.1285,-8.2983,-11.6574,8.2696,17.4357,3.9259
1444301.0,-75.7693,-9.2057,1.719,8.3957,17.4357,1.3079
1444311.0,-74.5267,3.0287,-0.2514,8.1211,17.4357,-1.4755
1444321.0,-78.4532,13.3309,20.389,4.4884,17.4357,-3.9312
1444331.0,-78.4532,11.7364,43.3566,-0.9658,17.4357,-5.1966
1444341.0,-78.4532,11.0181,67.8565,-5.0636,16.6902,-5.1354
1444351.0,-72.36,14.303,76.9089,-5.4126,11.7097,-3.7344
1444361.0,-62.1032,12.4498,78.4508,-3.4108,7.2256,-1.5639
1444371.0,-52.5623,8.0828,78.4508,0.8014,2.5004,0.7189
1444381.0,-46.6989,2.1811,73.4158,3.6466,-2.3711,2.17
1444391.0,-43.0118,-0.4381,57.6763,4.6065,-7.0782,2.6419
1444401.0,-40.4093,-2.332,40.5027,4.6773,-10.4773,2.5142
1444411.0,-36.4278,-2.2889,23.2429,4.6922,-12.0901,2.1386
1444421.0,-30.2244,-1.0678,9.3302,4.1648,-12.2083,1.6043
1444431.0,-24.1503,1.4676,-0.996,3.2342,-11.3265,1.0174
1444441.0,-17.4178,3.3064,-8.4946,1.8097,-9.9122,0.4826
1444451.0,-12.1266,3.0287,-9.5289,0.4422,-8.0498,0.0266
1444461.0,-9.4523,4.2162,-10.4866,0.2448,-5.6462,-0.2246
1444471.0,-8.5593,4.9512,-6.8091,-0.1676,-3.595,-0.3831
1444481.0,-7.9272,5.2577,-1.8579,-0.3757,-2.2993,-0.4491
