time_ms,ax,ay,az,gx,gy,gz
1772881.0,-0.431,12.0955,40.6727,-0.323,0.8567,-0.0883
1772891.0,-0.7087,11.0516,41.774,-0.3927,0.7907,0.0293
1772901.0,-0.3256,10.2472,41.956,-0.4119,0.7125,0.0899
1772911.0,-0.5076,9.6343,41.6112,-0.5593,0.6412,0.1075
1772921.0,-0.9002,9.1937,41.9081,-0.6274,0.712,0.1022
1772931.0,-1.1013,9.1459,41.9656,-0.7476,0.7934,0.1538
1772941.0,-1.7047,8.418,42.1667,-0.8093,0.7609,0.199
1772951.0,-2.4708,8.1882,41.7836,-0.8934,0.7939,0.2187
1772961.0,-3.055,7.7955,41.6591,-0.9397,0.8982,0.257
1772971.0,-3.4955,7.1826,41.9847,-0.9456,0.9956,0.2948
1772981.0,-3.486,6.3686,42.1858,-0.9344,1.0855,0.299
1772991.0,-3.5147,5.6407,41.9273,-1.1329,1.126,0.216
1773001.0,-3.3902,4.5681,42.8945,-1.3883,1.0573,0.0931
1773011.0,-2.9497,3.984,43.4691,-1.5931,0.9961,-0.0841
1773021.0,-3.1795,3.3232,44.2832,-1.7405,0.9498,-0.2911
1773031.0,-3.5051,3.1699,44.3023,-1.7384,0.8562,-0.4986
1773041.0,-3.6775,2.9305,44.695,-1.6964,0.8642,-0.738
1773051.0,-4.0893,2.8826,45.2408,-1.4841,1.0036,-0.9264
1773061.0,-4.4724,2.8156,47.0796,-1.2377,1.0546,-1.1627
1773071.0,-4.3574,2.2505,49.4834,-0.9248,0.9115,-1.3867
1773081.0,-4.2617,2.1835,51.4275,-0.7226,0.4603,-1.6836
1773091.0,-4.1468,2.6049,51.8105,-0.6284,-0.1602,-1.9933
1773101.0,-4.051,3.8786,51.1689,-0.6008,-0.6369,-2.2716
1773111.0,-4.3096,5.296,50.3932,-0.6992,-1.0131,-2.486
1773121.0,-4.6543,6.608,48.9662,-0.8445,-1.293,-2.6505
1773131.0,-5.2481,8.2265,48.315,-0.9876,-1.3468,-2.7212
1773141.0,-5.6503,9.5768,49.2248,-1.0578,-1.2451,-2.6787
1773151.0,-5.0661,9.9886,51.4753,-0.9988,-1.2803,-2.5536
1773161.0,-5.0278,10.2568,53.4003,-0.9754,-1.773,-2.4589
1773171.0,-4.5203,10.2376,54.2813,-1.0382,-2.4791,-2.37
1773181.0,-4.1851,10.5249,54.8464,-0.8939,-3.0777,-2.2785
1773191.0,-4.3958,10.4866,54.1377,-0.6981,-3.7471,-2.1641
1773201.0,-4.1276,10.659,51.4083,-0.5928,-4.3213,-2.0752
1773211.0,-3.7541,10.7835,48.9088,-0.646,-4.657,-2.0103
1773221.0,-3.553,11.3868,46.7444,-0.8205,-4.8678,-1.9672
1773231.0,-3.371,11.789,45.0397,-1.0264,-4.9646,-1.8874
1773241.0,-2.9018,12.3828,43.9863,-1.0962,-4.9673,-1.7645
1773251.0,-2.5379,12.5456,43.2393,-1.1254,-4.9561,-1.5931
1773261.0,-1.5227,12.2966,42.9711,-1.0669,-4.8763,-1.3957
1773271.0,-0.6895,11.5401,42.3965,-1.1621,-4.9167,-1.2329
1773281.0,-0.182,10.7931,42.205,-1.4058,-5.1913,-1.1467
1773291.0,0.2873,10.0078,40.8642,-1.5782,-5.4036,-1.0706
1773301.0,0.7087,8.7436,39.1596,-1.8039,-5.502,-1.0839
1773311.0,0.8428,8.0637,37.158,-1.938,-5.5308,-1.2292
1773321.0,2.4612,8.4851,35.3671,-2.1173,-5.2754,-1.2616
1773331.0,2.7773,8.3318,35.3671,-2.1918,-5.0168,-1.2733
1773341.0,3.7541,8.6287,34.036,-2.0933,-4.7949,-1.2584
1773351.0,4.5681,8.6862,33.6433,-2.1726,-4.4932,-1.1914
1773361.0,4.9033,8.5329,33.0113,-2.1311,-4.2798,-1.0993
1773371.0,5.4779,7.9679,32.475,-2.1151,-4.0052,-1.0248
1773381.0,6.3015,7.3837,31.6897,-1.9071,-3.5854,-0.9557
1773391.0,6.7325,6.8761,30.9331,-1.8161,-3.1645,-0.9461
1773401.0,6.7708,6.7995,31.0576,-1.682,-2.7276,-0.9179
1773411.0,7.355,6.7804,31.3353,-1.5266,-2.427,-0.9168
1773421.0,8.102,7.106,30.7032,-1.4447,-2.1636,-0.9062
1773431.0,8.4946,8.0254,30.3776,-1.6809,-1.8736,-0.8397
1773441.0,8.5712,8.169,30.866,-1.8959,-1.5697,-0.7221
1773451.0,8.6766,8.3031,30.9427,-2.0806,-1.3526,-0.5901
1773461.0,9.098,8.0349,32.1206,-2.311,-1.1653,-0.4507
1773471.0,8.8681,7.92,32.5037,-2.4232,-1.1504,-0.3102
1773481.0,8.6574,7.9296,32.542,-2.4914,-1.2537,-0.1517
1773491.0,8.6383,7.7381,31.7758,-2.4605,-1.3329,0.0623
1773501.0,8.7819,6.7421,30.2914,-2.378,-1.2755,0.2246
1773511.0,9.0884,6.1292,29.3529,-2.2311,-0.9876,0.3586
1773521.0,9.5193,5.2481,28.5006,-2.0901,-0.5534,0.4347
1773531.0,9.5193,4.6543,28.1941,-1.9544,-0.0218,0.4741
1773541.0,9.3278,4.051,28.491,-1.7288,0.3884,0.5358
1773551.0,9.1171,4.2234,28.7975,-1.7363,0.6683,0.58
1773561.0,8.6479,4.2425,28.7113,-1.9667,0.7333,0.6162
1773571.0,8.1786,3.7733,28.7113,-2.3046,0.6737,0.6747
1773581.0,7.8243,3.1699,28.3186,-2.4967,0.687,0.7221
1773591.0,7.8147,2.6624,26.9108,-2.494,1.0323,0.7726
1773601.0,7.6806,1.8962,26.2404,-2.2689,1.7459,0.8157
1773611.0,7.4029,1.5323,26.3745,-1.8161,2.5776,0.7944
1773621.0,6.7804,1.7142,28.5676,-1.1749,3.2954,0.8429
1773631.0,6.0525,2.308,29.305,-0.5608,3.8866,0.919
1773641.0,5.5067,2.8539,30.6745,-0.2932,4.2122,1.0573
1773651.0,5.2672,2.8539,31.1725,-0.2778,4.4463,1.1669
1773661.0,4.7214,2.6719,32.2451,-0.2985,4.6799,1.2749
1773671.0,4.6352,2.4134,33.0208,-0.2703,5.0684,1.3505
1773681.0,3.9169,2.6049,34.5914,-0.1176,5.5159,1.3968
1773691.0,3.2274,2.7581,37.1676,0.2203,5.8804,1.4862
1773701.0,2.3367,3.0933,39.3032,0.5773,6.1257,1.6134
1773711.0,2.1452,3.4955,41.3335,1.0828,6.2635,1.7698
1773721.0,1.5131,4.4724,42.7796,1.1494,6.1475,1.9268
1773731.0,-0.2011,4.3766,44.5513,0.9434,5.6063,2.0955
1773741.0,1.8675,4.0989,43.1914,0.5763,5.1673,2.2636
1773751.0,0.3065,2.6528,43.9288,0.041,4.7757,2.3243
1773761.0,0.565,2.0111,42.6934,0.0399,4.7209,2.3083
1773771.0,-0.2298,1.9441,43.2106,0.0591,4.9774,2.2854
1773781.0,-0.9768,1.743,44.1395,0.2841,5.0902,2.2737
1773791.0,-1.5897,1.9824,45.6814,0.4039,5.0561,2.286
1773801.0,-2.3272,2.3463,46.256,0.5156,4.8108,2.3158
1773811.0,-3.0454,2.5379,46.0166,0.5678,4.5863,2.3812
1773821.0,-3.6871,2.3367,45.2121,0.6481,4.5134,2.4568
1773831.0,-4.1659,2.1165,44.1874,0.6651,4.6155,2.5009
1773841.0,-4.6352,1.8387,44.4077,0.6066,4.905,2.4834
1773851.0,-5.7365,2.1165,45.3174,0.6103,5.1721,2.4674
1773861.0,-6.359,2.0399,47.386,0.7524,5.4291,2.4956
1773871.0,-7.1443,1.81,49.9909,0.9738,5.4754,2.4903
1773881.0,-7.7572,1.6855,52.5288,1.0594,5.245,2.4349
1773891.0,-8.2839,2.1931,53.86,1.0387,4.7805,2.3605
1773901.0,-9.2991,3.2274,54.0515,0.7508,4.1957,2.337
1773911.0,-9.9407,3.9648,53.8312,0.4097,3.7088,2.3418
1773921.0,-10.4962,4.7692,53.9845,-0.0165,3.3991,2.4594
1773931.0,-10.9559,4.4149,54.741,-0.2943,3.0894,2.5956
1773941.0,-11.3581,3.7254,56.6755,-0.3448,2.7388,2.7638
1773951.0,-11.0325,2.6624,57.7386,-0.2065,2.453,2.9341
1773961.0,-11.1953,1.1109,59.2517,0.1969,1.9598,2.9963
1773971.0,-11.0325,-0.2203,58.9836,0.4752,1.3154,2.9708
1773981.0,-11.1953,-0.5842,57.298,0.4315,0.7056,2.8819
1773991.0,-10.9463,-0.814,55.3539,0.0612,0.1341,2.7116
1774001.0,-10.6398,-0.6704,53.2279,-0.4981,-0.3044,2.5063
1774011.0,-10.659,-0.1245,51.8871,-1.2824,-0.6795,2.3487
1774021.0,-11.6262,0.565,51.6286,-2.0013,-1.0477,2.2152
1774031.0,-9.9695,1.245,51.0252,-2.4137,-1.2632,2.2567
1774041.0,-10.3238,0.9577,51.8584,-2.685,-1.541,2.402
1774051.0,-10.1227,0.4118,52.0499,-2.4222,-1.8672,2.6169
1774061.0,-9.6726,-0.8045,51.619,-2.1513,-1.9869,2.8319
1774071.0,-9.0501,-2.1356,50.3357,-1.7906,-2.2886,2.958
1774081.0,-8.0828,-3.1987,48.248,-1.6857,-2.4961,3.0463
1774091.0,-6.8283,-4.4628,45.8633,-1.6219,-2.4876,3.0197
1774101.0,-6.4643,-5.4013,44.829,-1.6235,-2.4653,2.8984
1774111.0,-5.1619,-5.9664,43.5074,-1.7714,-2.4445,2.7276
1774121.0,-4.6256,-6.5314,43.4021,-1.9805,-2.3674,2.5031
1774131.0,-3.8978,-6.9336,43.7181,-2.0316,-2.2998,2.2641
1774141.0,-3.7062,-7.0868,45.3174,-1.8922,-2.3918,2.0433
1774151.0,-3.6488,-7.0677,46.3326,-1.5777,-2.692,1.8773
1774161.0,-2.988,-6.5122,45.7963,-1.2404,-2.9548,1.756
1774171.0,-2.5857,-6.7516,44.9535,-1.2042,-3.2512,1.6565
1774181.0,-1.9058,-7.5944,43.7852,-1.1983,-3.5992,1.4873
1774191.0,-1.3024,-7.4986,41.9464,-1.3713,-3.7716,1.2866
1774201.0,-0.9864,-7.5274,41.5538,-1.6043,-3.9355,1.044
1774211.0,-0.3926,-7.7955,40.6344,-1.7613,-4.0818,0.8051
1774221.0,-0.2011,-7.8243,40.2896,-1.7746,-4.1207,0.5853
1774231.0,0.2298,-7.6806,39.8491,-1.7118,-4.1808,0.3751
1774241.0,0.7087,-7.5848,39.8108,-1.6102,-4.2596,0.2006
1774251.0,0.8045,-7.288,39.3032,-1.3564,-4.3873,0.0484
1774261.0,1.1109,-7.1251,38.3551,-1.0605,-4.4101,-0.0633
1774271.0,1.2258,-6.7804,37.2538,-0.7588,-4.4256,-0.149
1774281.0,2.2697,-6.177,35.099,-0.5688,-4.2532,-0.2293
1774291.0,2.739,-6.0717,34.419,-0.5539,-4.0419,-0.3193
1774301.0,2.9592,-6.0238,33.8827,-0.605,-3.943,-0.4071
1774311.0,3.2082,-5.7557,33.5859,-0.5422,-3.7929,-0.4853
1774321.0,3.6009,-5.7174,33.3752,-0.3954,-3.6407,-0.5534
1774331.0,3.7062,-5.8323,32.6856,-0.1277,-3.3582,-0.6087
1774341.0,4.6831,-6.1387,32.0153,0.1639,-3.0878,-0.6843
1774351.0,5.6024,-6.541,31.3736,0.2304,-2.8521,-0.8003
1774361.0,6.2537,-7.2209,30.8469,0.2661,-2.6457,-1.0259
1774371.0,6.7421,-7.3454,30.0137,0.2192,-2.3844,-1.2771
1774381.0,6.8474,-7.2496,29.3242,0.1203,-2.079,-1.5665
1774391.0,6.7038,-6.9623,29.1039,0.0149,-1.8927,-1.8395
1774401.0,7.5465,-6.3877,29.0943,-0.0527,-1.665,-2.1045
1774411.0,8.0158,-5.6982,28.0505,-0.1751,-1.3186,-2.3184
1774421.0,7.6519,-4.7022,27.5333,-0.2778,-0.9626,-2.4908
1774431.0,7.8913,-4.2042,27.1407,-0.3922,-0.431,-2.6042
1774441.0,7.8913,-4.2329,28.6347,-0.2719,0.107,-2.676
1774451.0,7.6806,-4.4436,29.9179,0.265,0.5481,-2.7436
1774461.0,7.4603,-4.1946,29.985,0.8514,0.9695,-2.8239
1774471.0,7.0677,-3.7158,29.3912,1.267,1.4463,-2.9229
1774481.0,6.4452,-3.055,29.3721,1.383,1.839,-3.0016
1774491.0,6.2824,-2.5857,29.8413,1.376,2.2594,-3.1049
1774501.0,6.0334,-1.5036,29.7839,1.0403,2.6207,-3.1735
1774511.0,5.7365,-1.1109,30.7799,0.5816,2.8271,-3.2411
1774521.0,5.2385,-0.8428,31.6801,0.1676,3.1474,-3.2911
1774531.0,4.367,-0.9864,34.2084,-0.0958,3.3374,-3.3252
1774541.0,3.6583,-0.929,36.5164,0.1394,3.537,-3.3358
1774551.0,2.8252,-0.7853,38.0199,0.6385,3.729,-3.2959
1774561.0,2.4708,-0.9098,39.1787,1.1744,3.8206,-3.2746
1774571.0,2.3559,-0.4884,39.5426,1.499,3.8642,-3.3156
1774581.0,1.6089,0.498,39.7916,1.3446,3.7083,-3.3209
1774591.0,1.3791,0.9002,40.5099,0.9935,3.3555,-3.3012
1774601.0,1.2354,0.8332,40.1651,0.5161,3.0517,-3.2874
1774611.0,1.0822,0.3831,39.3128,0.1112,2.9341,-3.322
1774621.0,0.5938,-0.2107,38.8148,-0.0702,2.9303,-3.4146
1774631.0,0.0862,-0.0096,38.9393,-0.1282,3.0384,-3.5093
1774641.0,-0.3926,0.8715,38.4221,-0.0388,3.2496,-3.5652
1774651.0,-1.0343,1.5131,38.2689,0.1607,3.5545,-3.5641
1774661.0,-1.6376,2.0877,38.6807,0.4124,3.9398,-3.4502
1774671.0,-2.0686,1.6951,39.7342,0.6433,4.2298,-3.3518
1774681.0,-2.1835,1.1971,40.0023,0.879,4.5549,-3.3385
1774691.0,-2.2218,0.7374,40.7014,0.9429,4.8502,-3.4013
1774701.0,-2.6624,0.6321,41.5825,0.9418,5.0253,-3.5157
1774711.0,-3.4477,1.4365,43.1818,0.7881,5.1599,-3.6657
1774721.0,-4.1946,2.3367,45.4228,0.5832,5.1211,-3.7296
1774731.0,-5.2289,2.8635,48.1139,0.6582,4.9699,-3.7253
1774741.0,-5.4109,3.2082,49.7515,0.8423,4.6507,-3.7136
1774751.0,-5.3056,3.5147,50.3644,1.0786,4.3367,-3.6934
1774761.0,-5.6503,4.6735,50.0388,1.2473,4.1622,-3.7024
1774771.0,-6.2441,5.8897,49.6174,1.3196,3.9999,-3.6758
1774781.0,-7.355,7.3646,49.0907,1.1004,3.9754,-3.5412
1774791.0,-8.1403,8.418,50.2304,1.0903,4.085,-3.3113
1774801.0,-8.4946,7.604,53.5439,1.1196,4.0435,-3.0096
1774811.0,-6.0621,5.6886,55.6604,1.3569,3.5678,-2.9442
1774821.0,-8.667,4.9895,56.2446,1.6288,3.3459,-2.9383
1774831.0,-9.4332,6.4931,55.8424,1.6341,2.8915,-2.9681
1774841.0,-8.3127,7.6519,57.9493,0.9519,1.9422,-2.9128
1774851.0,-7.9104,9.1267,56.0914,0.6343,1.2015,-2.8191
1774861.0,-9.4427,10.0748,55.5263,0.0298,0.7215,-2.6132
1774871.0,-9.9982,10.094,56.3499,-0.3267,0.1724,-2.3338
1774881.0,-9.5002,9.6917,56.5894,-0.4204,-0.5279,-2.0747
1774891.0,-9.2033,8.7628,55.4593,-0.3895,-1.0243,-1.8741
1774901.0,-8.8873,8.1882,54.5112,-0.2309,-1.3723,-1.7411
1774911.0,-9.0214,7.1826,54.3867,-0.0309,-1.7953,-1.6362
1774921.0,-8.4755,5.9376,52.433,0.1825,-2.13,-1.6213
1774931.0,-7.7764,5.3534,50.0963,0.0937,-2.5382,-1.7501
1774941.0,-7.0773,5.2768,48.066,-0.183,-2.8851,-1.9443
1774951.0,-6.6272,5.545,46.1698,-0.597,-3.0272,-2.1178
1774961.0,-6.8857,6.3782,44.9056,-0.9269,-3.1677,-2.2381
1774971.0,-6.9815,6.8091,44.1299,-1.0515,-3.0783,-2.2423
1774981.0,-6.9432,6.6846,44.5417,-0.8668,-2.8947,-2.1598
1774991.0,-6.2153,6.3303,44.1012,-0.5981,-2.8835,-2.1141
1775001.0,-5.5833,5.2481,44.4268,-0.3081,-2.9474,-2.1343
1775011.0,-5.0949,5.6886,43.201,-0.0952,-3.0581,-2.2349
1775021.0,-5.114,6.2249,41.1037,-0.0793,-3.1443,-2.3126
1775031.0,-4.7788,7.3454,39.4373,-0.1341,-3.0682,-2.3402
1775041.0,-4.4724,8.6191,37.7805,-0.4358,-2.9011,-2.2556
1775051.0,-4.7309,9.0118,37.8954,-0.5268,-2.7047,-2.1258
1775061.0,-4.6064,9.2991,38.0008,-0.5098,-2.3684,-1.9087
1775071.0,-4.4149,8.9064,38.9106,-0.3629,-2.0992,-1.6964
1775081.0,-3.7062,7.9392,40.1077,-0.1192,-1.972,-1.5304
1775091.0,-3.237,7.6327,40.6823,0.0415,-1.9396,-1.4883
1775101.0,-3.1316,7.8051,41.0366,-0.0027,-2.0736,-1.4527
1775111.0,-2.873,8.4084,40.4524,-0.1389,-2.2923,-1.3681
1775121.0,-2.7677,8.7245,40.3854,-0.3342,-2.419,-1.2616
1775131.0,-2.5857,9.2799,39.5331,-0.4363,-2.3823,-1.1148
1775141.0,-2.3272,9.4906,39.7629,-0.4858,-2.2801,-0.9083
1775151.0,-2.3655,9.4236,40.4333,-0.4879,-2.2029,-0.6662
1775161.0,-1.7334,8.7245,41.8602,-0.3118,-2.2524,-0.4299
1775171.0,-1.3503,7.3741,42.0039,-0.1368,-2.4802,-0.274
1775181.0,-0.5938,6.4069,41.7836,0.1208,-2.6904,-0.2081
1775191.0,-0.2203,5.8419,40.4141,0.2288,-2.8819,-0.2208
1775201.0,0.2011,6.1292,38.4605,0.009,-3.0804,-0.2671
1775211.0,0.2682,6.4739,36.9761,-0.232,-3.1368,-0.2815
1775221.0,0.5459,7.2592,35.2043,-0.4981,-2.9559,-0.2522
1775231.0,0.3543,7.6327,35.2043,-0.6173,-2.6877,-0.1761
1775241.0,0.8906,7.8626,35.166,-0.6215,-2.4983,-0.0277
1775251.0,1.1301,7.0485,35.597,-0.5965,-2.4227,0.1383
1775261.0,1.7813,6.4069,34.8787,-0.4039,-2.3908,0.2485
1775271.0,2.0973,6.1962,34.3903,-0.2559,-2.287,0.3145
1775281.0,2.8347,6.2058,33.0591,-0.107,-2.1237,0.323
1775291.0,2.9784,6.5505,32.0057,-0.0074,-1.9901,0.3767
1775301.0,3.0358,6.9432,30.55,0.0011,-1.7145,0.4778
1775311.0,3.304,7.5465,29.1135,-0.0484,-1.4026,0.6199
1775321.0,3.8116,7.853,28.2037,-0.3214,-1.0259,0.8407
1775331.0,4.1755,7.422,28.2133,-0.5082,-0.6258,1.0259
1775341.0,4.5777,6.7133,28.5963,-0.6343,-0.2948,1.1994
1775351.0,4.5681,5.8706,28.2612,-0.6673,0.0596,1.3133
1775361.0,4.5011,5.3343,28.1367,-0.7088,0.3624,1.3729
1775371.0,4.4436,5.1715,27.9834,-0.8024,0.6534,1.4287
1775381.0,4.2521,4.4819,28.0505,-0.7944,1.0323,1.5053
1775391.0,4.4628,4.1659,27.5525,-0.8434,1.4904,1.55
1775401.0,4.3383,3.371,27.7823,-0.7971,2.014,1.5532
1775411.0,3.7637,3.2657,28.8836,-0.6327,2.5557,1.5511
1775421.0,3.9169,3.1508,29.7168,-0.5784,3.0309,1.5735
1775431.0,3.0742,2.7869,31.6992,-0.6135,3.2847,1.5607
1775441.0,2.5857,2.49,32.7144,-0.4853,3.5694,1.5096
1775451.0,2.1739,2.7677,33.4997,-0.4502,3.8158,1.4473
1775461.0,1.5802,3.122,34.7734,-0.5018,3.8615,1.3893
1775471.0,1.1588,3.7828,34.5531,-0.7907,3.8706,1.3095
1775481.0,0.6129,4.8746,35.597,-1.1472,3.9414,1.3335
1775491.0,-0.5746,5.2194,36.7271,-1.2175,4.117,1.4463
1775501.0,-1.0918,5.5929,38.0295,-1.0828,4.3266,1.6341
1775511.0,-1.4653,5.296,39.2458,-0.978,4.5426,1.782
1775521.0,-2.1452,4.8746,40.7493,-0.7295,4.6491,1.8901
1775531.0,-3.0263,4.7214,41.8985,-0.5204,4.639,1.9699
1775541.0,-3.5817,4.7692,43.5553,-0.339,4.5315,2.0321
1775551.0,-4.0414,4.8842,44.6854,-0.3959,4.1249,2.1045
1775561.0,-3.6775,4.5298,44.58,-0.6705,3.5758,2.0928
1775571.0,-3.1891,4.8746,43.0765,-0.919,3.2736,2.0486
1775581.0,-3.5721,5.4684,41.9943,-1.1605,3.4428,2.0391
1775591.0,-4.5203,6.4356,42.1667,-1.0589,3.729,2.1593
1775601.0,-5.3056,7.1251,43.201,-1.0797,3.9839,2.3392
1775611.0,-5.8131,7.039,45.2887,-1.0419,4.0653,2.5637
1775621.0,-6.2249,6.8857,46.7252,-0.9365,3.9892,2.7973
1775631.0,-6.359,5.7748,48.0277,-0.7487,3.8419,2.9559
1775641.0,-6.5027,4.4819,48.813,-0.5082,3.7743,2.9777
1775651.0,-6.7229,3.6296,49.4929,-0.3778,3.5997,2.8883
1775661.0,-7.0773,3.8307,49.6557,-0.348,3.3411,2.6622
1775671.0,-7.1922,5.3151,49.4546,-0.5986,3.0575,2.4818
1775681.0,-8.102,7.4124,49.6749,-0.8349,2.8319,2.4631
1775691.0,-8.9256,9.6055,49.7324,-1.1164,2.6302,2.6547
1775701.0,-9.596,10.9942,49.56,-1.3154,2.5222,3.0298
1775711.0,-9.9407,11.2911,51.2455,-1.5101,2.3551,3.5109
1775721.0,-10.2376,10.6207,52.0978,-1.5782,2.0247,3.9946
1775731.0,-10.2472,9.2799,52.2798,-1.6618,1.6288,4.4426
1775741.0,-10.1131,7.2018,52.0883,-1.7629,1.202,4.7874
1775751.0,-9.9695,5.1523,51.5903,-1.8709,0.7689,4.9806
1775761.0,-10.0461,3.4572,50.6613,-1.7618,0.4076,5.0657
1775771.0,-9.7779,2.1644,49.7994,-1.5607,0.1634,5.1253
1775781.0,-9.6534,1.1205,48.4395,-1.2356,-0.0639,5.154
1775791.0,-9.2703,0.3831,45.8825,-0.9711,-0.0713,5.162
1775801.0,-9.098,-0.5267,43.517,-1.0211,0.0117,5.1237
1775811.0,-8.5425,-1.3982,41.774,-1.4362,0.2309,5.0231
1775821.0,-8.3701,-2.8635,41.0749,-2.2019,0.423,4.8757
1775831.0,-8.9447,-4.5681,42.0709,-2.9144,0.6114,4.6209
1775841.0,-9.0597,-6.1962,44.6758,-3.5109,0.8572,4.3372
1775851.0,-8.4851,-8.0158,50.1442,-3.4311,0.829,3.9791
1775861.0,-8.5617,-8.9352,54.5399,-3.2656,0.0958,3.5465
1775871.0,-8.2839,-9.1842,56.6564,-2.8777,-0.9977,3.1932
1775881.0,-7.9583,-8.9639,55.1145,-2.4387,-1.8523,2.8473
1775891.0,-7.7859,-9.1363,52.9693,-2.0252,-2.4264,2.5685
1775901.0,-7.4603,-9.165,50.5847,-1.7863,-2.7532,2.3009
1775911.0,-7.1156,-8.8107,47.8745,-1.5708,-2.9543,2.0199
1775921.0,-7.3358,-8.4851,46.0549,-1.574,-3.0756,1.7597
1775931.0,-7.1922,-8.3222,44.4651,-1.6229,-3.1613,1.5559
1775941.0,-7.0006,-8.2935,43.0765,-1.6261,-3.1666,1.3941
1775951.0,-6.7229,-8.3701,42.6934,-1.5176,-2.9963,1.1925
1775961.0,-6.1004,-8.1882,42.5785,-1.2558,-2.8436,1.0243
1775971.0,-6.0142,-8.1403,42.6647,-0.8817,-2.7244,0.8886
1775981.0,-5.9185,-8.0158,41.9081,-0.4454,-2.6457,0.7843
1775991.0,-5.3247,-7.2496,41.0175,-0.0984,-2.4722,0.679
1776001.0,-4.9512,-6.7612,40.213,0.1399,-2.2594,0.622
1776011.0,-4.7214,-6.1962,40.2609,0.2831,-1.9928,0.588
1776021.0,-4.7597,-5.7174,41.0079,0.3704,-1.8911,0.555
1776031.0,-4.1372,-5.2577,42.138,0.4166,-1.9252,0.589
1776041.0,-3.3519,-5.3822,42.1571,0.3778,-2.1758,0.5715
1776051.0,-2.7294,-5.7652,41.9081,0.2964,-2.3668,0.5108
1776061.0,-1.8962,-5.9376,41.3526,-0.0112,-2.6292,0.4017
1776071.0,-1.6759,-5.9376,40.2609,-0.3539,-2.916,0.248
1776081.0,-1.2067,-6.0238,38.8435,-0.6497,-3.0825,0.0846
1776091.0,-1.0822,-5.7557,38.087,-0.7678,-3.0985,-0.049
1776101.0,-0.6129,-5.7269,37.1293,-0.5821,-2.9703,-0.1282
1776111.0,-0.4597,-5.6407,37.1101,-0.1937,-2.7696,-0.1735
1776121.0,0.2394,-5.6695,36.3248,0.257,-2.543,-0.1607
1776131.0,0.9385,-5.9376,35.5874,0.5156,-2.4365,-0.1937
1776141.0,1.3982,-6.1483,35.0128,0.5672,-2.2854,-0.2256
1776151.0,2.2218,-6.5218,34.0743,0.4512,-2.2758,-0.3555
1776161.0,3.0646,-7.2784,33.4326,0.1554,-2.246,-0.555
1776171.0,4.0989,-7.7668,32.1972,-0.2022,-2.0561,-0.8237
1776181.0,4.4053,-7.8721,32.2068,-0.4805,-1.9422,-1.102
1776191.0,4.5107,-7.7093,32.4558,-0.6087,-1.8369,-1.3723
1776201.0,4.4341,-7.2496,31.8142,-0.4592,-1.6336,-1.6022
1776211.0,5.1044,-6.8378,31.1629,-0.0553,-1.3771,-1.7666
1776221.0,4.7022,-6.3782,30.4255,0.1713,-1.019,-1.8959
1776231.0,4.7597,-6.2249,29.6306,0.5502,-0.6827,-1.9991
1776241.0,5.2194,-5.8227,28.2228,0.6838,-0.1596,-2.1316
1776251.0,5.0661,-5.1523,27.6291,0.6529,0.2309,-2.2625
1776261.0,4.9991,-4.2329,26.8725,0.3746,0.5992,-2.3551
1776271.0,5.0374,-3.8499,26.997,0.0154,1.0036,-2.4749
1776281.0,4.7692,-3.8595,28.0026,-0.2602,1.4644,-2.5488
1776291.0,4.4245,-4.0701,28.9507,-0.3416,1.9901,-2.659
1776301.0,3.8882,-4.2138,31.0672,-0.0857,2.4701,-2.7606
1776311.0,3.1412,-3.5913,31.9291,0.298,2.8718,-2.8851
1776321.0,2.2505,-2.7102,33.7966,0.6263,3.165,-2.9426
1776331.0,1.7142,-1.6568,34.5818,0.9519,3.3768,-2.9399
1776341.0,1.245,-0.7949,35.0224,0.961,3.3486,-2.8963
1776351.0,0.9002,-0.929,35.8268,0.8354,3.2581,-2.8479
1776361.0,0.3543,-1.245,35.6544,0.7992,3.3097,-2.85
1776371.0,0.182,-1.1492,35.3001,0.6806,3.4332,-2.9335
1776381.0,-0.5171,-0.9768,35.8747,0.522,3.6955,-3.0538
1776391.0,-1.8004,-0.6129,37.6943,0.2112,3.7764,-3.124
1776401.0,-2.739,-0.8811,40.1364,0.1107,3.5657,-3.1868
1776411.0,-2.9497,-1.2641,40.7972,0.2639,3.3539,-3.2767
1776421.0,-2.6528,-1.3599,41.0175,0.7907,3.4513,-3.4146
1776431.0,-3.237,-0.4118,40.9792,1.3287,3.811,-3.571
1776441.0,-4.0606,1.3024,41.5346,1.6916,4.0041,-3.6998
1776451.0,-5.1044,3.2848,42.2433,1.6767,4.0877,-3.7184
1776461.0,-5.9568,5.5067,43.2584,1.525,4.0308,-3.604
1776471.0,-7.0677,6.9432,44.6758,1.1084,3.8541,-3.3555
1776481.0,-7.8721,7.5178,46.7157,0.8748,3.5348,-2.9894
1776491.0,-7.9775,7.5561,47.8074,0.6971,3.1331,-2.6079
1776501.0,-7.2018,6.1483,48.3246,0.5688,2.6957,-2.2764
1776511.0,-6.3686,4.367,47.4818,0.5539,2.5243,-2.1013
1776521.0,-5.9664,2.9209,47.6733,0.6784,2.5243,-2.0827
1776531.0,-5.8323,2.059,48.5353,0.878,2.477,-2.1189
1776541.0,-6.3015,2.1835,48.9854,1.0275,2.2455,-2.1519
1776551.0,-6.5601,2.0686,48.3054,1.0419,1.8065,-2.1779
1776561.0,-6.9432,2.0494,46.2081,0.8849,1.5543,-2.2253
1776571.0,-7.2592,1.3695,44.2257,0.687,1.6352,-2.2961
1776581.0,-7.106,1.1971,42.9137,0.4459,1.889,-2.3716
1776591.0,-7.8243,0.1628,44.58,0.0814,2.22,-2.4807
1776601.0,-7.9583,-0.4405,47.0987,0.1783,2.3626,-2.652
1776611.0,-8.0828,-0.565,49.1577,0.3033,2.3291,-2.8287
1776621.0,-8.5234,-0.4405,51.0061,0.4933,2.0401,-2.9937
1776631.0,-8.9256,0.0,51.935,0.6651,1.6203,-3.1203
1776641.0,-9.3661,0.1532,51.6094,0.8519,1.2329,-3.2773
1776651.0,-9.0405,0.68,49.7515,1.0243,1.1057,-3.4481
1776661.0,-9.5289,1.3216,48.8226,0.7412,1.052,-3.6561
1776671.0,-10.1993,1.5514,49.2248,0.538,1.0573,-3.8562
1776681.0,-10.659,2.8826,49.2918,0.2304,1.2111,-4.0653
1776691.0,-10.9367,3.5721,51.1976,-0.2442,1.2122,-4.2255
1776701.0,-11.0708,4.3,53.994,-0.7982,0.9663,-4.3564
1776711.0,-11.224,4.9608,57.9205,-1.0264,0.456,-4.4751
1776721.0,-10.975,6.0525,61.3682,-0.8711,-0.2022,-4.4857
1776731.0,-10.3621,7.2113,62.9579,-0.3368,-1.21,-4.433
1776741.0,-10.4866,8.6383,61.4831,-0.0234,-2.0768,-4.3053
1776751.0,-9.3853,9.8833,59.4337,0.4991,-2.8697,-4.1201
1776761.0,-10.5728,11.3581,55.3348,-0.1165,-3.5215,-3.9169
1776771.0,-12.4786,12.2487,54.1568,0.0085,-4.0105,-3.5385
1776781.0,-10.6973,13.532,52.5384,-0.9961,-4.4878,-3.0831
1776791.0,-9.3757,12.8233,53.362,-0.4273,-4.8369,-2.6435
1776801.0,-10.1035,12.9191,51.2742,-0.3363,-5.1583,-2.1843
1776811.0,-8.916,12.1913,49.4642,0.1937,-5.4398,-1.74
1776821.0,-7.8817,11.5401,47.1466,0.489,-5.4994,-1.2904
1776831.0,-7.3741,10.6494,44.5992,0.7391,-5.5329,-0.9179
1776841.0,-6.3686,9.8162,42.0709,0.6965,-5.4132,-0.6157
1776851.0,-5.3917,8.4755,40.1747,0.4991,-5.294,-0.4289
1776861.0,-4.5203,7.5944,40.1556,0.3629,-5.1844,-0.2804
1776871.0,-3.6488,6.3686,39.4086,0.4363,-5.0907,-0.1953
1776881.0,-2.806,5.6216,38.3743,0.4597,-4.9758,-0.1415
1776891.0,-1.9345,4.5203,36.6792,0.4523,-4.8571,-0.1948
1776901.0,-1.1109,3.6583,35.3193,0.3496,-4.7331,-0.2852
1776911.0,-0.1532,3.7254,33.9594,0.1415,-4.4894,-0.4454
1776921.0,0.3352,3.8211,33.6146,0.0059,-4.1212,-0.6045
1776931.0,0.6033,4.8363,33.4901,0.009,-3.8003,-0.6673
1776941.0,0.6991,5.9472,33.3369,-0.0798,-3.6109,-0.6486
1776951.0,0.9768,6.608,32.8772,-0.1815,-3.3874,-0.5688
1776961.0,1.6951,7.2784,32.7431,-0.3198,-3.1799,-0.4544
1776971.0,2.1452,7.5465,32.7527,-0.4635,-2.9628,-0.3209
1776981.0,2.241,7.6806,32.8484,-0.4406,-2.7058,-0.1421
1776991.0,2.5762,7.4508,33.3177,-0.3257,-2.453,0.0835
1777001.0,3.1603,6.9719,33.4901,-0.3549,-2.4041,0.2458
1777011.0,3.5817,6.608,32.6378,-0.3948,-2.2476,0.365
1777021.0,4.118,6.3494,32.5228,-0.5055,-2.0513,0.4592
1777031.0,4.1659,6.2728,32.3313,-0.6667,-1.9842,0.5369
1777041.0,4.4436,6.1387,32.0057,-0.746,-1.9401,0.622
1777051.0,4.5394,6.1675,32.0057,-0.6561,-1.8688,0.7136
1777061.0,4.5873,6.5505,29.7934,-0.8184,-1.7725,0.8668
1777071.0,4.7692,5.8897,29.6881,-1.0413,-1.608,0.9807
1777081.0,5.1523,5.4875,27.6291,-1.1776,-1.3127,1.1047
1777091.0,5.4684,4.8746,27.3705,-1.4399,-0.9615,1.1472
1777101.0,5.3247,4.5011,27.246,-1.4835,-0.5587,1.2542
1777111.0,5.6695,4.0797,27.5716,-1.3611,-0.1043,1.3675
1777121.0,6.0334,3.486,27.4759,-1.193,0.3693,1.4431
1777131.0,5.9664,2.8252,28.0217,-1.0679,0.7184,1.4915
1777141.0,5.7269,2.7677,28.1271,-1.0749,1.0227,1.5218
1777151.0,5.5641,2.8922,28.1271,-0.9903,1.2882,1.5234
1777161.0,5.43,3.6488,26.6618,-1.0695,1.765,1.5884
1777171.0,4.5298,3.7637,27.0928,-1.3489,2.2476,1.7193
1777181.0,4.4149,3.4955,28.8358,-1.4793,2.6419,1.8837
1777191.0,4.367,3.1316,30.1861,-1.4809,2.8862,2.0556
1777201.0,4.4341,2.2793,31.1534,-1.5123,3.0788,2.2386
1777211.0,4.2138,1.0822,32.1302,-1.3106,3.1698,2.3738
1777221.0,4.3096,-0.2011,32.4558,-1.0025,3.4683,2.4126
1777231.0,3.7733,-1.0247,32.5037,-0.6476,3.8019,2.3722
1777241.0,3.0837,-1.5131,33.0496,-0.3496,4.1345,2.2934
1777251.0,2.7485,-1.312,32.8101,-0.2591,4.4272,2.1849
1777261.0,1.9728,-0.6129,33.2698,-0.5699,4.5214,2.1088
1777271.0,1.2546,-0.2298,33.7487,-0.9988,4.5235,2.0513
1777281.0,0.6416,-0.1437,33.9785,-1.2829,4.7587,2.0869
1777291.0,-0.2011,-0.7278,35.597,-1.2755,5.1301,2.1668
1777301.0,-0.6225,-1.7142,37.723,-0.9621,5.5499,2.221
1777311.0,-1.2641,-2.3559,39.8874,-0.3358,5.9198,2.2264
1777321.0,-1.9441,-2.7485,41.525,0.1793,6.106,2.1811
1777331.0,-2.8922,-3.371,44.3789,0.763,6.1709,2.1205
1777341.0,-3.5434,-3.1603,45.1355,1.2228,6.0554,1.9672
1777351.0,-3.6679,-2.9401,46.6486,1.2707,5.7037,1.7799
1777361.0,-3.6871,-1.9824,46.1315,1.0935,5.2881,1.5591
1777371.0,-4.6352,-1.3599,46.323,0.7066,5.0391,1.3431
1777381.0,-5.612,-0.2777,46.6965,0.4209,4.8348,1.2079
1777391.0,-6.4165,0.5938,48.1809,0.0921,4.5629,1.1137
1777401.0,-7.0677,1.2737,49.5408,-0.0016,4.2564,1.0743
1777411.0,-7.5561,1.5802,50.3357,-0.0032,3.7408,1.0328
1777421.0,-8.0541,2.241,49.3014,0.0639,3.248,1.0185
1777431.0,-8.7436,2.7294,47.9319,0.1926,3.0479,0.9935
1777441.0,-9.0884,3.6775,46.6582,0.273,3.1145,0.9935
1777451.0,-9.9599,4.549,46.9359,0.3868,3.2943,1.0227
1777461.0,-11.0133,5.6886,47.884,0.654,3.298,1.0791
1777471.0,-11.4443,6.9049,47.7212,0.7226,3.1331,1.1563
1777481.0,-11.7986,7.9392,47.7978,0.7098,2.933,1.2792
1777491.0,-11.9135,9.5098,46.4284,0.4784,2.7037,1.4575
1777501.0,-12.0668,10.4004,45.8537,0.1112,2.7547,1.7107
1777511.0,-12.2775,11.3677,45.8729,-0.3698,2.8574,2.005
1777521.0,-13.1585,11.2336,47.568,-0.8631,2.809,2.3759
1777531.0,-13.4554,10.4196,49.1194,-1.0866,2.7383,2.7159
1777541.0,-13.4841,9.596,51.3317,-1.0844,2.5855,3.0809
1777551.0,-14.1354,8.7436,52.6629,-0.9466,2.3115,3.4263
1777561.0,-14.0683,7.5369,53.6493,-0.6593,1.9944,3.7519
1777571.0,-13.8864,6.3207,53.9078,-0.3166,1.6847,4.0318
1777581.0,-13.6086,4.9895,53.7738,-0.1112,1.2712,4.2399
1777591.0,-13.149,3.7733,53.3045,-0.1187,0.8322,4.3367
1777601.0,-12.4977,2.241,51.9829,-0.3374,0.2948,4.3521
1777611.0,-11.8465,0.7757,50.2878,-0.7923,-0.1607,4.2681
1777621.0,-11.3006,-0.3926,48.8609,-1.3053,-0.4986,4.0653
1777631.0,-10.6494,-1.5802,48.8704,-1.7496,-0.6981,3.8051
1777641.0,-10.5058,-2.2505,48.8992,-2.0188,-1.0727,3.5513
1777651.0,-10.1131,-2.7102,48.2575,-2.2524,-1.4676,3.3097
1777661.0,-9.9024,-3.0837,47.4339,-2.3184,-1.7267,3.0666
1777671.0,-9.4332,-2.9401,46.5145,-2.3046,-1.9337,2.8633
1777681.0,-9.3757,-3.2274,45.7101,-2.1673,-2.1375,2.6728
1777691.0,-8.9639,-3.5051,44.1012,-2.0321,-2.2391,2.4685
1777701.0,-8.3701,-3.304,42.023,-1.9725,-2.2317,2.2668
1777711.0,-8.3127,-3.0167,41.142,-1.8698,-2.0795,2.1029
1777721.0,-8.2169,-2.3655,40.0311,-1.6501,-1.7549,2.0162
1777731.0,-8.2361,-1.743,40.3279,-1.55,-1.3617,1.9848
1777741.0,-8.0541,-1.7334,41.9177,-1.2877,-1.0871,1.9795
1777751.0,-7.8913,-1.6472,42.5306,-1.1323,-1.0147,2.013
1777761.0,-7.3741,-2.0016,44.1395,-0.9849,-1.0488,2.0183
1777771.0,-7.1635,-2.1644,44.2927,-0.8221,-1.2563,2.0188
1777781.0,-7.1922,-2.2218,43.6415,-0.7098,-1.4484,1.9773
1777791.0,-6.8378,-2.2122,43.3734,-0.7072,-1.5149,1.9571
1777801.0,-7.0006,-2.806,43.3542,-0.6891,-1.5846,1.9071
1777811.0,-6.0908,-2.9209,42.8466,-0.6455,-1.7001,1.856
1777821.0,-5.861,-3.2848,42.7126,-0.7971,-1.7342,1.7836
1777831.0,-5.9951,-3.9361,42.2529,-0.8397,-1.8262,1.6804
1777841.0,-5.612,-4.2521,42.703,-0.7258,-1.8342,1.5607
1777851.0,-5.3822,-4.4436,43.0094,-0.6141,-1.8565,1.4585
1777861.0,-5.1619,-4.6448,42.5689,-0.5566,-2.0401,1.3159
1777871.0,-4.7692,-4.8267,42.5689,-0.4757,-2.138,1.1531
1777881.0,-4.2521,-4.7118,42.3582,-0.406,-2.1987,1.011
1777891.0,-4.1755,-4.9225,41.956,-0.3214,-2.2317,0.861
1777901.0,-4.0223,-4.5586,41.5538,-0.1889,-2.1641,0.705
1777911.0,-3.8499,-4.3383,41.4676,-0.1155,-2.1407,0.5848
1777921.0,-3.62,-3.8499,41.5633,-0.1309,-2.2631,0.4805
1777931.0,-3.1316,-3.4668,41.0845,-0.1479,-2.3796,0.4198
1777941.0,-2.9018,-3.3327,40.6152,-0.1176,-2.4594,0.3948
1777951.0,-2.5379,-3.304,40.0694,-0.1602,-2.5392,0.3688
1777961.0,-2.0494,-3.6679,39.715,-0.1857,-2.585,0.3331
1777971.0,-1.3791,-4.0797,38.9201,-0.1453,-2.5376,0.2671
1777981.0,-1.0439,-4.8171,38.5083,-0.0809,-2.4983,0.1703
1777991.0,-0.3352,-5.4396,37.8092,0.0239,-2.4621,0.0074
1778001.0,0.2107,-5.6312,37.4262,0.0138,-2.344,-0.2107
1778011.0,0.431,-5.5641,37.1484,0.0777,-2.362,-0.4331
1778021.0,1.0343,-5.1523,36.8324,0.0788,-2.3658,-0.6226
1778031.0,1.4269,-4.9129,36.2578,0.1133,-2.3631,-0.7934
1778041.0,2.1739,-4.6064,34.5148,0.058,-2.419,-0.9732
1778051.0,2.739,-4.118,33.0783,-0.0937,-2.2689,-1.1398
1778061.0,2.4995,-3.9935,32.6282,-0.2905,-2.1104,-1.2776
1778071.0,2.5857,-3.735,32.1876,-0.3241,-1.9012,-1.4016
1778081.0,2.8635,-3.5051,31.4981,-0.2128,-1.6799,-1.4681
1778091.0,3.2657,-3.486,30.4926,-0.2581,-1.4053,-1.516
1778101.0,3.5434,-3.9169,29.7073,-0.2214,-1.0233,-1.6027
1778111.0,3.7828,-4.3287,29.2859,-0.2629,-0.6178,-1.7507
1778121.0,3.4572,-4.5777,29.305,-0.2011,-0.2389,-1.9417
1778131.0,3.7733,-4.4149,29.0848,-0.1506,0.1346,-2.1582
1778141.0,3.4285,-4.2521,28.7975,0.0404,0.5635,-2.3594
1778151.0,2.9113,-3.3327,27.993,0.1687,1.0993,-2.5206
1778161.0,2.2601,-2.5666,28.5389,0.1979,1.6144,-2.6425
1778171.0,1.4174,-1.3695,28.4718,0.0351,2.0912,-2.6542
1778181.0,0.9481,-0.6033,29.8126,-0.1857,2.4642,-2.6185
1778191.0,0.4214,-0.4214,31.5364,-0.4076,2.6254,-2.5126
1778201.0,0.3065,-1.3886,33.3369,-0.4294,2.776,-2.4701
1778211.0,0.4884,-2.4134,33.6816,-0.3608,2.9575,-2.5648
1778221.0,0.4405,-3.1795,34.668,-0.1101,3.2688,-2.7537
1778231.0,0.2107,-2.3942,35.7119,0.282,3.6833,-2.9229
1778241.0,-0.5459,-1.1301,38.2498,0.8072,3.8807,-3.04
1778251.0,-0.9768,0.6704,39.9832,1.1861,3.8381,-2.9724
1778261.0,-1.8292,1.9537,41.209,1.2015,3.3129,-2.8032
1778271.0,-1.8579,1.6759,40.3662,0.9759,2.5909,-2.643
1778281.0,-1.5897,0.2969,37.3974,0.8189,2.4328,-2.634
1778291.0,-1.4078,-0.7757,34.9266,0.5433,2.8154,-2.7867
1778301.0,-2.4134,-0.9768,34.6393,0.1756,3.3252,-2.9958
1778311.0,-3.486,0.0479,36.7366,-0.2043,3.6216,-3.1363
1778321.0,-4.8171,0.6129,38.968,-0.5321,3.5524,-3.1384
1778331.0,-5.7174,0.0192,40.7302,-0.5954,3.2571,-3.0964
1778341.0,-6.0334,-0.9864,40.1843,-0.2921,3.3672,-3.0953
1778351.0,-6.359,-1.9058,39.7725,0.4427,3.9179,-3.1884
1778361.0,-7.0102,-1.9154,40.4045,1.2132,4.7002,-3.3449
1778371.0,-7.7572,-0.7757,43.6224,1.9662,5.3488,-3.4986
1778381.0,-9.0022,1.3695,46.3996,2.5967,5.5372,-3.5396
1778391.0,-9.8354,3.5243,49.0811,2.7313,5.2259,-3.4039
1778401.0,-11.2144,4.8554,51.3796,2.5339,4.4953,-3.1501
1778411.0,-11.5879,4.9991,52.0595,2.0146,3.4976,-2.8638
1778421.0,-11.5305,3.3327,51.437,1.5048,2.6127,-2.6983
1778431.0,-10.8505,1.0056,49.7132,1.268,2.2045,-2.7383
1778441.0,-10.5441,0.0958,48.3916,1.2781,2.369,-2.9527
1778451.0,-10.7835,0.4501,49.378,1.2217,2.5781,-3.1921
1778461.0,-11.5401,1.6664,51.7052,1.2255,2.4051,-3.364
1778471.0,-12.1147,3.3615,53.4769,1.2356,1.9236,-3.3496
1778481.0,-12.6031,3.7445,54.0515,1.2116,1.3361,-3.2299
1778491.0,-12.5552,3.4189,53.3141,1.1595,0.8322,-3.1549
1778501.0,-12.2679,2.7485,52.366,1.0658,0.4177,-3.1751
1778511.0,-11.8657,2.49,51.5903,0.9126,0.2112,-3.2682
1778521.0,-11.8178,2.7294,51.2168,0.6582,0.0085,-3.3949
1778531.0,-11.5401,3.0933,51.8105,0.4044,-0.2677,-3.4981
1778541.0,-11.4443,3.2561,52.7778,0.3326,-0.5539,-3.6045
1778551.0,-11.5592,3.7062,53.2279,0.2687,-1.0099,-3.6631
1778561.0,-11.4922,3.9552,53.1225,0.2506,-1.5389,-3.6721
1778571.0,-11.4347,4.0606,51.5232,0.1751,-1.9427,-3.7099
1778581.0,-10.8218,4.1468,49.2439,-0.009,-2.1774,-3.7482
1778591.0,-10.4387,4.2521,48.5161,-0.1979,-2.2742,-3.8062
1778601.0,-10.2663,4.1276,47.2711,-0.406,-2.4083,-3.8743
1778611.0,-9.9599,4.2234,46.2847,-0.6476,-2.4185,-3.9355
1778621.0,-9.73,4.3,46.5912,-0.7822,-2.3349,-4.0164
1778631.0,-9.5193,4.8171,48.2958,-0.6252,-2.453,-4.0792
1778641.0,-9.5385,5.3439,49.0045,-0.1394,-2.7367,-4.0563
1778651.0,-9.3278,6.0142,47.8936,0.3155,-2.9511,-3.9962
1778661.0,-9.1459,6.8378,45.7676,0.5087,-3.1315,-3.9265
1778671.0,-8.4276,7.7189,44.2448,0.4778,-3.2065,-3.8227
1778681.0,-8.102,8.6,42.5114,0.2613,-3.1592,-3.7131
1778691.0,-8.3127,9.2703,41.8698,-0.1282,-3.066,-3.5795
1778701.0,-8.2552,9.6247,41.3143,-0.7588,-3.1192,-3.4279
1778711.0,-7.4412,9.1075,41.9368,-1.3643,-3.1251,-3.3007
1778721.0,-7.0485,8.4276,44.3215,-1.6511,-3.1347,-3.2406
1778731.0,-7.355,8.5617,46.3326,-1.4335,-3.463,-3.1592
1778741.0,-6.6272,9.2416,46.6582,-1.0653,-3.7599,-3.0096
1778751.0,-6.7804,9.8641,46.8689,-0.6109,-4.0935,-2.7963
1778761.0,-6.5027,10.8984,45.4611,0.0261,-4.4155,-2.485
1778771.0,-6.359,11.4251,43.4021,0.5954,-4.5054,-2.1029
1778781.0,-5.9185,11.3964,40.8547,1.0062,-4.5166,-1.7145
1778791.0,-5.5067,11.3964,38.0965,0.9982,-4.5357,-1.3702
1778801.0,-4.367,11.2144,35.0224,0.6481,-4.4229,-1.0919
1778811.0,-3.8595,10.477,33.9402,0.2767,-4.0818,-0.8748
1778821.0,-3.4572,10.1323,33.4326,0.1208,-3.7631,-0.6689
1778831.0,-2.7485,10.0844,33.1357,0.1586,-3.3496,-0.4752
1778841.0,-2.241,10.0844,33.1836,0.3384,-2.8127,-0.2528
1778851.0,-2.3655,10.0365,33.6146,0.5465,-2.4738,-0.0255
1778861.0,-1.8866,10.3717,34.0168,0.6917,-2.0949,0.24
1778871.0,-1.245,10.1993,34.1892,0.8237,-1.7491,0.5268
1778881.0,-0.6129,9.8258,34.8596,0.8418,-1.5708,0.7455
1778891.0,-0.1628,9.5768,35.1852,0.7944,-1.4793,0.9227
1778901.0,0.1628,9.3374,35.3671,0.7753,-1.2898,1.0839
1778911.0,0.1053,9.73,35.6832,0.7551,-1.2579,1.2776
1778921.0,0.4118,9.4236,35.4246,0.7035,-1.2499,1.4889
1778931.0,0.5171,9.4619,35.0607,0.6279,-1.1462,1.6724
1778941.0,0.6991,9.2225,34.1317,0.3336,-1.1095,1.8693
1778951.0,1.6089,7.9966,33.7678,-0.0506,-1.1185,1.9736
1778961.0,1.1109,7.288,33.8636,-0.4778,-1.1068,2.0279
1778971.0,2.2505,7.0485,32.8101,-0.5773,-0.9663,2.1167
1778981.0,1.7909,6.2728,33.2794,-0.8854,-0.8556,2.1551
1778991.0,1.9249,6.043,33.1262,-0.8572,-0.9328,2.237
1779001.0,2.5379,5.2098,32.3121,-0.8221,-0.7732,2.303
1779011.0,2.7007,4.9033,31.5173,-0.6673,-0.547,2.3456
1779021.0,2.7581,4.4915,30.7224,-0.6013,-0.2964,2.3477
1779031.0,3.1125,4.5203,29.4487,-0.5108,0.0415,2.3918
1779041.0,2.806,4.7884,28.5197,-0.6071,0.3789,2.4232
1779051.0,2.6432,4.4724,28.5102,-0.8429,0.5789,2.4706
1779061.0,2.6911,4.3958,27.5142,-1.0669,0.8727,2.5243
1779071.0,2.9592,3.8307,27.4759,-1.4245,1.2366,2.5589
1779081.0,3.2082,3.1699,27.6004,-1.5681,1.6549,2.5935
1779091.0,2.9784,2.6815,28.0217,-1.525,2.1833,2.626
1779101.0,2.8347,2.0877,29.487,-1.2845,2.7164,2.6563
1779111.0,1.9058,1.9728,29.9658,-0.9982,3.1528,2.6749
1779121.0,1.5419,1.6376,29.9563,-0.7827,3.6327,2.6882
1779131.0,0.8906,0.996,31.5364,-0.6045,4.0159,2.6707
1779141.0,0.5267,-0.2011,32.8484,-0.4204,4.2851,2.5424
1779151.0,0.1341,-0.5363,33.8349,-0.2059,4.4671,2.3275
1779161.0,-0.0383,0.3639,33.5571,-0.125,4.6879,2.1162
1779171.0,-0.498,1.5323,34.0264,-0.2469,5.0827,1.9827
1779181.0,-1.5514,2.6815,35.032,-0.2735,5.485,1.9598
1779191.0,-3.0167,3.6871,37.5507,-0.3677,5.7479,2.0502
1779201.0,-3.8307,3.5913,39.9832,-0.348,5.7622,2.2248
1779211.0,-4.3191,2.9975,41.8411,-0.2618,5.683,2.3546
1779221.0,-4.8363,2.1069,43.0956,-0.1793,5.5095,2.378
1779231.0,-5.0087,1.3982,44.8195,0.1112,5.4701,2.3301
1779241.0,-5.5354,1.6855,45.6909,0.564,5.4068,2.2311
1779251.0,-6.1483,2.3655,46.007,0.8317,5.2748,2.1183
1779261.0,-6.4548,3.8307,46.2751,0.7583,5.0274,2.0731
1779271.0,-6.7804,5.1619,45.7101,0.1735,4.5847,2.1178
1779281.0,-7.1922,5.8131,45.5569,-0.6093,4.1601,2.237
1779291.0,-7.671,5.3247,45.7293,-1.2654,3.8562,2.402
1779301.0,-7.9966,4.1755,46.3805,-1.5985,3.6577,2.5398
1779311.0,-8.0254,2.5666,46.8785,-1.5735,3.5742,2.6265
1779321.0,-8.102,1.1301,47.9319,-1.2872,3.5258,2.5728
1779331.0,-8.6,0.6225,48.8513,-0.8477,3.3896,2.4866
1779341.0,-8.9447,0.4501,48.7938,-0.3954,3.1538,2.3706
1779351.0,-9.5002,1.2833,47.6829,0.0777,3.0251,2.2556
1779361.0,-10.228,2.375,46.4379,0.2826,2.9554,2.1992
1779371.0,-10.5824,3.2848,45.6814,0.3975,3.0038,2.2051
1779381.0,-10.7739,3.9169,44.8769,0.1314,3.0644,2.2402
1779391.0,-11.0899,3.5434,45.6718,-0.2315,2.9213,2.278
1779401.0,-10.9559,2.8156,45.4803,-0.6337,2.7537,2.228
1779411.0,-10.975,2.3655,46.5529,-1.0153,2.684,2.1535
1779421.0,-11.6741,1.6185,47.1658,-1.2324,2.4637,2.0007
1779431.0,-11.9135,1.7813,48.4012,-1.226,2.1992,1.8177
1779441.0,-12.2775,2.739,48.1139,-1.2244,1.9358,1.7102
1779451.0,-12.7659,3.0263,48.3054,-1.1632,1.5761,1.6426
1779461.0,-12.3637,4.3096,47.0413,-1.1291,1.417,1.6384
1779471.0,-13.0628,5.3151,46.5816,-1.0999,1.3276,1.7421
1779481.0,-13.6182,5.9759,45.4515,-1.0951,1.4239,1.9177
1779491.0,-13.8289,5.6503,46.0166,-1.1361,1.574,2.13
1779501.0,-13.9247,5.4109,47.2232,-1.1355,1.5628,2.3035
1779511.0,-13.7427,4.5969,49.1961,-1.0477,1.4223,2.4248
1779521.0,-13.9055,4.4436,50.0197,-0.9323,1.0589,2.5584
1779531.0,-13.7714,4.3287,49.9335,-0.9807,0.6295,2.6787
1779541.0,-14.1928,3.9648,49.8569,-1.1217,0.2575,2.8223
1779551.0,-14.7387,3.1891,49.7707,-1.2223,-0.0968,2.9532
1779561.0,-14.5759,1.8866,48.9949,-1.3127,-0.3938,3.0197
1779571.0,-14.3173,0.3831,48.8992,-1.4309,-0.6369,2.9931
1779581.0,-14.1354,-1.4844,49.1961,-1.4144,-0.82,2.9091
1779591.0,-13.2064,-2.8443,49.1577,-1.3542,-0.9903,2.7079
1779601.0,-11.8465,-4.3287,50.1633,-1.2563,-1.2366,2.3945
1779611.0,-11.4634,-4.7597,50.4506,-1.1068,-1.5852,2.0077
1779621.0,-11.4347,-4.2521,50.7092,-1.0179,-2.0199,1.649
1779631.0,-11.0421,-3.1891,49.56,-0.9642,-2.4419,1.4101
1779641.0,-10.908,-1.81,48.2001,-1.0137,-2.8005,1.2191
1779651.0,-10.7643,-0.9768,46.4092,-1.1994,-3.0596,1.1158
1779661.0,-10.3334,-0.3256,45.509,-1.334,-3.2065,1.0802
1779671.0,-9.7205,0.3926,44.6662,-1.3569,-3.2597,1.0717
1779681.0,-9.4044,0.8811,43.6511,-1.4175,-3.3076,1.1233
1779691.0,-8.5808,1.0439,43.9001,-1.2755,-3.3188,1.2563
1779701.0,-8.1882,1.1492,43.6798,-1.0605,-3.447,1.3877
1779711.0,-7.7189,0.5938,42.8945,-0.829,-3.5875,1.5309
1779721.0,-6.7325,0.2682,40.9887,-0.5635,-3.5364,1.6474
1779731.0,-6.0334,-0.3926,39.9544,-0.4353,-3.4635,1.7113
1779741.0,-5.3247,-0.6608,39.1021,-0.3634,-3.4188,1.7443
1779751.0,-4.7692,-1.1109,37.8188,-0.4129,-3.2454,1.7427
1779761.0,-3.8403,-1.8962,37.1101,-0.5784,-3.1858,1.7038
1779771.0,-2.8826,-2.806,36.0663,-0.7923,-3.1081,1.6187
1779781.0,-2.5762,-3.4572,35.7885,-0.9184,-2.842,1.4575
1779791.0,-2.0207,-3.7254,35.7885,-0.9828,-2.6824,1.2957
1779801.0,-1.6951,-4.3287,35.846,-1.0722,-2.5451,1.1547
1779811.0,-1.1109,-5.0278,36.5547,-0.7444,-2.3365,0.9817
1779821.0,-0.5842,-5.3343,36.1333,-0.3049,-2.0784,0.8077
1779831.0,-0.1724,-5.0182,35.8651,0.1463,-1.8209,0.6087
1779841.0,0.0862,-5.0087,34.534,0.2379,-1.5857,0.4353
1779851.0,0.5076,-4.6735,34.9649,0.2081,-1.409,0.2379
1779861.0,0.7757,-4.367,34.6776,-0.0628,-1.3441,0.0112
1779871.0,0.5746,-4.1946,35.2522,-0.1474,-1.276,-0.1724
1779881.0,0.4693,-3.4477,35.0607,-0.2112,-1.1994,-0.2847
1779891.0,0.565,-3.2753,35.7885,-0.2022,-1.202,-0.3719
1779901.0,0.6129,-3.3232,35.099,-0.1995,-1.184,-0.4539
1779911.0,1.2546,-3.5626,34.4574,-0.0968,-1.0648,-0.5491
1779921.0,1.3024,-3.4285,34.2945,0.0325,-0.936,-0.6987
1779931.0,1.3408,-3.4572,33.3656,0.1415,-0.787,-0.7891
1779941.0,1.3599,-2.9975,32.8963,0.2059,-0.5938,-0.8902
1779951.0,0.9194,-3.0837,32.0536,0.1692,-0.4603,-0.9754
1779961.0,0.929,-3.4093,30.8182,0.2192,-0.1176,-1.0946
1779971.0,0.8428,-3.3615,29.8701,0.2027,0.3432,-1.2143
1779981.0,0.5171,-3.7828,30.5213,0.3038,0.8982,-1.3446
1779991.0,0.4214,-4.0031,31.613,0.4427,1.4356,-1.5192
1780001.0,0.4405,-4.2521,33.2794,0.5747,1.8427,-1.7065
1780011.0,0.2969,-3.9456,34.9362,0.6726,2.0146,-1.9278
1780021.0,0.182,-3.2465,36.3727,0.7194,2.1167,-2.1402
1780031.0,-0.6895,-2.49,37.6943,0.754,2.0838,-2.2886
1780041.0,-1.4078,-1.7238,38.4221,0.7923,1.9614,-2.3711
1780051.0,-2.0782,-0.9098,37.7997,0.8647,1.8831,-2.4461
1780061.0,-2.5474,-0.6895,37.7422,0.9509,2.0146,-2.4775
1780071.0,-2.4134,-0.1724,37.5411,0.9855,2.3158,-2.5254
1780081.0,-3.122,0.2011,38.2019,0.9099,2.5281,-2.5488
1780091.0,-3.1891,0.6321,40.3088,0.8833,2.5515,-2.5345
1780101.0,-3.3806,0.6991,42.1763,1.052,2.4584,-2.5068
1780111.0,-3.5051,0.565,42.8371,1.1568,2.0497,-2.4706
1780121.0,-3.7733,0.5267,42.2816,1.1334,1.5836,-2.4647
1780131.0,-3.9361,-0.1532,40.0694,0.9732,1.3489,-2.5227
1780141.0,-3.5913,-0.6608,38.1636,0.7306,1.4005,-2.6616
1780151.0,-3.5051,-0.7757,36.909,0.339,1.5218,-2.8835
1780161.0,-3.4285,-0.2107,36.8228,-0.0958,1.6591,-3.0788
1780171.0,-3.5434,0.5555,39.1404,-0.1224,1.7826,-3.1868
1780181.0,-4.3383,1.81,39.8204,0.1453,1.5649,-3.1246
1780191.0,-5.1236,0.8906,40.9217,0.6667,1.1201,-2.9639
1780201.0,-5.1044,-0.6129,37.6943,1.4548,0.8333,-2.9224
1780211.0,-4.1755,-2.2027,33.4901,2.0593,1.2377,-3.1725
1780221.0,-3.6583,-1.9824,29.6689,2.2966,2.3253,-3.5934
1780231.0,-5.3822,-0.2873,29.7073,2.0811,3.4374,-3.961
1780241.0,-7.2975,2.059,32.4462,1.6575,4.1776,-4.1877
1780251.0,-8.5042,3.8978,36.66,1.2308,4.549,-4.2218
1780261.0,-9.3278,4.7597,40.893,0.8993,4.6645,-4.1228
1780271.0,-9.8545,4.6831,44.6854,0.7184,4.5586,-4.0105
1780281.0,-10.3046,3.8307,47.8074,0.7311,4.3255,-3.961
1780291.0,-10.8888,3.2082,50.7283,0.978,4.0499,-3.9956
1780301.0,-11.6837,3.1987,53.7355,1.5649,3.7977,-4.1037
1780311.0,-12.8138,4.7309,55.2582,2.3285,3.4039,-4.1106
1780321.0,-13.3405,6.1196,56.0435,2.8207,2.9346,-4.0637
1780331.0,-14.3939,7.7572,56.0818,3.0096,2.2716,-3.9834
1780341.0,-14.4035,8.4755,56.1584,2.8692,1.5171,-3.877
1780351.0,-14.4514,8.983,55.1528,2.486,0.7689,-3.8041
1780361.0,-14.3652,9.3853,53.4482,1.9039,0.1442,-3.761
1780371.0,-14.3556,9.347,52.4139,1.4803,-0.2703,-3.7721
1780381.0,-14.4801,9.7492,50.8624,0.9488,-0.5018,-3.8195
1780391.0,-14.8728,10.1227,51.5711,0.5859,-0.6715,-3.7993
1780401.0,-14.9494,11.1282,51.9638,0.3714,-0.77,-3.7141
1780411.0,-15.2367,11.4156,53.8408,0.4645,-1.0206,-3.5753
1780421.0,-15.1409,11.8369,54.3867,0.7019,-1.4564,-3.3518
1780431.0,-14.7004,11.789,54.2526,0.9711,-1.9284,-3.1357
1780441.0,-14.6142,11.9902,53.0172,1.0749,-2.4057,-2.925
1780451.0,-14.0683,11.6741,51.4658,0.9333,-2.9665,-2.7574
1780461.0,-13.6661,11.2623,49.4163,0.5992,-3.4518,-2.6595
1780471.0,-12.8233,10.8026,47.4339,0.0325,-3.7918,-2.6419
1780481.0,-12.2966,10.5632,45.5856,-0.5561,-3.9775,-2.6467
1780491.0,-12.0764,10.6398,44.1587,-1.1254,-4.0903,-2.6792
1780501.0,-11.8944,10.7548,45.0685,-1.4106,-4.0898,-2.6691
1780511.0,-11.5496,11.3294,45.4611,-1.284,-4.1398,-2.5643
1780521.0,-11.0038,11.406,46.4379,-0.9674,-4.1851,-2.4275
1780531.0,-10.9559,12.3828,45.6814,-0.4523,-4.3149,-2.1662
1780541.0,-10.4387,12.5169,44.6758,-0.049,-4.4011,-1.8512
1780551.0,-9.9407,12.718,43.0669,0.5374,-4.4027,-1.5516
1780561.0,-9.5385,12.8329,41.1228,0.7098,-4.3106,-1.2483
1780571.0,-8.8969,12.6893,39.4564,0.7827,-4.1404,-0.9748
1780581.0,-8.3127,12.6988,37.7709,0.5795,-3.7652,-0.7263
1780591.0,-7.6327,12.2296,38.3264,0.4949,-3.3544,-0.5321
1780601.0,-7.355,12.2583,39.4564,0.5412,-2.85,-0.3645
1780611.0,-7.4508,12.5935,41.9273,0.7295,-2.4589,-0.1532
1780621.0,-7.3646,12.4211,45.011,0.8647,-2.4456,0.0814
1780631.0,-6.9049,12.2966,46.6007,1.1499,-2.6797,0.2384
1780641.0,-6.8666,13.0723,47.4627,1.1659,-2.9474,0.422
1780651.0,-6.8953,14.0492,48.0181,0.8035,-3.521,0.6513
1780661.0,-6.8666,13.9917,48.3437,0.3608,-4.2542,0.8759
1780671.0,-6.0908,14.3748,46.7444,0.0106,-4.814,1.0669
1780681.0,-5.9376,14.7196,45.2217,-0.4241,-5.162,1.2835
1780691.0,-5.9472,14.71,44.1203,-0.8833,-5.5111,1.5618
1780701.0,-5.4492,14.5376,42.6168,-1.2622,-5.7862,1.8406
1780711.0,-4.5969,13.5129,42.3774,-1.4665,-5.8011,2.0774
1780721.0,-4.0318,12.6222,42.6168,-1.3287,-5.8921,2.3546
1780731.0,-3.4668,11.7124,42.7413,-1.1903,-6.2406,2.6074
1780741.0,-2.5187,10.6877,41.1803,-0.9855,-6.7089,2.8255
1780751.0,-1.5514,9.5864,39.1213,-0.795,-7.0122,3.0235
1780761.0,-0.6225,8.7915,35.8651,-0.6321,-7.1644,3.1533
1780771.0,0.2873,7.8721,33.5284,-0.6077,-7.3038,3.2688
1780781.0,2.0303,7.2592,29.9946,-0.5481,-7.1191,3.3417
1780791.0,3.2082,6.8474,28.0888,-0.6593,-6.7584,3.4114
1780801.0,4.2138,5.5067,26.2692,-0.8902,-6.5285,3.4502
1780811.0,5.5737,4.3958,24.4592,-1.0254,-6.0969,3.4151
1780821.0,6.9719,3.4189,24.2006,-0.9748,-5.419,3.3417
1780831.0,7.8051,2.8347,23.8175,-0.8019,-4.8795,3.2704
1780841.0,8.6191,2.2505,24.2868,-0.5646,-4.3266,3.1772
1780851.0,9.6917,2.375,23.4823,-0.414,-3.8839,3.0905
1780861.0,10.7069,2.1835,23.0131,-0.3544,-3.4779,3.0288
1780871.0,11.722,2.2697,21.6723,-0.5204,-2.9346,2.983
1780881.0,12.3349,2.0303,21.6053,-0.6231,-2.4738,2.9293
1780891.0,13.0532,1.5323,20.8583,-0.8854,-1.963,2.8745
1780901.0,13.4075,0.6991,20.6763,-1.019,-1.4378,2.8026
1780911.0,13.7331,0.0,20.7625,-1.0413,-0.8216,2.6941
1780921.0,14.461,-0.7566,20.7051,-0.9392,-0.1187,2.5605
1780931.0,14.528,-1.3791,21.2509,-0.8551,0.5747,2.4057
1780941.0,14.2503,-1.6855,22.1703,-0.7471,1.1249,2.2423
1780951.0,14.2311,-1.6951,22.3235,-0.7088,1.6756,2.0667
1780961.0,13.9917,-2.4134,22.5342,-0.7072,2.2498,1.8502
1780971.0,13.781,-2.8539,23.1376,-0.4906,2.8899,1.6001
1780981.0,13.3692,-2.5953,23.7409,-0.3688,3.6593,1.3361
1780991.0,12.5456,-2.0303,25.1295,-0.3315,4.3644,1.0946
1781001.0,11.8178,-1.3024,27.1119,-0.4236,4.8917,0.9349
1781011.0,11.0708,-0.814,29.7839,-0.4289,5.2429,0.7764
1781021.0,10.5345,-0.2969,32.5516,-0.5438,5.319,0.6923
1781031.0,9.7683,-0.2011,34.6106,-0.6753,5.0748,0.6157
1781041.0,9.0214,-0.0862,35.0894,-0.6902,4.822,0.5279
1781051.0,8.8777,-0.2107,34.8883,-0.5268,4.896,0.4039
1781061.0,8.5329,-0.1628,34.8021,-0.1687,5.2349,0.3054
1781071.0,7.288,0.4214,35.53,0.1086,5.5217,0.1878
1781081.0,6.675,1.3408,36.6504,0.2831,5.6462,0.107
1781091.0,6.1004,2.2027,37.8092,0.183,5.3887,0.0628
1781101.0,5.2768,2.8252,37.474,-0.3789,4.7789,0.0357
1781111.0,5.0853,2.5857,35.0703,-0.8929,4.482,0.0122
1781121.0,5.1427,2.3655,33.4805,-1.0951,4.9433,-0.0639
1781131.0,4.3862,2.308,33.2411,-1.085,5.7335,-0.1724
1781141.0,3.371,2.7677,35.0607,-1.011,6.3907,-0.2118
1781151.0,1.312,3.0454,38.9776,-0.6832,6.7578,-0.2086
1781161.0,-0.0766,3.7637,41.9464,-0.1926,6.711,-0.1362
1781171.0,-0.8811,4.2521,43.3734,0.1431,6.4183,-0.0112
1781181.0,-1.3024,3.7828,43.1722,0.4539,6.123,0.0516
1781191.0,-1.0726,3.4285,43.1339,1.0855,6.3199,-0.0192
1781201.0,-2.0973,4.0223,43.3925,1.6112,6.6243,-0.1336
1781211.0,-3.5051,5.1619,44.5226,1.8384,6.5854,-0.2735
1781221.0,-4.3958,7.2592,45.0972,1.806,6.4348,-0.3719
1781231.0,-5.4492,9.2512,45.6526,1.4819,6.1539,-0.3262
1781241.0,-6.6176,10.8026,45.5569,0.9807,5.7058,-0.1777
1781251.0,-7.0198,11.722,45.509,0.4193,5.3775,0.0372
1781261.0,-7.5657,11.971,45.2887,-0.1373,5.1844,0.265
1781271.0,-8.2073,12.2775,45.1546,-0.4853,5.1929,0.5481
1781281.0,-8.9543,12.718,46.0453,-0.6646,5.3962,0.8477
1781291.0,-9.6438,12.7084,47.635,-0.6811,5.5334,1.2201
1781301.0,-10.8218,12.785,50.0771,-0.5539,5.4297,1.6208
1781311.0,-11.722,11.9231,52.184,-0.1235,5.219,2.0561
1781321.0,-11.9614,10.908,53.3332,0.3437,4.8896,2.46
1781331.0,-12.402,9.7205,54.2622,1.0052,4.4799,2.7622
1781341.0,-12.0285,8.667,53.2662,1.4319,4.1372,2.9325
1781351.0,-12.0572,8.0828,51.9063,1.4553,3.6966,2.9421
1781361.0,-12.0859,7.7189,49.5312,0.8477,3.3092,2.9075
1781371.0,-12.0764,7.8051,47.5297,-0.1245,3.0937,2.8058
1781381.0,-12.5935,7.2688,48.4108,-1.085,2.825,2.7404
1781391.0,-13.1106,6.541,48.7459,-1.7091,2.4419,2.6845
1781401.0,-13.5416,5.4779,49.8281,-2.0401,2.2061,2.6627
1781411.0,-13.5703,4.0031,51.0444,-1.9523,1.914,2.5776
1781421.0,-13.3596,3.1795,51.3221,-1.5293,1.6852,2.4105
1781431.0,-13.0149,3.0646,51.2838,-1.1339,1.4372,2.2594
1781441.0,-13.2926,3.2944,50.9678,-0.7508,1.2127,2.0885
1781451.0,-13.1968,4.2904,49.7898,-0.7652,0.9184,1.9364
1781461.0,-13.4171,5.0757,48.7172,-0.9434,0.7519,1.898
1781471.0,-13.5512,5.5737,48.9854,-1.0685,0.7029,1.9555
1781481.0,-13.3788,5.2289,50.0963,-1.2505,0.4188,2.005
1781491.0,-13.1394,5.1236,50.307,-1.409,0.0351,2.0348
1781501.0,-12.9478,4.8842,50.1729,-1.5761,-0.1969,2.0609
1781511.0,-13.0149,5.1811,50.9965,-1.5777,-0.4869,2.1136
1781521.0,-12.8617,5.3917,50.8241,-1.5942,-0.7428,2.1907
1781531.0,-12.7946,5.8706,51.0731,-1.5155,-1.1233,2.3381
1781541.0,-12.718,5.9855,50.4027,-1.541,-1.5378,2.543
1781551.0,-12.2775,5.6216,48.9183,-1.5117,-1.8113,2.7654
1781561.0,-11.9806,4.5681,47.7404,-1.5798,-2.0103,2.9703
1781571.0,-11.4826,3.0071,46.821,-1.5633,-2.0981,3.1123
1781581.0,-10.8888,1.6759,46.4762,-1.4404,-2.0045,3.1602
1781591.0,-9.8162,0.2777,46.9742,-1.2499,-1.872,3.1544
1781601.0,-9.5864,-0.7566,48.5448,-1.0179,-2.0385,3.0469
1781611.0,-8.9543,-1.5419,48.6885,-0.8562,-2.3487,2.9064
1781621.0,-8.3318,-1.9249,48.631,-0.7593,-2.6792,2.7042
1781631.0,-7.8147,-1.9154,47.9606,-0.879,-3.0639,2.4951
1781641.0,-7.7955,-1.8292,46.3805,-1.2936,-3.4742,2.2615
1781651.0,-7.6231,-2.1452,45.5377,-1.8821,-3.8802,2.0401
1781661.0,-6.8857,-2.6719,45.4419,-2.3918,-4.2707,1.806
1781671.0,-6.3303,-3.3136,45.3366,-2.6435,-4.6501,1.5857
1781681.0,-5.7461,-3.8307,44.9727,-2.6414,-5.0748,1.3611
1781691.0,-5.0949,-3.9744,43.4308,-2.4903,-5.3711,1.1142
1781701.0,-4.4532,-3.4955,42.0901,-2.1641,-5.5297,0.9296
1781711.0,-4.1372,-2.7102,40.529,-1.8906,-5.6324,0.8604
1781721.0,-3.6583,-2.3463,38.6137,-1.7054,-5.7825,0.8673
1781731.0,-2.5187,-2.3655,35.7311,-1.574,-5.742,0.8844
1781741.0,-1.2929,-2.5379,32.5899,-1.4383,-5.426,0.8817
1781751.0,-0.5459,-2.9209,31.613,-1.3665,-4.9194,0.8705
1781761.0,0.565,-3.237,30.5979,-1.0424,-4.2851,0.8657
1781771.0,1.7526,-3.5817,31.0289,-0.7348,-3.7152,0.8902
1781781.0,2.7581,-4.3383,31.728,-0.3858,-3.2549,0.8556
1781791.0,3.3232,-5.363,31.3545,-0.0905,-2.8867,0.7492
1781801.0,4.367,-6.1483,31.2587,0.1298,-2.5153,0.564
1781811.0,5.5833,-6.0238,31.0672,0.2948,-2.1939,0.3171
1781821.0,6.0525,-6.0047,30.6937,0.1979,-1.9199,0.0702
1781831.0,6.292,-5.2481,30.9714,-0.0208,-1.7129,-0.1666
1781841.0,6.1387,-4.2521,30.6937,-0.3719,-1.5772,-0.3411
1781851.0,6.1387,-4.1468,31.0097,-0.6976,-1.5729,-0.4092
1781861.0,6.5793,-4.7788,30.7032,-0.7673,-1.5133,-0.4895
1781871.0,7.1922,-5.7174,29.7168,-0.7226,-1.1813,-0.655
1781881.0,7.5369,-6.7133,29.8701,-0.6119,-0.8349,-0.8626
1781891.0,7.8147,-7.355,29.9467,-0.3549,-0.5066,-1.135
1781901.0,7.4316,-7.3741,28.922,-0.0713,-0.1974,-1.4426
1781911.0,6.9049,-6.9336,27.3131,0.0447,0.265,-1.7624
1781921.0,6.0813,-6.608,27.0162,-0.0511,0.7881,-2.0242
1781931.0,5.4013,-6.5218,26.5469,-0.2203,1.3085,-2.2343
1781941.0,4.8746,-7.7285,27.8685,-0.4284,1.8869,-2.5169
1781951.0,5.0278,-9.3278,29.2284,-0.4571,2.4195,-2.9431
1781961.0,4.3096,-9.7492,31.1725,-0.6731,2.6622,-3.4885
1781971.0,3.3327,-8.7724,33.2603,-0.7849,2.6957,-4.0334
1781981.0,2.1165,-6.857,34.6585,-0.6018,2.7297,-4.3867
1781991.0,1.1779,-4.9799,34.917,-0.0335,2.8856,-4.582
1782001.0,0.8715,-2.9305,34.2945,0.5619,3.2342,-4.6714
1782011.0,0.5076,-0.8619,33.6816,1.0669,3.7546,-4.6448
1782021.0,-0.2873,1.2163,34.1892,1.4612,4.2984,-4.548
1782031.0,-1.2929,2.9784,34.9553,1.5282,4.5943,-4.3766
1782041.0,-2.0782,4.0701,36.0375,1.3409,4.7438,-4.1313
1782051.0,-3.2561,4.367,36.7654,1.0041,4.7752,-3.8552
1782061.0,-3.3423,3.8882,37.9433,0.7178,4.8614,-3.6636
1782071.0,-3.5817,3.4381,38.9297,0.5523,4.9875,-3.5258
1782081.0,-3.802,3.2465,40.4716,0.3416,5.0428,-3.4321
1782091.0,-4.2808,2.6528,40.9025,0.1181,5.0785,-3.3555
1782101.0,-4.0701,2.5379,42.8658,-0.0851,5.1008,-3.3252
1782111.0,-4.4341,2.1931,44.8769,-0.265,4.9039,-3.2938
1782121.0,-5.5258,1.3791,47.252,-0.2293,4.5235,-3.2746
1782131.0,-6.2632,0.3831,48.2384,0.2852,4.1526,-3.2874
1782141.0,-6.426,-0.3448,48.0564,0.8588,3.927,-3.3997
1782151.0,-6.8474,-0.4214,47.2615,1.3351,3.8115,-3.562
1782161.0,-7.039,0.1437,46.4762,1.5165,3.7466,-3.77
1782171.0,-7.4124,1.1396,46.5433,1.5458,3.6753,-3.9493
1782181.0,-7.5465,2.8443,46.9168,1.3473,3.5119,-4.0377
1782191.0,-8.9639,4.0797,47.999,1.0142,3.1815,-4.0382
1782201.0,-9.5481,3.5338,49.0141,0.6768,2.5845,-3.9637
1782211.0,-9.481,2.7964,48.8704,0.6455,2.1646,-3.9914
1782221.0,-9.0118,2.3846,47.8745,0.7636,2.005,-4.1068
1782231.0,-9.0118,2.7294,47.319,0.8115,1.9188,-4.2393
1782242.0,-10.0365,3.9744,46.9934,0.7567,1.8496,-4.3282
1782251.0,-10.5824,4.8554,47.0604,0.6157,1.7209,-4.3404
1782261.0,-10.9942,5.4779,46.6582,0.4725,1.6256,-4.2931
1782271.0,-11.8752,5.6695,46.7923,0.4496,1.757,-4.2074
1782281.0,-12.1817,5.7844,47.5393,0.6944,2.0263,-4.0999
1782291.0,-12.7946,5.7844,49.5121,0.9663,2.2083,-4.0228
1782301.0,-12.9095,5.9855,51.2934,1.2686,2.1657,-3.9414
1782311.0,-13.6469,6.3686,53.611,1.4899,1.9731,-3.8722
1782321.0,-13.3309,7.1347,55.2773,1.6102,1.4926,-3.7578
1782331.0,-13.3022,7.5848,56.2446,1.5862,0.9009,-3.6407
1782341.0,-13.5895,7.9775,56.733,1.492,0.2081,-3.5364
1782351.0,-13.398,7.9583,56.6085,1.3723,-0.4236,-3.4518
1782361.0,-13.4267,8.5234,55.8136,1.2898,-0.9477,-3.3975
1782371.0,-13.6278,8.6862,55.6125,1.1983,-1.4181,-3.3161
1782381.0,-13.398,9.1937,54.6836,1.0163,-1.8438,-3.2283
1782391.0,-13.4171,9.7971,54.7219,0.8961,-2.2668,-3.1379
1782401.0,-13.1011,10.5728,54.7027,0.8477,-2.601,-2.9942
1782411.0,-13.2735,11.3868,54.8751,0.862,-3.0836,-2.8064
1782421.0,-13.0915,11.7795,53.8504,0.878,-3.6572,-2.5807
1782431.0,-12.9478,11.9902,52.3947,0.7737,-4.1585,-2.3131
1782441.0,-11.9614,12.0093,51.0156,0.762,-4.4793,-2.0822
1782451.0,-11.4539,11.9135,49.3206,0.5992,-4.8108,-1.8805
1782461.0,-10.7835,11.6262,48.4491,0.3767,-5.1402,-1.7028
1782471.0,-9.9216,11.5017,46.3422,0.0096,-5.3797,-1.5447
1782481.0,-9.1937,10.9463,45.011,-0.514,-5.6697,-1.4298
1782491.0,-8.6574,10.4674,43.4979,-1.0291,-5.9905,-1.3372
1782501.0,-7.8147,10.0078,43.3638,-1.2946,-6.0767,-1.2473
1782511.0,-7.3071,9.663,42.5402,-1.185,-6.0895,-1.1403
1782521.0,-6.8378,9.6247,42.0805,-0.8764,-6.123,-0.9887
1782531.0,-5.6216,9.4236,40.4716,-0.5289,-6.0118,-0.8077
1782541.0,-4.9416,9.1459,39.0925,-0.34,-5.9453,-0.6311
1782551.0,-4.118,8.7532,37.7039,-0.3837,-5.9373,-0.5268
1782561.0,-2.9784,8.4946,35.7981,-0.4656,-5.8304,-0.4273
1782571.0,-2.0973,8.418,34.9649,-0.5752,-5.6915,-0.3432
1782581.0,-1.1109,8.3989,33.6242,-0.5875,-5.5042,-0.2496
1782591.0,-0.5555,8.7053,32.5707,-0.5757,-5.1136,-0.141
1782601.0,-0.2682,8.5138,31.8333,-0.4454,-4.7214,-0.0043
1782611.0,0.431,8.9256,31.3545,-0.2762,-4.2622,0.1421
1782621.0,0.9385,9.0597,30.4638,-0.2033,-3.7956,0.3725
1782631.0,1.3791,8.9639,30.3106,-0.2315,-3.3582,0.5672
1782641.0,1.9058,8.7628,30.234,-0.2591,-2.9883,0.7455
1782651.0,2.5091,8.5425,30.1765,-0.3927,-2.6132,0.9291
1782661.0,2.7294,7.8338,30.5883,-0.4938,-2.3594,1.0802
1782671.0,2.9209,7.2688,30.8086,-0.5108,-2.0965,1.2286
1782681.0,3.3519,6.3015,31.4407,-0.3448,-1.8294,1.3585
1782691.0,3.7828,5.4396,31.1917,-0.2017,-1.5484,1.4165
1782701.0,3.8882,4.4053,31.0384,-0.0548,-1.209,1.4617
1782711.0,4.4819,3.4668,31.1342,-0.009,-0.8977,1.4128
1782721.0,5.2194,2.5091,31.9291,-0.0495,-0.7019,1.2856
1782731.0,5.5833,2.4038,31.9674,-0.1836,-0.5342,1.0946
1782741.0,5.8802,2.9784,32.8868,-0.3906,-0.5273,0.9562
1782751.0,5.3917,3.5626,33.3656,-0.6369,-0.7348,0.8418
1782761.0,5.545,4.0989,32.858,-0.7838,-0.9227,0.8163
1782771.0,5.7174,4.0318,30.866,-0.8344,-0.8844,0.8221
1782781.0,5.9951,4.6256,29.1997,-0.7769,-0.5108,0.8439
1782791.0,5.9185,5.2864,28.922,-0.7338,-0.0011,0.9243
1782801.0,6.1962,5.7269,28.7591,-0.6758,0.3986,1.0488
1782811.0,5.5067,5.8323,28.6442,-0.7173,0.663,1.2398
1782821.0,5.4875,5.6024,29.1231,-0.8418,0.7689,1.409
1782831.0,6.2153,5.2864,28.3952,-1.0233,0.804,1.5697
1782841.0,6.043,3.8786,27.7632,-1.2489,0.8104,1.6767
1782851.0,6.0717,2.8156,26.1351,-1.1334,1.209,1.6597
1782861.0,5.8514,2.1931,24.9763,-1.0456,1.956,1.5761
1782871.0,5.6407,2.0303,24.8805,-0.9152,2.7388,1.4782
1782881.0,4.5203,2.5857,25.934,-0.7652,3.5146,1.3877
1782891.0,4.0414,3.3806,27.2843,-0.6635,4.225,1.4016
1782901.0,3.371,3.9456,29.5828,-0.6162,4.7709,1.4755
1782911.0,2.988,4.0414,32.0823,-0.7295,4.9726,1.582
1782921.0,2.9018,3.4572,33.5763,-1.102,4.8667,1.6384
1782931.0,2.6145,2.5283,34.8883,-1.466,4.6677,1.6357
1782941.0,2.241,1.8962,34.8692,-1.7373,4.5772,1.5389
1782951.0,1.8004,1.8292,34.103,-1.9364,4.7012,1.4633
1782961.0,0.2586,2.1931,34.6297,-2.071,4.9806,1.3771
1782971.0,-0.9385,2.7677,35.1277,-2.0492,5.3344,1.3606
1782981.0,-2.0111,3.9935,36.7271,-2.2434,5.6516,1.4649
1782991.0,-2.7773,4.1946,38.7478,-2.2615,5.8053,1.6762
1783001.0,-3.4093,4.0893,40.644,-2.2386,5.8085,1.9342
1783011.0,-4.1276,3.1029,41.9081,-2.2242,5.6154,2.1774
1783021.0,-4.6064,1.743,42.3869,-2.0742,5.4494,2.3179
1783031.0,-5.0757,0.4788,42.1763,-1.6213,5.5308,2.3636
1783041.0,-5.8035,-0.4501,42.1571,-0.9557,5.874,2.3338
1783051.0,-6.8283,-1.1205,42.8658,-0.1133,6.2896,2.2562
1783061.0,-7.6136,-1.1013,43.2776,0.6715,6.6269,2.1428
1783071.0,-8.2169,-0.4693,44.3215,1.1595,6.8494,1.9976
1783081.0,-8.6191,0.6321,44.3598,1.2239,6.8972,1.8698
1783091.0,-9.7013,1.4365,45.2313,0.745,6.67,1.7741
1783101.0,-10.8218,1.8483,46.4667,0.2288,6.4221,1.6756
1783111.0,-11.5688,2.4038,47.6159,-0.1378,6.372,1.6613
1783121.0,-12.536,2.5857,49.5887,-0.3076,6.346,1.6325
1783131.0,-13.5608,3.3232,52.7969,-0.2538,6.2827,1.6405
1783141.0,-14.461,4.051,56.1105,-0.1059,5.8953,1.7272
1783151.0,-14.7962,4.5298,59.29,0.3193,5.2285,1.864
1783161.0,-14.8728,4.8842,60.1423,0.7301,4.3968,1.9901
1783171.0,-14.8345,5.1619,60.0083,1.0227,3.3832,2.0992
1783181.0,-14.71,5.3726,57.7577,1.1797,2.5031,2.1487
1783191.0,-14.9015,6.4643,54.6165,1.176,1.9917,2.1535
1783201.0,-15.2271,7.9871,52.0883,0.7811,1.6586,2.2482
1783211.0,-15.5623,9.0692,50.4985,0.1767,1.4255,2.4296
1783221.0,-16.1273,9.6822,50.6038,-0.3475,1.1909,2.6856
1783231.0,-16.2518,9.5864,51.0923,-0.6768,0.961,2.9676
1783241.0,-16.0795,8.7724,51.3125,-0.8849,0.5981,3.2815
1783251.0,-15.9262,7.7572,51.2646,-1.1196,0.1889,3.5401
1783261.0,-15.4282,6.0525,51.2263,-1.3282,-0.2996,3.6572
1783271.0,-14.5089,4.9799,50.9007,-1.4638,-0.879,3.645
1783281.0,-14.2886,4.4436,49.4546,-1.4628,-1.4239,3.5997
1783291.0,-13.7523,4.8554,47.0604,-1.3984,-1.7358,3.5657
1783301.0,-13.7714,5.6024,44.6758,-1.3856,-1.7916,3.6391
1783311.0,-14.3939,5.545,43.1818,-1.3415,-1.6948,3.8424
1783321.0,-13.9151,4.5873,42.2146,-1.1377,-1.4165,4.0382
1783331.0,-13.4937,3.3232,42.6934,-0.9163,-1.093,4.1388
1783341.0,-12.4211,2.1261,42.9616,-0.6476,-0.8785,4.143
1783351.0,-11.5688,1.6855,44.7141,-0.4209,-0.8338,4.0824
1783361.0,-11.4634,2.1644,45.2791,-0.1926,-1.028,4.0611
1783371.0,-11.7412,3.3136,45.078,-0.0016,-1.2723,4.2074
1783381.0,-11.473,3.4477,43.9288,0.0718,-1.3739,4.4639
1783391.0,-11.3485,2.1261,42.7796,0.1107,-1.4186,4.7427
1783401.0,-10.5249,-0.0096,42.1667,0.0266,-1.3074,4.9066
1783411.0,-9.6534,-2.1452,41.2282,-0.2655,-1.0887,4.872
1783421.0,-9.232,-4.9991,43.0286,-0.5342,-0.8854,4.6916
1783431.0,-8.351,-7.1539,45.4707,-0.513,-0.7897,4.3596
1783441.0,-7.8243,-9.0309,48.0181,-0.3565,-0.9993,3.8626
1783451.0,-7.2113,-9.5864,49.5312,-0.1293,-1.3271,3.2454
1783461.0,-6.9336,-9.0405,49.4834,0.0261,-1.8523,2.6648
1783471.0,-7.173,-8.4372,48.3916,-0.1304,-2.3386,2.1189
1783481.0,-7.4986,-7.2401,47.1945,-0.4135,-2.7116,1.6043
1783491.0,-7.3837,-5.7461,46.1889,-0.6135,-2.8723,1.2052
1783501.0,-7.2784,-3.9361,45.5281,-1.086,-3.1027,0.911
1783511.0,-7.1922,-3.0933,45.9495,-1.6533,-3.4454,0.7221
1783521.0,-6.541,-3.1603,46.1794,-2.0146,-3.8131,0.5656
1783531.0,-5.8993,-3.553,46.5912,-1.9699,-4.2122,0.4124
1783541.0,-5.5641,-3.1891,45.4036,-1.6911,-4.4767,0.2815
1783551.0,-5.2289,-2.7102,44.331,-1.1744,-4.5953,0.1932
1783561.0,-4.5777,-1.9154,42.6647,-0.6061,-4.507,0.1229
1783571.0,-4.3958,-1.063,40.9504,-0.4581,-4.54,0.075
1783581.0,-3.3136,-0.3831,39.648,-0.6321,-4.6241,0.075
1783591.0,-2.6624,0.5363,38.3934,-1.0642,-4.7587,0.0596
1783601.0,-1.7717,0.6225,37.723,-1.5868,-4.8561,0.0506
1783611.0,-1.2929,0.5459,36.2578,-2.0295,-4.9646,0.0926
1783621.0,-0.316,-0.6608,35.6449,-2.4834,-4.9561,0.0585
1783631.0,0.565,-2.2027,35.5204,-2.486,-4.9029,-0.0452
1783641.0,1.5131,-3.2848,35.7311,-2.2338,-4.7507,-0.2214
1783651.0,2.0973,-3.9169,34.8787,-1.5022,-4.5384,-0.4145
1783661.0,2.6719,-3.8211,34.7925,-0.663,-4.2143,-0.5928
1783671.0,2.8156,-3.0263,34.0455,0.133,-3.9456,-0.7066
1783681.0,3.3327,-2.0399,32.1589,0.5486,-3.8509,-0.7583
1783691.0,4.0797,-1.3599,29.2763,0.5337,-3.613,-0.7785
1783701.0,4.4915,-1.2354,26.8534,0.066,-3.3151,-0.8413
1783711.0,5.3151,-1.2737,24.373,-0.7104,-2.9836,-0.9812
1783721.0,5.7461,-1.494,23.7601,-1.4261,-2.4472,-1.1345
1783731.0,5.4492,-1.7813,23.8558,-1.8294,-1.7065,-1.2829
1783741.0,5.2194,-2.241,25.2828,-1.8023,-0.9445,-1.3569
1783751.0,5.4588,-2.9209,26.8342,-1.3744,-0.2953,-1.4622
1783761.0,5.6503,-2.8252,28.7017,-0.9892,0.249,-1.5862
1783771.0,5.3343,-2.9305,29.9084,-0.3331,0.5917,-1.6778
1783781.0,5.5929,-2.3846,29.4295,0.083,0.9668,-1.7698
1783791.0,5.3343,-2.1165,28.8549,0.4401,1.4255,-1.8645
1783801.0,5.1715,-1.1875,28.2037,0.5438,1.9811,-1.9459
1783811.0,4.2713,-0.5267,28.6155,0.315,2.3498,-1.9773
1783821.0,4.2808,-0.3543,29.554,-0.0117,2.7164,-2.0119
1783831.0,4.0223,-0.6991,30.0999,-0.3719,3.0251,-2.046
1783841.0,3.9648,-1.5036,31.5268,-0.6949,3.2571,-2.146
1783851.0,3.5626,-2.2218,31.9099,-1.093,3.595,-2.3599
1783861.0,2.9688,-2.5762,33.289,-1.2978,4.0174,-2.5834
1783871.0,2.0303,-2.4421,36.1716,-1.1265,4.5309,-2.7739
1783881.0,0.8523,-1.8675,38.47,-0.6188,4.8268,-2.891
1783891.0,-0.4501,-1.2833,41.1228,-0.0601,5.046,-2.9543
1783901.0,-0.431,-0.0192,44.082,0.7646,5.1615,-2.9053
1783911.0,-1.3599,1.494,46.1698,1.1696,4.6656,-2.7446
1783921.0,-2.2122,1.6376,46.5241,1.152,3.6391,-2.5467
1783931.0,-2.0399,0.6033,44.3598,0.7769,2.7532,-2.4882
1783941.0,-1.1971,-0.7853,40.1556,0.4518,2.5387,-2.593
1783951.0,-1.6759,-1.743,37.905,0.1442,2.8841,-2.8154
1783961.0,-2.5091,-1.81,36.7271,-0.1123,3.2629,-3.0634
1783971.0,-3.735,-1.1684,37.6464,-0.1926,3.6663,-3.1996
1783981.0,-3.6871,-0.5555,39.9927,0.0873,4.0467,-3.2571
1783991.0,-5.4396,0.249,42.3391,0.4135,3.8775,-3.1528
1784001.0,-6.1387,-1.0056,42.77,0.6604,3.3486,-3.0948
1784011.0,-5.1811,-2.0399,40.6152,1.1765,3.4869,-3.2214
1784021.0,-4.9991,-1.7526,38.8723,1.4175,4.027,-3.4619
1784031.0,-5.9089,-1.0151,39.3319,1.4729,4.5693,-3.7083
1784041.0,-6.9336,0.7566,40.6344,1.2781,4.8241,-3.8674
1784051.0,-7.7955,2.4325,42.9999,0.9775,4.7534,-3.9116
1784061.0,-8.5425,3.8595,45.4803,0.6263,4.3756,-3.7988
1784071.0,-9.5289,3.3519,47.252,0.4374,3.894,-3.5886
1784081.0,-9.165,2.1644,47.9511,0.7508,3.5758,-3.4891
1784091.0,-9.0309,1.4748,47.2807,0.9317,3.3933,-3.5385
1784101.0,-9.2703,1.1301,46.7635,1.085,3.3305,-3.6684
1784111.0,-9.3853,2.0782,46.3901,1.0036,3.381,-3.811
1784121.0,-10.3238,3.5338,46.2081,0.5949,3.3592,-3.9025
1784131.0,-10.7548,4.9704,45.9687,-0.299,3.2177,-3.9259
1784141.0,-11.3772,6.0525,47.4435,-1.2702,2.9144,-3.844
1784151.0,-13.1873,7.1922,49.9143,-1.7554,2.6169,-3.5577
1784161.0,-13.3596,5.9568,53.4482,-1.441,2.361,-3.1006
1784171.0,-12.2775,3.3327,54.9038,-0.7779,1.9752,-2.7739
1784181.0,-11.5113,0.431,55.0762,-0.1293,1.4904,-2.7665
1784191.0,-10.8505,-0.7949,53.9366,0.2017,1.1089,-2.9649
1784201.0,-11.0038,-1.561,53.6493,0.3884,0.7503,-3.2863
1784211.0,-11.6646,-0.747,53.5631,0.5204,0.4374,-3.6104
1784221.0,-12.7946,0.7661,53.4003,0.7146,0.0293,-3.8142
1784231.0,-13.4075,2.9113,52.1744,0.8062,-0.3161,-3.9403
1784241.0,-13.7044,4.798,51.0061,0.854,-0.4071,-3.9259
1784251.0,-14.2694,6.292,50.7667,0.8626,-0.4496,-3.8121
1784261.0,-14.9015,7.9296,51.8776,0.7843,-0.5779,-3.6152
1784271.0,-15.1792,9.2225,53.1513,0.5736,-0.919,-3.3347
1784281.0,-15.4665,9.232,54.7027,0.2027,-1.5309,-3.0155
1784291.0,-14.7962,8.4084,55.9381,0.0819,-2.171,-2.7787
1784301.0,-14.6429,7.5657,57.6428,0.3283,-2.8633,-2.6318
1784311.0,-14.0875,8.0445,56.6564,0.8338,-3.7908,-2.4892
1784321.0,-13.3118,8.9735,53.113,1.069,-4.3532,-2.3014
1784331.0,-12.9478,10.1706,49.2056,1.0919,-4.6868,-2.0018
1784341.0,-11.971,10.3238,47.0987,0.8897,-4.7512,-1.6432
1784351.0,-11.6262,10.41,45.1546,0.8131,-4.6203,-1.2627
1784361.0,-11.1378,9.5768,44.7333,0.5699,-4.5613,-0.8955
1784371.0,-9.9216,7.9392,44.6471,0.3411,-4.6986,-0.6268
1784381.0,-9.1171,6.359,45.2217,-0.0814,-4.9433,-0.473
1784391.0,-8.6191,4.2042,46.0644,0.0117,-5.2605,-0.4715
1784401.0,-7.853,3.4381,45.7484,0.5741,-5.3637,-0.5422
1784411.0,-7.6902,2.9975,44.5034,1.0983,-5.5851,-0.6619
1784421.0,-7.1826,3.4381,43.0382,1.4899,-5.5909,-0.8046
1784431.0,-6.4835,4.5873,41.2377,1.6666,-5.642,-0.9195
1784441.0,-5.8514,5.9664,40.6344,1.533,-5.7101,-0.9706
1784451.0,-5.2194,7.6231,38.5754,1.2058,-5.799,-0.9323
1784461.0,-4.6256,8.2648,37.4932,0.7189,-5.8362,-0.8264
1784471.0,-4.2329,8.7724,35.7598,0.2453,-5.8234,-0.7285
1784481.0,-3.2561,8.6383,35.7981,-0.0096,-5.6069,-0.5981
1784491.0,-2.7773,8.3318,34.9841,0.0905,-5.278,-0.4597
1784501.0,-2.3655,8.1307,34.9266,0.4252,-4.9598,-0.3326
1784511.0,-2.0877,7.92,34.5148,0.7652,-4.6831,-0.1852
1784521.0,-1.1013,7.5657,33.4326,1.118,-4.3452,-0.124
1784531.0,-0.1915,7.7476,32.5037,1.2366,-4.0159,-0.0984
1784541.0,0.4884,8.2935,31.6801,1.2132,-3.7014,-0.0745
1784551.0,1.1875,9.3948,31.2587,1.2122,-3.149,-0.017
1784561.0,1.1205,10.4483,31.6513,0.9589,-2.7994,0.1213
1784571.0,1.6281,11.1282,32.5994,0.7088,-2.6765,0.3193
1784581.0,1.7334,11.3581,32.8101,0.2836,-2.6627,0.5199
1784591.0,1.9632,11.3581,32.542,-0.1027,-2.5802,0.7194
1784601.0,2.9113,10.7835,33.0879,-0.2049,-2.5451,0.9253
1784611.0,3.6105,10.8793,32.2834,-0.125,-2.3413,1.1419
1784621.0,3.6583,10.2759,32.1781,0.1495,-2.0827,1.3532
1784631.0,4.3191,10.1993,31.364,0.4252,-1.7528,1.5176
1784641.0,4.7022,10.1418,30.5596,0.3203,-1.6267,1.6639
1784651.0,5.4779,10.1897,28.7017,0.0511,-1.4383,1.781
1784661.0,5.794,10.5249,27.7057,-0.4778,-1.1834,1.9119
1784671.0,5.7078,10.343,27.3131,-0.9871,-0.8929,2.0939
1784681.0,5.9664,9.7013,27.3035,-1.2723,-0.5491,2.3402
1784691.0,5.9376,8.6287,27.3514,-1.4841,-0.1463,2.5318
1784701.0,6.3015,6.7995,27.9355,-1.4835,0.3076,2.6845
1784711.0,6.5314,5.4109,28.7304,-1.3175,0.7689,2.7649
1784721.0,6.608,4.0606,29.8222,-1.0291,1.1403,2.7649
1784731.0,6.8474,2.9305,30.3489,-0.787,1.4128,2.6952
1784741.0,7.0006,2.0686,30.5979,-0.6848,1.6735,2.5541
1784751.0,6.857,2.2601,30.6841,-0.7636,1.8555,2.3567
1784761.0,6.426,2.9592,30.981,-1.0733,1.8321,2.2317
1784771.0,6.1196,3.3232,30.8469,-1.2313,1.9342,2.1678
1784781.0,5.3056,3.7445,30.3776,-1.3149,2.2413,2.1678
1784791.0,4.8267,3.6392,30.5883,-1.2813,2.5456,2.2264
1784801.0,4.9416,3.2848,31.23,-1.1903,3.0165,2.2785
1784811.0,4.5298,2.7007,32.1589,-1.1685,3.3044,2.2753
1784821.0,4.2904,2.0973,33.605,-1.102,3.4529,2.2503
1784831.0,3.984,1.5323,34.0551,-1.0163,3.6099,2.1694
1784841.0,3.6009,1.2067,34.3233,-1.0504,3.5774,2.063
1784851.0,3.7541,1.7813,33.6242,-1.1095,3.6322,1.9257
1784861.0,3.2657,2.7007,33.1453,-1.1169,4.1872,1.8927
1784871.0,2.4325,3.4572,34.6776,-1.1957,4.7119,1.939
1784881.0,1.9824,4.0606,35.8077,-1.126,5.1503,2.0135
1784891.0,1.2163,4.1755,38.7095,-0.9935,5.4919,2.1726
1784901.0,0.4693,3.9073,41.2377,-0.6992,5.5515,2.3365
1784911.0,-0.1245,3.237,43.2489,-0.3315,5.5648,2.419
1784921.0,-0.6416,2.3176,44.7524,0.0431,5.468,2.4105
1784931.0,-1.3886,1.6664,45.5473,0.2315,5.0918,2.2865
1784941.0,-1.561,1.0534,45.6335,0.3512,4.8135,2.0332
1784951.0,-1.992,2.0111,44.7045,0.182,4.5421,1.7299
1784961.0,-2.308,3.8403,44.0437,-0.2144,4.2133,1.4867
1784971.0,-2.9688,6.0238,42.7796,-0.7513,3.9621,1.4011
1784981.0,-3.984,7.5561,42.0805,-1.3,3.9642,1.5171
1784991.0,-4.4915,8.0732,41.7261,-1.6235,4.0073,1.7512
1785001.0,-5.1427,7.5369,42.3678,-1.8576,4.0621,2.0109
1785011.0,-5.4205,6.9815,43.4404,-1.6666,4.2074,2.2817
1785021.0,-6.3398,6.7133,43.8426,-1.3814,4.3415,2.5009
1785031.0,-7.2496,6.2058,44.9344,-0.9647,4.3724,2.6962
1785041.0,-7.4699,6.3782,45.509,-0.5183,4.3947,2.8457
1785051.0,-7.5753,6.9623,44.7428,-0.3704,4.3591,2.9878
1785061.0,-8.0349,7.9679,44.3119,-0.655,4.2016,3.2102
1785071.0,-8.6766,8.6095,44.1778,-1.1605,3.9547,3.5274
1785081.0,-9.5672,7.7093,43.8809,-1.6469,3.6934,3.8727
1785091.0,-9.7683,6.177,44.1108,-1.9933,3.5705,4.1744
1785101.0,-9.8258,4.0031,44.0437,-2.179,3.6567,4.316
1785111.0,-9.6534,2.4038,44.5992,-2.2551,3.8264,4.3452
1785121.0,-10.6781,1.1109,45.8537,-2.2769,3.7067,4.2824
1785131.0,-11.3102,0.4022,46.323,-2.2003,3.5173,4.1579
1785141.0,-12.3062,0.1532,46.0453,-2.0534,3.4939,4.018
1785151.0,-12.9766,0.8906,47.0125,-1.9236,3.7567,3.9552
1785161.0,-13.4075,1.4748,49.2631,-1.7985,3.8818,3.9791
1785171.0,-14.2886,1.7621,52.0595,-1.7544,3.7056,4.0504
1785181.0,-14.4706,1.7334,54.492,-1.624,3.3523,4.2085
1785191.0,-14.9877,1.2833,57.8152,-1.4096,2.8394,4.349
1785201.0,-15.6677,0.9385,59.357,-1.1893,2.0401,4.4538
1785211.0,-15.5815,0.3065,60.2668,-0.9855,1.1744,4.5368
1785221.0,-16.1082,-0.3926,59.6156,-0.7827,0.2831,4.6076
1785231.0,-15.955,-1.9632,58.7058,-0.5896,-0.5321,4.5921
1785241.0,-15.1505,-2.6719,56.1297,-0.4257,-1.1116,4.4442
1785251.0,-14.3844,-3.4189,53.7642,-0.555,-1.5043,4.2846
1785261.0,-14.0588,-3.984,52.4426,-0.7242,-1.8161,4.1244
1785271.0,-13.6661,-4.5203,52.0308,-0.9493,-2.014,3.8908
1785281.0,-13.5991,-4.8171,51.8488,-1.0914,-2.3695,3.6886
1785291.0,-13.3118,-5.1523,51.7531,-1.2904,-2.817,3.4939
1785301.0,-12.7755,-5.3917,51.37,-1.4958,-3.3172,3.2512
1785311.0,-12.0285,-5.4492,49.9047,-1.7693,-3.819,3.0421
1785321.0,-11.4826,-5.9185,48.8417,-1.9098,-4.1899,2.8287
1785331.0,-10.3525,-5.9759,47.6733,-1.9662,-4.3926,2.618
1785341.0,-9.5768,-6.7229,46.1219,-1.8853,-4.4607,2.461
1785351.0,-8.2265,-7.2113,45.9591,-1.7262,-4.3623,2.2498
1785361.0,-7.853,-7.8051,45.9974,-1.5692,-4.4905,2.0311
1785371.0,-7.0677,-8.5042,45.4036,-1.5687,-4.8869,1.756
1785381.0,-5.7174,-8.5138,43.9001,-1.5931,-5.187,1.4293
1785391.0,-5.4205,-8.0541,42.2816,-1.8337,-5.4467,1.1488
1785401.0,-4.0223,-7.7955,40.1747,-2.0816,-5.6053,0.8908
1785411.0,-3.0646,-7.4699,38.4413,-2.2955,-5.4903,0.6321
1785421.0,-2.3463,-6.924,36.6409,-2.3445,-5.2951,0.4204
1785431.0,-1.5419,-6.2728,36.6217,-2.1747,-4.9492,0.3038
1785441.0,-1.312,-6.1196,36.4589,-1.8065,-4.7433,0.2677
1785451.0,-0.6895,-6.6559,36.4876,-1.2914,-4.5065,0.24
1785461.0,0.067,-7.0868,35.9226,-0.7146,-4.201,0.1724
1785471.0,0.747,-7.8626,35.2714,-0.274,-3.9658,0.05
1785481.0,2.0111,-8.0158,33.4231,0.0335,-3.6865,-0.1469
1785491.0,2.624,-8.1116,32.293,-0.0341,-3.3433,-0.3911
1785501.0,3.1412,-8.2456,31.9003,-0.1586,-2.9548,-0.646
1785511.0,3.6488,-8.0445,31.6801,-0.4385,-2.5829,-0.895
1785521.0,3.8978,-8.2744,32.1781,-0.6162,-2.1934,-1.1792
1785531.0,4.2808,-8.1211,33.5092,-0.7008,-1.9795,-1.4777
1785541.0,4.0701,-7.7093,34.4095,-0.6933,-1.8736,-1.7703
1785551.0,4.2713,-6.608,34.7734,-0.5789,-1.6974,-1.9693
1785561.0,4.0701,-5.6216,35.281,-0.3576,-1.6054,-2.0955
1785571.0,3.9456,-4.9895,35.2331,-0.0968,-1.6064,-2.1375
1785581.0,4.4053,-3.9169,33.289,0.0984,-1.4096,-2.1662
1785591.0,4.3479,-3.304,32.1206,0.1485,-1.0962,-2.1503
1785601.0,4.3958,-2.7294,31.3353,0.0399,-0.7226,-2.1082
1785611.0,4.7214,-2.2314,31.4023,-0.1735,-0.3922,-2.0412
1785621.0,4.2329,-2.1644,32.1398,-0.4161,-0.2815,-1.9709
1785631.0,4.0223,-2.5474,32.2068,-0.5023,-0.2198,-1.898
1785641.0,4.3574,-3.8211,31.7854,-0.4997,-0.0442,-1.898
1785651.0,4.6256,-4.4628,31.479,-0.4087,0.2038,-2.0109
1785661.0,4.5011,-4.4819,30.3585,-0.331,0.6369,-2.1465
1785671.0,4.1563,-4.4245,29.9084,-0.3602,1.1238,-2.2679
1785681.0,3.9361,-4.2713,30.8469,-0.1453,1.7256,-2.3918
1785691.0,3.6679,-3.7158,32.36,0.1272,2.2838,-2.4525
1785701.0,3.1316,-3.6392,34.17,0.2975,2.552,-2.5036
1785711.0,2.7485,-3.4668,35.9513,0.4805,2.602,-2.5834
1785721.0,2.2793,-3.0742,36.6887,0.4975,2.5052,-2.6441
1785731.0,1.8675,-2.9497,36.3248,0.5098,2.3147,-2.7164
1785741.0,1.5419,-2.9688,35.3001,0.3209,2.2689,-2.7994
1785751.0,1.4269,-2.5474,34.2179,0.191,2.5169,-2.9389
1785761.0,0.6704,-1.9537,33.7295,0.0899,2.9883,-3.0128
1785771.0,-0.2203,-1.9441,35.0415,-0.0793,3.3172,-3.0549
1785781.0,-0.3543,-1.6472,37.3017,-0.0378,3.6343,-3.1049
1785791.0,-0.5842,-0.7374,39.8299,0.2331,3.8211,-3.09
1785801.0,-1.2354,0.0575,42.1571,0.4725,3.595,-2.9937
1785811.0,-1.8387,0.2298,42.952,0.6976,3.1517,-2.8096
1785821.0,-1.8866,0.0479,42.0326,0.8359,2.7569,-2.6845
1785831.0,-1.4269,-0.3256,39.9927,0.9626,2.6882,-2.6196
1785841.0,-1.4174,-0.5459,38.0487,0.8471,2.859,-2.6201
1785851.0,-1.8196,-0.8428,37.7805,0.7444,3.0596,-2.6622
1785861.0,-2.49,-1.1684,38.0965,0.5326,3.2629,-2.684
1785871.0,-2.5187,-1.6568,39.2649,0.5146,3.4241,-2.7207
1785881.0,-2.8156,-1.1492,40.4333,0.505,3.3912,-2.7505
1785891.0,-3.4572,-2.0877,40.8163,0.4081,3.2698,-2.8058
1785901.0,-3.3615,-2.3846,40.7493,0.4566,3.2533,-2.9245
1785911.0,-3.5434,-2.3272,40.7206,0.5688,3.323,-3.0708
1785921.0,-4.0127,-1.4557,40.4812,0.6715,3.5423,-3.2076
1785931.0,-5.0566,-0.4597,41.1515,0.8285,3.6854,-3.265
1785941.0,-6.3973,1.1588,41.8602,1.0243,3.6248,-3.1874
1785951.0,-7.7668,2.0207,42.2433,1.1472,3.4992,-3.0011
1785961.0,-8.102,1.4653,41.9081,1.1355,3.322,-2.8213
1785971.0,-7.6136,0.0958,41.027,1.1052,3.2432,-2.7617
1785981.0,-6.9336,-1.0151,40.1364,0.9966,3.4241,-2.908
1785991.0,-7.0198,-1.4174,39.8874,0.8216,3.794,-3.1565
1786001.0,-7.3837,-1.2833,42.8083,0.7689,4.1659,-3.3874
1786011.0,-7.9966,-0.3256,46.1985,0.9583,4.1068,-3.5588
1786021.0,-9.0788,0.3448,49.1961,1.284,3.6918,-3.6402
1786031.0,-8.8777,0.814,49.2248,1.6506,3.305,-3.679
1786041.0,-9.4619,1.1875,49.1769,2.105,3.1735,-3.7482
1786051.0,-9.5768,2.0686,49.2727,2.3088,3.0852,-3.8238
1786061.0,-9.6822,3.2561,49.7898,2.3312,3.041,-3.9041
1786071.0,-10.3334,4.4724,50.4793,2.0736,2.8601,-3.9366
1786081.0,-10.3238,5.6695,53.0842,1.8901,2.6047,-3.9722
1786091.0,-11.2719,7.4412,54.9134,1.8001,2.2301,-3.8903
1786101.0,-12.2296,8.6862,56.6085,1.822,1.6474,-3.6817
1786111.0,-12.718,9.0309,57.1448,1.9241,1.094,-3.4289
1786121.0,-12.3637,9.0692,57.231,1.996,0.5295,-3.2262
1786131.0,-12.2487,8.9926,56.6181,1.8289,-0.0516,-3.057
1786141.0,-12.2966,8.9352,56.3116,1.5527,-0.5928,-2.9463
1786151.0,-11.9423,9.0405,55.421,1.3271,-0.9243,-2.8633
1786161.0,-12.4403,9.2512,56.1584,1.2196,-1.2733,-2.7627
1786171.0,-12.718,9.5289,55.7466,1.1786,-1.74,-2.6435
1786181.0,-13.1011,9.7971,55.3444,1.1754,-2.2466,-2.4754
1786191.0,-12.9191,9.8737,53.5822,1.1557,-2.6787,-2.3381
1786201.0,-12.785,9.5672,52.2319,1.0296,-2.9234,-2.195
1786211.0,-12.2392,9.5577,51.37,0.8902,-3.0554,-2.0955
1786221.0,-11.9997,9.3853,51.3796,0.6933,-3.2193,-2.0167
1786231.0,-11.4443,9.6726,52.3085,0.5938,-3.5029,-1.9007
1786241.0,-11.0995,10.2568,51.8967,0.5209,-3.9424,-1.7719
1786251.0,-10.8888,10.3238,51.5807,0.415,-4.4144,-1.6075
1786261.0,-10.4674,10.1323,50.7283,0.4784,-4.8928,-1.4463
1786271.0,-10.1706,10.4387,49.1099,0.4299,-5.319,-1.292
1786281.0,-9.3757,10.1131,47.9223,0.5172,-5.6276,-1.1307
1786291.0,-9.0214,10.477,45.193,0.4933,-5.9022,-0.9589
1786301.0,-8.0924,10.1801,43.2106,0.3778,-6.0767,-0.7966
1786311.0,-7.3837,10.0652,41.1707,0.3304,-6.1576,-0.6311
1786321.0,-6.1483,9.9407,39.3703,0.1809,-6.122,-0.5103
1786331.0,-5.1811,9.7013,38.1444,0.2107,-5.9554,-0.3842
1786341.0,-4.6064,9.7396,36.8132,0.141,-5.7612,-0.2602
1786351.0,-3.9361,9.7013,35.8268,0.0968,-5.618,-0.1341
1786361.0,-2.9401,9.7013,34.3999,-0.0697,-5.4845,-0.0181
1786371.0,-2.1452,9.5672,33.5763,-0.1916,-5.1998,0.0724
1786381.0,-1.1684,9.8067,33.0687,-0.3411,-4.913,0.2097
1786391.0,-0.7278,9.4619,33.1645,-0.5736,-4.7347,0.3283
1786401.0,0.1724,9.2799,33.3273,-0.4156,-4.573,0.4592
1786411.0,0.996,9.1075,32.7814,-0.3108,-4.4298,0.6125
1786421.0,1.6759,8.9447,31.977,-0.1884,-4.2574,0.7035
1786431.0,1.7526,8.9256,30.5787,-0.3267,-4.0414,0.803
1786441.0,2.2122,8.5617,29.4391,-0.5523,-3.8286,0.879
1786451.0,3.1029,8.1211,28.4527,-0.7918,-3.4555,0.8945
1786461.0,4.0127,8.2361,27.7823,-1.1313,-3.0628,0.9418
1786471.0,4.2713,7.9679,28.7783,-1.3303,-2.6292,1.0323
1786481.0,4.549,7.8721,29.5061,-1.2553,-2.278,1.1781
1786491.0,5.1906,7.3071,30.5787,-1.1536,-1.9193,1.3111
1786501.0,4.9608,6.9049,31.2012,-1.1435,-1.8619,1.3792
1786511.0,5.3917,6.2058,31.3736,-1.2366,-1.9385,1.4229
1786521.0,6.0525,5.679,30.301,-1.2712,-1.8571,1.4447
1786531.0,6.177,5.5833,29.1039,-1.4282,-1.7677,1.4032
1786541.0,6.5505,5.8514,27.6099,-1.5442,-1.6213,1.3957
1786551.0,7.0294,5.9759,26.1926,-1.6235,-1.1052,1.4569
1786561.0,6.9145,6.1196,25.5509,-1.6362,-0.4422,1.5586
1786571.0,6.79,6.0621,25.7137,-1.6064,0.1666,1.715
1786581.0,6.675,5.6599,25.9723,-1.4835,0.804,1.8938
1786591.0,5.7652,5.1619,26.8725,-1.2366,1.4585,2.0843
1786601.0,5.612,4.0031,28.309,-1.0999,1.9715,2.2397
1786611.0,6.0047,3.0071,28.9986,-1.077,2.3248,2.2918
1786621.0,6.3686,1.7909,30.7894,-1.0962,2.5281,2.3025
1786631.0,6.541,1.4653,31.2108,-1.1824,2.6393,2.2226
1786641.0,6.5601,1.1779,32.4845,-1.226,2.6739,2.1338
1786651.0,6.0142,1.7142,32.5133,-1.2106,2.8511,2.0774
1786661.0,5.3917,1.8004,32.9442,-1.1339,3.1458,2.0774
1786671.0,4.4724,1.4844,33.4326,-0.9924,3.5066,2.1487
1786681.0,4.2138,0.5555,34.8213,-0.8477,3.7429,2.1673
1786691.0,3.8882,-0.68,36.2674,-0.6609,3.8339,2.0678
1786701.0,3.7541,-1.4557,37.1772,-0.5209,3.8472,1.8986
1786711.0,3.3519,-1.6376,37.8284,-0.381,3.7636,1.7193
1786721.0,3.3423,-1.4461,37.2538,-0.4156,3.6285,1.467
1786731.0,3.2561,-0.3543,35.9513,-0.5827,3.6828,1.2249
1786741.0,2.5379,1.3408,35.2905,-1.0483,3.8722,1.1297
1786751.0,1.6472,3.0167,35.9322,-1.3755,4.026,1.2026
1786761.0,0.6129,3.6105,36.9377,-1.607,4.2447,1.4048
1786771.0,0.1149,3.5817,38.7956,-1.6139,4.1026,1.6815
1786781.0,-0.5842,1.7621,40.0789,-1.4229,3.8131,1.9358
1786791.0,-0.2107,-0.4884,39.4277,-0.8514,3.7392,2.0449
1786801.0,-0.2107,-2.1548,38.1444,-0.1745,4.0973,1.98
1786811.0,-0.6225,-3.2178,36.8707,0.5215,4.7044,1.7358
1786821.0,-1.0534,-3.0646,36.7175,0.7854,5.2216,1.4138
1786831.0,-1.6185,-2.2218,38.0582,0.6768,5.5212,1.0589
1786841.0,-2.5283,-0.1724,39.3415,0.3491,5.5632,0.7742
1786851.0,-3.9744,1.8292,41.1898,-0.1804,5.2748,0.6784
1786861.0,-5.4492,3.055,42.0709,-0.5694,4.9167,0.6758
1786871.0,-6.0525,3.1603,42.3391,-0.5694,4.781,0.7386
1786881.0,-6.1675,2.9209,41.6304,-0.215,5.087,0.7636
1786891.0,-6.6942,3.7924,42.1858,0.2325,5.4919,0.7636
1786901.0,-7.5178,4.7022,43.2967,0.4725,5.7484,0.7934
1786911.0,-8.5042,5.7174,44.9056,0.7104,5.9299,0.9003
1786921.0,-9.1267,6.5984,45.7388,0.7093,5.8469,1.0546
1786931.0,-9.8928,7.5944,46.3613,0.4975,5.5191,1.2643
1786941.0,-10.5153,7.6423,45.9399,0.2469,5.3323,1.5447
1786951.0,-11.4251,6.857,44.5705,0.107,5.344,1.8262
1786961.0,-11.5975,5.5737,43.3829,-0.306,5.7979,1.9741
1786971.0,-13.3501,4.549,46.7157,-0.7668,6.0677,1.9928
1786981.0,-12.6605,4.2521,51.1785,-1.06,5.6553,2.0587
1786991.0,-12.6127,3.304,54.3196,-1.0706,5.1226,2.1167
1787001.0,-12.8808,2.7677,55.8232,-0.8487,4.3697,2.1167
1787011.0,-13.1298,2.3272,56.1488,-0.5316,3.6104,2.0944
1787021.0,-13.0245,2.9497,54.1951,-0.3108,3.0128,2.0843
1787091.0,-15.0164,4.118,52.6533,-1.1382,1.0163,2.3296
1787101.0,-15.1984,4.2904,52.3372,-1.2217,0.6641,2.4302
1787111.0,-15.3229,4.1468,52.7778,-1.2201,0.2772,2.5387
1787121.0,-15.6677,3.8211,53.0172,-1.1031,0.016,2.6648
1787131.0,-16.338,3.5051,53.6301,-0.8764,-0.2826,2.8143
1787141.0,-16.8456,3.1316,53.9366,-0.6731,-0.7673,2.9415
1787151.0,-16.702,2.8252,53.1609,-0.4145,-1.2425,3.0346
1787161.0,-16.7115,2.6815,51.7722,-0.4592,-1.6091,3.1059
1787171.0,-16.453,1.9058,50.6134,-0.6066,-1.9576,3.1921
1787181.0,-15.2846,0.9481,49.9814,-0.9051,-2.2056,3.2049
1787191.0,-14.6334,-0.2107,49.5791,-1.3595,-2.4131,3.1086
1787201.0,-14.4706,-1.3216,50.939,-1.6852,-2.7771,2.9277
1787211.0,-13.5703,-1.8292,51.5615,-1.8448,-3.265,2.7377
1787221.0,-13.4267,-2.3176,52.5575,-1.8778,-3.8259,2.569
1787231.0,-13.5512,-2.7294,51.868,-1.7123,-4.4655,2.4073
1787241.0,-12.5169,-2.5091,49.9143,-1.4074,-4.8981,2.2636
1787251.0,-11.7603,-2.3272,47.635,-1.3122,-5.1232,2.1322
1787261.0,-10.7069,-2.2314,45.4898,-1.4298,-5.3179,2.022
1787271.0,-9.4619,-2.0973,43.8618,-1.6485,-5.4238,1.922
1787281.0,-8.6287,-2.6719,43.1627,-1.8491,-5.4978,1.8262
1787291.0,-7.7476,-3.2082,42.703,-1.8315,-5.56,1.715
1787301.0,-6.9911,-3.7158,42.4731,-1.7028,-5.543,1.5889
1787311.0,-6.2058,-4.1276,42.2433,-1.5804,-5.675,1.45
1787321.0,-5.5067,-4.4436,41.2186,-1.4266,-5.9554,1.2755
1787331.0,-4.4436,-4.3096,39.6001,-1.2765,-6.056,1.1398
1787341.0,-3.237,-4.2425,37.2155,-1.1669,-5.9293,0.9807
1787351.0,-1.7238,-4.0318,35.53,-1.1531,-5.7575,0.8439
1787361.0,-0.3065,-3.6488,34.0647,-1.2095,-5.5659,0.7162
1787371.0,0.4597,-3.9265,32.6856,-1.143,-5.3137,0.5875
1787381.0,1.0343,-3.8882,31.8046,-0.8982,-4.8454,0.4874
1787391.0,1.0247,-3.9073,30.7607,-0.7125,-4.4325,0.3948
1787401.0,1.4078,-3.9265,30.5692,-0.6183,-4.0419,0.323
1787411.0,2.0016,-4.5777,30.0329,-0.5885,-3.7461,0.215
1787421.0,2.624,-5.0278,29.9084,-0.6146,-3.5646,0.0623
1787431.0,3.4381,-5.0853,29.0752,-0.6093,-3.314,-0.1107
1787441.0,4.2713,-4.9225,28.1941,-0.7072,-3.0756,-0.2953
1787451.0,4.6735,-5.114,27.5046,-0.9195,-2.8425,-0.4534
1787461.0,5.0661,-5.1811,26.3554,-1.0738,-2.627,-0.6518
1787471.0,5.4588,-5.5545,25.8765,-1.0711,-2.3174,-0.8359
1787481.0,5.7461,-5.047,24.7082,-0.8093,-1.8454,-1.0227
1787491.0,5.7748,-4.8459,23.6164,-0.4294,-1.2159,-1.1366
1787501.0,5.612,-4.7692,21.9979,-0.0106,-0.4108,-1.2499
1787511.0,5.8993,-4.2713,21.2509,0.2708,0.5268,-1.3452
1787521.0,5.6982,-3.9073,21.2126,0.3927,1.5804,-1.4745
1787531.0,4.6831,-3.5051,22.6396,0.3352,2.5286,-1.558
1787541.0,4.2138,-3.3902,26.1926,0.3427,3.1528,-1.6511
1787551.0,4.3191,-2.873,29.2955,0.4129,3.5614,-1.7272
1787561.0,3.4572,-2.49,32.5228,0.4821,3.7423,-1.7629
1787571.0,3.0646,-1.8196,34.5723,0.5651,3.6742,-1.7767
1787581.0,2.557,-1.4557,35.5395,0.5507,3.5125,-1.732
1787591.0,2.2601,-1.3599,35.9034,0.5454,3.372,-1.7001
1787601.0,1.5993,-1.7526,35.6066,0.6332,3.3975,-1.6847
1787611.0,1.245,-2.2218,34.85,0.7881,3.6966,-1.7395
1787621.0,0.5938,-2.4134,35.6353,1.0286,4.2319,-1.8427
1787631.0,-0.3543,-2.5283,37.4453,1.2217,4.6182,-1.9582
1787641.0,-0.8811,-1.6089,39.5426,1.3617,4.6975,-2.0715
1787651.0,-1.6664,-0.7183,41.4197,1.2409,4.5533,-2.1269
1787661.0,-2.6624,-0.4597,42.8179,0.9796,4.0903,-2.1045
1787671.0,-2.8635,-0.7183,42.8658,0.5954,3.4146,-2.1034
1787681.0,-2.557,-1.5419,41.3335,0.3443,3.033,-2.2099
1787691.0,-2.5666,-1.561,39.6863,0.1953,3.1544,-2.3849
1787701.0,-3.5338,-1.0056,40.0502,0.0729,3.4603,-2.5334
1787711.0,-4.5011,-0.2298,42.3486,0.2543,3.5529,-2.6089
1787721.0,-4.6639,1.4269,43.5457,0.3826,3.2996,-2.5637
1787731.0,-5.4971,2.2793,43.6511,0.4129,2.7324,-2.4365
1787741.0,-5.8323,1.8292,42.3965,0.4017,2.2535,-2.3025
1787751.0,-5.4971,0.9673,39.5331,0.737,2.2476,-2.2242
1787761.0,-5.4013,0.498,36.7749,0.9881,2.7835,-2.2604
1787771.0,-5.9472,0.249,35.9705,1.2765,3.6146,-2.3727
1787781.0,-6.2537,0.7949,36.8803,1.4489,4.5038,-2.5031
1787791.0,-7.355,1.5323,39.6959,1.4457,5.029,-2.5813
1787801.0,-7.7764,2.4134,43.8522,1.3415,5.0093,-2.6137
1787811.0,-8.4563,3.3232,46.7827,1.1919,4.5256,-2.5584
1787821.0,-9.2608,3.3423,48.8992,0.9924,3.8184,-2.4467
1787831.0,-9.663,2.4325,48.7843,0.9174,3.1262,-2.3956
1787841.0,-9.4906,1.1301,46.7923,0.7913,2.6866,-2.4844
1787851.0,-8.9926,0.2203,45.0397,0.8365,2.8042,-2.6696
1787861.0,-9.0022,-0.0862,44.9823,0.8929,3.1496,-2.9192
1787871.0,-9.8928,0.9002,46.7157,1.0456,3.2443,-3.1347
