time_ms,ax,ay,az,gx,gy,gz
775201.0,2.0135,-0.0311,9.5816,-0.016,0.2176,0.0122
775211.0,2.083,-0.0958,9.6103,0.0096,0.2623,-0.0021
775221.0,2.2098,-0.1293,9.73,0.0303,0.3102,-0.0154
775231.0,2.2721,-0.261,9.9455,0.0591,0.3555,-0.0325
775241.0,2.2865,-0.4501,10.3238,0.1197,0.4028,-0.0532
775251.0,2.2697,-0.5578,10.4698,0.2331,0.4326,-0.0713
775261.0,2.2362,-0.5411,10.4004,0.3177,0.4241,-0.1011
775271.0,2.1931,-0.5507,10.3382,0.3677,0.4166,-0.1394
775281.0,2.3176,-0.4836,10.1993,0.3767,0.3991,-0.1905
775291.0,2.059,-0.2849,10.2304,0.3139,0.3661,-0.2549
775301.0,2.0039,-0.103,10.2568,0.2597,0.3262,-0.3017
775311.0,2.0566,-0.0407,10.1897,0.2559,0.3022,-0.3326
775321.0,2.0207,0.0072,10.1754,0.2836,0.307,-0.3586
775331.0,1.834,0.0958,10.1131,0.3304,0.3129,-0.3751
775341.0,1.8699,0.079,9.979,0.3682,0.3001,-0.3868
775351.0,1.8507,0.1245,9.8234,0.4353,0.3182,-0.3991
775361.0,1.7166,0.182,9.5864,0.5007,0.3507,-0.4113
775371.0,1.7119,0.2658,9.3925,0.5326,0.3709,-0.4321
775381.0,1.6305,0.4357,9.2201,0.5555,0.4103,-0.4534
775391.0,1.4533,0.498,9.2847,0.5906,0.4805,-0.4619
775401.0,1.245,0.565,9.2488,0.6838,0.5624,-0.4629
775411.0,1.233,0.7638,9.1435,0.7849,0.6486,-0.4651
775421.0,1.154,0.9744,9.2273,0.8578,0.7418,-0.4656
775431.0,0.9649,1.0582,9.3637,0.9158,0.8264,-0.4571
775441.0,0.9625,1.1205,9.6079,0.9663,0.8886,-0.456
775451.0,0.9218,1.2043,9.8641,1.0131,0.9365,-0.4603
775461.0,0.7614,1.2139,10.1801,1.0546,0.9663,-0.4667
775471.0,0.6536,1.2426,10.422,1.1302,0.9743,-0.48
775481.0,0.5602,1.3408,10.4507,1.2398,0.9977,-0.4938
775491.0,0.6129,1.4078,10.5034,1.3335,1.0174,-0.5172
775501.0,0.5626,1.7095,10.3956,1.3819,1.0302,-0.5683
775511.0,0.6416,2.1356,10.3956,1.3042,1.0041,-0.6359
775521.0,0.6105,2.375,10.7835,1.1297,0.9626,-0.6965
775531.0,0.4118,2.5977,11.1666,0.9653,0.8876,-0.7535
775541.0,0.395,2.8587,11.1211,0.8365,0.7843,-0.7966
775551.0,0.2298,2.8419,11.1881,0.6806,0.687,-0.8296
775561.0,0.3711,3.2585,10.8409,0.5555,0.6162,-0.8727
775571.0,0.486,3.4884,11.212,0.39,0.638,-0.9067
775581.0,0.3998,3.474,11.3653,0.2054,0.6103,-0.9376
775591.0,0.0144,3.5506,11.0181,0.0394,0.5678,-0.9924
775601.0,-1.1732,4.3503,9.6702,-0.0511,0.6524,-1.0429
775611.0,-1.9489,5.9544,7.683,-0.3038,0.8386,-1.0855
775621.0,-2.9209,7.695,7.9559,-0.7157,1.3526,-1.0685
775631.0,-5.3726,9.1985,11.3725,-0.8578,2.2013,-0.8993
775641.0,-8.181,9.6726,17.2047,-0.5646,2.9506,-0.5805
775651.0,-10.9247,9.4978,24.2413,0.1517,3.3534,-0.1314
775661.0,-12.7443,9.0333,29.9179,0.9376,3.066,0.3272
775671.0,-13.2256,8.406,33.2004,1.3345,2.0486,0.6667
775681.0,-13.4339,8.4635,33.5619,1.1659,0.5428,0.7934
775691.0,-14.0157,8.6981,31.874,0.357,-1.1951,0.745
775701.0,-13.7619,7.9224,29.7312,-0.7966,-2.8989,0.6066
775711.0,-13.8193,7.3167,26.5709,-1.7895,-4.3341,0.4182
775721.0,-13.7164,7.1084,23.2788,-2.5786,-5.4621,0.2214
775731.0,-13.4339,7.3143,19.8168,-3.1826,-6.3183,0.0702
775741.0,-13.556,7.0509,17.4442,-3.7296,-6.9223,-0.0298
775751.0,-13.556,6.6822,16.3644,-4.1297,-7.4118,-0.0809
775761.0,-14.1186,6.4093,15.7802,-4.1303,-7.8721,-0.0298
775771.0,-14.765,6.189,15.8879,-3.4832,-8.2935,0.2139
775781.0,-14.7243,5.9664,13.5464,-1.8635,-8.6883,0.7827
775791.0,-13.2567,4.5993,7.8195,0.1979,-8.9517,1.6027
775801.0,-10.0772,3.0382,-0.103,1.9385,-8.8272,2.4328
775811.0,-8.2696,2.308,-5.6838,2.6834,-8.2541,3.0506
775821.0,-7.9057,0.7829,-11.7867,2.3668,-7.5773,3.5854
775831.0,-3.5219,-2.6887,-12.5217,0.796,-7.1958,3.7588
775841.0,-2.8443,-3.9289,-13.7331,-0.5779,-6.7743,3.6242
775851.0,-1.0463,-6.8546,-12.6941,-1.5394,-6.3156,3.3906
775861.0,1.4868,-9.2033,-11.9926,-1.5346,-5.7319,2.9559
775871.0,3.1939,-10.6398,-12.864,-0.9339,-5.2232,2.3354
775881.0,5.4851,-10.1059,-17.413,-0.3464,-5.0029,1.6144
775891.0,6.4404,-8.6359,-23.6068,-0.0878,-4.5666,0.8865
775901.0,6.256,-5.3271,-31.8213,-0.4832,-4.0057,0.1979
775911.0,6.2608,-1.9058,-39.2074,-1.5415,-3.2108,-0.3719
775921.0,6.1914,1.8818,-45.0469,-2.3658,-1.7538,-0.7125
775931.0,4.1755,6.0023,-48.8537,-2.7207,0.2139,-0.7827
775941.0,1.7789,9.9024,-49.7755,-2.3652,2.6334,-0.531
775951.0,-4.4412,14.2263,-47.7547,-1.5495,5.2003,0.0314
775961.0,-9.6845,15.9262,-44.4029,-0.7609,7.3884,0.9179
775971.0,-17.3292,14.5352,-39.1452,0.0261,9.4689,1.9635
775981.0,-24.4017,9.2823,-31.5987,0.497,11.1227,2.9133
775991.0,-30.0712,1.7023,-23.1376,0.8434,12.3812,3.62
776001.0,-37.0575,-6.3183,-10.2711,1.7017,13.7365,3.9754
776011.0,-40.383,-15.1864,3.3639,4.0457,15.1157,3.9669
776021.0,-43.8857,-21.0163,13.0747,7.6486,16.4306,3.14
776031.0,-44.1922,-21.3563,18.1026,10.8822,17.2362,1.2568
776041.0,-47.9583,-11.9327,24.7273,11.7389,17.4357,-1.3383
776051.0,-47.4196,-1.7142,38.6352,9.5504,15.8176,-3.7626
776061.0,-45.8777,10.1227,48.0684,6.7296,13.156,-5.3887
776071.0,-45.5449,17.7434,61.4568,3.8046,10.4145,-5.9767
776081.0,-43.2656,21.8902,69.3097,2.0247,6.5891,-5.6824
776091.0,-38.9848,26.9348,67.1095,2.1114,3.0171,-4.6624
776101.0,-33.684,29.5828,57.5494,2.6132,0.0293,-3.181
776111.0,-28.7999,25.005,46.1147,2.228,-2.4951,-1.7709
776121.0,-24.7201,18.1193,36.174,1.2547,-4.2234,-0.9115
776131.0,-22.2589,11.2168,30.4614,0.5662,-5.0412,-0.5114
776141.0,-19.3212,7.3622,23.3602,0.5896,-5.5494,-0.3586
776151.0,-15.943,4.6088,17.2263,0.6114,-5.7713,-0.3837
776161.0,-12.8736,4.1372,11.4994,0.6545,-5.5478,-0.5358
776171.0,-11.5089,4.1946,9.8019,0.4166,-4.9747,-0.7487
776181.0,-10.5465,4.5681,9.8545,0.2677,-4.4788,-0.9142
776191.0,-9.4379,4.877,10.1969,0.455,-4.0941,-0.9759
776201.0,-8.6072,6.098,9.3063,0.8296,-3.8541,-0.9509
776211.0,-8.3797,7.355,8.521,0.986,-3.7248,-0.8439
776221.0,-7.2616,8.2935,7.8602,0.9035,-3.6673,-0.6577
776231.0,-7.0126,8.655,8.4348,0.6912,-3.629,-0.4182
776241.0,-7.173,8.7436,7.8817,0.4736,-3.8589,-0.1298
776251.0,-6.1292,7.264,6.9384,0.2107,-4.2021,0.1623
776261.0,-4.9273,6.1268,5.4564,0.2139,-4.2452,0.3815
776271.0,-4.2784,5.7293,4.8147,0.2719,-4.0212,0.5092
776281.0,-3.2825,5.6336,4.7453,0.1245,-3.8919,0.5901
776291.0,-2.66,5.5905,5.0398,-0.2708,-3.9483,0.6369
776301.0,-2.375,5.6336,5.6695,-0.6188,-3.9914,0.7029
776311.0,-2.5283,5.4037,6.7038,-0.8397,-4.0228,0.821
776321.0,-3.3088,4.8435,7.9176,-0.9919,-4.2244,0.9647
776331.0,-3.6272,3.9193,9.0716,-0.7822,-4.4692,1.144
776341.0,-3.644,3.6679,8.26,-0.1511,-4.6938,1.3532
776351.0,-3.0718,3.7733,5.1978,0.2512,-5.07,1.5378
776361.0,-2.7126,3.9049,1.6712,0.0314,-5.5047,1.6517
776371.0,-1.98,4.0438,-1.5227,-0.4848,-5.6367,1.7368
776381.0,-1.8627,3.5171,-2.9281,-1.1733,-5.4855,1.7996
776391.0,-1.4198,2.8132,-3.3734,-1.9071,-5.4275,1.8209
776401.0,-1.2234,1.9465,-4.0677,-2.4765,-5.4632,1.8241
776411.0,-1.98,1.5227,-6.6391,-2.9687,-5.6846,1.7906
776421.0,-0.8691,0.4118,-10.2376,-3.5215,-5.9714,1.7161
776431.0,0.9098,0.5674,-16.1345,-3.7668,-5.9235,1.5484
776441.0,2.3343,2.0494,-23.3985,-3.8424,-5.3685,1.3244
776451.0,2.4397,4.3191,-30.3369,-4.0414,-4.375,1.1957
776461.0,2.7797,6.529,-36.0567,-4.5964,-3.2544,1.2302
776471.0,2.0039,8.6479,-41.5729,-5.4025,-2.2264,1.4213
776481.0,0.9625,10.6901,-45.4659,-5.9831,-1.1281,1.7815
776491.0,-0.5315,12.9981,-48.813,-5.1924,0.7636,2.4589
776501.0,-3.3591,12.7228,-47.6039,-3.0341,3.6061,3.4146
776511.0,-8.8538,10.1442,-43.9384,0.423,7.2389,4.4687
776521.0,-16.7403,4.9728,-35.3241,4.0967,11.2877,5.3312
776531.0,-26.5493,-2.5187,-18.9357,7.1612,14.93,5.6558
776541.0,-33.6218,-7.4172,-3.8547,9.4764,17.1489,5.2078
776551.0,-38.0319,-10.4507,11.0516,10.4161,17.4357,4.0339
776561.0,-40.055,-9.9359,24.2533,10.9908,17.4357,2.3823
776571.0,-42.2361,-7.7692,35.5754,11.1909,17.1351,0.5289
776581.0,-40.632,-3.0813,44.1634,10.3299,15.1237,-1.4851
776591.0,-36.6289,5.9376,48.7627,7.5821,11.7794,-3.5061
776601.0,-34.7063,14.5831,59.0482,3.5683,8.2302,-4.946
776611.0,-33.1741,23.7744,62.8837,1.3383,4.6884,-5.1987
776621.0,-31.0312,28.2037,60.5422,0.6077,1.1499,-4.4059
776631.0,-26.4272,27.7967,46.8114,0.7764,-2.0928,-2.9985
776641.0,-21.3443,24.9763,28.7975,0.5039,-4.1638,-1.7693
776651.0,-16.939,20.3914,18.6173,-0.3964,-4.2718,-0.9887
776661.0,-14.5687,16.8552,14.0228,-1.1063,-3.3241,-0.497
776671.0,-13.2687,13.1514,16.1178,-1.6219,-2.2828,-0.1517
776681.0,-12.7802,10.8242,19.3691,-1.1877,-1.5245,0.2192
776691.0,-12.1458,9.517,20.9564,-0.0372,-1.1951,0.6407
776701.0,-10.9654,8.4084,19.836,1.0472,-1.2483,1.0605
776711.0,-9.9982,6.4979,18.512,1.4463,-1.442,1.342
776721.0,-9.845,5.1116,16.6541,1.0254,-1.9342,1.3729
776731.0,-8.8681,3.1699,14.5879,-0.0782,-2.6898,1.21
776741.0,-7.8051,1.9944,12.9909,-1.3053,-3.2815,0.8849
776751.0,-7.0413,1.8507,12.9263,-2.2434,-3.5098,0.4901
776761.0,-7.1922,2.9904,13.8002,-2.5637,-3.4598,0.1751
776771.0,-7.434,4.8363,15.1361,-2.3014,-3.2661,0.0607
776781.0,-8.1068,6.5625,17.0731,-1.6825,-3.0724,0.2038
776791.0,-8.7412,7.0413,18.3587,-0.8977,-3.19,0.5922
776801.0,-8.7532,5.7796,17.3675,-0.099,-3.7019,1.0759
776811.0,-7.7644,3.7469,13.6134,0.5481,-4.2181,1.4777
776821.0,-7.6231,2.387,9.6079,0.472,-4.5645,1.6384
776831.0,-7.5058,1.0223,8.5665,-0.4156,-4.929,1.5628
776841.0,-6.9264,0.8763,8.3749,-1.193,-5.2786,1.3771
776851.0,-7.5968,1.4102,9.335,-1.4426,-5.4744,1.2765
776861.0,-7.7045,1.6975,8.7652,-1.1174,-5.8346,1.3803
776871.0,-6.9623,1.9154,4.7453,-0.6194,-6.454,1.6128
776881.0,-5.5306,1.008,-0.3711,-0.3241,-6.9329,1.9071
776891.0,-3.8211,0.1365,-7.501,-0.1479,-6.9228,2.2152
776901.0,-2.7318,-0.8787,-14.2982,-0.9349,-6.7983,2.3732
776911.0,-1.8028,-1.7813,-20.5518,-2.7069,-6.8749,2.2764
776921.0,1.8124,-3.3782,-25.4575,-4.3266,-6.4673,2.0236
776931.0,4.2545,-3.711,-27.5309,-5.1338,-5.3451,1.6267
776941.0,5.1858,-3.0287,-27.574,-5.1854,-4.1803,1.2451
776951.0,5.545,-1.7837,-29.6474,-4.6012,-3.3278,1.0328
776961.0,5.351,0.3184,-35.8963,-3.4364,-2.3658,1.0094
776971.0,4.5873,2.1404,-43.0884,-2.3924,-1.0621,1.085
776981.0,2.8946,3.2825,-47.556,-1.6341,0.9057,1.2047
776991.0,-0.1772,5.0326,-48.5496,-0.8519,3.4513,1.3585
777001.0,-5.4995,5.3127,-43.8354,0.1203,6.3438,1.6666
777011.0,-12.627,4.3862,-35.4557,1.3484,9.0821,2.055
777021.0,-18.9645,2.4828,-24.6986,2.5685,11.2904,2.3668
777031.0,-24.4951,-0.2825,-13.3381,3.844,13.0362,2.5408
777041.0,-28.8118,-4.197,-1.6807,4.7049,14.16,2.3924
777051.0,-31.2922,-7.0677,10.7907,5.2594,14.8076,1.8039
777061.0,-34.3185,-6.7181,22.7401,5.7479,14.988,0.8551
777071.0,-36.2386,-4.0989,32.6904,5.692,14.2143,-0.249
777081.0,-28.9794,-5.1595,44.5082,5.0913,12.5845,-1.3058
777091.0,-31.2348,5.4827,40.8235,4.482,9.851,-2.1226
777101.0,-35.0559,6.0118,54.3915,3.1916,8.3946,-2.394
777111.0,-29.7791,13.714,48.7124,2.718,5.7979,-2.5009
777121.0,-27.5764,13.0628,53.5224,1.1754,3.4422,-2.427
777131.0,-27.5764,13.0628,53.5224,1.1754,3.4422,-2.427
777141.0,-26.4248,15.3085,50.0053,1.4442,2.0598,-1.9337
777151.0,-25.0745,14.4562,46.0429,1.0557,0.1745,-1.4378
777161.0,-22.6563,13.2328,39.2745,0.439,-1.5947,-1.0387
777171.0,-20.5015,11.5041,33.0951,-0.1953,-2.4812,-0.687
777181.0,-18.998,8.6886,29.815,-0.771,-2.8463,-0.4033
777191.0,-17.2239,6.3231,26.8893,-1.0642,-3.0474,-0.1596
777201.0,-16.3692,3.3088,26.3027,-1.1728,-3.0761,0.0032
777211.0,-15.4857,1.6041,25.3307,-1.0669,-3.2145,0.0431
777221.0,-15.3827,-0.0383,26.3602,-0.9551,-3.4225,-0.0692
777231.0,-15.6413,0.8571,25.9579,-0.6178,-3.8392,-0.2889
777241.0,-16.9414,2.466,25.5078,-0.3038,-4.3192,-0.4784
777251.0,-17.4346,5.1787,23.6116,0.0623,-4.8763,-0.5603
777261.0,-17.9565,8.2983,21.7872,0.3214,-5.3163,-0.4975
777271.0,-18.3324,11.1809,19.0818,0.373,-5.7309,-0.2155
777281.0,-18.4425,11.8848,17.7578,-0.0032,-6.2592,0.2671
777291.0,-18.5599,10.5177,16.1273,-0.2868,-6.8951,0.886
777301.0,-18.8041,7.6351,13.3477,-0.3241,-7.5677,1.5075
777311.0,-18.8232,4.5179,8.6886,-0.3421,-8.3739,1.9827
777321.0,-18.0116,2.1332,1.9704,-0.5337,-9.1704,2.2594
777331.0,-16.1633,0.3735,-4.8794,-1.0307,-9.6823,2.3541
777341.0,-13.4099,-0.9888,-11.8657,-1.574,-9.7009,2.3573
777351.0,-10.6829,-2.047,-18.9645,-2.204,-9.2364,2.3056
777361.0,-6.6343,-4.8602,-22.7473,-3.1884,-8.6979,2.0976
777371.0,-2.2841,-5.9759,-27.5333,-3.6859,-7.9551,1.6809
777381.0,-0.4501,-4.6663,-31.7543,-4.2101,-7.2069,1.1323
777391.0,1.2809,-4.5753,-35.2977,-4.7204,-6.388,0.6242
777401.0,3.5195,-2.5426,-40.9863,-4.847,-5.6298,0.0649
777411.0,3.9409,1.2019,-47.1754,-4.3011,-4.0302,-0.3326
777421.0,3.3519,4.8147,-50.5033,-3.5859,-1.9124,-0.4597
777431.0,2.0087,8.2361,-51.8033,-2.5579,0.5598,-0.2575
777441.0,-0.8595,10.5967,-50.611,-1.317,3.2219,0.2283
777451.0,-4.8746,12.0668,-47.5728,-0.1133,5.8048,0.829
777461.0,-10.0724,12.7898,-42.2601,0.5619,7.9561,1.4128
777471.0,-17.0324,13.0699,-36.1788,0.6034,9.5849,2.0215
777481.0,-22.4385,9.833,-27.4352,0.0777,10.6859,2.734
777491.0,-28.4695,5.7461,-16.5463,-0.1171,11.5777,3.4268
777501.0,-33.2698,1.2713,-5.9352,0.621,12.1194,4.0547
777511.0,-36.5259,-3.1771,2.6336,2.7228,12.9681,4.5261
777521.0,-40.3591,-6.371,9.2081,5.3999,14.2601,4.5565
777531.0,-41.4963,-10.2137,19.7163,7.2,15.277,3.8227
777541.0,-41.9488,-8.2768,27.1622,8.2222,15.5973,2.419
777551.0,-41.8147,-4.0677,35.7382,7.3745,14.9449,0.8583
777561.0,-54.7698,-0.5459,57.9852,4.4336,13.8402,-0.5598
777571.0,-40.9624,4.2353,54.8272,2.436,9.5099,-1.2904
777581.0,-46.232,0.5626,75.4365,1.2797,8.2036,-1.6937
777591.0,-40.4836,10.082,66.9419,2.1237,4.9146,-1.5857
777601.0,-37.8595,7.8362,73.6002,0.9844,1.5751,-1.4606
777611.0,-35.3408,10.4196,62.5772,0.978,-1.8805,-1.1536
777621.0,-32.4175,8.3222,52.1098,-0.1932,-5.07,-1.0302
777631.0,-29.6833,5.9879,38.1971,-1.4479,-7.5975,-1.086
777641.0,-26.6546,5.5354,25.4312,-2.3993,-8.8485,-1.2595
777651.0,-23.6643,4.7381,16.7331,-2.8516,-8.8485,-1.2819
777661.0,-19.6277,3.4237,11.5281,-2.5249,-7.97,-1.0983
777671.0,-17.1161,1.166,10.3525,-1.6144,-6.5876,-0.8179
777681.0,-15.014,0.3687,8.8514,-0.381,-5.3477,-0.5699
777691.0,-13.9893,-0.3926,9.6726,0.4539,-4.4405,-0.4464
777701.0,-12.7635,0.3304,11.2791,1.0339,-3.8754,-0.4395
777711.0,-13.3812,2.0135,13.3573,1.3015,-3.6785,-0.4645
777721.0,-13.5512,4.1468,13.872,1.0206,-4.2755,-0.5002
777731.0,-13.3118,6.6056,11.8657,0.2565,-5.3429,-0.4959
777741.0,-13.0747,6.8115,11.2504,-0.4778,-6.0719,-0.3299
777751.0,-12.8473,6.7684,8.746,-0.5635,-6.479,-0.0059
777761.0,-12.2056,5.0829,6.6583,-0.5433,-6.8451,0.3602
777771.0,-10.6805,3.5386,2.7102,-0.3475,-7.1569,0.6784
777781.0,-8.8729,1.9369,-1.1181,-0.2692,-7.2601,0.8993
777791.0,-7.1874,0.7398,-5.1715,-0.2261,-7.1197,1.044
777801.0,-5.5952,-0.6225,-7.7165,-0.2623,-6.7626,1.1217
777811.0,-4.1659,-0.9409,-12.1769,-0.3315,-6.4077,1.1706
777821.0,-1.5299,-3.2609,-14.4562,-0.7976,-6.0076,1.1834
777831.0,1.2282,-4.6902,-16.1297,-0.729,-4.9886,1.1206
777841.0,2.4301,-5.3247,-14.2335,-0.4512,-3.6891,0.97
777851.0,3.6224,-5.0589,-11.5592,-0.1282,-2.8537,0.812
777861.0,3.7804,-3.5721,-11.0229,0.2043,-2.46,0.7301
777871.0,3.5626,-2.4732,-13.7786,-0.1628,-2.8101,0.6992
777881.0,3.2178,-1.154,-22.9915,-1.4011,-3.778,0.6194
777891.0,5.6862,-0.8906,-37.5028,-3.1815,-4.7193,0.4576
777901.0,6.3566,0.9744,-52.3061,-4.9619,-4.1829,0.1697
777911.0,7.4508,3.4812,-59.29,-6.2848,-2.254,-0.1027
777921.0,3.7876,9.4786,-60.7984,-5.6957,0.886,-0.0564
777931.0,-3.1196,13.6541,-56.6229,-3.6551,4.2665,0.6093
777941.0,-11.4491,15.2822,-52.3013,-0.6646,7.4778,1.7203
777951.0,-19.97,11.8657,-46.1746,1.7991,10.3618,2.8883
777961.0,-28.4096,5.4468,-36.6792,2.8441,12.6371,3.6652
777971.0,-37.996,-0.9601,-21.792,3.0022,14.4793,3.9105
777981.0,-45.4994,-6.5912,-3.6775,3.9589,16.2677,3.7913
777991.0,-52.8017,-9.3805,14.267,6.2869,17.4357,3.2491
778001.0,-55.6843,-6.8785,28.2252,8.5154,17.4357,2.1966
778011.0,-50.9199,-2.7198,41.5849,8.567,17.4357,0.8306
778021.0,-54.1257,-3.4141,70.7558,5.253,15.2972,-0.7231
778031.0,-40.8786,4.4245,52.8209,2.2173,8.9656,-1.9614
778041.0,-43.7253,2.5163,67.5979,-0.5805,6.8297,-2.7994
778051.0,-41.2425,12.7587,59.7928,-0.1469,4.1702,-2.7319
778061.0,-37.644,11.9016,63.9443,-0.8301,1.5527,-2.1519
778071.0,-34.9913,13.1657,56.4098,0.0245,-0.6125,-1.1462
778081.0,-32.0775,9.1746,51.1497,0.166,-2.6276,-0.2645
778091.0,-28.9435,5.7413,40.201,-0.1586,-5.1035,0.2474
778101.0,-24.2174,2.083,29.1087,-0.6907,-6.8589,0.4512
778111.0,-20.4345,0.0096,17.1209,-0.9477,-7.6523,0.3773
778121.0,-15.4857,0.0335,7.2951,-1.293,-7.556,0.1123
778131.0,-12.0093,0.012,3.4955,-1.4117,-6.3699,-0.0819
778141.0,-9.9695,-0.5914,3.8642,-1.0084,-4.7688,-0.0931
778151.0,-9.5146,-2.9904,7.4101,-0.1554,-3.3901,0.0181
778161.0,-8.2863,-3.1484,9.0333,0.9482,-2.75,0.0617
778171.0,-7.5034,-2.6624,9.8665,1.7347,-2.5446,0.0452
778181.0,-6.3758,-0.68,8.1211,1.972,-2.6632,-0.0197
778191.0,-5.7006,0.8619,6.5098,1.3462,-2.8287,-0.0878
778201.0,-4.6807,1.0151,6.699,0.2692,-2.8883,-0.1362
778211.0,-4.0701,0.3711,7.6255,-0.5018,-2.75,-0.1564
778221.0,-3.814,-0.838,9.2919,-0.796,-2.4876,-0.1703
778231.0,-3.9241,-1.8364,11.734,-0.7056,-2.2572,-0.1878
778241.0,-4.4005,-2.5929,14.1617,-0.2873,-2.2471,-0.19
778251.0,-4.7118,-2.8323,14.3676,0.2565,-2.56,-0.1846
778261.0,-4.5777,-2.0758,12.8042,0.4927,-3.1118,-0.2469
778271.0,-4.2138,-0.9098,11.3701,0.3789,-3.6253,-0.3395
778281.0,-4.0845,0.6776,9.3972,0.3799,-3.8238,-0.3475
778291.0,-4.2928,1.8364,7.0198,0.2432,-3.9227,-0.2597
778301.0,-3.1867,1.3072,5.1571,-0.2868,-4.1127,-0.141
778311.0,-1.6759,-0.1365,3.8523,-0.7019,-4.0446,-0.0543
778321.0,-0.9984,-1.4006,3.6009,-0.837,-3.621,-0.041
778331.0,-1.0199,-2.3774,5.0015,-0.8711,-3.1943,-0.1011
778341.0,-1.0271,-2.7054,6.1842,-0.7556,-3.0506,-0.191
778351.0,-0.5363,-2.4086,6.4667,-0.5108,-3.0996,-0.2767
778361.0,-0.3855,-1.7382,6.3901,-0.0415,-3.016,-0.2932
778371.0,-0.2251,-0.7997,6.1339,0.5076,-2.8181,-0.2315
778381.0,-0.0215,-0.2155,6.5362,0.8806,-2.6829,-0.1203
778391.0,0.2538,0.1532,6.6822,1.0685,-2.7361,0.0128
778401.0,0.9457,0.1844,6.4404,1.1079,-2.9256,0.1373
778411.0,1.3455,0.012,5.9879,1.1334,-3.0756,0.2629
778421.0,1.257,-0.2083,5.3917,1.2137,-3.1331,0.3922
778431.0,1.2713,-0.4836,4.7022,1.3154,-3.1788,0.5172
778441.0,1.5179,-0.7159,4.051,1.4862,-3.182,0.6226
778451.0,2.648,-0.5315,2.9616,1.7155,-3.1549,0.7125
778461.0,3.4979,0.0814,1.0487,1.8007,-3.1448,0.8035
778471.0,3.8642,0.3591,-1.221,1.4229,-3.2773,0.8801
778481.0,4.8363,0.2705,-4.3551,0.6715,-3.4625,0.9216
778491.0,5.9233,-0.0599,-7.3574,-0.3634,-3.5327,0.8833
778501.0,6.8929,-0.1173,-9.6319,-1.375,-3.3768,0.7753
778511.0,7.0126,0.17,-10.1347,-2.0433,-2.9287,0.6768
778521.0,7.1826,0.3639,-9.4355,-2.1093,-2.336,0.6604
778531.0,7.6734,0.6393,-8.8657,-1.4713,-1.6937,0.7258
778541.0,8.0373,1.5036,-10.0389,-0.5337,-1.1595,0.8338
778551.0,6.7349,2.5905,-14.2168,-0.1213,-1.0227,0.9924
778561.0,4.7405,3.5434,-21.7322,-0.7849,-1.2888,1.1275
778571.0,5.0757,3.5482,-31.3664,-2.4456,-1.7368,1.1164
778581.0,2.2913,7.1156,-41.6519,-4.267,-1.6357,0.9126
778591.0,-1.9609,11.88,-48.7052,-5.212,-0.6188,0.8987
778601.0,-5.8945,16.7355,-53.0052,-3.7711,1.9369,1.5149
778611.0,-17.3244,20.3603,-55.9118,-0.3858,5.8846,2.7936
778621.0,-27.4591,15.9933,-55.4282,2.5329,9.6855,4.3287
778631.0,-42.4276,11.4251,-51.5639,4.8885,13.8791,5.4095
778641.0,-63.5254,8.758,-41.5322,6.6221,17.4357,6.024
778651.0,-78.4532,-2.1452,-25.9292,7.2612,17.4357,6.0826
778661.0,-78.4532,-12.6055,1.8268,7.1213,17.4357,4.4389
778671.0,-78.4532,-6.8402,26.7432,6.5652,17.4357,1.8975
778681.0,-78.4532,-6.0717,53.417,5.8383,17.4357,0.183
778691.0,-78.4532,-0.486,67.0688,4.7715,17.4357,-1.3404
778701.0,-55.5527,2.7605,78.4508,1.7448,15.145,-2.6781
778711.0,-55.2869,0.4812,78.4508,-2.4041,6.5753,-3.5683
778721.0,-49.5193,8.2384,76.4157,-1.8342,0.0596,-3.2549
778731.0,-45.9639,9.4906,62.9867,-0.331,-3.2406,-2.3562
778741.0,-38.0271,10.7835,39.8084,0.6981,-6.0858,-1.3122
778751.0,-33.5021,3.1125,28.7352,0.5832,-7.0111,-0.4486
778761.0,-26.9922,0.9313,11.9135,1.384,-6.6259,0.0367
778771.0,-22.3642,-4.063,8.3869,1.1946,-4.9774,-0.0048
778781.0,-18.2438,-3.2322,4.2832,1.4638,-3.032,-0.3677
778791.0,-17.4657,-3.0813,10.4076,0.9429,-1.1941,-0.9392
778801.0,-15.9167,0.6249,14.9638,0.5055,-0.3751,-1.499
778811.0,-16.6517,3.5099,23.037,-0.4906,-0.4869,-1.922
778821.0,-16.2471,6.6439,27.7823,-1.3681,-1.6825,-2.047
778831.0,-17.5758,8.0302,31.3233,-1.9145,-3.323,-1.8278
778841.0,-19.1512,8.4156,29.5325,-1.641,-5.1748,-1.2664
778851.0,-20.3196,6.0789,24.4616,-0.7774,-6.8089,-0.5183
778861.0,-19.7234,2.2003,14.801,0.4832,-7.978,0.19
778871.0,-16.4841,-1.1277,3.1316,1.2787,-8.4297,0.5672
778881.0,-12.6127,-4.3191,-4.7716,1.2297,-7.8322,0.5151
778891.0,-7.4364,-5.1619,-8.8298,0.8157,-6.2257,0.124
778901.0,-7.4196,-4.1108,-4.9632,-0.0952,-4.2191,-0.4752
778911.0,-6.5888,-2.6001,2.3415,-1.2404,-3.3779,-1.0578
778921.0,-7.2472,0.0599,9.098,-1.5623,-2.9458,-1.3494
778931.0,-9.5241,2.332,14.7507,-1.1228,-2.9149,-1.2494
778941.0,-9.9599,3.2274,16.4051,-0.4001,-3.7094,-0.8519
778951.0,-9.7659,2.5714,15.4953,0.4677,-4.6555,-0.3342
778961.0,-8.983,1.798,11.0133,1.4899,-5.2472,0.2081
778971.0,-7.7405,0.0287,6.79,1.7703,-5.6351,0.6008
778981.0,-5.6647,-1.731,3.0502,1.3255,-5.9964,0.745
778991.0,-4.3646,-2.9736,0.2897,0.5992,-6.1087,0.6843
779001.0,-3.0191,-3.6823,-1.3384,-0.0458,-5.9591,0.5055
779011.0,-2.4349,-3.2609,-1.9154,-0.5028,-5.6739,0.2815
779021.0,-2.4636,-2.9377,-0.6536,-0.6699,-5.3509,0.1293
779031.0,-2.1691,-2.7461,-0.1484,-0.2543,-5.0897,0.1272
779041.0,-1.0582,-2.9257,-1.2617,0.5034,-4.8853,0.2214
779051.0,0.5315,-2.8683,-4.3862,1.0898,-4.6911,0.3049
779061.0,2.4205,-2.6528,-7.5202,0.9684,-4.499,0.2724
779071.0,4.0414,-2.4229,-8.758,0.4273,-4.134,0.1362
779081.0,4.5514,-1.403,-8.9926,0.0511,-3.4859,-0.0053
779091.0,4.4484,-0.8212,-6.8043,-0.132,-2.8101,-0.0612
779101.0,4.5633,-0.6704,-4.3742,0.1543,-2.295,0.0181
779111.0,4.4915,-0.7015,-2.6025,0.8892,-1.9385,0.19
779121.0,4.2449,0.0072,-3.8427,1.6597,-1.8762,0.3916
779131.0,4.0654,0.9409,-9.7109,1.5708,-2.2945,0.5529
779141.0,4.3838,1.2282,-19.8024,-0.257,-3.2837,0.5364
779151.0,8.0302,2.6743,-35.3264,-3.124,-4.1308,0.306
779161.0,7.6686,4.7429,-44.2257,-6.3444,-3.7876,-0.0335
779171.0,2.3583,8.1259,-45.3582,-7.9694,-2.2572,-0.0415
779181.0,-1.5706,12.7898,-45.5784,-6.5578,-0.4842,0.5268
779191.0,-7.0102,15.0619,-51.5496,-2.3535,1.4963,1.7405
779201.0,-14.0492,12.5743,-62.3905,2.5435,4.7518,3.182
779211.0,-22.3714,6.8139,-70.447,5.3323,8.2504,4.0749
779221.0,-39.9496,2.6217,-68.3664,7.0425,13.5369,4.1888
779231.0,-68.5891,1.3623,-57.4632,8.2169,17.4357,3.7227
779241.0,-78.4532,-0.747,-39.2051,8.6043,17.4357,2.7106
779251.0,-78.4532,-5.6575,-7.9128,8.4154,17.4357,0.878
779261.0,-78.4532,2.9209,12.7515,7.0691,17.4357,-1.4878
779271.0,-78.4532,-8.9639,53.9007,1.2499,17.4357,-3.4555
779281.0,-78.4532,-11.1498,78.4508,-0.7322,17.4357,-4.8087
779291.0,-78.4532,-0.3448,78.4508,-2.3514,14.0089,-5.7628
779301.0,-72.8125,2.466,78.4508,-2.6116,3.7636,-5.2844
779311.0,-62.5222,17.9948,78.4508,0.8407,-2.079,-3.9078
779321.0,-61.8374,20.7003,73.6385,1.2393,-6.2997,-2.4701
779331.0,-53.9725,18.7179,49.5145,1.0648,-11.7208,-0.8088
779341.0,-45.1259,10.2592,28.1055,3.0261,-13.3129,0.9945
779351.0,-33.2004,4.0606,2.7916,5.6484,-12.2178,2.386
779361.0,-25.29,-0.8332,-14.1545,5.2174,-10.2591,2.7489
779371.0,-7.2305,-4.9344,-20.0155,2.9314,-7.5725,2.1891
779381.0,-9.6893,-2.8635,-14.528,0.8125,-3.2746,1.1962
779391.0,-7.4891,-3.3064,-0.838,-1.831,-1.8906,0.1995
779401.0,-6.8929,-2.4181,10.2759,-2.2641,-1.1802,-0.3704
779411.0,-8.5114,1.0199,16.8719,-0.7141,-0.572,-0.456
779421.0,-9.5481,2.5043,20.1376,0.4454,-1.0727,-0.2182
779431.0,-9.6462,2.8563,19.0674,0.8439,-2.3317,0.0894
779441.0,-7.6231,2.1955,15.6198,0.7641,-3.5428,0.2916
779451.0,-6.9432,1.6735,10.9295,0.7444,-4.0403,0.3767
779461.0,-6.11,1.8675,6.6439,0.5577,-4.0318,0.3528
779471.0,-5.035,1.0774,5.6383,-0.009,-3.7461,0.2453
779481.0,-5.4468,1.7142,4.9249,-0.4007,-3.2054,0.1123
779491.0,-5.6599,1.2354,6.6415,-1.0541,-2.7989,-0.0074
779501.0,-5.861,0.2897,9.754,-1.7246,-2.6584,-0.1304
779511.0,-7.0318,-0.905,14.6429,-1.8619,-2.6446,-0.2267
779521.0,-7.2449,-0.6105,17.0491,-1.1148,-2.9447,-0.2655
779531.0,-7.5154,1.1971,15.8855,-0.0681,-3.4114,-0.2357
779541.0,-6.9623,3.4213,12.4977,0.397,-3.9914,-0.1421
779551.0,-6.2513,4.1755,10.8936,0.1383,-4.4256,-0.0138
779561.0,-5.7413,4.8411,8.9304,-0.1261,-4.6437,0.1543
779571.0,-5.4157,4.719,7.2065,-0.481,-4.7427,0.3427
779581.0,-4.7285,4.1396,5.6862,-1.0275,-4.8337,0.5013
779591.0,-4.6855,2.6264,6.7732,-1.6123,-4.831,0.6119
779601.0,-4.8363,0.9505,8.3534,-1.5937,-4.8811,0.7343
779611.0,-4.5825,0.0694,7.3358,-0.9514,-5.1093,0.8705
779621.0,-3.4405,-0.2969,4.2138,-0.2384,-5.3621,0.9972
779631.0,-1.9992,-0.0646,-0.1077,0.1591,-5.3956,1.1041
779641.0,-0.8164,-0.0766,-3.3016,-0.0192,-5.211,1.1808
779651.0,0.723,-0.4453,-6.2369,-0.5433,-4.955,1.2239
779661.0,2.3008,-1.063,-9.0884,-1.3117,-4.5836,1.2004
779671.0,4.4125,-2.1141,-9.9359,-2.2854,-4.0989,1.0892
779681.0,5.2337,-2.9281,-8.7676,-2.9814,-3.5226,0.9535
779691.0,6.1555,-3.5961,-7.1299,-3.1725,-3.1043,0.8477
779701.0,6.6463,-3.8331,-7.0701,-2.9229,-2.9357,0.7859
779711.0,7.2209,-3.8164,-9.1219,-2.3902,-2.8793,0.7524
779721.0,7.4244,-3.1987,-13.4219,-1.8193,-2.6792,0.7407
779731.0,8.011,-2.6839,-18.6149,-1.4947,-2.2822,0.7402
779741.0,8.7508,-2.2745,-23.1878,-1.4207,-1.4974,0.7072
779751.0,7.7165,-1.6807,-26.827,-1.6043,-0.4906,0.6284
779761.0,7.0964,-0.486,-29.6474,-1.8214,0.5832,0.5279
779771.0,5.3415,1.0654,-30.6793,-1.7719,1.7932,0.4965
779781.0,2.296,3.2394,-32.7862,-1.4729,2.7404,0.5976
779801.0,-6.0047,6.6391,-42.5043,-0.1245,4.4687,1.234
779811.0,-12.7132,7.6183,-48.6598,0.8668,6.2348,1.7507
779821.0,-22.6587,6.4045,-48.0133,1.6362,9.0071,2.3642
779831.0,-37.3112,4.13,-39.5355,2.8723,12.4174,2.9421
779841.0,-51.5615,1.9201,-29.7264,4.8156,15.5829,3.3763
779851.0,-63.2764,-3.7804,-16.8169,6.7541,17.4357,3.2736
779861.0,-67.8636,-8.3199,1.4126,7.6443,17.4357,2.1343
779871.0,-69.1661,-5.5474,19.5151,6.5333,17.4357,0.2336
779881.0,-66.8892,-5.4396,44.944,2.668,17.4357,-1.6362
779891.0,-67.641,-6.0118,58.1121,-0.8306,16.3747,-2.7739
779901.0,-56.9988,2.9688,69.1469,-1.3244,13.4337,-3.1049
779911.0,-49.0093,0.8475,78.4508,-4.0701,6.2374,-3.1533
779921.0,-41.3838,6.8929,68.0743,-2.3801,0.6699,-2.0252
779931.0,-43.7229,7.908,61.5477,0.8109,-0.7806,-0.4193
779941.0,-39.2242,8.43,46.809,3.1288,-3.0213,1.0626
779951.0,-35.0727,2.6552,38.2019,3.3454,-5.1838,1.9741
779961.0,-28.0912,-0.5291,25.5342,4.0765,-5.8586,2.4706
779971.0,-24.6651,-3.1388,18.3659,4.1537,-5.1248,2.4834
779981.0,-20.0299,-4.2713,14.1354,3.0213,-4.706,2.0481
779991.0,-18.318,-5.2744,15.3061,1.4984,-4.3133,1.3787
780001.0,-15.8305,-4.9775,16.3979,0.9504,-3.7583,0.8072
780011.0,-15.7443,-4.379,19.2254,0.8168,-3.2305,0.3432
780021.0,-15.2582,-3.1819,20.6428,0.48,-3.5753,-0.1011
780031.0,-14.9853,-2.3008,20.8798,-0.2629,-4.6602,-0.5608
780041.0,-14.8919,-0.261,18.6628,-0.6284,-5.6457,-0.9264
780051.0,-15.2056,1.834,16.3524,-0.3491,-5.9719,-1.0483
780061.0,-14.7172,3.8211,13.3573,0.2102,-5.9815,-0.9418
780071.0,-13.9462,4.5179,11.3677,0.3954,-5.9884,-0.7535
780081.0,-12.6366,4.3598,9.347,0.24,-6.0517,-0.5678
780091.0,-11.9327,3.1316,9.0142,-0.1219,-5.9937,-0.4448
780101.0,-11.8968,2.0997,9.2416,-0.3852,-5.9198,-0.3932
780111.0,-12.2032,1.1612,10.3094,-0.5087,-5.9836,-0.4039
780121.0,-11.0852,1.482,9.5337,-0.4385,-6.3407,-0.4651
780131.0,-10.6039,2.4541,7.0868,-0.3948,-6.7376,-0.5028
780141.0,-9.1889,3.383,4.1731,-0.4757,-6.9398,-0.4848
780151.0,-7.8673,4.0534,2.7438,-0.6518,-6.8222,-0.4193
780161.0,-6.9743,4.8698,0.6584,-0.787,-6.6259,-0.2804
780171.0,-5.3439,4.5394,-1.075,-1.2558,-6.5178,-0.108
780181.0,-3.7589,3.2657,-1.154,-1.8805,-6.3508,0.0282
780191.0,-3.1771,1.3695,0.0455,-2.1551,-6.1129,0.1485
780201.0,-2.6456,-0.1269,0.6273,-1.814,-5.9671,0.2288
780211.0,-1.9225,-0.6009,-0.237,-1.0254,-5.8708,0.3012
780221.0,-0.5938,-0.7805,-2.2075,-0.0766,-5.6819,0.422
780231.0,0.1317,-0.0742,-5.2505,0.721,-5.3227,0.5949
780241.0,1.1492,-0.3208,-7.2951,1.0509,-4.855,0.8051
780251.0,2.3918,-1.008,-9.1099,0.9998,-4.3607,0.9865
780261.0,3.7804,-2.3942,-9.6893,0.5438,-3.8748,1.0515
780271.0,4.7932,-3.9217,-8.6024,-0.0261,-3.3922,0.9637
780281.0,5.5641,-5.3032,-6.3805,-0.3528,-3.0123,0.7466
780291.0,6.3614,-5.9161,-4.7477,-0.2432,-2.825,0.4454
780301.0,7.1347,-5.5378,-4.6567,0.2309,-2.7308,0.1208
780311.0,7.0437,-3.5171,-7.1706,0.6146,-2.7835,-0.1884
780321.0,6.6343,-1.4293,-10.3166,0.5406,-2.9261,-0.4294
780331.0,4.616,1.2713,-13.7858,0.3363,-2.7579,-0.5459
780341.0,3.7733,2.8276,-16.9773,0.05,-2.5951,-0.5321
780351.0,4.7645,3.7373,-20.0443,0.1016,-2.2817,-0.472
780361.0,4.6711,5.6862,-25.2804,0.6263,-1.7783,-0.3719
780371.0,3.5626,7.9679,-33.5811,0.9908,-1.5405,-0.2331
780381.0,0.9122,10.1514,-43.6271,1.4548,-0.862,0.009
780391.0,0.2035,11.7867,-54.3747,2.1902,0.821,0.4001
780401.0,-5.1739,12.7635,-60.1974,2.7622,3.7322,0.9333
780411.0,-14.631,12.2416,-60.9755,3.0708,7.0404,1.516
780421.0,-22.6252,8.5641,-54.7482,3.1506,10.1559,2.0332
780431.0,-37.5363,6.9528,-45.5473,4.2665,13.944,2.4254
780441.0,-54.0084,4.944,-33.7678,5.8591,17.2362,2.6153
780451.0,-67.0209,1.7214,-22.0578,7.804,17.4357,2.3014
780461.0,-75.8866,-2.5929,-4.4293,8.6234,17.4357,1.0057
780471.0,-78.4077,1.0822,7.6399,7.1505,17.4357,-1.1164
780481.0,-74.4046,-5.5354,42.5402,1.2058,17.4357,-3.3491
780491.0,-78.4532,-6.7828,57.468,-2.7872,17.4357,-4.5081
780501.0,-70.7104,0.3639,77.1915,-3.0847,16.4295,-4.8337
780511.0,-61.0593,4.8195,78.4508,-3.7157,9.7887,-4.5368
780521.0,-51.5903,11.3054,78.4508,-1.0632,4.2734,-2.9192
780532.0,-47.5393,14.8991,78.4508,2.6132,1.5112,-0.8636
780541.0,-42.6096,12.9861,67.2938,3.8248,-2.3988,0.7529
780551.0,-38.8316,5.9328,56.4194,3.4422,-6.3385,1.7666
780561.0,-30.5117,-1.0032,38.1205,4.0829,-8.6085,2.2663
780571.0,-26.5685,-5.1763,25.9268,4.317,-9.0172,2.0305
780581.0,-19.7522,-4.7214,12.311,3.9839,-8.8086,1.358
780591.0,-14.7483,-4.9129,8.0086,2.5339,-7.8306,0.3693
780601.0,-11.6598,-1.4317,3.5721,1.5096,-6.4966,-0.6593
780611.0,-11.2049,2.8659,3.0478,0.1916,-5.2461,-1.5591
780621.0,-9.7181,7.8889,2.4924,-1.3324,-4.648,-2.1582
780631.0,-9.0118,9.8474,5.6814,-2.4642,-3.9563,-2.286
780641.0,-8.1977,11.1977,7.0246,-2.3796,-3.2038,-1.9827
780651.0,-7.8985,11.0397,9.8234,-1.9789,-2.71,-1.5006
780661.0,-6.9767,10.9918,9.6702,-1.177,-2.6074,-0.9216
780671.0,-5.5976,9.3972,9.1123,-0.4821,-2.461,-0.332
780681.0,-4.3287,7.2377,8.5018,-0.0463,-2.2131,0.1229
780691.0,-3.3998,5.1116,8.8298,-0.05,-2.0412,0.3544
780701.0,-3.1723,3.5482,8.7963,-0.3959,-2.0933,0.3842
780711.0,-3.7996,3.2274,8.4539,-0.97,-2.2051,0.2442
780721.0,-4.1707,2.7892,10.0844,-1.5687,-2.1508,0.0926
780731.0,-5.1667,1.8914,12.8928,-1.8044,-2.0204,0.0208
780741.0,-5.5019,1.2091,15.4665,-1.9396,-2.378,-0.0825
780751.0,-5.1787,0.7207,16.4362,-2.0284,-3.2448,-0.2389
780761.0,-4.7525,0.9744,15.1002,-1.8996,-4.1787,-0.3986
780771.0,-4.1156,1.4676,12.5336,-1.6054,-4.8454,-0.4981
780781.0,-3.3423,2.4181,8.8729,-1.3111,-5.1881,-0.5326
780791.0,-3.1029,3.4261,5.6503,-1.433,-5.3408,-0.5444
780801.0,-2.727,4.0917,3.3208,-1.9587,-5.394,-0.5342
780811.0,-2.5833,4.3934,2.8922,-2.4679,-5.2371,-0.4608
780821.0,-2.4205,4.0677,3.2561,-2.5807,-4.971,-0.2623
780831.0,-2.4277,3.2801,3.9337,-2.3259,-4.8007,-0.017
780841.0,-1.8603,3.158,3.7469,-1.6778,-4.7454,0.2325
780851.0,-0.0814,2.8826,2.059,-0.9237,-4.7363,0.547
780861.0,2.1284,1.834,-0.1006,-0.5433,-4.7656,0.8312
780871.0,4.1659,1.3503,-3.0813,-0.6098,-4.7768,0.9833
780881.0,4.8363,0.8811,-3.9744,-1.0147,-4.4916,1.0376
780891.0,5.1475,0.486,-3.5793,-1.4473,-4.1883,1.0791
780901.0,4.3503,0.0431,-2.5546,-1.648,-4.043,1.1275
780911.0,4.3598,-0.5626,-2.7581,-1.3313,-3.9664,1.2361
780921.0,4.5394,-1.1732,-3.395,-0.4816,-3.6349,1.3766
780931.0,6.5577,-1.6328,-4.2282,0.6178,-3.1565,1.532
780941.0,6.8738,-1.142,-7.2042,1.1765,-3.0405,1.6634
780951.0,7.331,-1.8699,-9.4427,1.632,-2.6664,1.8007
780961.0,4.9823,-0.9601,-11.0995,2.1614,-1.665,1.8347
780971.0,4.8076,-0.6776,-13.0652,1.5745,-1.5139,1.723
780981.0,5.8562,-0.838,-14.0995,0.8785,-1.0903,1.6176
780991.0,5.0829,-1.1325,-13.1753,0.3666,-0.2299,1.5453
781001.0,5.8155,-1.9537,-12.9909,0.1421,0.2778,1.4516
781011.0,7.0964,-1.4222,-15.184,0.6385,0.9269,1.2909
781021.0,8.9088,0.723,-20.5303,1.5453,1.8863,1.1105
781031.0,6.4524,4.0438,-24.8734,1.9757,3.1235,1.0078
781041.0,-0.6369,8.7795,-28.4838,1.5415,4.1712,1.1722
781051.0,-9.1578,10.9559,-29.961,0.497,4.773,1.872
781061.0,-13.1849,7.4029,-29.712,0.1485,5.6782,3.1661
781071.0,-12.7252,-2.8563,-25.2516,0.7471,6.8983,4.4123
781081.0,-13.0915,-11.1546,-20.8056,2.6212,8.0626,4.7805
781091.0,-12.5911,-16.1513,-21.4377,5.0726,8.542,4.134
781101.0,-19.3164,-14.0468,-27.5142,7.4592,9.686,2.833
781111.0,-28.345,-13.7403,-28.1199,8.3063,11.3782,1.5208
781121.0,-34.0048,-17.2622,-24.8422,7.7422,12.8287,0.1282
781131.0,-39.5498,-20.6667,-13.3956,7.0404,14.5751,-1.8204
781141.0,-53.7618,-13.5225,-1.6927,8.0035,16.9047,-4.3069
781151.0,-67.8182,3.7613,6.8642,8.4851,17.4357,-6.7259
781161.0,-76.8156,17.4777,26.6331,5.6979,17.4357,-8.4468
781171.0,-65.8525,33.0639,35.3528,3.007,15.8213,-8.5042
781181.0,-67.4973,35.0798,64.1143,1.0781,15.9836,-7.0558
781191.0,-58.7944,38.3431,78.4508,0.3916,12.2019,-4.7981
781201.0,-54.8392,31.4119,78.4508,-0.4959,4.2979,-2.221
781211.0,-51.5567,27.732,78.4508,2.8101,-2.8489,0.8072
781221.0,-51.1737,16.4506,69.0344,5.4275,-7.2197,3.2267
781231.0,-46.7851,9.0022,43.3853,6.3258,-10.9903,4.49
781241.0,-41.9704,-0.4573,27.0186,4.6751,-13.505,4.4378
781251.0,-32.4654,-4.3191,7.6088,3.6003,-14.4772,3.6285
781261.0,-23.8582,-3.9887,-7.8338,2.4679,-13.356,2.4626
781271.0,-14.5256,-1.8555,-21.1983,0.3108,-11.6197,1.1531
781281.0,-8.8873,1.1636,-20.3771,-1.3149,-7.854,-0.0341
781291.0,-9.2273,1.1827,-8.2815,-2.5068,-5.1237,-0.9269
781301.0,-5.3127,2.8611,-2.636,-1.989,-3.9573,-1.4186
781311.0,-6.0932,5.2792,2.5762,-0.1016,-2.461,-1.4511
781321.0,-5.4157,7.4915,3.4716,1.3947,-2.0497,-1.2169
781331.0,-3.225,8.6479,1.7238,1.8097,-2.2381,-0.919
781341.0,-2.3798,9.5217,0.1413,1.6341,-1.9779,-0.6103
781351.0,-3.0023,9.2057,1.1971,1.1249,-1.3149,-0.2767
781361.0,-2.8084,7.75,3.3232,0.5215,-0.7615,0.0559
781371.0,-1.6233,5.2984,6.2345,-0.149,-0.3879,0.2847
781381.0,-1.3886,3.3902,10.1945,-0.6784,-0.0968,0.3145
781391.0,-1.8579,2.8156,13.5871,-1.0589,-0.1362,0.1974
781401.0,-2.4469,2.6121,16.4051,-1.4867,-0.6295,0.0085
781411.0,-3.1963,3.4093,16.9533,-1.822,-1.4521,-0.1916
781421.0,-4.0438,4.3,16.4051,-2.0183,-2.287,-0.3209
781431.0,-4.8052,5.2864,14.7818,-1.8305,-2.8548,-0.3177
781441.0,-5.2768,6.1699,12.2152,-1.4191,-3.1161,-0.1894
781451.0,-4.9153,5.952,9.9886,-1.2664,-3.2092,-0.0016
781461.0,-3.7828,4.8578,9.1698,-1.5335,-3.2267,0.1038
781471.0,-2.6647,3.9887,9.9072,-1.9268,-3.1895,0.0617
781481.0,-2.3703,4.2784,10.0748,-2.3259,-3.2916,-0.0484
781491.0,-2.7773,4.5753,10.6614,-2.8814,-3.5907,-0.1426
781501.0,-3.2178,4.9297,10.8218,-3.2203,-3.943,-0.1431
781511.0,-3.6296,5.0302,10.6446,-3.19,-4.2048,-0.009
781521.0,-3.5698,4.8171,9.9623,-2.8473,-4.3915,0.2379
781531.0,-3.3351,4.2234,9.6343,-2.3924,-4.5432,0.5369
781541.0,-3.0813,3.5626,9.1028,-1.8209,-4.7395,0.8599
781551.0,-3.0239,2.8204,8.2815,-1.1196,-4.9667,1.209
781561.0,-2.818,2.3655,5.4324,-0.3331,-5.2088,1.5852
781571.0,-2.0782,1.8675,1.3431,0.1644,-5.3802,1.9225
781581.0,-0.7159,1.6424,-3.237,0.1564,-5.3664,2.1678
781591.0,0.5602,0.9649,-6.0813,-0.3384,-5.0327,2.32
781601.0,1.3264,0.2179,-6.6439,-1.0616,-4.523,2.3801
781611.0,2.7629,-0.735,-6.0118,-1.8964,-4.2729,2.3546
781621.0,3.5338,-1.7382,-5.0685,-2.4286,-4.1946,2.3046
781631.0,3.5602,-2.1069,-5.2625,-2.4089,-4.1228,2.2955
781641.0,3.4668,-2.7078,-6.5721,-2.0226,-4.1356,2.3338
781651.0,4.9775,-2.6576,-10.3549,-1.4697,-4.258,2.3551
781661.0,5.4564,-1.834,-15.8376,-0.9355,-4.1808,2.3732
781671.0,4.1683,-0.2945,-22.6659,-0.6353,-4.0696,2.4302
781681.0,1.7526,0.7039,-29.0824,-0.2293,-3.637,2.6297
781691.0,-2.9066,-0.091,-36.0112,1.0701,-2.5685,3.04
781701.0,-2.3822,-5.6527,-46.1865,2.767,-1.1307,3.4651
781711.0,2.9616,-13.6469,-54.3963,4.0004,0.8908,3.3214
781721.0,-1.4557,-15.5312,-58.0833,5.2647,4.1861,2.4413
781731.0,-9.8952,-13.2447,-60.1974,5.8389,7.1404,1.1531
781741.0,-23.602,-7.6207,-58.8112,5.5925,10.3421,-0.0261
781751.0,-40.1244,-5.047,-46.8761,4.8183,13.6343,-0.745
781761.0,-51.9757,-5.3678,-31.7399,4.7837,15.8053,-1.1728
781771.0,-62.0266,-5.8945,-18.5575,6.7573,17.4357,-1.615
781781.0,-65.1845,-6.1651,-16.2518,10.5018,17.4357,-2.7313
781791.0,-71.9984,-1.4365,-12.5121,13.6194,17.4357,-5.0817
781801.0,-78.4532,19.0842,-11.2958,11.9023,17.4357,-8.0982
781811.0,-78.4532,23.6547,26.7552,2.56,17.4357,-10.273
781821.0,-78.4532,31.7471,44.4005,-3.0916,17.4357,-9.9313
781831.0,-78.4532,43.7971,78.4508,-5.1306,16.3598,-7.9013
781841.0,-67.4183,33.5116,78.4508,-4.7534,10.8093,-5.0343
781851.0,-66.4391,30.7224,78.4508,-0.8445,6.5849,-1.557
781861.0,-56.9054,25.6874,78.4508,3.4704,0.5662,1.8182
781871.0,-51.7962,12.536,72.3408,5.9059,-4.2957,4.3224
781881.0,-46.6007,6.6319,53.5679,7.25,-7.8997,5.6244
781891.0,-43.8307,-0.6728,40.304,6.529,-10.6694,5.7942
781901.0,-39.466,-2.3487,23.5901,5.4962,-12.7074,5.2567
781921.0,-29.2356,-0.6249,-5.5067,2.9107,-13.3363,3.4731
781941.0,-12.2942,4.3646,-17.3891,-1.0674,-8.1743,1.6692
781951.0,-11.8082,3.1053,-5.5857,-2.8457,-5.8958,0.9892
781961.0,-6.0597,2.8276,-1.8986,-3.098,-5.4089,0.5348
781971.0,-7.0437,3.6799,0.7877,-1.7528,-4.077,0.3927
781981.0,-6.4452,4.3287,2.4995,-0.8136,-3.4508,0.3954
781991.0,-4.4939,4.6663,2.4756,-0.4752,-3.4736,0.4161
782001.0,-3.4333,5.3558,1.1133,-0.282,-3.2666,0.473
782011.0,-3.2896,5.5234,0.6345,-0.3267,-2.7734,0.5555
782021.0,-2.9185,5.1858,1.482,-0.6657,-2.2822,0.6135
782031.0,-1.8004,4.4101,2.7174,-1.3026,-1.9417,0.6093
782041.0,-0.7039,3.541,4.1946,-2.2019,-1.8395,0.4906
782051.0,-0.4453,2.8515,6.2082,-3.2118,-1.9012,0.3033
782061.0,-0.6105,2.1883,8.3366,-4.0329,-2.1359,0.1219
782071.0,-0.9146,1.7047,9.9886,-4.3968,-2.5334,-0.0186
782081.0,-1.2282,1.7023,10.3262,-4.126,-2.9186,-0.0681
782091.0,-1.8747,1.9561,9.6295,-3.314,-3.0932,0.0122
782101.0,-2.2075,1.6664,9.426,-2.1465,-2.8968,0.2442
782111.0,-1.3551,0.9361,9.6295,-1.0259,-2.6345,0.5034
782121.0,-0.5315,0.3232,9.8904,-0.3783,-2.6654,0.6598
782131.0,0.0742,-0.1844,10.1562,-0.0548,-2.8394,0.729
782141.0,0.2873,0.0359,9.5912,0.1431,-3.0235,0.745
782151.0,-0.6297,0.4166,8.6933,-0.0154,-3.3433,0.7348
782161.0,-1.0989,0.1748,8.0397,-0.3379,-3.6673,0.7396
782171.0,-0.7661,-0.2394,7.2018,-0.4869,-3.8131,0.7524
782181.0,-0.328,-0.4788,6.5936,-0.5603,-3.8599,0.7343
782191.0,0.1173,-0.419,6.1746,-0.6726,-3.9089,0.7035
782201.0,0.0575,-0.5004,6.4979,-0.8062,-4.0339,0.6848
782211.0,0.2274,-0.4788,5.8897,-0.762,-4.2835,0.7029
782221.0,0.8547,-0.4357,4.3,-0.564,-4.5325,0.7599
782231.0,1.5012,-0.4932,1.7502,-0.323,-4.6517,0.8556
782241.0,2.5977,-0.7997,-0.5578,-0.2272,-4.6086,0.9386
782251.0,3.4117,-0.8499,-2.6743,-0.2895,-4.4384,0.9871
782261.0,4.312,-0.9218,-4.4245,-0.6103,-4.2872,1.0073
782271.0,5.0326,-1.403,-5.4731,-1.0201,-4.1356,1.028
782281.0,4.9728,-2.1452,-5.5474,-1.2116,-3.9121,1.0504
782291.0,5.4348,-2.478,-6.8211,-1.1377,-3.8631,1.0717
782301.0,5.2289,-2.8539,-8.4491,-0.704,-3.7934,1.0956
782311.0,4.4125,-1.2091,-15.9478,-0.0005,-3.8317,1.1233
782321.0,2.4756,0.7901,-27.6123,-0.1256,-3.8301,1.1797
782331.0,0.0886,0.0263,-37.2897,-1.0962,-3.4891,1.2542
782341.0,3.6799,-3.0239,-47.1825,-1.4468,-2.6451,1.3633
782351.0,1.2402,-5.5952,-55.5958,-0.3145,-0.4778,1.35
782361.0,-1.664,-8.0469,-60.6044,1.9741,2.8303,1.1733
782371.0,-7.2065,-9.7396,-64.1407,4.3644,6.4199,0.712
782381.0,-19.0626,-8.6742,-61.5789,6.2177,10.5725,-0.1474
782391.0,-37.316,-5.6168,-53.8815,7.5799,14.9534,-1.2052
782401.0,-60.7409,-0.4525,-45.3222,8.1546,17.4357,-2.4206
782411.0,-78.4532,-0.8739,-34.0791,7.5757,17.4357,-3.662
782421.0,-78.4532,2.3727,-26.3242,6.7238,17.4357,-5.2248
782431.0,-78.4532,10.9535,-12.9598,4.1292,17.4357,-6.6695
782441.0,-78.4532,11.054,22.5414,-1.6123,17.4357,-7.4437
782451.0,-78.4532,12.7683,44.671,-4.018,17.4357,-6.8052
782461.0,-78.4532,13.0269,70.6481,-2.5089,17.4357,-5.6106
782471.0,-78.4532,25.7353,76.9473,-1.5979,17.4357,-4.681
782481.0,-75.992,7.0318,78.4508,-5.7128,10.6199,-3.91
782491.0,-59.3403,22.6108,78.4508,-1.5096,1.4356,-1.798
782521.0,-64.6195,1.0774,48.959,3.3002,-15.4871,3.2837
782531.0,-55.0786,-2.8754,16.0244,5.4254,-17.4363,4.1792
782541.0,-44.58,-6.5553,3.6871,6.1321,-16.5471,4.5261
782551.0,-34.9146,-5.5378,-11.2504,6.2704,-14.3101,4.4415
782561.0,-18.2606,-7.1275,-20.559,3.5891,-12.8755,3.7791
782571.0,-5.6192,-5.2026,-24.7489,1.0706,-9.7967,2.6765
782581.0,-3.9313,-6.699,-14.7435,-1.4915,-6.695,1.4952
782591.0,-0.0718,-5.2409,-11.6646,-2.8979,-5.2392,0.3725
782601.0,0.1867,-3.7038,-5.77,-3.2448,-3.5864,-0.5108
782611.0,-0.0551,-1.4772,-1.1612,-2.7505,-2.3754,-1.0765
782621.0,-0.1101,0.5794,1.5371,-2.3216,-1.9427,-1.4175
782631.0,0.2131,2.0327,3.4046,-2.0571,-1.9433,-1.5947
782641.0,1.3575,4.1492,2.9521,-1.7198,-2.0215,-1.6288
782651.0,0.9649,5.2744,2.976,-1.6511,-2.0912,-1.5516
782661.0,1.4796,6.6487,1.2737,-1.9193,-2.3982,-1.4037
782671.0,0.5076,6.8283,1.0965,-2.2551,-2.3913,-1.1462
782681.0,-0.2562,6.5841,0.9912,-2.1731,-2.0928,-0.7716
782691.0,-0.3903,5.2074,2.1715,-1.9119,-1.7852,-0.3741
782701.0,0.2514,4.5011,2.399,-1.383,-1.5671,-0.0128
782711.0,1.166,3.7278,1.9417,-0.7402,-1.3186,0.3257
782721.0,0.9194,3.0646,1.9225,-0.1783,-1.0009,0.613
782731.0,1.1779,2.7031,0.6919,0.2097,-0.7859,0.8477
782741.0,1.8076,1.7047,0.0024,0.2256,-0.5922,1.0068
782751.0,2.8419,1.2019,-1.2761,0.0607,-0.2655,1.0775
782761.0,3.2537,0.5746,-1.3551,-0.4427,0.1602,1.0658
782771.0,3.5674,0.2562,-1.2761,-1.102,0.5475,1.0052
782781.0,3.2489,0.0048,-0.3424,-1.7778,0.9557,0.9402
782791.0,2.6528,0.0024,0.4836,-2.2588,1.3814,0.9296
782801.0,1.47,0.0,1.6448,-2.6015,1.7613,0.9903
782811.0,0.0407,-0.1197,2.5115,-2.7074,2.1343,1.1504
782821.0,-0.7877,-0.9313,4.0294,-2.568,2.6127,1.3904
782831.0,-0.5028,-1.8172,5.2505,-2.3189,2.9995,1.5958
782841.0,-0.3855,-2.569,6.2417,-2.1747,3.2187,1.699
782851.0,-0.3543,-3.1053,6.8043,-2.1705,3.3028,1.7129
782861.0,-7.0078,-18.5575,38.652,-1.6873,4.6171,1.6283
782871.0,-6.4763,-31.3186,45.1666,3.753,5.195,1.6799
782881.0,-6.9911,-23.7241,44.0605,3.4023,1.4543,0.4523
782891.0,-2.715,-12.3038,24.847,0.8524,-3.2778,-0.8418
782901.0,-0.565,-3.2657,14.1521,-0.6806,-4.0739,-1.474
782911.0,1.3575,2.241,7.4939,-0.8477,-3.0825,-1.4
782921.0,-1.9345,3.5267,9.2129,-0.6598,-2.0103,-1.0541
782931.0,5.964,5.5713,-0.431,-0.7742,-2.6297,-0.6572
782941.0,3.2513,1.1803,10.2041,-0.853,-1.7171,-0.4624
782951.0,4.8004,5.6264,2.2482,0.9073,-0.9935,-0.1362
782961.0,1.6735,2.8946,10.2831,0.4342,-0.4262,0.116
782971.0,1.9249,0.6991,12.8664,0.5832,-0.1788,0.6071
782981.0,2.2146,-2.7366,15.8448,0.4166,-0.1799,0.779
782991.0,0.7685,-6.1052,18.4018,0.0708,-0.3517,0.6455
783001.0,1.1923,-7.4029,19.8838,-0.4895,-0.8902,0.3267
783011.0,1.968,-6.8187,20.0227,-0.596,-1.3431,-0.1431
783021.0,2.9401,-4.063,16.1609,-0.1634,-1.5437,-0.655
783031.0,2.9233,-1.0846,14.2,0.108,-1.4202,-1.1025
783041.0,2.6217,2.1931,12.1961,0.2347,-1.1877,-1.3042
783051.0,2.8778,3.1795,11.5808,0.009,-0.9759,-1.235
783061.0,3.1436,3.9217,9.651,-0.3634,-0.7849,-1.0509
783071.0,2.1572,3.0119,10.8984,-1.0371,-0.2847,-0.8296
783081.0,-0.0742,1.1756,14.8632,-1.6719,-0.0319,-0.6566
783091.0,-0.2418,-0.7207,16.7857,-1.8241,-0.4736,-0.5247
783101.0,0.2993,-1.6759,15.2271,-1.301,-0.8583,-0.4603
783111.0,0.838,-1.8771,12.8856,-0.68,-0.9541,-0.505
783121.0,1.5514,-1.7741,12.2823,-0.547,-1.0408,-0.6779
783131.0,1.8794,-0.7015,11.7292,-0.6987,-1.1818,-0.903
783141.0,1.6257,0.4453,12.7204,-1.0243,-1.3595,-1.0461
783151.0,1.5036,1.5251,11.6262,-1.2521,-1.8326,-1.0765
783161.0,1.0726,0.9313,9.754,-1.3335,-2.104,-1.0089
783171.0,1.4605,1.2282,8.2408,-1.4106,-2.1343,-0.9291
783181.0,1.5012,1.6448,8.3342,-1.6495,-2.1737,-0.8551
783191.0,1.7166,1.9824,7.4747,-1.7709,-2.3163,-0.7194
783201.0,2.1189,1.5562,6.45,-1.7597,-2.3652,-0.5268
783211.0,2.5067,0.9026,5.8371,-1.6756,-2.2897,-0.3395
783221.0,2.5762,0.1748,5.7652,-1.6059,-2.2178,-0.1804
783231.0,2.9209,-0.3615,5.1068,-1.608,-2.2769,-0.0351
783241.0,2.988,-0.8092,4.2234,-1.624,-2.2806,0.1181
783251.0,3.2489,-1.7119,4.0941,-1.6043,-2.1636,0.2826
783261.0,3.6488,-2.624,4.8363,-1.5751,-2.0838,0.4017
783271.0,3.0909,-2.636,3.6799,-1.4995,-2.2157,0.472
783281.0,3.9887,-2.7485,2.9784,-1.541,-2.3748,0.4746
783291.0,4.9297,-2.217,2.2098,-1.5096,-2.3136,0.4613
783301.0,4.4101,-2.715,3.2082,-1.6815,-2.2647,0.4496
783311.0,4.027,-2.7677,2.4181,-1.814,-2.4259,0.4369
783321.0,4.5801,-3.0287,1.2139,-1.9316,-2.5483,0.4071
783331.0,5.5091,-2.7533,-0.2107,-1.8448,-2.4089,0.4017
783341.0,5.624,-2.5857,-1.6352,-1.7075,-2.2226,0.4757
783351.0,6.2249,-2.7869,-4.5562,-1.5362,-2.1066,0.6034
783361.0,6.2201,-2.8299,-7.513,-1.3877,-1.7459,0.7082
783371.0,4.6256,-3.4381,-9.7109,-1.5591,-1.334,0.7785
783381.0,3.1101,-5.2098,-14.2527,-2.3179,-1.6118,0.8083
783391.0,3.7589,-6.3303,-21.6268,-2.7861,-2.179,0.7875
783401.0,4.4221,-7.2544,-29.8509,-2.295,-2.212,0.7764
783411.0,6.1699,-6.2034,-42.6671,-0.5236,-1.5878,0.8141
783421.0,2.4181,-1.166,-56.2901,1.756,0.1586,0.8626
783431.0,-3.553,4.3,-63.1327,3.4731,3.2049,1.16
783441.0,-12.7539,3.9169,-58.1935,4.375,6.8201,1.6368
783451.0,-23.5901,1.8794,-48.5999,5.5068,10.0261,1.9773
783461.0,-39.0063,5.5665,-38.3455,7.9977,13.4736,2.0694
783471.0,-49.1961,0.7733,-28.3162,11.5144,16.9318,1.8411
783481.0,-62.527,0.4405,-16.6469,15.0652,17.4357,0.6428
783491.0,-71.6321,5.2433,-3.5602,16.7323,17.4357,-1.5075
783501.0,-75.9584,16.2494,14.1258,15.1333,17.4357,-4.3761
783511.0,-74.7015,25.9747,37.3543,10.4182,17.4357,-6.6158
783521.0,-77.529,29.3338,48.8513,5.3222,16.2374,-7.4767
783531.0,-59.5199,38.6065,55.1504,2.0353,13.2198,-7.1974
783541.0,-57.4225,26.7744,78.4508,-3.5657,8.1663,-6.3098
783551.0,-52.366,35.1924,78.4508,-0.9663,1.3654,-4.0169
783561.0,-47.2424,30.0592,77.0646,2.9963,-3.2278,-1.0946
783571.0,-42.4396,23.7194,54.4944,4.9923,-7.8503,1.2462
783581.0,-38.075,15.0332,33.4302,4.5772,-11.6543,2.4488
783591.0,-26.3673,10.5704,3.9552,4.1335,-13.272,2.9112
783601.0,-6.3877,12.3637,-27.6195,1.9268,-12.3306,2.792
783611.0,-7.92,7.2999,-24.7944,-1.2553,-6.9755,2.3636
783621.0,-10.4148,2.8299,-8.8633,-3.5396,-3.2054,1.7799
783631.0,-3.5937,-2.6743,3.8738,-3.8573,-2.5611,1.2356
783641.0,-6.1794,-2.0542,9.4882,-0.6178,-1.0456,1.0616
783651.0,-6.1028,-0.6871,10.9654,2.1928,-0.7035,1.0642
783661.0,-4.1539,1.7119,6.0214,3.5981,-1.1158,1.0493
783671.0,-3.0957,4.1492,2.3774,3.2799,-1.0312,0.9482
783681.0,-2.4349,4.2617,4.707,1.8188,-0.6955,0.7364
783691.0,-3.4692,5.0661,7.4651,0.688,-0.3783,0.5172
783701.0,-5.533,5.9328,10.6662,-0.1783,-0.2724,0.3767
783711.0,-7.4029,5.6814,14.1761,-0.6731,-0.3102,0.4119
783721.0,-7.5274,5.1499,16.4745,-0.8147,-0.513,0.5172
783731.0,-7.6399,4.6807,18.3061,-1.0515,-0.9062,0.5736
783741.0,-7.9607,4.2377,20.2095,-1.4915,-1.5559,0.5736
783751.0,-8.9687,3.7445,22.1416,-1.7757,-2.4323,0.5773
783761.0,-10.0078,3.5195,21.2868,-1.4718,-3.4752,0.6598
783771.0,-10.0461,3.6464,16.6014,-0.7604,-4.4346,0.8147
783781.0,-8.4946,4.1468,9.7875,-0.3618,-5.112,0.9482
783791.0,-6.8378,4.5107,3.8882,-0.5518,-5.2658,1.0222
783801.0,-5.351,4.2832,0.8571,-1.086,-4.8342,1.0515
783811.0,-4.446,3.4357,0.9649,-1.7139,-4.1468,1.0254
783821.0,-4.2665,2.5235,2.9137,-2.303,-3.6402,0.9275
783831.0,-3.8092,1.7023,5.9711,-2.6244,-3.4295,0.8248
783841.0,-4.1132,1.2474,8.6886,-2.3179,-3.3443,0.8226
783851.0,-4.5035,0.9457,10.4387,-1.4894,-3.4087,0.9477
783861.0,-4.0438,0.5938,10.0054,-0.5454,-3.7471,1.1499
783871.0,-2.1308,-0.1365,7.9128,0.2027,-4.1324,1.3521
783881.0,-0.7781,-0.5698,4.7118,0.5039,-4.3101,1.466
783891.0,-0.091,-1.008,2.9353,0.1128,-4.3958,1.416
783901.0,0.5195,-0.9074,1.2234,-0.4688,-4.3766,1.2755
783911.0,1.2761,-1.0439,0.6991,-1.0919,-4.1005,1.1414
783921.0,0.8475,-1.9513,2.5977,-1.789,-3.8312,1.0014
783931.0,1.585,-2.8635,3.7685,-2.3397,-4.0153,0.8344
783941.0,2.217,-4.1372,4.7381,-2.4509,-4.3484,0.6577
783951.0,2.6959,-3.8523,2.3248,-1.8502,-4.5176,0.5231
783961.0,3.5291,-3.7541,0.0144,-1.292,-4.5144,0.4092
783971.0,4.6448,-2.8443,-3.5003,-0.8657,-4.3995,0.3262
783981.0,5.8514,-2.3487,-6.0789,-0.8051,-4.0903,0.2975
783991.0,6.3662,-2.557,-6.6463,-0.8136,-3.5449,0.3384
784001.0,6.8666,-3.1149,-6.924,-0.6375,-3.0001,0.4459
784011.0,8.2911,-4.3479,-7.1587,-0.3602,-2.6015,0.538
784021.0,9.0716,-4.7262,-8.3031,0.1117,-2.171,0.5752
784031.0,9.3398,-5.126,-9.6295,0.4688,-1.856,0.5917
784041.0,9.0668,-5.4229,-11.9495,0.7364,-1.7592,0.5656
784051.0,8.1714,-4.1084,-18.2893,0.8322,-1.9028,0.4704
784061.0,8.5234,-2.1093,-28.4192,0.1378,-2.1822,0.3448
784071.0,7.3095,-0.7805,-37.6871,-1.3957,-2.0502,0.2868
784081.0,4.8004,0.0024,-43.45,-2.8692,-1.4867,0.2996
784091.0,-0.1341,1.0319,-46.56,-2.8223,-0.2011,0.4672
784101.0,-8.5234,2.2673,-50.9247,-0.7838,1.9066,0.7934
784111.0,-13.4961,0.9697,-57.9564,2.0183,4.2915,1.0264
784121.0,-22.7329,1.2977,-67.2076,4.7289,7.8769,0.8551
784131.0,-37.1939,0.407,-64.8589,6.0528,12.718,0.3278
784141.0,-58.9764,0.316,-52.1146,7.1761,17.4357,-0.4033
784151.0,-78.4532,3.6081,-40.5338,9.1646,17.4357,-1.4005
784161.0,-78.4532,9.8689,-28.6035,9.429,17.4357,-2.8745
784171.0,-78.4532,11.631,0.51,8.5537,17.4357,-4.3889
784181.0,-78.4532,19.8791,22.4265,6.4024,17.4357,-5.9517
784191.0,-78.4532,12.9742,61.9643,1.3617,17.4357,-6.9552
784201.0,-78.4532,36.4637,78.4508,0.3852,17.4357,-7.1112
784211.0,-78.4532,12.2894,78.4508,-2.9782,11.5389,-6.8712
784221.0,-77.6871,34.3544,78.4508,1.7437,0.364,-4.4889
784231.0,-75.1612,25.4959,78.4508,2.4472,-6.4199,-1.9098
784241.0,-75.4221,24.6172,63.1806,4.5256,-13.314,0.4624
784251.0,-72.439,16.5463,36.6049,3.1262,-17.4363,1.8608
784261.0,-59.1392,7.5609,6.9576,3.0815,-17.4363,2.718
784271.0,-41.8243,10.0461,-30.0377,3.4039,-17.4363,3.1517
784281.0,-20.243,3.6727,-39.0758,0.3602,-13.6998,2.9692
784291.0,-14.6669,-0.3783,-28.4335,-2.9303,-7.8237,2.2051
784301.0,-1.3815,-3.4716,-19.8,-4.2926,-5.2333,1.1542
784311.0,-7.8147,-2.4014,-5.8586,-2.4083,-1.2302,0.4699
784321.0,-5.8227,-0.8978,4.4748,-0.2724,0.1282,0.2081
784331.0,-5.6383,2.0686,7.6327,1.8853,0.6433,0.2102
784341.0,-4.865,4.5466,10.501,2.8931,0.8966,0.3437
784351.0,-5.7054,6.766,13.3022,2.4514,0.531,0.447
784361.0,-5.2505,6.098,17.2167,0.9855,-0.5667,0.5023
784371.0,-4.8746,5.5857,17.1808,-0.075,-1.7049,0.5603
784381.0,-6.2632,4.7908,16.0316,-0.8296,-2.5238,0.6157
784391.0,-6.11,3.7685,13.6685,-1.4777,-3.2454,0.646
784401.0,-5.2122,2.49,12.0069,-1.9949,-3.6136,0.6141
784411.0,-5.1739,1.6017,11.4706,-2.3216,-3.6992,0.5279
784421.0,-5.5952,0.7494,11.9614,-2.4115,-3.7897,0.4363
784431.0,-5.4995,0.0287,12.4498,-2.0971,-3.9999,0.3666
784441.0,-5.272,-0.091,11.631,-1.3335,-4.1595,0.3421
784451.0,-5.0182,0.3831,9.8569,-0.6061,-4.3234,0.3294
784461.0,-4.3144,0.9433,7.8841,-0.223,-4.5176,0.3065
784471.0,-3.3375,1.5347,5.6216,-0.1469,-4.6517,0.2703
784481.0,-2.2769,2.4134,3.0263,-0.3906,-4.6618,0.2043
784491.0,-1.4581,3.3136,0.9984,-1.0802,-4.565,0.1266
784501.0,-0.8787,3.5602,0.7542,-2.0359,-4.3942,0.0724
784511.0,-0.4693,3.237,1.7119,-2.6728,-4.1303,0.1054
784521.0,-0.5698,2.4541,2.8826,-2.7696,-3.8717,0.2469
784531.0,-0.2729,1.3862,3.8307,-2.494,-3.786,0.4406
784541.0,0.3974,0.2634,3.9504,-1.9151,-3.8083,0.6497
784551.0,1.2234,-0.5435,3.2058,-1.1212,-3.7908,0.8567
784561.0,2.4732,-1.1708,1.1971,-0.5018,-3.7865,1.0382
784571.0,4.0007,-1.3838,-1.7765,-0.5098,-3.8839,1.1387
784581.0,5.0111,-2.5043,-2.7485,-1.11,-3.9238,1.1323
784591.0,5.7221,-3.3471,-3.304,-1.5186,-3.8275,1.0743
784601.0,5.7892,-4.0414,-3.1627,-1.5915,-3.6189,1.0089
784611.0,5.9687,-4.6232,-3.1149,-1.3787,-3.4853,0.9509
784621.0,6.4931,-4.9081,-4.2282,-0.9051,-3.422,0.887
784631.0,7.7883,-4.4125,-8.2121,-0.5034,-3.4055,0.8136
784641.0,8.7101,-4.5801,-11.0516,-0.6439,-3.2794,0.68
784651.0,9.0285,-3.4405,-16.0268,-0.9642,-2.9394,0.4911
784661.0,8.2337,-2.8587,-19.5343,-1.8704,-2.5893,0.2187
784671.0,7.4412,-1.8148,-21.7441,-2.7484,-2.138,-0.0958
784681.0,7.9918,-0.2298,-23.0202,-2.7851,-1.4399,-0.3022
784691.0,5.0518,3.4046,-27.1526,-1.6049,-0.6295,-0.2868
784701.0,4.5562,7.6495,-37.4333,-0.1,0.017,-0.0059
784711.0,1.6831,10.6805,-48.2025,0.8998,1.6091,0.5279
784721.0,-4.8123,10.252,-49.4762,1.035,4.1398,1.143
784731.0,-12.6869,9.6438,-49.5289,1.2632,6.5322,1.7161
784741.0,-20.1304,6.7684,-48.4299,2.0156,9.0129,2.204
784751.0,-31.795,3.8211,-45.2169,3.2725,12.271,2.4536
784761.0,-45.078,2.047,-37.6249,4.1797,15.3472,2.3397
784771.0,-63.159,3.383,-29.3649,5.2174,17.4357,2.0758
784781.0,-77.5673,2.8012,-20.5638,6.2539,17.4357,1.7097
784791.0,-78.4532,2.6624,-3.0287,6.7488,17.4357,0.8232
784801.0,-78.4532,2.3798,21.5574,4.8667,17.4357,-0.4762
784811.0,-78.4532,-2.4349,38.4581,1.4761,17.4357,-1.6437
784821.0,-78.4532,-2.399,54.0347,2.378,17.4357,-2.337
784831.0,-71.9458,-0.7183,78.4508,-2.112,17.0015,-4.0185
784841.0,-64.5812,-8.2337,78.4508,-4.3995,8.1488,-4.5969
784851.0,-64.5812,-8.2337,78.4508,-4.3995,8.1488,-4.5969
784861.0,-59.9987,8.9615,78.4508,0.0101,-2.9926,-2.0385
784871.0,-57.0107,17.3005,59.2709,3.5157,-8.5601,-0.0761
784881.0,-56.9557,8.7173,52.3229,2.5142,-12.2689,1.1866
784891.0,-50.2327,4.2952,25.8646,4.5448,-14.5698,2.4972
784901.0,-41.1252,-0.6728,7.8889,5.3105,-14.4607,3.3002
784911.0,-29.4463,-3.213,-8.3366,4.1483,-13.7365,3.2783
784921.0,-23.8534,-3.2537,-16.994,1.6692,-12.1205,2.6685
784931.0,-2.3415,-7.1563,-22.7329,0.5385,-9.6376,1.9667
784941.0,-11.5185,-6.3351,-14.267,0.0208,-4.4948,1.2047
784951.0,-2.1476,-6.517,-7.92,-1.5463,-3.8525,0.3858
784961.0,-4.3742,-5.8179,2.3607,-1.284,-2.1556,-0.2192
784971.0,-4.4149,-0.905,4.7262,0.464,-1.0674,-0.4252
784981.0,-4.8411,0.5914,9.4212,0.6614,-1.1414,-0.5055
784991.0,-3.0646,2.2098,9.5433,0.7609,-1.7267,-0.4342
785001.0,-3.7589,3.3567,7.5681,0.9307,-1.955,-0.2756
785011.0,-4.8985,4.798,7.1515,0.9754,-1.6389,-0.0979
785021.0,-4.4532,5.8802,6.62,0.4353,-1.483,0.0772
785031.0,-3.8499,3.5338,10.7643,-0.8663,-1.6655,0.1394
785041.0,-3.1053,2.1117,12.0859,-1.1994,-1.7741,0.1671
785051.0,-3.4046,1.3312,14.1713,-1.2435,-1.7581,0.0819
785061.0,-3.6727,1.8699,16.2087,-1.392,-2.1364,-0.083
785071.0,-4.0103,3.1149,17.6979,-1.4761,-2.8628,-0.1942
785081.0,-4.6639,4.288,16.86,-1.2302,-3.7035,-0.1144
785091.0,-4.9704,5.0973,14.2479,-0.8775,-4.4687,0.107
785101.0,-5.0446,4.7669,11.4706,-0.6524,-5.0497,0.4097
785111.0,-4.8794,3.8762,8.248,-0.4315,-5.418,0.7082
785121.0,-4.1779,2.739,4.7142,-0.1671,-5.4675,0.9557
785131.0,-3.2896,2.0303,1.403,-0.0575,-5.2131,1.1073
785141.0,-1.9106,1.1277,0.0934,-0.2671,-4.7997,1.1557
785151.0,-0.5243,0.5531,-0.7877,-0.4342,-4.3192,1.1605
785161.0,0.6967,-0.0694,-1.233,-0.6098,-3.7977,1.1472
785171.0,1.6568,-0.6081,-1.0558,-0.9466,-3.3438,1.0956
785181.0,1.9728,-1.4341,0.2035,-1.3931,-3.0181,1.002
785191.0,2.1668,-2.0207,0.7661,-1.7017,-2.8825,0.8934
785201.0,2.4277,-2.9377,1.7406,-1.9534,-2.858,0.7753
785211.0,2.6121,-4.118,3.0119,-1.8688,-2.8692,0.6721
785221.0,3.134,-4.6567,3.1556,-1.2739,-2.9005,0.5875
785231.0,3.9911,-5.0685,2.1859,-0.5252,-2.9112,0.4981
785241.0,5.0422,-4.8363,0.2203,-0.0357,-2.9165,0.3656
785251.0,5.8945,-4.3215,-1.7286,-0.0937,-2.8979,0.19
785261.0,6.3279,-3.9887,-2.7701,-0.5885,-2.8032,-0.0117
785271.0,6.3782,-3.6081,-2.6911,-1.1121,-2.6095,-0.2049
785281.0,6.031,-3.2585,-1.7262,-1.3548,-2.3248,-0.3304
785291.0,5.4564,-2.9353,-0.4405,-1.1967,-2.0736,-0.3597
785301.0,5.284,-2.6336,-0.3687,-0.9046,-2.1194,-0.3155
785311.0,6.1316,-3.3255,-1.7358,-0.8908,-2.4945,-0.281
785321.0,8.0541,-4.1587,-5.1882,-1.2079,-3.0054,-0.3597
785331.0,9.7372,-5.0182,-10.2041,-1.8996,-3.4103,-0.6252
785341.0,11.0301,-5.6024,-13.5775,-2.7388,-3.3917,-1.102
785351.0,7.8602,-1.6424,-18.2055,-3.38,-2.9256,-1.6495
785361.0,6.0837,2.241,-20.5997,-3.9738,-2.9958,-2.0731
785371.0,6.11,9.517,-27.5261,-3.1496,-2.4844,-2.046
785381.0,2.885,17.1497,-36.2698,-2.1114,-1.3228,-1.3436
785391.0,0.4142,18.4808,-40.3279,-1.5985,-0.1676,-0.1426
785401.0,-2.3966,17.7027,-44.027,-0.4353,1.7687,1.1717
785411.0,-6.7828,15.0069,-46.9886,0.9653,4.1915,2.3541
785421.0,-14.1521,11.0923,-46.8402,2.2891,7.1931,3.2305
785431.0,-25.6275,6.699,-43.0861,3.6205,10.878,3.7775
785441.0,-38.9225,2.6767,-34.8715,4.6555,14.6384,3.9046
785451.0,-55.6915,2.6073,-27.5333,5.1551,17.4357,3.6923
785461.0,-55.6915,2.6073,-27.5333,5.1551,17.4357,3.6923
785471.0,-65.6658,-3.2298,-3.6464,5.7128,17.4357,2.3408
785481.0,-78.4532,-0.3376,13.4458,5.0966,17.4357,0.8668
785491.0,-78.4532,2.059,32.2499,3.2682,17.4357,-0.2724
785501.0,-78.4532,2.059,32.2499,3.2682,17.4357,-0.2724
785511.0,-65.2827,2.6025,70.6361,0.7189,17.4357,-1.7613
785521.0,-50.8983,0.9697,78.4508,-1.7938,12.1598,-2.1476
785531.0,-45.9447,8.2863,78.4508,-2.079,6.2289,-1.9342
785541.0,-45.9447,8.2863,78.4508,-2.079,6.2289,-1.9342
785551.0,-43.0645,10.0437,69.02,0.9094,-4.3772,0.0974
785561.0,-44.4795,5.873,56.9581,1.5995,-8.6655,1.069
785571.0,-41.3167,3.0358,35.1493,3.8461,-11.2387,2.0875
785581.0,-35.0894,-0.6536,17.6333,5.4728,-11.7177,-0.0005
785591.0,-25.3402,-1.6065,3.1627,5.9123,-10.9152,3.0022
785601.0,-17.2167,-2.1452,-6.9001,4.8018,-9.2556,2.6967
785611.0,-17.2167,-2.1452,-6.9001,4.8018,-9.2556,2.6967
785621.0,-3.9528,-3.5913,-10.4291,0.1453,-5.2972,1.0153
785631.0,-4.276,-2.4636,-5.3391,-0.9232,-2.7244,0.1628
785641.0,-3.1364,-1.2306,-0.8045,-1.7491,-1.5202,-0.5172
785651.0,-3.5267,0.0958,4.4987,-2.0933,-0.7199,-0.9626
785661.0,-2.7222,2.4948,7.0485,-1.5245,-0.2027,-1.0876
785671.0,-4.8937,4.1061,11.4347,-0.7237,0.3704,-0.9812
785681.0,-4.8004,5.7652,12.8018,-0.1676,0.0931,-0.737
785691.0,-5.1978,5.8849,14.1354,-0.1213,-0.4257,-0.4427
785701.0,-4.7716,5.454,14.2503,0.1362,-0.6848,-0.1064
785711.0,-4.8937,5.0039,14.5328,0.3879,-0.6737,0.1719
785721.0,-5.1308,4.0989,15.5958,0.2512,-0.8024,0.307
785731.0,-5.3103,3.3112,17.0659,-0.116,-1.127,0.3054
785741.0,-5.0973,2.885,17.7075,-0.4454,-1.6102,0.2187
785751.0,-4.7597,2.7078,17.7841,-0.8556,-2.1716,0.0383
785761.0,-5.5857,2.9497,17.9637,-1.3931,-2.7888,-0.1878
785771.0,-5.9137,3.4979,17.6285,-1.8491,-3.504,-0.3884
785781.0,-5.7676,4.1707,16.2973,-2.1359,-4.2234,-0.5209
785791.0,-6.1723,4.8028,14.9231,-2.2828,-4.8417,-0.5694
785801.0,-6.3087,5.3008,12.8018,-2.1902,-5.3962,-0.4981
785811.0,-6.189,5.1332,10.2759,-1.9614,-5.8511,-0.3267
785821.0,-5.5737,4.6711,7.2089,-1.6096,-6.1645,-0.1
785831.0,-4.5825,4.0845,3.7493,-1.2451,-6.2773,0.1458
785841.0,-2.9856,3.5602,-0.146,-0.9951,-6.1608,0.3778
785851.0,-1.1588,2.9209,-2.3415,-1.0185,-5.7617,0.5475
785861.0,-0.1532,2.3439,-3.3591,-1.0275,-5.1556,0.7072
785871.0,0.4166,1.9968,-4.2162,-1.0078,-4.5607,0.8833
785881.0,1.2665,1.0894,-4.4819,-1.1456,-4.0973,1.0562
785891.0,2.5714,-0.1772,-4.7932,-1.1994,-3.6386,1.2106
785901.0,3.8762,-1.3024,-4.9823,-1.1334,-3.0953,1.3175
785911.0,4.9033,-2.4301,-4.604,-1.0749,-2.527,1.3542
785921.0,5.5545,-3.3279,-3.9361,-1.0584,-2.0449,1.3074
785931.0,6.1316,-4.1061,-3.0335,-0.9977,-1.6426,1.2074
785941.0,6.7014,-4.5849,-2.241,-0.7944,-1.2643,1.086
785951.0,6.845,-4.9392,-1.1372,-0.4523,-0.8689,0.9551
785961.0,6.869,-4.6974,-0.893,-0.0303,-0.5635,0.8322
785971.0,6.6224,-4.5897,-0.6321,0.1591,-0.3592,0.7184
785981.0,7.0006,-4.616,-0.6656,0.2166,-0.2091,0.6077
785991.0,7.5465,-4.8961,-0.4717,0.232,0.0085,0.4938
786001.0,7.5585,-5.0302,-0.34,0.2847,0.2959,0.3555
786011.0,7.4699,-4.9153,-0.0024,0.3203,0.6162,0.1735
786021.0,7.6878,-4.5418,0.5602,0.2868,0.9041,-0.0335
786031.0,7.5705,-3.9648,1.3024,0.1474,1.1302,-0.2288
786041.0,6.9216,-3.4979,2.4181,-0.0287,1.2952,-0.3837
786051.0,6.3877,-2.964,3.5219,-0.025,1.4287,-0.481
786061.0,6.1914,-2.4373,4.2425,0.166,1.5681,-0.5092
786071.0,6.031,-2.1045,4.6831,0.3837,1.6889,-0.4917
786081.0,5.5952,-2.0207,5.3151,0.5326,1.7863,-0.4683
786091.0,5.3678,-1.8316,5.7126,0.6981,1.8842,-0.4629
786101.0,5.047,-1.5395,6.5625,0.8876,2.0593,-0.473
786111.0,4.5681,-1.1181,7.4962,1.1121,2.246,-0.4821
786121.0,4.0366,-0.577,8.6,1.2446,2.3514,-0.5034
786131.0,3.6631,-0.0742,9.7516,1.2244,2.3025,-0.5321
786141.0,3.383,0.2945,10.6039,1.0855,2.1151,-0.5507
786151.0,3.2848,0.4693,10.9223,0.8993,1.848,-0.5635
786161.0,3.1077,0.6752,10.726,0.7279,1.5878,-0.5843
786171.0,3.0167,0.9864,10.1155,0.5821,1.3963,-0.5997
786181.0,2.9018,1.0774,9.6199,0.4166,1.2914,-0.6034
786191.0,2.7438,1.1708,9.1506,0.2565,1.2265,-0.5997
786201.0,2.7007,1.3479,8.5832,0.0585,1.1696,-0.5869
786211.0,2.7725,1.3048,8.3893,-0.1373,1.143,-0.5667
786221.0,3.2058,1.0271,8.2863,-0.1884,1.1696,-0.5289
786231.0,3.4381,0.9361,6.2848,-0.2123,1.2217,-0.5247
786241.0,3.0598,0.6009,7.0581,-0.5268,1.3947,-0.5736
786251.0,2.5139,1.2234,6.4979,-0.4954,1.6267,-0.5646
786261.0,1.6783,1.3719,7.4077,-0.4049,1.9837,-0.513
786271.0,1.1636,1.6137,7.6088,-0.1995,2.2631,-0.4273
786281.0,0.5794,1.7693,8.7101,-0.1399,2.4993,-0.3432
786291.0,0.1604,1.8028,9.5481,-0.1187,2.6414,-0.2389
786301.0,-0.0814,1.6831,10.6303,-0.1607,2.6973,-0.1336
786311.0,-0.2059,1.3503,11.9351,-0.2586,2.6345,-0.0521
786321.0,-0.2969,1.1396,12.9287,-0.3139,2.4754,0.0112
786331.0,-0.3232,0.8619,13.7044,-0.307,2.2562,0.0633
786341.0,-0.5842,0.668,13.9414,-0.2277,2.0135,0.1038
786351.0,-0.9744,0.644,13.9773,-0.1203,1.7767,0.1352
786361.0,-1.0511,0.5818,13.8121,0.0074,1.5703,0.1761
786371.0,-0.9888,0.3807,13.7188,0.1607,1.4032,0.2192
786381.0,-0.7685,0.237,13.149,0.3161,1.2696,0.2458
