time_ms,ax,ay,az,gx,gy,gz
1309371.0,-1.5634,0.3089,10.2735,-0.0346,0.0516,-0.0681
1309381.0,-1.5778,0.2945,10.2927,-0.0335,0.0543,-0.0575
1309391.0,-1.561,0.261,10.2639,-0.0335,0.0591,-0.0479
1309401.0,-1.506,0.2658,10.2568,-0.0261,0.0708,-0.0378
1309411.0,-1.5299,0.2586,10.3214,-0.0266,0.0729,-0.0282
1309421.0,-1.5251,0.2131,10.2831,-0.0415,0.0644,-0.0202
1309431.0,-1.5562,0.1365,10.2999,-0.0617,0.0596,-0.0154
1309441.0,-1.5299,0.1341,10.2927,-0.0729,0.0585,-0.0144
1309451.0,-1.573,0.0838,10.3621,-0.0873,0.0596,-0.0149
1309461.0,-1.5778,0.0455,10.4028,-0.0926,0.0527,-0.0154
1309471.0,-1.5826,0.0287,10.4363,-0.0899,0.041,-0.0186
1309481.0,-1.585,-0.0072,10.4363,-0.0788,0.0271,-0.0186
1309491.0,-1.5179,0.0072,10.3334,-0.0601,0.016,-0.0213
1309501.0,-1.5419,0.0072,10.2089,-0.0474,0.0128,-0.0223
1309511.0,-1.5514,0.067,10.0844,-0.0436,0.017,-0.0245
1309521.0,-1.5443,0.0934,10.0173,-0.0415,0.0388,-0.0239
1309531.0,-1.5395,0.0982,10.0556,-0.0436,0.0623,-0.0197
1309541.0,-1.5251,0.0862,10.1203,-0.0553,0.0782,-0.0154
1309551.0,-1.5203,0.0862,10.2304,-0.0681,0.0814,-0.0128
1309561.0,-1.5514,0.0455,10.3501,-0.0734,0.0803,-0.008
1309571.0,-1.573,-0.0239,10.4196,-0.074,0.0697,-0.0043
1309581.0,-1.5395,-0.1101,10.398,-0.0649,0.0559,-0.0048
1309591.0,-1.5634,-0.1508,10.3813,-0.05,0.0495,-0.0106
1309601.0,-1.506,-0.1317,10.2424,-0.0357,0.0506,-0.0213
1309611.0,-1.5395,-0.091,10.1969,-0.0388,0.0537,-0.0367
1309621.0,-1.5586,-0.012,10.307,-0.0537,0.0591,-0.0479
1309631.0,-1.5658,0.1197,10.2927,-0.0601,0.067,-0.0506
1309641.0,-1.5802,0.158,10.3453,-0.0697,0.0633,-0.0447
1309651.0,-1.652,0.1508,10.3358,-0.0809,0.0537,-0.0325
1309661.0,-1.5945,0.091,10.3334,-0.0766,0.0506,-0.0197
1309671.0,-1.573,0.0024,10.2639,-0.0697,0.0458,-0.0112
1309681.0,-1.5012,-0.079,10.2687,-0.0718,0.0474,-0.0128
1309691.0,-1.5467,-0.1053,10.2639,-0.0644,0.0511,-0.0202
1309701.0,-1.506,-0.079,10.3022,-0.0521,0.0559,-0.0303
1309711.0,-1.5179,0.0096,10.2496,-0.0367,0.0575,-0.0399
1309721.0,-1.5538,0.1269,10.2137,-0.0468,0.0521,-0.0474
1309731.0,-1.5131,0.1796,10.2113,-0.0713,0.0436,-0.0458
1309741.0,-1.5131,0.1604,10.2113,-0.0963,0.0394,-0.0399
1309751.0,-1.5107,0.1101,10.2424,-0.1043,0.0388,-0.0351
1309761.0,-1.5443,0.1413,10.2256,-0.0809,0.0474,-0.0293
1309771.0,-1.5706,0.1484,10.1562,-0.0468,0.0612,-0.0208
1309781.0,-1.5874,0.1484,10.1418,-0.0144,0.0873,-0.0122
1309791.0,-1.5443,0.1652,10.1706,0.0064,0.1192,-0.0074
1309801.0,-1.6113,0.2059,10.2879,-0.0133,0.1336,-0.0101
1309811.0,-1.6209,0.1772,10.4315,-0.0633,0.1213,-0.008
1309821.0,-1.6305,0.1125,10.6111,-0.0947,0.0984,-0.0053
1309831.0,-1.6257,0.0694,10.6925,-0.0968,0.0697,-0.0005
1309841.0,-1.585,0.0,10.6015,-0.0883,0.0298,0.0048
1309851.0,-1.5203,-0.0503,10.3956,-0.0841,-0.0085,0.0048
1309861.0,-1.4964,-0.0575,10.1538,-0.0942,-0.0234,0.0016
1309871.0,-1.4892,-0.0527,10.0269,-0.1086,-0.0192,-0.008
1309881.0,-1.5107,-0.0048,9.9503,-0.1245,0.0053,-0.0192
1309891.0,-1.5634,0.0407,10.0461,-0.1197,0.0388,-0.0261
1309901.0,-1.5897,0.1269,10.1227,-0.0984,0.0676,-0.0229
1309911.0,-1.6376,0.1556,10.2376,-0.0559,0.0883,-0.0133
1309921.0,-1.5874,0.1484,10.2999,-0.0138,0.1027,0.0016
1309931.0,-1.5538,0.1077,10.2711,-0.0027,0.1022,0.0117
1309941.0,-1.5586,0.0575,10.2951,-0.0223,0.0931,0.0122
1309951.0,-1.5371,-0.0072,10.3741,-0.0569,0.0793,0.0048
1309961.0,-1.573,-0.0766,10.3837,-0.0942,0.0585,-0.0069
1309971.0,-1.561,-0.0742,10.4555,-0.1112,0.0383,-0.0218
1309981.0,-1.5969,0.0287,10.4148,-0.0905,0.0271,-0.0287
1309991.0,-1.6089,0.091,10.307,-0.067,0.0176,-0.0309
1310001.0,-1.5921,0.146,10.1634,-0.0426,0.0213,-0.0271
1310011.0,-1.5897,0.2298,10.0293,-0.0239,0.0436,-0.0192
1310021.0,-1.5897,0.2849,9.9934,-0.0303,0.0649,-0.008
1310031.0,-1.6233,0.2658,10.0748,-0.0537,0.0867,0.0064
1310041.0,-1.6209,0.1413,10.2185,-0.0676,0.1027,0.0229
1310051.0,-1.5969,0.012,10.3573,-0.0761,0.1027,0.0346
1310061.0,-1.5826,-0.1101,10.4315,-0.0798,0.0851,0.0335
1310071.0,-1.585,-0.1748,10.4746,-0.0782,0.0724,0.025
1310081.0,-1.5874,-0.1891,10.3813,-0.0814,0.0521,0.0117
1310091.0,-1.5969,-0.1748,10.3262,-0.0937,0.0287,-0.0037
1310101.0,-1.5802,-0.1437,10.2496,-0.0894,0.0186,-0.0133
1310111.0,-1.5778,-0.1245,10.1825,-0.0782,0.0282,-0.0181
1310121.0,-1.5419,-0.1293,10.1562,-0.067,0.0452,-0.0223
1310131.0,-1.5514,-0.091,10.1011,-0.0537,0.0569,-0.0277
1310141.0,-1.5395,-0.0479,10.1155,-0.0436,0.0697,-0.0314
1310151.0,-1.5275,0.0192,10.0892,-0.0431,0.0846,-0.0325
1310161.0,-1.5921,0.0479,10.2041,-0.0575,0.0952,-0.0325
1310171.0,-1.5874,0.0311,10.2783,-0.0654,0.1006,-0.0298
1310181.0,-1.5921,-0.0024,10.4196,-0.0702,0.0974,-0.0261
1310191.0,-1.6137,-0.0335,10.3884,-0.0692,0.0841,-0.0234
1310201.0,-1.6041,-0.0742,10.4866,-0.0607,0.0686,-0.0255
1310211.0,-1.585,-0.0862,10.4267,-0.0436,0.0559,-0.033
1310221.0,-1.5826,-0.0575,10.3693,-0.0383,0.0463,-0.0415
1310231.0,-1.5634,0.0192,10.307,-0.0394,0.0415,-0.0506
1310241.0,-1.6113,0.1365,10.2089,-0.0431,0.0415,-0.0569
1310251.0,-1.6448,0.2442,10.1706,-0.0575,0.0426,-0.0569
1310261.0,-1.652,0.3065,10.2496,-0.067,0.0436,-0.0474
1310271.0,-1.6616,0.3089,10.2496,-0.0617,0.0575,-0.0309
1310281.0,-1.64,0.3112,10.2999,-0.0506,0.0649,-0.0165
1310291.0,-1.6209,0.2586,10.3501,-0.0447,0.066,-0.0069
1310301.0,-1.5682,0.1915,10.3573,-0.0495,0.0623,0.0016
1310311.0,-1.5586,0.146,10.4267,-0.0623,0.0521,0.0037
1310321.0,-1.5562,0.103,10.3621,-0.0793,0.0335,-0.0016
1310331.0,-1.5443,0.0982,10.2855,-0.0846,0.0165,-0.0037
1310341.0,-1.5514,0.1006,10.2376,-0.0883,0.0048,-0.0043
1310351.0,-1.549,0.1173,10.1682,-0.0873,0.0021,-0.0037
1310361.0,-1.5443,0.1221,10.0293,-0.0835,0.008,-0.0005
1310371.0,-1.4676,0.1413,10.0054,-0.0803,0.0223,-0.0016
1310381.0,-1.5155,0.1724,9.9838,-0.0718,0.0474,0.0011
1310391.0,-1.5395,0.1484,10.1131,-0.0649,0.0665,0.0059
1310401.0,-1.4988,0.1006,10.1131,-0.0537,0.0809,0.0112
1310411.0,-1.5155,0.1317,10.1514,-0.0388,0.0963,0.0128
1310421.0,-1.5706,0.1652,10.2041,-0.0319,0.1086,0.0128
1310431.0,-1.5802,0.182,10.2328,-0.0378,0.1123,0.0197
1310441.0,-1.6209,0.1556,10.3166,-0.042,0.1181,0.0245
1310451.0,-1.64,0.0958,10.3669,-0.05,0.1165,0.0303
1310461.0,-1.6999,0.0527,10.4387,-0.0692,0.1054,0.0335
1310471.0,-1.652,-0.0527,10.556,-0.0883,0.0899,0.0335
1310481.0,-1.6233,-0.0287,10.5417,-0.091,0.0681,0.0303
1310491.0,-1.6448,-0.0383,10.58,-0.1038,0.0415,0.0266
1310501.0,-1.5945,-0.0622,10.477,-0.116,0.0154,0.0239
1310511.0,-1.5658,-0.1006,10.386,-0.1144,0.0016,0.0218
1310521.0,-1.5993,-0.0934,10.2113,-0.1022,-0.0011,0.0181
1310531.0,-1.5802,-0.0622,10.1011,-0.0926,0.0085,0.0154
1310541.0,-1.5251,-0.0838,10.0245,-0.0835,0.0282,0.0144
1310551.0,-1.4988,-0.0934,9.9838,-0.0798,0.0564,0.0117
1310561.0,-1.549,-0.1293,10.0916,-0.0798,0.0798,0.009
1310571.0,-1.5874,-0.158,10.2783,-0.0851,0.0958,0.0037
1310581.0,-1.5562,-0.2011,10.4004,-0.0809,0.1059,-0.0048
1310591.0,-1.5969,-0.1772,10.4339,-0.0724,0.1006,-0.0165
1310601.0,-1.5874,-0.0958,10.4914,-0.0702,0.0798,-0.0293
1310611.0,-1.5706,0.0,10.4387,-0.0681,0.0585,-0.0394
1310621.0,-1.6017,0.0551,10.3118,-0.0639,0.042,-0.0426
1310631.0,-1.5826,0.1484,10.1825,-0.0612,0.0314,-0.0442
1310641.0,-1.5682,0.1724,10.1155,-0.0617,0.0303,-0.0415
1310651.0,-1.5131,0.1413,10.0652,-0.0612,0.0431,-0.0388
1310661.0,-1.4868,0.1341,10.1418,-0.058,0.0639,-0.042
1310671.0,-1.5179,0.1796,10.1825,-0.0559,0.0724,-0.0516
1310681.0,-1.5945,0.3136,10.2424,-0.0484,0.0772,-0.058
1310691.0,-1.64,0.51,10.1873,-0.0218,0.0883,-0.0527
1310701.0,-1.6568,0.6345,10.2735,-0.0096,0.0968,-0.0325
1310711.0,-1.7286,0.6895,10.2472,-0.0218,0.0984,-0.0048
1310721.0,-1.7166,0.6943,10.343,-0.0383,0.1064,0.0298
1310731.0,-1.7262,0.5746,10.3932,-0.074,0.1006,0.0617
1310741.0,-1.731,0.3855,10.489,-0.1298,0.0713,0.0835
1310751.0,-1.64,0.1317,10.5919,-0.1362,0.066,0.1027
1310761.0,-1.6161,-0.0742,10.6542,-0.1165,0.0548,0.1091
1310771.0,-1.5562,-0.182,10.5919,-0.1032,0.0149,0.1016
1310781.0,-1.4844,-0.1891,10.331,-0.0777,-0.0149,0.0851
1310791.0,-1.5179,-0.0766,9.9742,-0.074,-0.0223,0.0702
1310801.0,-1.4581,-0.1556,10.0437,-0.0708,0.0245,0.0596
1310811.0,-1.5275,0.0048,9.9168,-0.0553,0.083,0.0495
1310821.0,-1.5874,-0.0431,10.2663,-0.1155,0.0883,0.0394
1310831.0,-1.5538,-0.0192,10.4124,-0.1219,0.0841,0.0404
1310841.0,-1.5562,-0.067,10.5608,-0.0937,0.0878,0.0463
1310851.0,-1.6065,-0.0958,10.5536,-0.0729,0.0686,0.0479
1310861.0,-1.5203,-0.0599,10.5393,-0.0591,0.0404,0.0442
1310871.0,-1.5395,-0.012,10.3717,-0.0665,0.0229,0.0378
1310881.0,-1.561,0.0096,10.2232,-0.0931,0.017,0.0314
1310891.0,-1.5395,-0.0311,10.3046,-0.1128,0.025,0.0293
1310901.0,-1.585,-0.0383,10.3358,-0.1054,0.033,0.0277
1310911.0,-1.5634,-0.0503,10.3908,-0.0894,0.0346,0.0271
1310921.0,-1.5634,0.0144,10.3837,-0.0612,0.0372,0.0239
1310931.0,-1.6041,0.0551,10.3501,-0.041,0.0372,0.0234
1310941.0,-1.6137,0.0622,10.2903,-0.0357,0.0282,0.0213
1310951.0,-1.6089,0.0694,10.1658,-0.0452,0.025,0.0176
1310961.0,-1.6328,0.1173,10.1706,-0.0734,0.0255,0.0106
1310971.0,-1.6831,0.1484,10.2687,-0.1048,0.0282,0.0074
1310981.0,-1.7214,0.1676,10.343,-0.1192,0.0218,0.0101
1310991.0,-1.7334,0.1891,10.3932,-0.1086,0.0138,0.0181
1311001.0,-1.7358,0.2418,10.319,-0.0873,0.0074,0.0319
1311011.0,-1.7047,0.2083,10.2663,-0.0724,0.0053,0.0468
1311021.0,-1.6688,0.1628,10.1754,-0.0756,-0.0005,0.0596
1311031.0,-1.6137,0.1245,10.1179,-0.1043,-0.0144,0.0644
1311041.0,-1.6065,0.0335,10.0126,-0.1394,-0.0266,0.0665
1311051.0,-1.5826,-0.0575,9.9335,-0.1586,-0.0218,0.0697
1311061.0,-1.5802,-0.1867,9.8785,-0.1554,-0.0069,0.0718
1311071.0,-1.5443,-0.3089,9.8378,-0.1368,0.0165,0.0681
1311081.0,-1.4676,-0.3783,9.7683,-0.1032,0.0516,0.0564
1311091.0,-1.4748,-0.3687,9.8114,-0.0772,0.0857,0.0383
1311101.0,-1.5227,-0.3543,9.912,-0.0713,0.1128,0.0208
1311111.0,-1.5371,-0.3496,10.1394,-0.0686,0.132,0.0069
1311121.0,-1.5993,-0.3112,10.2759,-0.0607,0.1383,-0.0059
1311131.0,-1.6113,-0.2298,10.3693,-0.0617,0.1192,-0.0197
1311141.0,-1.6185,-0.1149,10.3645,-0.0474,0.1011,-0.0271
1311151.0,-1.6424,0.0455,10.3094,-0.0452,0.0862,-0.0282
1311161.0,-1.6496,0.0934,10.2328,-0.0654,0.0649,-0.0213
1311171.0,-1.6233,0.0742,10.1945,-0.083,0.0612,-0.0101
1311181.0,-1.6233,0.0096,10.1299,-0.1011,0.0654,0.0011
1311191.0,-1.6041,-0.1125,10.1562,-0.1133,0.0676,0.0074
1311201.0,-1.6041,-0.1939,10.2304,-0.1022,0.0697,0.0106
1311211.0,-1.585,-0.3041,10.1969,-0.074,0.0718,0.0069
1311221.0,-1.5395,-0.3663,10.1993,-0.0346,0.0825,-0.0043
1311231.0,-1.561,-0.2945,10.0963,-0.0106,0.0894,-0.0223
1311241.0,-1.5802,-0.1676,10.0724,-0.008,0.091,-0.042
1311251.0,-1.5969,-0.0168,10.0269,-0.0181,0.1064,-0.0543
1311261.0,-1.6328,0.0814,10.1442,-0.0436,0.1208,-0.0575
1311271.0,-1.6735,0.1413,10.2807,-0.0686,0.1245,-0.0527
1311281.0,-1.6424,0.103,10.3765,-0.0803,0.1128,-0.0431
1311291.0,-1.6472,0.0479,10.422,-0.0798,0.0995,-0.0335
1311301.0,-1.6448,0.0024,10.4363,-0.0724,0.0862,-0.0293
1311311.0,-1.6376,-0.0311,10.386,-0.0553,0.0745,-0.0287
1311321.0,-1.6113,-0.0168,10.319,-0.0309,0.0686,-0.0309
1311331.0,-1.6544,0.012,10.2663,-0.0186,0.066,-0.0346
1311341.0,-1.6281,0.0862,10.1634,-0.0144,0.0697,-0.0372
1311351.0,-1.6185,0.1724,10.1035,-0.0239,0.0803,-0.0372
1311361.0,-1.6376,0.2083,10.161,-0.0596,0.0857,-0.0341
1311371.0,-1.6496,0.1891,10.2759,-0.0889,0.091,-0.0266
1311381.0,-1.6472,0.1437,10.3406,-0.1011,0.0883,-0.0176
1311391.0,-1.6831,0.0766,10.4291,-0.1,0.0772,-0.0096
1311401.0,-1.6496,0.0407,10.4172,-0.0798,0.0601,-0.0011
1311411.0,-1.6903,-0.0431,10.3046,-0.0548,0.0511,0.0064
1311421.0,-1.6616,-0.1676,10.2232,-0.0325,0.05,0.009
1311431.0,-1.6017,-0.2394,10.2089,-0.0186,0.0596,0.0
1311441.0,-1.6352,-0.1891,10.1514,-0.0202,0.0702,-0.0202
1311451.0,-1.6759,-0.0982,10.1873,-0.0452,0.0702,-0.0383
1311461.0,-1.6568,-0.0862,10.307,-0.0665,0.0708,-0.0479
1311471.0,-1.6735,-0.0263,10.4052,-0.066,0.067,-0.0495
1311481.0,-1.7071,0.0072,10.4124,-0.0617,0.0468,-0.0474
1311491.0,-1.6759,0.0024,10.3118,-0.0463,0.0255,-0.0399
1311501.0,-1.6448,-0.0263,10.1107,-0.0271,0.0165,-0.0325
1311511.0,-1.5514,-0.091,9.9623,-0.0165,0.0229,-0.0314
1311521.0,-1.5347,-0.1245,9.8785,-0.0229,0.0447,-0.0367
1311531.0,-1.506,-0.1077,9.9383,-0.0303,0.0734,-0.049
1311541.0,-1.573,-0.0192,10.0126,-0.042,0.0921,-0.0633
1311551.0,-1.6161,0.0287,10.0437,-0.0479,0.0974,-0.0686
1311561.0,-1.6352,0.0862,10.1394,-0.0293,0.1091,-0.0649
1311571.0,-1.6616,0.1389,10.1706,-0.0117,0.1181,-0.0564
1311581.0,-1.664,0.1867,10.1586,0.0064,0.1187,-0.0506
1311591.0,-1.6783,0.1844,10.1466,0.0128,0.1213,-0.0436
1311601.0,-1.7023,0.1867,10.1442,0.0027,0.1282,-0.0394
1311611.0,-1.7023,0.1867,10.2352,-0.0202,0.132,-0.0388
1311621.0,-1.6927,0.1987,10.3549,-0.0255,0.1346,-0.0388
1311631.0,-1.7238,0.2466,10.3693,-0.0149,0.1298,-0.0367
1311641.0,-1.7597,0.2322,10.3789,-0.0223,0.1123,-0.033
1311651.0,-1.7071,0.2418,10.3358,-0.0186,0.1032,-0.0261
1311661.0,-1.7454,0.2729,10.2807,-0.0293,0.0995,-0.025
1311671.0,-1.7573,0.2897,10.2735,-0.0559,0.0894,-0.0234
1311681.0,-1.731,0.2658,10.2735,-0.074,0.0851,-0.016
1311691.0,-1.7549,0.1844,10.2568,-0.0793,0.0835,-0.0059
1311701.0,-1.7047,0.146,10.2137,-0.0835,0.0788,0.0005
1311711.0,-1.6999,0.0694,10.1873,-0.0798,0.0793,0.0043
1311721.0,-1.7095,-0.0072,10.1706,-0.0617,0.091,0.0085
1311731.0,-1.6999,-0.067,10.1873,-0.0404,0.1091,0.0074
1311741.0,-1.7214,-0.103,10.3621,-0.0223,0.1235,0.0021
1311751.0,-1.7406,-0.079,10.4291,0.0128,0.1368,-0.0021
1311761.0,-1.7621,-0.0862,10.556,0.041,0.1362,-0.0059
1311771.0,-1.8052,-0.0215,10.6039,0.0553,0.1181,-0.008
1311781.0,-1.7957,0.012,10.6303,0.0479,0.0873,-0.0085
1311791.0,-1.8124,0.0503,10.5584,0.0255,0.0447,-0.0043
1311801.0,-1.8004,0.0192,10.5129,-0.0144,0.0069,0.0005
1311811.0,-1.7023,-0.0575,10.4794,-0.0388,-0.0277,0.0037
1311821.0,-1.7526,0.0311,10.1107,-0.0681,-0.0819,0.0053
1311831.0,-1.6496,-0.1724,9.9383,-0.1219,-0.1293,0.0016
1311841.0,-1.5467,-0.3041,9.5816,-0.0372,-0.0468,0.0053
1311851.0,-1.6831,-0.4884,9.6606,0.0213,0.0607,-0.0122
1311861.0,-1.6328,-0.5148,9.7899,0.017,0.0873,-0.0468
1311871.0,-1.7621,-0.4908,10.0652,0.0543,0.1405,-0.0867
1311881.0,-1.9034,-0.2011,10.1993,0.1197,0.2049,-0.1181
1311891.0,-2.071,-0.0215,10.5991,0.1453,0.2437,-0.1346
1311901.0,-2.1835,0.1844,10.8697,0.1389,0.2341,-0.1389
1311911.0,-2.2434,0.2634,11.1713,0.0979,0.1777,-0.1368
1311921.0,-2.2505,0.261,11.3725,0.0378,0.0867,-0.1293
1311931.0,-2.1668,0.1317,11.4323,-0.0122,-0.0176,-0.1219
1311941.0,-2.1644,-0.0407,11.2144,-0.0479,-0.1378,-0.1219
1311951.0,-1.7717,-0.2849,10.8984,-0.1027,-0.2799,-0.1394
1311961.0,-1.6424,-0.316,10.4698,-0.0532,-0.3246,-0.1666
1311971.0,-1.6376,-0.1365,9.9718,0.0223,-0.3272,-0.1926
1311981.0,-1.4485,0.0,9.5553,0.0639,-0.3384,-0.2112
1311991.0,-1.3647,0.1508,9.1937,0.1213,-0.2911,-0.2235
1312001.0,-1.2977,0.3831,8.8633,0.1735,-0.2017,-0.2288
1312011.0,-1.3862,0.5219,9.0022,0.1974,-0.0952,-0.2246
1312021.0,-1.4485,0.6321,9.1746,0.2336,-0.0037,-0.2091
1312031.0,-1.5203,0.6369,9.5361,0.2666,0.0766,-0.1905
1312041.0,-1.6233,0.644,9.8904,0.298,0.1229,-0.1735
1312051.0,-1.7621,0.6129,10.2759,0.306,0.1378,-0.158
1312061.0,-1.8986,0.5866,10.6542,0.3155,0.1266,-0.1485
1312071.0,-1.9201,0.5004,10.9511,0.3241,0.0947,-0.1442
1312081.0,-2.0638,0.5076,11.0588,0.331,0.0452,-0.1517
1312091.0,-2.083,0.5291,11.1282,0.3491,0.0064,-0.158
1312101.0,-2.162,0.6584,11.133,0.3831,0.0016,-0.1644
1312111.0,-2.2314,0.7733,11.2791,0.3666,-0.0122,-0.1729
1312121.0,-2.2386,0.8571,11.4539,0.3081,-0.0596,-0.1793
1312131.0,-2.2865,0.8739,11.5305,0.2442,-0.1256,-0.1793
1312141.0,-2.2194,0.7949,11.5209,0.1905,-0.1942,-0.174
1312151.0,-2.0734,0.7015,11.4179,0.1517,-0.2554,-0.1772
1312162.0,-2.0758,0.656,11.3749,0.1107,-0.3086,-0.191
1312171.0,-2.0518,0.6345,11.2456,0.0889,-0.3693,-0.2081
1312181.0,-1.913,0.723,10.9295,0.1139,-0.4119,-0.2203
1312191.0,-1.7909,0.8499,10.4722,0.1506,-0.4204,-0.2267
1312201.0,-1.6592,0.9625,10.1011,0.1495,-0.4039,-0.232
1312211.0,-1.6568,1.063,9.8067,0.1117,-0.3778,-0.2347
1312221.0,-1.4748,1.0582,9.7468,0.0782,-0.3443,-0.2336
1312231.0,-1.2977,1.1253,9.5409,0.0702,-0.2953,-0.2368
1312241.0,-1.245,1.2115,9.4906,0.033,-0.2629,-0.2368
1312251.0,-1.221,1.3551,9.4691,0.0021,-0.2341,-0.2256
1312261.0,-1.1899,1.4293,9.4116,0.0,-0.1916,-0.1857
1312271.0,-1.1229,1.2282,9.3541,-0.0138,-0.1548,-0.1314
1312281.0,-0.9026,0.8787,9.177,-0.042,-0.1309,-0.0878
1312291.0,-0.8021,0.5411,8.9447,-0.1011,-0.0846,-0.0729
1312301.0,-0.6752,0.1939,8.9016,-0.1942,-0.0234,-0.0873
1312311.0,-0.6345,-0.1508,9.1506,-0.307,0.0346,-0.1277
1312321.0,-0.7326,-0.3783,9.6007,-0.3709,0.0926,-0.1804
1312331.0,-0.7638,-0.4717,10.07,-0.3501,0.133,-0.2363
1312341.0,-0.8068,-0.3711,10.3765,-0.2586,0.1554,-0.2831
1312351.0,-0.8595,-0.079,10.5345,-0.1421,0.1628,-0.3193
1312361.0,-0.9146,0.2394,10.7691,-0.0447,0.1501,-0.3299
1312371.0,-0.929,0.4836,10.8864,0.0298,0.1064,-0.3193
1312381.0,-0.9122,0.6297,10.7548,0.0857,0.033,-0.298
1312391.0,-0.7949,0.7278,10.3693,0.1155,-0.0388,-0.281
1312401.0,-0.6919,0.7781,9.924,0.1043,-0.075,-0.273
1312411.0,-0.5794,0.8954,9.6055,0.0506,-0.0761,-0.2767
1312421.0,-0.5674,1.0391,9.5146,-0.0048,-0.049,-0.2746
1312431.0,-0.5004,1.0942,9.4547,-0.0357,0.0069,-0.2618
1312441.0,-0.5219,1.1157,9.5768,-0.0303,0.074,-0.2389
1312451.0,-0.4932,1.063,9.6941,-0.025,0.1187,-0.2171
1312461.0,-0.4788,1.0558,9.7827,-0.0064,0.1538,-0.2027
1312471.0,-0.5171,1.1061,9.9407,-0.0011,0.1751,-0.1953
1312481.0,-0.5171,1.2043,9.9718,-0.008,0.1777,-0.1916
1312491.0,-0.5674,1.3001,10.1323,-0.0149,0.1772,-0.1878
1312501.0,-0.6009,1.4796,10.1155,-0.0085,0.1735,-0.1788
1312511.0,-0.6823,1.585,10.1825,-0.0016,0.1745,-0.1612
1312521.0,-0.7422,1.7526,10.1203,0.0133,0.1751,-0.1341
1312531.0,-0.8236,1.7885,10.1179,0.008,0.1724,-0.1016
1312541.0,-0.8547,1.8579,10.0317,-0.009,0.1703,-0.0718
1312551.0,-0.9122,1.8938,10.0796,-0.0309,0.1777,-0.0404
1312561.0,-0.9601,1.9465,10.1155,-0.0463,0.1846,-0.0069
1312571.0,-0.996,1.9345,10.1131,-0.0607,0.1926,0.0277
1312581.0,-1.0702,1.8507,10.1059,-0.0782,0.1974,0.0607
1312591.0,-1.1205,1.7142,10.2568,-0.1011,0.2054,0.0915
1312601.0,-1.1349,1.5323,10.2855,-0.108,0.2128,0.116
1312611.0,-1.2115,1.3671,10.4363,-0.1059,0.2134,0.1282
1312621.0,-1.2785,1.2809,10.5034,-0.0798,0.2134,0.1336
1312631.0,-1.3408,1.2474,10.5752,-0.049,0.2251,0.133
1312641.0,-1.3815,1.3096,10.6398,-0.0176,0.2331,0.1304
1312651.0,-1.4868,1.4054,10.7236,-0.0037,0.2315,0.1261
1312661.0,-1.573,1.5514,10.7835,0.0021,0.2182,0.1325
1312671.0,-1.652,1.5969,10.8362,-0.0245,0.1916,0.1469
1312681.0,-1.6712,1.6209,10.8984,-0.067,0.1522,0.1666
1312691.0,-1.7071,1.5251,10.8338,-0.1091,0.1096,0.1878
1312701.0,-1.719,1.2809,10.829,-0.1442,0.0644,0.2102
1312711.0,-1.5778,0.9409,10.7739,-0.1681,0.0223,0.224
1312721.0,-1.4341,0.5818,10.6015,-0.1905,-0.0181,0.2144
1312731.0,-1.3048,0.3687,10.4244,-0.2043,-0.0548,0.182
1312741.0,-1.2067,0.3615,10.094,-0.2139,-0.0772,0.1399
1312751.0,-1.1444,0.4118,9.8474,-0.2379,-0.091,0.0947
1312761.0,-1.0942,0.5938,9.5912,-0.2389,-0.0819,0.0596
1312771.0,-0.996,0.8452,9.3015,-0.2139,-0.0452,0.0378
1312781.0,-0.9361,1.1133,9.0022,-0.1719,0.0314,0.0383
1312791.0,-0.8571,1.4102,8.7867,-0.1495,0.1341,0.058
1312801.0,-0.929,1.5203,9.0908,-0.1676,0.2533,0.0878
1312811.0,-0.9697,1.5897,9.1698,-0.1564,0.3581,0.1368
1312821.0,-1.0223,1.506,9.3877,-0.1708,0.4406,0.1857
1312831.0,-1.075,1.3575,9.4978,-0.2043,0.4943,0.2336
1312841.0,-1.0511,0.9912,9.7899,-0.2022,0.5885,0.2799
1312851.0,-1.1468,0.7087,9.912,-0.1761,0.7035,0.3092
1312861.0,-1.1708,0.3496,10.3741,-0.2357,0.7641,0.3097
1312871.0,-1.2498,0.1101,10.8314,-0.299,0.8046,0.2852
1312881.0,-1.4006,-0.0096,11.2743,-0.3688,0.8168,0.2432
1312891.0,-1.5826,0.012,11.7938,-0.4209,0.7944,0.2011
1312901.0,-1.7023,0.0551,12.3708,-0.4156,0.7678,0.1692
1312911.0,-1.798,0.4238,12.4882,-0.3565,0.7146,0.1474
1312921.0,-1.8986,0.8092,12.5576,-0.3704,0.6114,0.1378
1312931.0,-2.0255,1.2306,12.2799,-0.4331,0.4704,0.1511
1312941.0,-2.0566,1.3527,11.9351,-0.5231,0.3672,0.1921
1312951.0,-1.992,1.1827,11.6813,-0.5853,0.3336,0.2469
1312961.0,-2.0255,0.9864,11.6933,-0.6396,0.3235,0.2788
1312971.0,-2.0327,0.8547,11.9997,-0.6854,0.298,0.2948
1312981.0,-2.059,0.8835,12.0524,-0.6854,0.2453,0.3038
1312991.0,-2.0542,1.0247,11.9279,-0.6891,0.1623,0.3139
1313001.0,-2.0303,1.1827,11.564,-0.7077,0.0692,0.3326
1313011.0,-1.9609,1.3886,11.1546,-0.7194,0.0059,0.3645
1313021.0,-1.9944,1.5754,10.9008,-0.7008,-0.0048,0.4135
1313031.0,-2.1644,1.731,10.7069,-0.6311,0.0106,0.4848
1313041.0,-2.1069,1.7406,10.4291,-0.5071,0.0559,0.5805
1313051.0,-2.083,1.6424,10.1586,-0.3767,0.1383,0.6747
1313061.0,-2.1548,1.5012,10.0916,-0.3187,0.2347,0.7519
1313071.0,-2.2027,1.2881,10.2663,-0.3262,0.3246,0.8152
1313081.0,-2.3296,0.9242,10.7404,-0.3895,0.3826,0.8567
1313091.0,-2.411,0.5866,11.1594,-0.4693,0.3874,0.87
1313101.0,-2.4804,0.3424,11.3988,-0.5789,0.3384,0.8572
1313111.0,-2.5642,0.2562,11.4898,-0.6949,0.2735,0.8301
1313121.0,-2.6767,0.2418,11.5808,-0.8088,0.2182,0.8099
1313131.0,-2.9233,0.2442,11.7483,-0.9073,0.1708,0.8046
1313141.0,-3.0909,0.0742,12.0931,-0.9445,0.141,0.8226
1313151.0,-3.0885,-0.2131,12.5049,-0.9046,0.1208,0.8546
1313161.0,-3.2417,-0.4956,12.876,-0.8242,0.0734,0.8828
1313171.0,-3.3351,-0.8787,13.1083,-0.7513,-0.0404,0.8982
1313181.0,-3.2394,-1.2785,13.1202,-0.671,-0.1825,0.8908
1313191.0,-3.1987,-1.4629,12.9909,-0.5784,-0.3193,0.8535
1313201.0,-3.1819,-1.5227,12.7156,-0.5082,-0.4613,0.796
1313211.0,-3.2441,-1.3072,12.1649,-0.4544,-0.5986,0.7311
1313221.0,-3.2417,-1.1109,11.5999,-0.4523,-0.7024,0.679
1313231.0,-3.1651,-1.0319,11.0852,-0.4768,-0.7599,0.6481
1313241.0,-3.0526,-1.1803,10.805,-0.5422,-0.7976,0.6188
1313251.0,-2.9808,-1.2641,10.4507,-0.6114,-0.8242,0.5848
1313261.0,-2.6695,-1.5179,10.343,-0.6657,-0.8226,0.547
1313271.0,-2.5259,-1.7813,10.4267,-0.6513,-0.7737,0.506
1313281.0,-2.478,-1.8866,10.6805,-0.6066,-0.7428,0.4507
1313291.0,-2.4062,-1.8531,10.6997,-0.5539,-0.7524,0.3858
1313301.0,-2.4014,-1.7669,10.6566,-0.4901,-0.7753,0.3257
1313311.0,-2.387,-1.6496,10.5417,-0.4177,-0.7811,0.2772
1313321.0,-2.399,-1.5514,10.5082,-0.3629,-0.7689,0.2421
1313331.0,-2.4062,-1.4437,10.4315,-0.3299,-0.754,0.2187
1313341.0,-2.4397,-1.5562,10.6398,-0.3507,-0.7476,0.1963
1313351.0,-2.4205,-1.6927,11.0038,-0.3964,-0.7806,0.1634
1313361.0,-2.2529,-1.8747,11.3677,-0.4214,-0.8578,0.1165
1313371.0,-2.1596,-1.9632,11.4946,-0.398,-0.9562,0.0569
1313381.0,-2.1404,-1.8986,11.5113,-0.3523,-1.0621,-0.0032
1313391.0,-2.0111,-1.8196,11.3174,-0.299,-1.1744,-0.0527
1313401.0,-1.8962,-1.6903,10.8481,-0.2714,-1.3037,-0.0947
1313411.0,-1.7717,-1.652,10.3214,-0.2948,-1.4144,-0.1282
1313421.0,-1.5897,-1.6496,9.8378,-0.3257,-1.4729,-0.1506
1313431.0,-1.415,-1.8316,9.5768,-0.3688,-1.4968,-0.1735
1313441.0,-1.1444,-1.9609,9.2871,-0.4262,-1.5346,-0.2144
1313451.0,-0.9242,-2.0423,9.0429,-0.5002,-1.5942,-0.2756
1313461.0,-0.6823,-2.1213,8.734,-0.5577,-1.648,-0.3437
1313471.0,-0.5507,-2.1332,8.4515,-0.5656,-1.6724,-0.4103
1313481.0,-0.407,-2.1931,8.2672,-0.5193,-1.6644,-0.4629
1313491.0,-0.1389,-2.1883,8.0589,-0.464,-1.6639,-0.5108
1313501.0,0.0311,-2.1907,7.8841,-0.431,-1.6815,-0.5566
1313511.0,0.2346,-2.083,7.6255,-0.4007,-1.7113,-0.6002
1313521.0,0.3472,-1.9273,7.2377,-0.3799,-1.7464,-0.6364
1313531.0,0.4645,-1.8699,6.7564,-0.3443,-1.7554,-0.6529
1313541.0,0.747,-2.1596,6.5553,-0.2889,-1.7081,-0.6545
1313551.0,1.0104,-2.5211,6.4284,-0.2512,-1.657,-0.6742
1313561.0,1.3144,-2.8443,6.2513,-0.3092,-1.6724,-0.7423
1313571.0,1.6927,-3.0119,6.0118,-0.4188,-1.7044,-0.845
1313581.0,1.901,-2.9353,5.6479,-0.563,-1.7379,-0.9764
1313591.0,1.9585,-2.296,4.9273,-0.7646,-1.8188,-1.1244
1313601.0,2.0303,-1.3982,4.0965,-0.9413,-1.8624,-1.2435
1313611.0,2.3655,-0.3496,2.9544,-0.9748,-1.7826,-1.2787
1313621.0,2.6671,0.5866,1.7526,-0.9312,-1.5841,-1.2223
1313631.0,2.9377,1.2617,0.5842,-0.8402,-1.2781,-1.0695
1313641.0,3.4572,1.4772,-0.7542,-0.7348,-0.8647,-0.8455
1313651.0,4.1468,1.2067,-2.1141,-0.7726,-0.4294,-0.6119
1313661.0,4.6759,0.395,-2.8515,-0.9307,0.0798,-0.4033
1313671.0,4.6878,-0.3184,-2.9233,-1.0025,0.738,-0.2384
1313681.0,4.2569,-0.759,-2.4421,-0.9972,1.3872,-0.1181
1313691.0,3.2753,-1.0606,-1.652,-0.9003,1.9827,-0.0122
1313701.0,2.0901,-1.7358,-0.3041,-0.6763,2.5994,0.1096
1313711.0,1.3455,-2.8467,1.4102,-0.3549,3.1874,0.2198
1313721.0,0.5076,-4.0103,3.711,-0.091,3.6311,0.2368
1313731.0,-0.5602,-4.7429,6.4236,0.1916,3.9169,0.1612
1313741.0,-1.1277,-5.0326,9.0453,0.6226,4.0329,0.0415
1313751.0,-1.5826,-4.7764,10.9511,1.209,3.9951,-0.1054
1313761.0,-1.7741,-3.8235,11.3796,1.7799,3.7695,-0.2756
1313771.0,-2.0327,-2.4732,11.473,2.1604,3.4837,-0.4401
1313781.0,-2.4397,-0.8739,11.0061,2.411,3.2012,-0.5263
1313791.0,-2.6121,-0.1006,10.4435,2.5658,2.9953,-0.4997
1313801.0,-2.8443,0.3352,9.335,2.5978,2.8936,-0.4369
1313811.0,-3.1149,0.0192,9.347,2.3519,2.8537,-0.4103
1313821.0,-3.1173,-0.3903,9.821,2.104,2.8739,-0.4273
1313831.0,-3.146,-0.4741,10.4794,1.9459,2.9176,-0.4965
1313841.0,-3.4788,0.079,11.2049,1.8714,2.9591,-0.5704
1313851.0,-3.8571,0.8428,12.0955,1.8539,2.991,-0.5944
1313861.0,-3.7254,1.2474,12.6031,1.9044,2.9655,-0.5486
1313871.0,-5.0733,2.1021,12.1171,1.9949,2.9181,-0.4741
1313881.0,-5.2241,2.4181,11.5401,2.0614,2.9756,-0.3688
1313891.0,-6.1579,2.2673,12.9024,2.2061,3.3773,-0.2554
1313901.0,-7.0701,1.9776,15.8688,2.3892,3.7253,-0.1745
1313911.0,-7.5681,1.8052,18.9046,2.5227,3.6769,-0.1575
1313921.0,-8.2361,2.0686,21.4209,2.6909,3.3539,-0.1783
1313931.0,-8.3055,2.7629,22.8886,2.9415,2.8553,-0.1985
1313941.0,-8.0206,3.9217,22.7306,3.1756,2.2492,-0.2208
1313951.0,-7.2664,5.3175,20.82,3.1592,1.6059,-0.2613
1313961.0,-7.616,6.8426,18.9788,2.7026,1.1068,-0.3347
1313971.0,-7.944,8.2768,17.267,1.8784,0.6742,-0.3906
1313981.0,-8.272,8.6095,17.2502,0.8929,0.3549,-0.3672
1313991.0,-8.4348,7.8554,18.5168,0.1687,0.1793,-0.2549
1314001.0,-8.6215,7.015,19.6157,-0.2645,-0.1096,-0.1266
1314011.0,-8.1163,5.7413,20.4704,-0.6614,-0.6949,-0.05
1314021.0,-7.7788,5.1906,19.8479,-0.7833,-1.309,0.0053
1314031.0,-7.7021,4.8722,18.9788,-0.6779,-1.7804,0.0692
1314041.0,-7.1515,4.8459,16.9797,-0.4246,-2.162,0.1591
1314051.0,-6.8953,4.9177,15.05,-0.2325,-2.428,0.2543
1314061.0,-6.4979,4.8219,13.2711,-0.1144,-2.5866,0.3602
1314071.0,-6.3135,4.4484,12.1314,0.0016,-2.6042,0.4752
1314081.0,-5.9376,3.6464,11.5784,0.1713,-2.5196,0.5859
1314091.0,-5.4612,2.8347,11.0349,0.3326,-2.4243,0.6465
1314101.0,-5.1451,2.0423,10.908,0.3421,-2.394,0.6141
1314111.0,-4.695,1.7478,10.8697,0.2682,-2.3998,0.4927
1314121.0,-4.5298,2.1524,10.7955,0.0963,-2.4573,0.3118
1314131.0,-4.276,2.8611,10.5848,-0.2293,-2.6201,0.125
1314141.0,-4.2473,3.6296,10.3669,-0.6247,-2.8271,-0.0223
1314151.0,-4.2856,4.118,10.489,-0.911,-2.9804,-0.0958
1314161.0,-4.2665,4.4819,10.3597,-0.9599,-3.0857,-0.0803
1314171.0,-4.0941,4.4029,10.1993,-0.8636,-3.1921,-0.0005
1314181.0,-3.6416,4.2282,9.3661,-0.7098,-3.3087,0.1032
1314191.0,-3.1963,3.9002,8.5641,-0.6396,-3.4284,0.1857
1314201.0,-2.6647,3.8259,7.2856,-0.629,-3.5604,0.2389
1314211.0,-2.0303,3.8331,5.9089,-0.6715,-3.6402,0.2767
1314221.0,-1.4581,3.9121,4.4077,-0.7274,-3.62,0.3203
1314231.0,-0.9074,3.893,3.1603,-0.8253,-3.4981,0.3826
1314241.0,-0.3256,3.6176,2.3679,-0.9402,-3.3188,0.4534
1314251.0,0.2083,3.1532,1.9848,-1.0094,-3.0836,0.5247
1314261.0,0.6033,2.6288,2.1739,-0.9892,-2.7973,0.5901
1314271.0,0.9673,2.2122,2.2721,-0.9158,-2.5595,0.6375
1314281.0,1.2809,1.7717,2.4181,-0.8455,-2.3988,0.6662
1314291.0,1.6951,1.4102,2.2865,-0.7253,-2.2625,0.688
1314301.0,2.047,1.0367,2.0183,-0.5374,-2.096,0.7098
1314311.0,2.5043,0.6512,1.8794,-0.2714,-1.8645,0.7333
1314321.0,2.9544,0.3136,1.6759,0.0112,-1.615,0.745
1314331.0,3.2417,0.0838,1.3408,0.2214,-1.4133,0.7306
1314341.0,3.5626,-0.1101,0.8475,0.348,-1.2233,0.6997
1314351.0,3.8618,-0.3424,0.3519,0.3842,-1.0115,0.6502
1314361.0,4.063,-0.5698,-0.0527,0.3374,-0.787,0.5747
1314371.0,4.3934,-0.7781,-0.4884,0.2464,-0.5491,0.481
1314381.0,4.5729,-0.9002,-0.9577,0.1378,-0.274,0.3746
1314391.0,4.7477,-0.8811,-1.4389,0.0223,0.041,0.2655
1314401.0,4.64,-0.826,-1.6927,-0.0729,0.4486,0.1724
1314411.0,4.3096,-1.0415,-1.4653,-0.1123,0.9519,0.1048
1314421.0,4.1061,-1.3168,-0.8787,-0.0931,1.4846,0.0325
1314431.0,3.4596,-1.4724,0.0934,-0.1032,1.9747,-0.0702
1314441.0,2.7485,-1.7047,1.4054,-0.1453,2.3679,-0.1889
1314451.0,2.1308,-1.9513,2.7773,-0.149,2.6701,-0.3235
1314461.0,1.5347,-1.968,3.7685,-0.1032,2.8574,-0.4757
1314471.0,1.1732,-1.6927,3.9552,-0.016,2.9798,-0.6252
1314481.0,0.6847,-1.1971,3.9169,0.0798,3.1921,-0.7609
1314491.0,-0.067,-0.5004,4.063,0.1197,3.4976,-0.8657
1314501.0,-0.9002,0.261,4.8794,0.0415,3.8003,-0.945
1314511.0,-1.8818,0.9385,5.9448,-0.132,4.0206,-0.9871
1314521.0,-3.0358,1.3096,7.2712,-0.339,4.1563,-0.9716
1314531.0,-3.6895,0.8475,9.1794,-0.4363,4.2548,-0.9083
1314541.0,-4.0318,0.3879,10.7763,-0.315,4.2808,-0.8524
1314551.0,-4.2737,0.079,12.1482,-0.0213,4.2585,-0.8253
1314561.0,-4.5059,0.2322,13.1035,0.456,4.2569,-0.8115
1314571.0,-4.9799,0.7542,13.8648,0.9285,4.2223,-0.8093
1314581.0,-5.5833,1.5897,14.3101,1.334,4.1037,-0.7982
1314591.0,-6.2058,2.5498,14.8632,1.6905,3.9781,-0.7572
1314601.0,-6.6702,2.9018,16.6397,2.1098,3.9658,-0.655
1314611.0,-7.0413,3.0119,18.591,2.6536,3.8972,-0.5295
1314621.0,-7.0246,3.2561,20.2549,3.1033,3.5391,-0.4672
1314631.0,-6.6822,4.2306,20.4561,3.4023,2.9676,-0.4688
1314641.0,-6.5122,5.5761,20.3316,3.4779,2.4057,-0.4832
1314651.0,-6.5338,7.1156,19.824,3.3949,1.9076,-0.4566
1314661.0,-6.6535,8.1642,19.2733,3.1262,1.4064,-0.3709
1314671.0,-6.6343,8.5736,18.0451,2.7276,0.8913,-0.2464
1314681.0,-6.5098,8.2001,16.2973,2.188,0.4278,-0.1415
1314691.0,-6.3135,7.3287,14.6334,1.5357,0.0942,-0.1139
1314701.0,-5.8897,6.3015,13.4171,0.8727,-0.05,-0.1756
1314711.0,-5.8251,5.4109,13.362,0.2325,-0.0532,-0.3294
1314721.0,-5.7916,5.1236,14.0683,-0.2677,-0.0702,-0.5289
1314731.0,-5.8107,5.3415,15.0164,-0.5156,-0.1288,-0.7035
1314741.0,-5.9041,6.1148,15.6341,-0.4603,-0.207,-0.787
1314751.0,-6.031,6.924,15.8879,-0.2666,-0.3336,-0.7684
1314761.0,-6.0501,7.5106,15.7993,-0.0223,-0.5007,-0.663
1314771.0,-6.0717,7.8027,15.5623,0.2102,-0.6625,-0.5055
1314781.0,-6.0765,7.9344,14.9494,0.3634,-0.8594,-0.3347
1314791.0,-6.2201,7.7117,14.2551,0.3656,-1.0743,-0.1884
1314801.0,-6.2153,7.3789,13.6733,0.2788,-1.2574,-0.0793
1314811.0,-5.8658,7.082,13.3477,0.1415,-1.3862,-0.0186
1314821.0,-5.6551,7.0797,13.1394,-0.0585,-1.5399,-0.0011
1314831.0,-5.6719,7.1874,13.1035,-0.3198,-1.74,0.0032
1314841.0,-5.5761,7.2927,12.8569,-0.5396,-1.9662,0.0298
1314851.0,-5.3582,7.2808,12.2463,-0.7237,-2.2067,0.0809
1314861.0,-5.2409,7.0629,11.5664,-0.87,-2.4142,0.1506
1314871.0,-5.0326,6.6535,11.0971,-0.9253,-2.5531,0.2496
1314881.0,-4.5346,5.9664,10.6446,-0.8019,-2.6047,0.3672
1314891.0,-4.1228,5.3726,9.9168,-0.6045,-2.6441,0.472
1314901.0,-3.5913,4.8171,9.0453,-0.4432,-2.6936,0.5401
1314911.0,-2.9568,4.6519,7.8745,-0.3294,-2.6999,0.5688
1314921.0,-2.4277,4.5945,6.8259,-0.3288,-2.6515,0.5752
1314931.0,-2.0135,4.5657,6.1866,-0.3932,-2.5435,0.5864
1314941.0,-1.6903,4.367,5.9233,-0.4454,-2.3775,0.6188
1314951.0,-1.2881,3.9409,5.8107,-0.4411,-2.1865,0.6582
1314961.0,-0.9601,3.5003,5.8849,-0.3842,-1.9784,0.6763
1314971.0,-0.6919,3.2968,5.7652,-0.3326,-1.7746,0.6561
1314981.0,-0.6847,3.146,6.0525,-0.3916,-1.6054,0.605
1314991.0,-0.5674,3.0765,6.3949,-0.5092,-1.4878,0.5449
1315001.0,-0.2083,2.8515,6.9815,-0.6497,-1.4144,0.4821
1315011.0,-0.0838,2.8659,7.4029,-0.7753,-1.3883,0.4076
1315021.0,-0.0838,2.8659,7.4029,-0.7753,-1.3883,0.4076
1315031.0,-0.091,3.0813,7.7572,-0.8647,-1.3856,0.348
1315041.0,-0.2011,3.3016,8.0565,-0.9067,-1.4016,0.3336
1315051.0,-0.146,3.3686,8.2839,-0.8647,-1.4245,0.3656
1315061.0,-0.0838,3.3064,8.1475,-0.7529,-1.4591,0.4289
1315071.0,0.1221,3.0622,7.9727,-0.6109,-1.4803,0.5028
1315081.0,0.407,2.8587,7.5058,-0.4592,-1.4825,0.5683
1315091.0,0.6943,2.5211,6.9959,-0.4331,-1.5298,0.6013
1315101.0,1.008,2.399,6.1675,-0.4874,-1.5969,0.6002
1315111.0,1.2258,2.2194,5.3558,-0.5992,-1.6203,0.5789
1315121.0,1.5945,2.0925,4.5346,-0.6822,-1.5676,0.5598
1315131.0,1.9393,1.9632,3.8834,-0.7423,-1.45,0.5369
1315141.0,2.3056,1.8723,3.2825,-0.7593,-1.2893,0.5124
1315151.0,2.4588,1.9297,2.7485,-0.7678,-1.0956,0.4874
1315161.0,2.5307,1.8818,2.4924,-0.7556,-0.8636,0.4794
1315171.0,2.6767,1.6927,2.0997,-0.7045,-0.6002,0.4922
1315181.0,2.8826,1.312,1.8268,-0.7162,-0.3528,0.4895
1315191.0,3.0215,0.8859,1.743,-0.7918,-0.1144,0.4613
1315201.0,3.0646,0.4645,1.9561,-0.8806,0.1415,0.4129
1315211.0,3.0574,0.0766,2.3128,-0.9296,0.4001,0.3485
1315221.0,3.0071,-0.158,2.7892,-0.9041,0.646,0.2751
1315231.0,2.8299,-0.1963,3.2705,-0.771,0.9035,0.199
1315241.0,2.4852,-0.1269,3.7086,-0.5853,1.1542,0.1352
1315251.0,2.2146,-0.1772,4.2234,-0.3815,1.3989,0.0846
1315261.0,2.0303,-0.2514,4.8219,-0.2011,1.6208,0.0341
1315271.0,1.8459,-0.3232,5.3415,-0.0889,1.7836,-0.0319
1315281.0,1.6975,-0.2801,5.8993,-0.0245,1.8991,-0.1133
1315291.0,1.391,-0.0479,6.4835,0.0484,2.0119,-0.191
1315301.0,0.8739,0.2251,7.015,0.1479,2.1231,-0.2528
1315311.0,0.4573,0.4717,7.5944,0.2708,2.2029,-0.2943
1315321.0,0.2849,0.8236,7.7907,0.4071,2.2413,-0.3278
1315331.0,0.0,1.3647,7.7093,0.5273,2.2833,-0.3512
1315341.0,-0.498,1.913,7.5226,0.6109,2.3887,-0.3443
1315351.0,-0.8595,1.9752,7.9823,0.6561,2.5914,-0.3017
1315361.0,-1.1684,1.7669,8.8945,0.6577,2.7856,-0.2575
1315371.0,-1.5323,1.5083,9.9407,0.5848,2.8468,-0.2533
1315381.0,-1.4222,1.3096,10.9008,0.4885,2.7835,-0.2857
1315391.0,-1.5179,1.2905,11.2456,0.4347,2.6654,-0.3459
1315401.0,-2.0183,1.7095,11.0923,0.3555,2.4866,-0.4273
1315411.0,-2.5474,2.3703,10.5512,0.3092,2.3551,-0.4805
1315421.0,-3.0813,2.7845,10.1921,0.4001,2.4578,-0.4661
1315431.0,-3.6416,2.6983,10.8266,0.5529,2.7377,-0.4161
1315441.0,-4.1156,2.3942,12.2846,0.6369,2.9436,-0.3938
1315451.0,-4.5586,2.1883,14.0851,0.6194,2.9399,-0.4262
1315461.0,-4.8459,2.1859,15.9023,0.6417,2.7787,-0.4816
1315471.0,-4.8459,2.4612,17.1928,0.771,2.4796,-0.5284
1315481.0,-4.9991,3.1651,17.3292,1.0366,2.1231,-0.5587
1315491.0,-5.3606,4.4939,16.4146,1.3329,1.8369,-0.5577
1315501.0,-6.0549,5.6695,15.6868,1.4388,1.6708,-0.5002
1315511.0,-6.517,5.9592,16.1106,1.3856,1.5958,-0.3757
1315521.0,-6.5721,5.6671,16.9294,1.2648,1.4532,-0.2517
1315531.0,-6.6104,5.1475,17.8991,1.1052,1.1664,-0.1793
1315541.0,-6.7373,4.9823,18.3731,1.085,0.8365,-0.1373
1315551.0,-6.6966,4.9081,18.397,1.1919,0.5124,-0.0942
1315561.0,-6.1842,4.968,17.4585,1.3287,0.1751,-0.0708
1315571.0,-5.8155,5.4612,15.7515,1.317,-0.0921,-0.116
1315581.0,-5.8538,6.3135,14.0803,0.9626,-0.257,-0.2267
1315591.0,-5.94,6.7564,13.6015,0.2368,-0.4108,-0.3507
1315601.0,-5.861,6.6798,13.8576,-0.5656,-0.5928,-0.4486
1315611.0,-5.9616,6.5098,14.6381,-1.1637,-0.7646,-0.5103
1315621.0,-6.0406,6.517,15.4857,-1.4362,-0.9557,-0.5183
1315631.0,-6.0262,6.6343,15.8712,-1.4239,-1.2265,-0.447
1315641.0,-5.9041,6.7014,15.366,-1.1988,-1.5389,-0.3102
1315651.0,-5.5857,6.6655,14.2024,-0.8689,-1.7953,-0.1293
1315661.0,-5.1906,6.462,12.8593,-0.5507,-1.9598,0.0585
1315671.0,-4.7501,6.1316,11.6789,-0.3246,-2.0566,0.2272
1315681.0,-4.4029,5.7652,10.5177,-0.1862,-2.0976,0.3645
1315691.0,-4.0486,5.2912,9.6941,-0.1501,-2.1061,0.4624
1315701.0,-3.6081,4.8195,9.268,-0.1788,-2.0779,0.5241
1315711.0,-3.2633,4.3,9.1028,-0.2283,-2.0444,0.555
1315721.0,-2.8922,3.7541,9.0118,-0.315,-2.0566,0.5513
1315731.0,-2.5211,3.2106,8.8346,-0.4055,-2.0827,0.5172
1315741.0,-2.1213,2.6336,8.9352,-0.4853,-2.0912,0.455
1315751.0,-1.8794,2.399,8.8107,-0.5422,-2.1237,0.3592
1315761.0,-1.664,2.3535,8.8202,-0.5965,-2.1721,0.2464
1315771.0,-1.6185,2.648,8.4922,-0.5901,-2.2141,0.1511
1315781.0,-1.5562,2.8467,8.3175,-0.6055,-2.2492,0.0931
1315791.0,-1.2282,2.9497,7.9823,-0.5619,-2.2524,0.0718
1315801.0,-0.9601,3.0526,7.4531,-0.5385,-2.2471,0.0644
1315811.0,-0.7398,3.1364,6.9192,-0.5667,-2.2413,0.0654
1315821.0,-0.5435,3.1292,6.7421,-0.5811,-2.1572,0.0809
1315831.0,-0.4334,3.1244,6.6559,-0.5491,-2.0449,0.1117
1315841.0,-0.3208,2.9688,6.8163,-0.5103,-1.9624,0.1511
1315851.0,-0.0024,2.8371,6.6942,-0.4257,-1.906,0.1916
1315861.0,0.3591,2.7222,6.4667,-0.3565,-1.8571,0.2187
1315871.0,0.5914,2.8204,5.8921,-0.3837,-1.8326,0.2246
1315881.0,0.7566,2.909,5.4277,-0.531,-1.8172,0.2208
1315891.0,1.0175,2.9113,4.9464,-0.7274,-1.7938,0.223
1315901.0,1.2665,2.7102,4.7118,-0.9179,-1.7278,0.2341
1315911.0,1.5706,2.4612,4.5346,-1.0477,-1.6283,0.2528
1315921.0,1.7262,2.1476,4.5442,-1.1111,-1.5133,0.2735
1315931.0,1.8579,1.8483,4.5897,-1.0685,-1.3782,0.3033
1315941.0,2.0901,1.4629,4.6998,-0.9126,-1.2132,0.3406
1315951.0,2.3128,1.1779,4.5466,-0.7189,-1.0813,0.3629
1315961.0,2.6647,0.9313,4.1515,-0.5768,-0.9919,0.3533
1315971.0,2.8563,0.838,3.6464,-0.5007,-0.8977,0.3171
1315981.0,2.9712,0.8284,3.1125,-0.4773,-0.7742,0.2677
1315991.0,3.1723,0.8164,2.7892,-0.4927,-0.6433,0.215
1316001.0,3.3088,0.8811,2.4086,-0.4672,-0.4773,0.1761
1316011.0,3.2968,0.9385,2.0806,-0.3719,-0.2395,0.1591
1316021.0,3.2058,0.9697,1.8076,-0.2134,0.05,0.166
1316031.0,3.1795,0.9146,1.8052,0.0027,0.3821,0.1868
1316041.0,2.9999,0.8116,1.6544,0.2543,0.7434,0.2107
1316051.0,2.7605,0.5602,1.8387,0.4448,1.1238,0.2182
1316061.0,2.7581,0.3017,2.399,0.5683,1.5181,0.1995
1316071.0,2.7509,0.0072,3.5099,0.5906,1.8565,0.1501
1316081.0,2.4349,-0.1987,4.7405,0.5577,2.104,0.0782
1316091.0,1.9561,-0.2179,5.8514,0.5209,2.2679,-0.009
1316101.0,1.6424,-0.0599,6.7373,0.4699,2.3642,-0.1038
1316111.0,1.4269,0.3184,7.4316,0.3608,2.4131,-0.1969
1316121.0,1.233,0.8356,8.1403,0.1681,2.4403,-0.2826
1316131.0,0.6393,1.3384,9.1961,-0.1479,2.3897,-0.3496
1316141.0,0.0838,1.64,10.3022,-0.5034,2.1966,-0.3799
1316151.0,-0.3208,1.5897,10.8721,-0.7035,1.9342,-0.3602
1316161.0,-0.4094,1.3408,10.8002,-0.6263,1.74,-0.3022
1316171.0,-0.486,1.4461,10.1418,-0.315,1.6676,-0.2517
1316181.0,-0.5674,1.8364,9.2033,0.1101,1.7139,-0.2102
1316191.0,-0.6057,2.4205,8.0302,0.5225,1.8645,-0.1767
1316201.0,-0.8045,3.0358,6.924,0.7258,2.0518,-0.1724
1316211.0,-0.9529,3.7876,5.9735,0.6337,2.2136,-0.1958
1316221.0,-1.6161,4.5298,5.5091,0.3214,2.3956,-0.2134
1316231.0,-2.4469,4.5274,5.9089,0.0181,2.6999,-0.1586
1316241.0,-3.0454,3.6512,7.4244,-0.1192,3.0921,-0.0607
1316251.0,-3.6871,2.7174,9.3111,-0.1277,3.3614,-0.0165
1316261.0,-4.1683,2.2218,11.1785,-0.0181,3.4571,-0.0357
1316271.0,-4.561,2.4684,12.5289,0.2075,3.4348,-0.0851
1316281.0,-4.889,3.2417,13.2423,0.4683,3.3183,-0.1123
1316291.0,-5.0805,4.3072,12.9933,0.6556,3.1325,-0.0937
1316301.0,-5.2648,5.2265,12.4618,0.6582,2.9734,-0.0229
1316311.0,-5.7485,5.5138,12.2463,0.4683,2.9096,0.1
1316321.0,-6.3997,4.8698,13.1154,0.1815,2.9138,0.2501
1316331.0,-6.7493,3.4429,14.9853,-0.0404,2.8755,0.3773
1316341.0,-6.8857,2.162,16.7235,-0.0718,2.7015,0.4289
1316351.0,-6.8522,1.5299,18.0643,0.1219,2.4227,0.4092
1316361.0,-6.8019,1.664,18.1696,0.4752,2.0917,0.364
1316371.0,-6.7397,2.32,17.516,0.7913,1.7597,0.315
1316381.0,-6.7397,3.2441,16.113,0.9237,1.4713,0.2756
1316391.0,-6.9576,3.8738,14.9231,0.7843,1.2728,0.2496
1316401.0,-7.2305,3.7493,15.026,0.5055,1.2212,0.2458
1316411.0,-7.3957,3.043,16.2782,0.2613,1.2164,0.2341
1316421.0,-7.5226,2.3727,17.8272,0.1016,1.0435,0.1703
1316431.0,-7.5705,2.162,18.7274,0.1091,0.713,0.0745
1316441.0,-7.4651,2.5379,18.67,0.2687,0.356,-0.016
1316451.0,-7.2544,3.2417,18.0954,0.4166,0.0096,-0.0883
1316461.0,-7.0581,4.13,17.0539,0.4512,-0.3182,-0.1309
1316471.0,-6.845,4.7764,15.7898,0.2905,-0.6236,-0.1431
1316481.0,-6.7133,4.9823,14.8441,-0.042,-0.8876,-0.1368
1316491.0,-6.699,4.8315,14.2263,-0.4331,-1.1153,-0.1266
1316501.0,-6.5146,4.5418,13.7523,-0.7513,-1.3159,-0.1235
1316511.0,-6.3997,4.3239,13.4147,-0.9211,-1.4702,-0.1203
1316521.0,-6.3351,4.2186,13.0005,-0.9248,-1.5878,-0.1038
1316531.0,-6.098,4.1276,12.4882,-0.8077,-1.6714,-0.0756
1316541.0,-5.8419,4.1922,11.7316,-0.6359,-1.7235,-0.0378
1316551.0,-5.5474,4.1851,11.1546,-0.4933,-1.7395,0.0021
1316561.0,-5.3271,4.2641,10.5441,-0.4033,-1.7342,0.042
1316571.0,-5.1882,4.1276,10.1682,-0.4039,-1.7256,0.0798
1316581.0,-4.9919,3.8044,10.0509,-0.4608,-1.7219,0.1086
1316591.0,-4.8004,3.3184,10.1873,-0.539,-1.724,0.1149
1316601.0,-4.5514,2.8563,10.4746,-0.5789,-1.7507,0.0952
1316611.0,-4.3934,2.6911,10.5417,-0.6082,-1.8257,0.0426
1316621.0,-4.3191,2.8108,10.5105,-0.6423,-1.9475,-0.0223
1316631.0,-4.2018,3.0574,10.1825,-0.6486,-2.0651,-0.0649
1316641.0,-4.0941,3.304,9.8067,-0.6407,-2.1481,-0.0734
1316651.0,-4.0462,3.3208,9.517,-0.6359,-2.1998,-0.0516
1316661.0,-3.8283,3.1508,9.232,-0.6417,-2.2498,-0.017
1316671.0,-3.3758,2.818,8.8657,-0.6699,-2.3142,0.0021
1316681.0,-3.0047,2.7102,8.1235,-0.7604,-2.3897,-0.009
1316691.0,-2.6935,2.6312,7.6136,-0.9413,-2.4637,-0.0431
1316701.0,-2.4732,2.648,7.0892,-1.1153,-2.5142,-0.0702
1316711.0,-2.2386,2.4876,6.9168,-1.1994,-2.5041,-0.0649
1316721.0,-1.9249,2.1117,6.7469,-1.1201,-2.4232,-0.0213
1316731.0,-1.5036,1.5874,6.608,-0.9456,-2.3211,0.0261
1316741.0,-1.0463,1.1325,6.4404,-0.737,-2.2242,0.0537
1316751.0,-0.6177,0.8643,6.2297,-0.5454,-2.1279,0.0527
1316761.0,-0.1125,0.8092,5.8802,-0.3943,-2.0422,0.0319
1316771.0,0.2251,0.9481,5.3726,-0.3475,-1.9896,-0.0027
1316781.0,0.4884,1.2139,4.6543,-0.4172,-1.9529,-0.0399
1316791.0,0.6153,1.4174,4.2928,-0.5523,-1.8661,-0.0575
1316801.0,0.759,1.4533,4.3167,-0.6231,-1.6985,-0.0346
1316811.0,1.0942,1.0463,4.889,-0.5603,-1.4777,0.0245
1316821.0,1.5634,0.589,5.2409,-0.3868,-1.2984,0.0867
1316831.0,2.0279,0.1317,5.1882,-0.2714,-1.2435,0.1027
1316841.0,2.4373,-0.1077,4.6663,-0.2405,-1.2302,0.0702
1316851.0,2.5355,-0.0982,4.1827,-0.2762,-1.1717,0.0053
1316861.0,2.6911,-0.0239,3.7302,-0.4076,-1.1222,-0.0734
1316871.0,2.8419,0.2227,3.2274,-0.5598,-1.0637,-0.1511
1316881.0,2.9808,0.4262,2.9904,-0.6465,-0.9094,-0.2033
1316891.0,3.0933,0.7278,2.8036,-0.6157,-0.6614,-0.216
1316901.0,3.0885,0.8236,2.9928,-0.5459,-0.3959,-0.1953
1316911.0,3.1771,0.9744,2.9736,-0.4486,-0.1697,-0.157
1316921.0,3.237,1.0918,2.8419,-0.3656,0.0394,-0.1059
1316931.0,3.2346,1.2737,2.6719,-0.2857,0.2623,-0.0431
1316941.0,2.9904,1.3791,2.5881,-0.2049,0.5108,0.0309
1316951.0,2.7007,1.5467,2.4397,-0.1128,0.763,0.1139
1316961.0,2.2865,1.6328,2.3439,0.0149,1.0642,0.207
1316971.0,1.9345,1.3216,2.3846,0.1799,1.4612,0.3187
1316981.0,1.6448,0.5387,3.0742,0.3453,1.9284,0.4113
1316991.0,1.3695,-0.3639,4.13,0.4534,2.3429,0.4358
1317001.0,0.905,-0.9625,5.2241,0.4762,2.6409,0.3677
1317011.0,0.6249,-1.336,6.3446,0.4374,2.8484,0.2341
1317021.0,0.328,-1.4293,7.3334,0.3475,2.9671,0.0628
1317031.0,-0.0766,-1.2641,8.1762,0.215,3.0027,-0.1219
1317041.0,-0.7087,-0.8452,8.6766,0.0825,3.0171,-0.2905
1317051.0,-1.5299,-0.2466,9.0501,-0.0713,3.0293,-0.423
1317061.0,-2.4229,0.0958,9.7492,-0.232,3.0703,-0.4911
1317071.0,-2.7629,0.012,11.0277,-0.2889,3.1623,-0.5013
1317081.0,-3.0598,-0.1269,12.4068,-0.2735,3.1953,-0.5071
1317091.0,-3.395,0.0479,13.4985,-0.2559,3.0655,-0.5332
1317101.0,-3.5817,0.6033,13.9079,-0.2288,2.8324,-0.5539
1317111.0,-3.8211,1.3024,13.8529,-0.2001,2.5972,-0.5385
1317121.0,-3.8523,1.968,13.2375,-0.207,2.3764,-0.4784
1317131.0,-4.1827,2.5498,12.3996,-0.3076,2.1918,-0.3922
1317141.0,-5.0494,2.8563,11.7627,-0.4645,2.1024,-0.2714
1317151.0,-5.1547,2.0279,12.6366,-0.5177,2.1987,-0.0889
1317161.0,-5.0925,0.6345,14.279,-0.3469,2.3509,0.0841
1317171.0,-4.9273,-0.3663,15.7778,-0.1229,2.2551,0.1522
1317181.0,-4.616,-0.6584,16.3356,0.1048,1.9358,0.1383
1317191.0,-4.4772,-0.4501,16.0268,0.2948,1.5703,0.1043
1317201.0,-4.4748,-0.0359,14.6693,0.39,1.2169,0.0867
1317211.0,-4.774,0.1891,13.3213,0.3576,0.9802,0.083
1317221.0,-5.114,0.0263,12.6198,0.2905,0.92,0.0862
1317231.0,-5.1356,-0.6823,12.8784,0.2852,0.9897,0.066
1317241.0,-5.1212,-1.0319,13.4195,0.3922,1.0584,-0.025
1317251.0,-5.3534,-0.6752,13.9223,0.5412,1.0493,-0.1692
1317261.0,-5.5785,0.1245,14.3413,0.6949,0.9977,-0.2948
1317271.0,-5.9472,0.9194,14.7986,0.8232,0.9184,-0.357
1317281.0,-6.1292,1.4868,14.9662,0.9296,0.7865,-0.3634
1317291.0,-6.3662,1.9728,14.7459,0.9493,0.6135,-0.356
1317301.0,-6.541,2.308,14.4538,0.8493,0.4347,-0.3597
1317311.0,-6.596,2.6695,14.2886,0.6965,0.3028,-0.3826
1317321.0,-6.7732,3.0885,14.5184,0.5353,0.2373,-0.4065
1317331.0,-6.9312,3.4213,15.0739,0.3767,0.1607,-0.4145
1317341.0,-6.9623,3.6488,15.7754,0.2267,0.0043,-0.4049
1317351.0,-6.936,3.893,16.0962,0.1282,-0.2352,-0.3719
1317361.0,-6.8809,4.027,16.101,0.0708,-0.5209,-0.3113
1317371.0,-6.7397,4.0845,15.6964,0.0756,-0.8099,-0.223
1317381.0,-6.5338,4.0127,14.9566,0.1171,-1.0743,-0.1165
1317391.0,-6.3303,3.9648,14.0492,0.1687,-1.3005,-0.009
1317401.0,-6.1339,3.9648,13.1705,0.2517,-1.4649,0.1022
1317411.0,-5.8754,3.9959,12.3086,0.3688,-1.5618,0.2224
1317421.0,-5.5857,3.9409,11.6717,0.5167,-1.59,0.3597
1317431.0,-5.2074,3.7158,11.1259,0.6593,-1.5974,0.5018
1317441.0,-4.8914,3.3782,10.6231,0.7636,-1.6043,0.6279
1317451.0,-4.5203,2.9066,10.1155,0.8258,-1.5953,0.7221
1317461.0,-4.1707,2.4708,9.6869,0.8322,-1.5793,0.7705
1317471.0,-3.8738,2.0399,9.347,0.77,-1.5687,0.7673
1317481.0,-3.5195,1.6616,9.0477,0.6689,-1.5463,0.7184
1317491.0,-3.1436,1.5227,8.7939,0.5247,-1.5155,0.6226
1317501.0,-2.8778,1.4581,8.667,0.2911,-1.5006,0.4895
1317511.0,-2.6911,1.5155,8.7819,0.025,-1.4899,0.3475
1317521.0,-2.569,1.6065,8.9878,-0.2022,-1.4926,0.2118
1317531.0,-2.4948,1.8028,9.074,-0.3672,-1.524,0.0947
1317541.0,-2.4205,1.9968,8.9016,-0.4619,-1.5405,0.0037
1317551.0,-2.2625,2.0662,8.825,-0.4874,-1.4867,-0.0543
1317561.0,-2.1308,2.1189,9.0237,-0.4805,-1.4048,-0.0942
1317571.0,-1.9201,2.0494,9.4284,-0.489,-1.3526,-0.1373
1317581.0,-1.822,2.2482,9.6654,-0.5146,-1.3542,-0.1836
1317591.0,-1.7478,2.4277,9.9718,-0.597,-1.4149,-0.2214
1317601.0,-1.7095,2.5546,10.1897,-0.6758,-1.516,-0.2373
1317611.0,-1.5826,2.5307,10.2855,-0.7056,-1.6304,-0.2283
1317621.0,-1.4222,2.545,10.137,-0.6476,-1.7352,-0.2017
1317631.0,-1.324,2.5307,9.9048,-0.5459,-1.8097,-0.1623
1317641.0,-0.9649,2.5331,9.6702,-0.4065,-1.8422,-0.1117
1317651.0,-0.8116,2.6312,9.4451,-0.2969,-1.8762,-0.0617
1317661.0,-0.6895,2.6983,9.0118,-0.2841,-1.988,-0.0112
1317671.0,-0.3807,2.5474,8.3965,-0.323,-2.1162,0.0404
1317681.0,-0.0311,2.3487,7.6375,-0.3336,-2.1774,0.0915
1317691.0,0.3089,1.9944,7.0581,-0.3459,-2.1753,0.1298
1317701.0,0.68,1.731,6.5242,-0.3124,-2.1242,0.158
1317711.0,1.0487,1.5562,5.8993,-0.257,-2.047,0.1793
1317721.0,1.4868,1.3001,5.4468,-0.2091,-1.939,0.191
1317731.0,1.9585,1.1492,4.8698,-0.1618,-1.7741,0.1836
1317741.0,2.3176,1.1037,4.5753,-0.1953,-1.6203,0.1495
1317751.0,2.6624,1.0343,4.2856,-0.3246,-1.5075,0.0937
1317761.0,2.988,0.9266,4.0606,-0.5231,-1.4245,0.0234
1317771.0,3.2298,0.8835,3.7876,-0.7742,-1.3915,-0.0644
1317781.0,3.462,1.008,3.2825,-1.0041,-1.3675,-0.1522
1317791.0,3.5937,1.2163,2.6815,-1.119,-1.2584,-0.2118
1317801.0,3.6919,1.506,2.0375,-1.1047,-1.0509,-0.2267
1317811.0,3.6823,1.7406,1.64,-0.9988,-0.7636,-0.1974
1317821.0,3.7469,1.8914,1.3958,-0.8019,-0.4166,-0.1235
1317831.0,3.7134,1.992,1.3958,-0.5422,-0.0309,-0.0223
1317841.0,3.6919,1.8986,1.5538,-0.2645,0.3528,0.0942
1317851.0,3.5027,1.7885,1.5634,-0.0362,0.6635,0.199
1317861.0,3.2705,1.6424,1.5778,0.124,0.9355,0.29
1317871.0,2.9784,1.5395,1.5514,0.2852,1.2616,0.3794
1317881.0,2.5857,1.2426,2.1021,0.439,1.6485,0.4629
1317891.0,2.1404,1.0989,2.6145,0.5837,2.0183,0.5209
1317901.0,1.6376,0.9529,3.2801,0.6226,2.3099,0.5486
1317911.0,1.1827,0.6943,4.0869,0.5619,2.5323,0.5539
1317921.0,0.7901,0.1532,5.2337,0.4257,2.6936,0.5326
1317931.0,0.5028,-0.3974,6.2848,0.224,2.6941,0.4677
1317941.0,0.2466,-0.8523,6.9935,0.0213,2.5728,0.357
1317951.0,-0.0024,-0.8499,6.9264,-0.0218,2.5164,0.2336
1317961.0,-0.4334,-0.6943,6.9552,0.0208,2.5877,0.1213
1317971.0,-0.9385,-0.3184,7.4029,0.1096,2.7351,0.0372
1317981.0,-0.972,-0.0287,8.3749,0.2219,2.8644,-0.0192
1317991.0,-1.8052,0.3472,9.5122,0.3586,2.8984,-0.0612
1318001.0,-2.0782,0.6752,9.9479,0.5082,2.7691,-0.108
1318011.0,-2.1548,1.2139,9.7109,0.5864,2.5355,-0.1676
1318021.0,-2.4541,2.1141,8.4108,0.5646,2.3115,-0.2097
1318031.0,-2.9233,2.9281,7.1156,0.4651,2.3232,-0.2054
1318041.0,-3.7086,3.6057,6.6822,0.2847,2.602,-0.1479
1318051.0,-4.5849,3.6152,7.9871,-0.05,2.9213,-0.0516
1318061.0,-5.1571,3.1532,10.2903,-0.348,3.1113,0.0596
1318071.0,-5.296,2.5498,12.5672,-0.4672,3.1054,0.1559
1318081.0,-5.7078,2.0063,14.3461,-0.4023,2.9325,0.2421
1318091.0,-6.1196,1.6328,15.1337,-0.1729,2.6238,0.3235
1318101.0,-6.4069,1.3072,15.0116,0.2128,2.3317,0.4049
1318111.0,-6.4308,1.0654,14.0875,0.7338,2.2237,0.48
1318121.0,-6.4667,0.6752,13.8529,1.1334,2.2844,0.4991
1318131.0,-6.5625,0.4214,14.4825,1.3819,2.369,0.4363
1318141.0,-6.6367,0.5435,15.3397,1.5623,2.3652,0.3076
1318151.0,-6.7397,1.2091,15.9406,1.6868,2.2588,0.1453
1318161.0,-6.9097,2.2242,16.204,1.6873,2.0752,-0.0085
1318171.0,-7.082,3.3447,16.1896,1.558,1.8209,-0.1203
1318181.0,-7.1898,4.4915,15.4809,1.3697,1.5937,-0.1676
1318191.0,-7.501,5.2936,14.6477,1.0722,1.4527,-0.1474
1318201.0,-7.7548,5.3223,14.3676,0.6343,1.3899,-0.0777
1318211.0,-7.8243,4.6591,14.9183,0.1862,1.3899,-0.0059
1318221.0,-7.9416,3.7445,16.2111,-0.224,1.3037,0.0128
1318231.0,-7.9751,2.9928,17.4729,-0.4672,1.1009,-0.0138
1318241.0,-8.0397,2.6576,18.1097,-0.4869,0.8445,-0.0575
1318251.0,-8.0134,2.6719,18.0379,-0.4278,0.5124,-0.108
1318261.0,-7.908,2.8754,17.3532,-0.3555,0.1724,-0.1538
1318271.0,-7.695,3.0718,16.362,-0.3012,-0.0857,-0.1825
1318281.0,-7.4508,3.0454,15.5599,-0.2996,-0.2543,-0.2086
1318291.0,-7.2425,3.0861,14.9374,-0.3709,-0.4193,-0.2506
1318301.0,-7.1611,3.2394,14.4514,-0.4794,-0.5784,-0.3044
1318311.0,-7.1515,3.3806,14.2072,-0.5779,-0.7152,-0.34
1318321.0,-7.0485,3.3279,14.0348,-0.6561,-0.8673,-0.3533
1318331.0,-7.003,3.2657,13.6613,-0.705,-1.0366,-0.3602
1318341.0,-6.7397,3.146,13.2112,-0.8014,-1.2265,-0.3805
1318351.0,-6.3279,3.0526,12.8329,-0.9126,-1.3904,-0.415
1318361.0,-6.1531,3.0454,12.5672,-1.0312,-1.5458,-0.4624
1318371.0,-6.0501,3.2226,12.1913,-1.1073,-1.7086,-0.5087
1318381.0,-6.0142,3.5147,11.7507,-1.1036,-1.8432,-0.5268
1318391.0,-5.9304,3.7757,11.2336,-1.0211,-1.9438,-0.5044
1318401.0,-5.5857,3.7469,10.7524,-0.8673,-1.9922,-0.4427
1318411.0,-6.0358,3.7924,10.3597,-0.6625,-1.9747,-0.3501
1318421.0,-5.3534,3.2753,10.2256,-0.4353,-1.9332,-0.2543
1318431.0,-4.944,2.8659,10.4339,-0.2283,-1.8943,-0.19
1318441.0,-4.8052,2.6193,10.4794,-0.1043,-1.9566,-0.1671
1318451.0,-4.5155,2.727,10.3501,-0.0724,-2.0944,-0.1767
1318461.0,-4.2713,3.0598,9.8665,-0.116,-2.2439,-0.1846
1318471.0,-4.1037,3.2489,9.3565,-0.2767,-2.3982,-0.1788
1318481.0,-4.0558,3.1771,9.0453,-0.4363,-2.4898,-0.1543
1318491.0,-3.881,2.6432,9.1004,-0.5523,-2.5089,-0.124
1318501.0,-3.3567,1.8962,9.6343,-0.5917,-2.5009,-0.124
1318511.0,-3.134,1.8196,9.5792,-0.654,-2.6132,-0.1926
1318521.0,-3.0598,2.138,9.2895,-0.8727,-2.8984,-0.2948
1318531.0,-2.7461,2.6647,8.2911,-1.0435,-3.1682,-0.348
1318541.0,-2.4014,2.9616,7.118,-1.0743,-3.2698,-0.3177
1318551.0,-2.0662,2.9808,6.0071,-1.0099,-3.2384,-0.2224
1318561.0,-1.6065,2.7461,4.853,-0.9046,-3.131,-0.1032
1318571.0,-0.9361,2.308,3.8666,-0.8599,-2.9793,-0.0021
1318581.0,-0.3855,1.7214,3.3974,-0.87,-2.7473,0.0708
1318591.0,-0.0527,1.0127,3.7685,-0.8785,-2.4679,0.1112
1318601.0,0.4836,0.486,4.3048,-0.8184,-2.2657,0.1187
1318611.0,1.1396,0.2131,4.5753,-0.6827,-2.1588,0.1059
1318621.0,1.5371,0.2897,4.1875,-0.4736,-2.0662,0.0958
1318631.0,1.7861,0.4956,3.486,-0.2661,-1.9278,0.1064
1318641.0,2.1069,0.5674,2.8826,-0.1352,-1.7655,0.1272
1318651.0,2.4205,0.486,2.4636,-0.0479,-1.5591,0.1517
1318661.0,2.7414,0.2538,2.332,0.0468,-1.3026,0.1703
1318671.0,2.9975,0.0886,2.2769,0.125,-1.0648,0.166
1318681.0,3.2202,0.0527,2.2721,0.1799,-0.8684,0.1415
1318691.0,3.4213,0.2753,2.0159,0.2554,-0.6726,0.125
1318701.0,3.45,0.5483,1.6544,0.3501,-0.4257,0.133
1318711.0,3.4093,0.8116,1.4892,0.431,-0.1298,0.1666
1318721.0,3.3543,0.9529,1.2689,0.4661,0.1713,0.2176
1318731.0,3.1819,0.9649,1.2905,0.431,0.4746,0.2724
1318741.0,2.8611,0.8835,1.6831,0.3863,0.8152,0.3299
1318751.0,2.5115,0.5195,2.5809,0.373,1.152,0.3954
1318761.0,2.2386,0.0886,3.4046,0.398,1.4,0.4417
1318771.0,2.1596,-0.3926,3.8235,0.397,1.5426,0.4459
1318781.0,2.0375,-0.7039,3.9792,0.3693,1.6559,0.4103
1318791.0,1.7789,-0.9505,4.2306,0.3794,1.8608,0.3565
1318801.0,1.4341,-0.905,4.5849,0.4241,2.1157,0.282
1318811.0,1.0918,-0.6584,5.0063,0.3975,2.3328,0.1815
1318821.0,0.5052,-0.2011,5.5067,0.2395,2.4914,0.0724
1318831.0,0.0168,-0.0982,6.6607,-0.0319,2.5978,-0.0096
1318841.0,-0.5267,-0.103,8.0996,-0.2831,2.5823,-0.0708
1318851.0,-1.0558,0.1532,9.0453,-0.3858,2.4009,-0.1054
1318861.0,-1.4653,0.5674,8.8298,-0.1772,2.2546,-0.066
1318871.0,-1.8052,0.7039,7.8865,0.2506,2.3104,0.0415
1318881.0,-2.1356,0.51,7.0629,0.6391,2.5052,0.1469
1318891.0,-2.2601,0.0215,6.7157,0.845,2.7393,0.1862
1318901.0,-2.387,-0.4884,6.8857,0.8987,2.9857,0.1336
1318911.0,-2.9257,-0.7829,7.7572,0.8312,3.1762,-0.0005
1318921.0,-3.8355,-0.668,9.0118,0.7497,3.2624,-0.1602
1318931.0,-4.6783,-0.316,9.979,0.8519,3.272,-0.274
1318941.0,-5.1044,0.1053,10.003,1.1706,3.2948,-0.3368
1318951.0,-5.4013,0.7997,9.414,1.5053,3.3853,-0.3991
1318961.0,-6.1507,1.9249,8.8155,1.6575,3.5673,-0.4773
1318971.0,-7.118,2.7869,9.2177,1.5516,3.7966,-0.5412
1318981.0,-7.8266,3.2082,10.5656,1.2904,4.0116,-0.572
1318991.0,-8.576,3.3615,13.0652,0.9498,4.1249,-0.5938
1319001.0,-9.1961,3.5291,15.8592,0.6348,3.9898,-0.6039
1319011.0,-9.5648,3.5698,18.33,0.4869,3.6498,-0.5747
1319021.0,-9.9838,3.6943,19.5654,0.6082,3.223,-0.5034
1319031.0,-10.0269,3.5386,19.9198,0.8083,2.7569,-0.4225
1319041.0,-9.8713,3.4692,19.5295,0.911,2.2753,-0.3911
1319051.0,-9.8593,3.541,19.3619,0.8886,1.8518,-0.415
1319061.0,-9.8545,3.9409,19.01,0.8019,1.4846,-0.4619
1319071.0,-10.0006,4.4005,18.9645,0.5646,1.0669,-0.5161
1319081.0,-10.3477,4.8626,18.9118,0.3368,0.6614,-0.5316
1319091.0,-10.4914,5.0757,18.9645,0.273,0.3629,-0.4773
1319101.0,-10.5369,5.1787,18.8496,0.3331,0.0947,-0.3842
1319111.0,-10.1754,5.1044,18.2773,0.3645,-0.2224,-0.2943
1319121.0,-9.7037,5.0446,17.4082,0.2847,-0.5257,-0.2379
1319131.0,-9.4403,4.9536,16.745,0.0548,-0.7913,-0.2203
1319141.0,-9.1889,4.7429,16.4146,-0.2591,-1.0578,-0.2256
1319151.0,-8.9495,4.4245,16.0603,-0.5582,-1.3388,-0.2363
1319161.0,-8.7293,4.0007,15.9047,-0.7801,-1.6086,-0.2469
1319171.0,-8.5569,3.6655,15.5503,-0.8626,-1.8507,-0.2559
1319181.0,-8.3725,3.4788,15.1074,-0.8301,-2.0832,-0.2602
1319191.0,-7.9966,3.3399,14.3628,-0.7199,-2.2929,-0.2565
1319201.0,-7.6136,3.4477,13.2663,-0.613,-2.4866,-0.2538
1319211.0,-7.2329,3.6081,12.1482,-0.5859,-2.6563,-0.2506
1319221.0,-6.8307,3.7804,11.0085,-0.6013,-2.7611,-0.2293
1319231.0,-6.5003,3.8331,10.24,-0.6364,-2.792,-0.19
1319241.0,-6.2369,3.7541,9.6798,-0.6609,-2.7989,-0.1362
1319251.0,-5.9065,3.5099,9.3326,-0.6747,-2.808,-0.0819
1319261.0,-5.4755,3.3064,8.7891,-0.6306,-2.8122,-0.0335
1319271.0,-5.0087,3.0167,8.3318,-0.5832,-2.7936,-0.0016
1319281.0,-4.4628,2.873,7.6662,-0.5672,-2.7707,0.0043
1319291.0,-4.1396,2.8276,7.3598,-0.6077,-2.734,-0.0138
1319301.0,-3.8283,2.9329,6.9767,-0.6385,-2.6797,-0.033
1319311.0,-3.3902,2.9616,6.79,-0.6236,-2.5839,-0.0303
1319321.0,-2.9521,3.0215,6.4979,-0.5843,-2.4663,-0.0106
1319331.0,-2.6576,3.0574,6.2537,-0.5896,-2.3583,0.016
1319341.0,-2.2721,2.8802,6.4189,-0.6439,-2.2535,0.0521
1319351.0,-1.8076,2.5307,6.8187,-0.663,-2.13,0.0915
1319361.0,-1.482,2.2362,7.288,-0.6768,-2.0784,0.1117
1319371.0,-1.233,2.0375,7.4101,-0.7088,-2.1471,0.1107
1319381.0,-1.1061,2.1763,7.027,-0.7258,-2.2546,0.1059
1319391.0,-0.7949,2.2338,6.7038,-0.6529,-2.2551,0.1389
1319401.0,-0.5363,2.2745,6.3422,-0.4752,-2.1471,0.2134
1319411.0,-0.2418,2.0997,6.0549,-0.34,-2.0603,0.2959
1319421.0,0.1437,1.9082,5.6958,-0.2352,-1.9864,0.3735
1319431.0,0.4669,1.7597,5.2409,-0.1905,-1.914,0.4321
1319441.0,0.7709,1.5538,4.8483,-0.2384,-1.8565,0.4768
1319451.0,0.9912,1.2713,4.6184,-0.29,-1.773,0.514
1319461.0,1.1468,0.9218,4.6615,-0.2948,-1.6565,0.5438
1319471.0,1.5251,0.5986,4.5466,-0.2027,-1.5218,0.572
1319481.0,1.9273,0.3759,4.3048,-0.0639,-1.3819,0.589
1319491.0,2.1763,0.2418,3.9049,0.0926,-1.2143,0.5944
1319501.0,2.4038,0.1317,3.6655,0.2538,-0.9929,0.5981
1319511.0,2.6121,-0.0335,3.5937,0.3826,-0.7593,0.5954
1319521.0,2.8491,-0.237,3.5721,0.4534,-0.555,0.5763
1319531.0,3.0215,-0.5148,3.292,0.4145,-0.4188,0.522
1319541.0,3.2753,-0.735,2.9353,0.2267,-0.332,0.4225
1319551.0,3.213,-0.8452,2.6001,-0.0559,-0.2421,0.2895
1319561.0,3.0095,-0.8021,2.5091,-0.3129,-0.1112,0.158
1319571.0,2.9042,-0.735,2.6791,-0.3863,0.1197,0.0649
1319581.0,2.7438,-0.5243,2.9904,-0.1974,0.4757,0.0218
1319591.0,2.5019,-0.3041,3.395,0.1612,0.8849,0.0218
1319601.0,2.1189,0.0958,3.6416,0.5412,1.2659,0.0404
1319611.0,2.2051,0.2658,4.1228,0.8136,1.5958,0.0633
1319621.0,2.1811,0.4573,4.561,0.8993,1.8587,0.0734
1319631.0,1.8268,0.395,5.2265,0.7178,1.9795,0.0532
1319641.0,1.3431,0.4501,5.8538,0.3576,1.9662,0.0032
1319651.0,0.7925,0.4597,6.6822,0.0346,1.9576,-0.0388
1319661.0,0.4405,0.2562,7.5561,-0.0926,2.0231,-0.0426
1319671.0,0.1748,-0.146,8.5281,-0.0596,2.1285,-0.0314
1319681.0,0.0431,-0.6033,9.6199,0.0314,2.1652,-0.0484
1319691.0,0.0814,-0.893,10.556,0.1245,2.0832,-0.1123
1319701.0,0.091,-0.9433,11.1594,0.1932,1.88,-0.2246
1319711.0,-0.1867,-0.5866,10.7476,0.1788,1.5314,-0.3693
1319721.0,-0.4214,0.091,9.7468,0.1048,1.1579,-0.5002
1319731.0,-0.6153,0.917,8.5353,0.2277,1.0807,-0.5539
1319741.0,-1.1205,1.7095,7.8841,0.5188,1.2989,-0.5146
1319751.0,-1.5036,2.0734,7.8458,0.8072,1.5516,-0.4113
1319761.0,-1.4245,2.0566,8.0804,1.0392,1.7049,-0.3049
1319771.0,-1.2091,1.9513,8.1786,1.2116,1.7922,-0.2384
1319781.0,-1.3479,1.81,8.1618,1.2531,1.8129,-0.224
1319791.0,-1.6209,1.7262,7.8602,1.119,1.7054,-0.2602
1319801.0,-1.9297,1.9968,7.1946,0.9312,1.5846,-0.3288
1319811.0,-2.3296,2.4756,6.4021,0.8711,1.6847,-0.3725
1319821.0,-2.9856,2.8683,6.1435,0.9402,2.0337,-0.3624
1319831.0,-3.6559,2.9616,6.9576,1.0036,2.4328,-0.3384
1319841.0,-4.0199,3.0239,8.2289,1.0722,2.7367,-0.3267
1319851.0,-4.3886,3.1603,9.4739,1.1371,2.9053,-0.332
1319861.0,-4.8961,3.4093,10.386,1.1286,2.9181,-0.357
1319871.0,-5.3415,3.7924,10.8242,1.0089,2.809,-0.3884
1319881.0,-5.6862,4.0845,11.1666,0.8487,2.7148,-0.3964
1319891.0,-6.1004,4.4197,11.461,0.7301,2.7164,-0.3842
1319901.0,-6.6679,4.6112,12.1985,0.5917,2.7345,-0.3602
1319911.0,-7.0342,4.6208,13.3381,0.4369,2.6818,-0.3331
1319921.0,-7.3047,4.5801,14.5089,0.3166,2.5148,-0.3145
1319931.0,-7.5393,4.64,15.0452,0.2565,2.2338,-0.3017
1319941.0,-7.5968,4.865,14.9398,0.2288,1.8964,-0.2916
1319951.0,-7.4579,5.2912,14.1378,0.2203,1.6235,-0.2618
1319961.0,-7.5633,5.7581,13.2782,0.1868,1.4883,-0.2017
1319971.0,-7.75,5.8179,13.204,0.0889,1.458,-0.1101
1319981.0,-7.7788,5.5186,13.6781,-0.0005,1.4447,-0.0037
1319991.0,-7.6998,5.0063,14.3413,-0.0532,1.351,0.0851
1320001.0,-7.5681,4.5011,14.8704,-0.041,1.1797,0.1474
1320011.0,-7.7117,4.1587,15.0667,0.0287,0.961,0.1868
1320021.0,-7.75,3.8595,15.0116,0.1346,0.7093,0.2112
1320031.0,-7.5369,3.6919,14.3054,0.2953,0.4864,0.216
1320041.0,-7.2305,3.644,13.2519,0.3581,0.3145,0.1772
1320051.0,-7.0054,3.9025,12.2918,0.2448,0.2176,0.0947
1320061.0,-7.0461,4.2617,12.1218,-0.0266,0.1868,0.0021
1320071.0,-7.106,4.4173,12.4331,-0.3539,0.1426,-0.0686
1320081.0,-7.1084,4.3766,12.9454,-0.6087,0.0633,-0.1022
1320091.0,-7.1611,4.2689,13.3836,-0.7779,-0.0654,-0.1107
1320101.0,-7.252,4.1635,13.6278,-0.8429,-0.2065,-0.0968
1320111.0,-7.2472,4.0749,13.7451,-0.7918,-0.3427,-0.0521
1320121.0,-7.2185,3.8618,13.702,-0.6848,-0.4927,0.0053
1320131.0,-6.9695,3.6129,13.3716,-0.5731,-0.6476,0.0532
1320141.0,-6.7995,3.4261,13.1466,-0.5023,-0.7923,0.0745
1320151.0,-6.7109,3.3662,12.9119,-0.4417,-0.9328,0.0819
1320161.0,-6.6463,3.3974,12.5193,-0.3858,-1.0818,0.0867
1320171.0,-6.5386,3.4692,11.88,-0.3198,-1.1978,0.0979
1320181.0,-6.3398,3.4955,11.3318,-0.2756,-1.2478,0.1101
1320191.0,-6.1723,3.5243,10.8625,-0.2905,-1.267,0.1096
1320201.0,-6.0645,3.4931,10.6781,-0.3964,-1.2824,0.0968
1320211.0,-5.7844,3.3327,10.7284,-0.5624,-1.317,0.0697
1320221.0,-5.5689,3.1173,10.9128,-0.7556,-1.3877,0.0271
1320231.0,-5.4875,2.9257,11.0923,-0.9541,-1.5011,-0.0319
1320241.0,-5.3822,2.7869,11.2647,-1.0892,-1.6362,-0.0921
1320251.0,-5.3486,2.7031,11.2839,-1.0993,-1.7533,-0.1368
1320261.0,-5.1811,2.6528,11.145,-1.0025,-1.8555,-0.1681
1320271.0,-4.9775,2.6743,10.7045,-0.8615,-1.9459,-0.1916
1320281.0,-4.8195,2.7438,10.1873,-0.7444,-2.0236,-0.2107
1320291.0,-4.8243,2.806,9.6774,-0.6816,-2.0944,-0.2224
1320301.0,-4.8028,2.7461,9.3398,-0.63,-2.1428,-0.224
1320311.0,-4.6878,2.818,8.8418,-0.5635,-2.1774,-0.2277
1320321.0,-4.3551,3.0239,8.2217,-0.4922,-2.1896,-0.2331
1320331.0,-4.0845,3.2178,7.6638,-0.4204,-2.1274,-0.2187
1320341.0,-3.7038,3.6009,7.3023,-0.389,-2.0321,-0.182
1320351.0,-2.9377,3.6105,7.3287,-0.3964,-1.9082,-0.1155
1320361.0,-2.7605,3.6368,7.4244,-0.4597,-1.8108,-0.0447
1320371.0,-2.7246,3.4812,7.6255,-0.6279,-1.8177,0.0192
1320381.0,-2.545,3.0909,7.9751,-0.7604,-1.831,0.0873
1320391.0,-2.2553,2.6145,8.3079,-0.7668,-1.8129,0.157
1320401.0,-2.0111,2.0853,8.5066,-0.7317,-1.8496,0.2022
1320411.0,-1.6927,1.7645,8.2935,-0.6917,-1.9539,0.2128
1320421.0,-1.2809,1.6783,7.5729,-0.6848,-2.0774,0.1974
1320431.0,-0.9888,1.7478,6.6726,-0.7162,-2.1577,0.1825
1320441.0,-0.6129,1.7286,5.9233,-0.7497,-2.1391,0.1815
1320451.0,-0.4142,1.719,5.2816,-0.7444,-2.0252,0.1926
1320461.0,-0.0742,1.5658,5.0446,-0.7285,-1.8704,0.2176
1320471.0,0.3376,1.4198,4.798,-0.6651,-1.6698,0.2501
1320481.0,0.6608,1.245,4.7477,-0.6119,-1.4692,0.2788
1320491.0,0.8787,1.0534,4.7142,-0.6082,-1.317,0.3022
1320501.0,1.0343,0.8978,4.6495,-0.6385,-1.2095,0.315
1320511.0,1.2833,0.7302,4.5562,-0.6673,-1.1164,0.3219
1320521.0,1.5155,0.5938,4.3958,-0.6572,-0.9961,0.3299
1320531.0,1.6305,0.4908,4.288,-0.5885,-0.8344,0.3437
1320541.0,1.7526,0.3759,4.2593,-0.4816,-0.6492,0.3634
1320551.0,1.9225,0.1221,4.3335,-0.3725,-0.4778,0.3778
1320561.0,2.1979,-0.1939,4.4053,-0.2953,-0.3437,0.3746
1320571.0,2.3966,-0.4908,4.276,-0.2959,-0.2698,0.3352
1320581.0,2.4972,-0.6608,3.8978,-0.3863,-0.2453,0.2575
1320591.0,2.5043,-0.5315,3.5147,-0.4991,-0.2065,0.165
1320601.0,2.3583,-0.2753,3.1795,-0.5316,-0.0745,0.0968
1320611.0,2.1141,0.0359,3.0239,-0.4278,0.1772,0.0756
1320621.0,1.7885,0.2274,3.2465,-0.1921,0.506,0.1043
1320631.0,1.5658,0.3591,3.6607,0.141,0.854,0.165
1320641.0,1.4724,0.2514,4.1994,0.4991,1.1813,0.2331
1320651.0,1.4796,0.1556,4.6926,0.7913,1.4309,0.2762
1320661.0,1.2498,0.0168,5.138,0.9078,1.55,0.2724
1320671.0,0.9601,0.0838,5.0829,0.8572,1.5426,0.2309
1320681.0,0.5171,0.2969,5.0542,0.7769,1.5719,0.183
1320691.0,0.0287,0.5914,5.1116,0.7827,1.7267,0.1596
1320701.0,-0.3424,0.5578,5.7126,0.8695,1.9715,0.1681
1320711.0,-0.6632,0.4094,6.4428,1.0126,2.2029,0.1756
1320721.0,-0.8404,0.2131,7.3813,1.1398,2.3599,0.1548
1320731.0,-1.0774,0.0551,8.2169,1.2132,2.4137,0.0942
1320741.0,-1.3695,0.0215,8.5569,1.1307,2.2902,-0.0096
1320751.0,-1.4389,-0.1341,8.418,0.8626,2.0369,-0.1628
1320761.0,-1.6831,0.0742,8.0732,0.613,1.864,-0.339
1320771.0,-2.1261,0.6488,8.0206,0.5193,1.8805,-0.481
1320781.0,-2.5762,1.3264,8.0661,0.5853,2.0162,-0.5561
1320791.0,-2.9712,1.913,8.272,0.6939,2.1492,-0.5736
1320801.0,-3.0574,2.2865,8.3797,0.7258,2.204,-0.5582
1320811.0,-3.2154,2.2841,8.5784,0.605,2.1785,-0.539
1320821.0,-3.8307,2.0877,8.6574,0.3634,2.0545,-0.5321
1320831.0,-4.2425,1.9537,8.6886,0.1341,1.8693,-0.539
1320841.0,-4.5226,2.0255,8.7149,0.2772,1.9082,-0.5066
1320851.0,-5.1834,2.4134,8.6574,0.8226,2.2349,-0.422
1320861.0,-5.5833,2.715,8.8466,1.4,2.5882,-0.3241
1320871.0,-5.7006,3.043,9.0429,1.7491,2.8314,-0.2661
1320881.0,-5.8682,3.3926,9.6486,1.7687,2.9564,-0.2645
1320891.0,-6.2417,3.711,10.3214,1.4745,2.9138,-0.2969
1320901.0,-6.8283,3.8499,11.1354,0.9514,2.6946,-0.3384
1320911.0,-7.5034,4.0199,11.6023,0.5098,2.4419,-0.3517
1320921.0,-8.1379,4.0677,12.1649,0.4401,2.3913,-0.2932
1320931.0,-8.5473,3.9433,12.8329,0.7487,2.5557,-0.1804
1320941.0,-8.5832,3.7828,13.623,1.0786,2.6723,-0.0937
1320951.0,-8.4587,3.5602,14.6286,1.2159,2.6244,-0.0718
1320961.0,-8.0254,3.2657,15.5934,1.1451,2.4051,-0.1123
1320971.0,-7.7524,2.8323,16.2662,0.8854,2.0071,-0.2134
1320981.0,-8.0325,2.466,16.3356,0.5555,1.4851,-0.3661
1320991.0,-8.2863,2.4588,15.8592,0.2778,0.9424,-0.5513
1321001.0,-8.5281,2.9401,15.026,0.1836,0.5305,-0.7199
1321011.0,-8.5401,3.8451,14.0109,0.2549,0.2905,-0.8269
1321021.0,-8.5569,4.7692,13.0101,0.3555,0.1692,-0.8626
1321031.0,-8.5593,5.6,12.2583,0.3916,0.1165,-0.8471
1321041.0,-8.5952,6.3015,11.7914,0.3406,0.099,-0.7859
1321051.0,-8.6574,6.754,11.8202,0.2347,0.0878,-0.679
1321061.0,-8.983,7.1251,12.0787,0.2011,0.099,-0.5193
1321071.0,-8.9807,7.106,12.5289,0.3161,0.1618,-0.3001
1321081.0,-8.983,6.8785,12.6965,0.538,0.2395,-0.0569
1321091.0,-8.6694,6.4332,12.9,0.6577,0.2666,0.1517
1321101.0,-8.6048,6.0717,13.4123,0.5773,0.2299,0.2873
1321111.0,-8.5138,5.5641,14.3173,0.2607,0.0484,0.3555
1321121.0,-8.248,4.7333,15.1768,-0.1543,-0.3193,0.3714
1321131.0,-8.4491,4.142,15.3205,-0.4699,-0.7572,0.3421
1321141.0,-8.1954,3.6248,14.8153,-0.6705,-1.1893,0.2852
1321151.0,-8.0182,3.3447,14.0276,-0.7966,-1.5543,0.2091
1321161.0,-7.8338,3.3016,12.8856,-0.8567,-1.8491,0.1378
1321171.0,-7.5705,3.2896,11.8441,-0.8657,-2.0481,0.0819
1321181.0,-7.2018,3.3543,10.7452,-0.8184,-2.137,0.0495
1321191.0,-6.9336,3.4117,10.1251,-0.7843,-2.1497,0.0287
1321201.0,-6.6032,3.304,9.7157,-0.7513,-2.1258,0.0208
1321211.0,-6.3422,3.1125,9.4451,-0.7215,-2.0944,0.0085
1321221.0,-6.0717,3.0454,9.3134,-0.7066,-2.0939,-0.0202
1321231.0,-5.94,2.9712,9.2009,-0.687,-2.1034,-0.0532
1321241.0,-5.7892,3.0311,9.165,-0.6396,-2.1024,-0.0905
1321251.0,-5.5522,3.2705,9.1411,-0.5741,-2.0965,-0.1213
1321261.0,-5.3893,3.6751,9.1578,-0.4853,-2.0784,-0.1336
1321271.0,-5.2648,4.1108,9.0118,-0.4528,-2.0875,-0.1197
1321281.0,-4.9033,4.276,8.8945,-0.5247,-2.1359,-0.0867
1321291.0,-4.5466,4.2329,8.7532,-0.6758,-2.2035,-0.0463
1321301.0,-4.379,4.0007,8.6862,-0.8934,-2.3051,-0.0128
1321311.0,-4.276,3.6248,8.9854,-1.0589,-2.3913,0.0154
1321321.0,-4.1228,3.1987,9.481,-1.0147,-2.4057,0.0585
1321331.0,-4.0175,2.8108,9.6869,-0.8519,-2.4717,0.1112
1321341.0,-3.7709,2.3894,9.2943,-0.6832,-2.6372,0.1559
1321351.0,-3.3591,2.0877,8.3534,-0.5502,-2.8101,0.1767
1321361.0,-2.7845,1.8387,7.422,-0.4289,-2.8574,0.1825
1321371.0,-2.1596,1.6424,7.0102,-0.2528,-2.7308,0.1751
1321381.0,-1.7071,1.8364,6.6702,-0.0995,-2.5861,0.1554
1321391.0,-1.2713,2.0303,5.9735,-0.1293,-2.5717,0.1277
1321401.0,-0.8284,2.1955,5.0374,-0.2964,-2.5866,0.0995
1321411.0,-0.4956,2.3296,4.1946,-0.5013,-2.4839,0.0825
1321421.0,-0.2155,2.1859,3.9935,-0.688,-2.2785,0.0873
1321431.0,0.2155,1.889,4.3407,-0.7136,-1.9896,0.1165
1321441.0,0.4573,1.5945,4.9752,-0.6125,-1.7134,0.1453
1321451.0,0.7997,1.3671,5.4684,-0.4289,-1.5032,0.1666
1321461.0,1.0989,1.3838,5.387,-0.2421,-1.3681,0.1745
1321471.0,1.4174,1.5083,5.1451,-0.182,-1.3069,0.1676
1321481.0,1.5538,1.731,4.7381,-0.2283,-1.2531,0.1596
1321491.0,1.7358,1.8818,4.209,-0.3581,-1.2058,0.1559
1321501.0,2.1069,2.0135,3.644,-0.5454,-1.1728,0.1532
1321511.0,2.3463,2.2146,2.9832,-0.7311,-1.1169,0.1591
1321521.0,2.3535,2.3774,2.3176,-0.8546,-0.9695,0.1979
1321531.0,2.2266,2.3152,2.0518,-0.8391,-0.6875,0.2889
1321541.0,2.1644,1.9513,2.2673,-0.6731,-0.3203,0.4156
1321551.0,2.2529,1.3815,2.7869,-0.3879,0.05,0.5353
1321561.0,2.2936,0.9242,3.3064,-0.0319,0.3863,0.6135
1321571.0,2.1045,0.7374,3.4165,0.273,0.6428,0.6476
1321581.0,1.9178,0.6536,3.5051,0.4273,0.8274,0.6476
1321591.0,1.7358,0.6464,3.5745,0.4959,1.0036,0.6252
1321601.0,1.4222,0.6776,3.6057,0.4901,1.1605,0.5922
1321611.0,1.0534,0.6009,3.7493,0.4789,1.3388,0.5577
1321621.0,0.7661,0.3615,4.1994,0.5587,1.6171,0.538
1321631.0,0.5986,-0.0263,5.1906,0.671,1.9268,0.5007
1321641.0,0.6057,-0.2418,6.2584,0.7237,2.1173,0.4097
1321651.0,0.759,-0.2394,7.0318,0.6593,2.1519,0.2623
1321661.0,0.4621,0.1125,7.3933,0.4496,2.0742,0.083
1321671.0,0.0838,0.6297,7.4316,0.0862,1.9044,-0.0905
1321681.0,-0.3567,1.2905,7.3263,-0.3001,1.7187,-0.2112
1321691.0,-0.9768,2.0159,6.7732,-0.5321,1.6245,-0.2426
1321701.0,-1.9465,2.4086,6.3279,-0.5635,1.7113,-0.1666
1321711.0,-2.5163,1.9417,6.5314,-0.3773,1.9747,-0.0085
1321721.0,-2.6552,0.996,7.5657,-0.0559,2.2748,0.1277
1321731.0,-2.4134,0.1867,8.758,0.3528,2.4717,0.1767
1321741.0,-2.3607,-0.1915,9.4475,0.7199,2.4834,0.1304
1321751.0,-2.2984,-0.0766,9.3446,0.9376,2.3062,0.0229
1321761.0,-2.4325,0.4453,8.2576,1.0834,2.1418,-0.0841
1321771.0,-2.964,1.2163,6.8857,1.209,2.1822,-0.157
1321781.0,-3.8475,1.5227,5.9496,1.2255,2.3902,-0.1862
1321791.0,-4.6615,0.9361,6.1675,1.1584,2.7053,-0.2075
1321801.0,-4.8219,0.17,7.0437,1.0914,3.0107,-0.3177
1321811.0,-4.9775,-0.0239,8.0661,0.9573,3.1756,-0.5593
1321821.0,-5.5162,0.8547,9.0788,0.7572,3.2007,-0.8615
1321831.0,-6.1938,2.4301,9.8976,0.539,3.1299,-1.1025
1321841.0,-6.9025,4.2521,10.1011,0.4236,3.0793,-1.1957
1321851.0,-7.8673,5.8849,9.651,0.3044,3.0799,-1.1446
1321861.0,-8.7867,6.2441,10.1442,0.0681,3.2065,-0.961
1321871.0,-9.3757,4.9799,12.4068,-0.1352,3.4571,-0.7173
1321881.0,-9.6893,3.0382,16.0795,-0.2309,3.5508,-0.555
1321891.0,-9.7157,1.8483,19.3308,-0.1564,3.2709,-0.5438
1321901.0,-9.5385,1.7861,21.5909,0.0484,2.6952,-0.6476
1321911.0,-9.7947,3.1795,22.065,0.307,1.9443,-0.7769
1321921.0,-10.0197,5.1236,21.1169,0.4805,1.143,-0.8242
1321931.0,-10.082,6.5673,19.4242,0.5704,0.5066,-0.7333
1321941.0,-9.8737,7.1515,18.0212,0.5656,0.1022,-0.547
1321951.0,-9.7659,7.1156,17.2718,0.4879,-0.1921,-0.3315
1321961.0,-9.4116,6.6295,16.4266,0.4592,-0.448,-0.1181
1321971.0,-8.9543,6.031,15.4498,0.4986,-0.6391,0.0708
1321981.0,-8.5856,5.4875,14.4514,0.5704,-0.7396,0.2208
1321991.0,-8.1403,5.0542,13.4985,0.6146,-0.7678,0.3251
1322001.0,-7.8338,4.6591,13.0173,0.5837,-0.7375,0.3831
1322011.0,-7.6016,4.3096,12.8209,0.4911,-0.6779,0.4023
1322021.0,-7.3574,3.802,13.1178,0.2863,-0.663,0.3794
1322031.0,-7.2784,3.2777,13.6302,0.009,-0.7333,0.3161
1322041.0,-7.0629,2.6671,14.1425,-0.2453,-0.8806,0.2325
1322051.0,-6.8402,2.138,14.619,-0.4236,-1.0562,0.1256
1322061.0,-6.8115,2.1476,14.7842,-0.5608,-1.292,-0.009
1322071.0,-6.9504,2.6001,14.7243,-0.6481,-1.5836,-0.1336
1322081.0,-6.857,3.1436,14.0971,-0.6295,-1.848,-0.1969
1322091.0,-6.857,3.62,13.2256,-0.572,-2.0369,-0.2054
1322101.0,-6.7325,4.0223,12.3876,-0.5412,-2.1934,-0.1815
1322111.0,-6.4859,4.2952,11.5209,-0.5225,-2.3046,-0.1352
1322121.0,-6.45,4.4843,10.5991,-0.5204,-2.3456,-0.0686
1322131.0,-6.1627,4.2569,10.3525,-0.5353,-2.3152,0.009
1322141.0,-5.8275,3.8618,10.2687,-0.5279,-2.2631,0.0793
1322151.0,-5.442,3.4548,10.4196,-0.555,-2.2663,0.1086
1322161.0,-5.2218,3.304,10.2735,-0.6002,-2.3434,0.1096
1322171.0,-4.9967,3.1891,10.1418,-0.6614,-2.4381,0.0984
1322181.0,-4.6926,3.2848,9.6941,-0.68,-2.5025,0.0889
1322191.0,-4.4891,3.3686,9.335,-0.713,-2.5456,0.0862
1322201.0,-4.1515,3.5003,8.8322,-0.7466,-2.5988,0.0952
1322211.0,-3.8403,3.6966,8.1139,-0.7561,-2.6175,0.1229
1322221.0,-3.4884,3.6871,7.6112,-0.746,-2.5536,0.1793
1322231.0,-2.9688,3.4261,7.5202,-0.7109,-2.4328,0.2512
1322241.0,-2.5714,3.1532,7.4795,-0.6641,-2.3211,0.3108
1322251.0,-2.1835,2.9832,7.2832,-0.6965,-2.2913,0.3448
1322261.0,-1.8124,2.7653,7.0246,-0.7897,-2.2977,0.3666
1322271.0,-1.4222,2.478,6.6846,-0.8657,-2.2641,0.3852
1322281.0,-1.1684,2.0686,6.4667,-0.9051,-2.187,0.3986
1322291.0,-0.8619,1.5706,6.4907,-0.8727,-2.0699,0.4033
1322301.0,-0.4741,1.1229,6.6774,-0.7652,-1.9364,0.3938
1322311.0,-0.2035,0.917,6.7636,-0.6268,-1.8182,0.3608
1322321.0,-0.0215,1.0127,6.7086,-0.547,-1.7629,0.3081
1322331.0,0.261,1.1947,6.517,-0.5156,-1.7453,0.2597
1322341.0,0.5315,1.3886,6.122,-0.4885,-1.6969,0.2352
1322351.0,0.7901,1.5754,5.7102,-0.4895,-1.6182,0.2235
1322361.0,0.9409,1.719,5.4923,-0.5406,-1.5277,0.2182
1322371.0,1.0798,1.798,5.3367,-0.6013,-1.4404,0.2256
1322381.0,1.2641,1.8028,5.2146,-0.6327,-1.3473,0.2469
1322391.0,1.3743,1.8627,4.9823,-0.6167,-1.2441,0.2857
1322401.0,1.6448,1.8675,4.8028,-0.5577,-1.1244,0.3368
1322411.0,1.822,1.98,4.525,-0.4624,-0.9929,0.4001
1322421.0,1.9992,1.992,4.0701,-0.4055,-0.8817,0.4715
1322431.0,2.138,1.8771,3.5865,-0.4039,-0.7891,0.539
1322441.0,2.2482,1.5969,3.0789,-0.4188,-0.6721,0.6071
1322451.0,2.4349,1.0295,2.7198,-0.4012,-0.4927,0.6731
1322461.0,2.7701,0.2634,2.5498,-0.3406,-0.2512,0.7152
1322471.0,2.8754,-0.4094,2.624,-0.274,0.0053,0.7072
1322481.0,2.9544,-0.814,2.8371,-0.2219,0.2134,0.6486
1322491.0,3.0047,-0.9529,3.0598,-0.1415,0.398,0.5646
1322501.0,2.8683,-0.8499,3.1603,0.0053,0.5986,0.4816
1322511.0,2.6671,-0.6536,3.1819,0.1799,0.8269,0.4172
1322521.0,2.4828,-0.5363,3.2848,0.356,1.0903,0.3783
1322531.0,2.2482,-0.6656,3.6464,0.5151,1.384,0.3533
1322541.0,2.0063,-0.8667,4.221,0.621,1.6565,0.3129
1322551.0,1.7406,-1.008,5.0877,0.6747,1.88,0.2442
1322561.0,1.3072,-0.9577,6.0693,0.7098,2.0486,0.1554
1322571.0,0.8787,-0.8068,7.1012,0.7423,2.1439,0.0623
1322581.0,0.4118,-0.4741,7.7309,0.7641,2.1364,-0.0309
1322591.0,0.0982,-0.067,7.8673,0.7567,2.0348,-0.1064
1322601.0,-0.1556,0.3496,7.513,0.8014,1.9912,-0.1463
1322611.0,-0.3974,0.7829,7.1084,0.9227,2.1109,-0.1543
1322621.0,-0.8116,1.1492,7.3023,1.0296,2.336,-0.1506
1322631.0,-1.2115,1.3647,7.9655,1.0759,2.5541,-0.1394
1322641.0,-1.5179,1.3671,9.0357,1.028,2.6776,-0.141
1322651.0,-1.98,1.3695,10.1634,0.8822,2.6467,-0.166
1322661.0,-2.2338,1.4892,10.7763,0.6705,2.4291,-0.207
1322671.0,-2.3176,1.7645,10.5465,0.5055,2.1487,-0.2347
1322681.0,-2.4493,2.2434,9.2895,0.4784,2.0039,-0.2235
1322691.0,-2.7007,2.7725,8.0828,0.4688,2.0598,-0.1799
1322701.0,-3.3878,3.1675,7.5824,0.4214,2.2625,-0.107
1322711.0,-3.8092,2.8347,8.2624,0.3677,2.5531,-0.0027
1322721.0,-3.9983,2.0446,9.5217,0.3257,2.7569,0.074
1322731.0,-4.1252,1.2857,10.8218,0.2347,2.743,0.0724
1322741.0,-4.3814,1.0798,11.224,0.1628,2.5462,0.0133
1322751.0,-4.391,1.3503,10.6374,0.1474,2.3062,-0.049
1322761.0,-4.4676,1.9441,9.1339,0.1761,2.1896,-0.0814
1322771.0,-4.7645,2.6791,7.592,0.1538,2.2657,-0.0841
1322781.0,-5.7533,3.5458,6.699,0.0383,2.4828,-0.0516
1322791.0,-6.8115,3.9911,7.1371,-0.1075,2.8021,0.0388
1322801.0,-7.5369,3.4381,8.758,-0.1426,3.1916,0.2027
1322811.0,-7.8554,1.8962,11.2192,-0.1229,3.4555,0.3517
1322821.0,-7.9128,0.2897,13.8433,-0.1245,3.4029,0.3805
1322831.0,-7.7405,-0.826,15.6102,-0.0585,3.1075,0.2895
1322841.0,-7.6686,-1.4437,16.5727,0.0548,2.7127,0.1038
1322851.0,-7.8841,-1.1564,16.69,0.1383,2.2604,-0.1453
1322861.0,-8.1618,-0.1987,16.0507,0.1548,1.7773,-0.4044
1322871.0,-8.2169,1.2833,14.6286,0.1336,1.3702,-0.6188
1322881.0,-8.497,2.7007,13.374,0.074,1.1877,-0.7487
1322891.0,-8.9256,3.7493,13.0101,-0.0282,1.1855,-0.7843
1322901.0,-9.256,4.2713,13.4195,-0.1974,1.177,-0.7529
1322911.0,-9.4212,4.2329,14.1569,-0.3528,1.0903,-0.6742
1322921.0,-9.6534,3.9385,14.8991,-0.4156,0.945,-0.5747
1322931.0,-9.6582,3.6129,15.5479,-0.3523,0.7726,-0.4752
1322941.0,-9.6893,3.4333,15.8975,-0.1495,0.6157,-0.3821
1322951.0,-9.5026,3.4333,16.1992,0.0676,0.4502,-0.306
1322961.0,-9.3661,3.5338,16.2255,0.1751,0.2176,-0.2607
1322971.0,-9.2416,3.6775,16.0579,0.1293,-0.1032,-0.2395
1322981.0,-9.1267,3.7733,15.7179,0.0,-0.4342,-0.223
1322991.0,-9.1004,3.7517,15.287,-0.132,-0.7199,-0.1953
1323001.0,-9.1051,3.5051,14.7818,-0.2304,-0.9605,-0.1559
1323011.0,-8.8466,2.9712,14.4059,-0.2857,-1.1557,-0.1176
1323021.0,-8.5258,2.4062,14.054,-0.3155,-1.3271,-0.1006
1323031.0,-8.1906,1.9034,13.7427,-0.3496,-1.5213,-0.1256
1323041.0,-7.8506,1.7119,13.113,-0.3544,-1.7209,-0.182
1323051.0,-7.7045,1.7406,12.4522,-0.3624,-1.8879,-0.2485
1323061.0,-7.4124,1.8794,11.7388,-0.3693,-2.0204,-0.3092
1323071.0,-7.1946,2.0877,11.1139,-0.3884,-2.1364,-0.3592
1323081.0,-6.9743,2.3607,10.398,-0.4299,-2.2546,-0.3991
1323091.0,-6.778,2.5115,9.8138,-0.48,-2.3296,-0.4236
1323101.0,-6.5577,2.6121,9.3206,-0.4826,-2.3546,-0.4268
1323111.0,-6.4524,2.66,9.0932,-0.4534,-2.3487,-0.4135
1323121.0,-6.1627,2.636,9.0261,-0.3326,-2.312,-0.3762
1323131.0,-6.1244,2.6288,8.9926,-0.158,-2.2785,-0.3251
1323141.0,-5.8251,2.4876,9.2033,0.025,-2.2684,-0.265
1323151.0,-5.6,2.4349,8.8992,0.2331,-2.3009,-0.2102
1323161.0,-5.3606,2.4828,8.5712,0.3565,-2.3578,-0.1783
1323171.0,-5.0182,2.8491,7.8171,0.3959,-2.4286,-0.1639
1323181.0,-4.6304,3.0646,7.3287,0.3113,-2.4727,-0.1517
1323191.0,-4.1946,3.2848,6.6056,0.1932,-2.4775,-0.1293
1323201.0,-3.9217,3.3686,6.2465,-0.0064,-2.4626,-0.1096
1323211.0,-3.4477,3.395,5.9592,-0.2261,-2.4626,-0.0926
1323221.0,-3.0718,3.3375,5.6767,-0.4033,-2.4536,-0.075
1323231.0,-2.6911,3.0885,5.4253,-0.4991,-2.4014,-0.0415
1323241.0,-2.138,2.715,5.2385,-0.4794,-2.286,0.0048
1323251.0,-1.6161,2.32,5.2625,-0.3837,-2.1391,0.0388
1323261.0,-1.2426,2.1763,4.9799,-0.281,-2.0231,0.0447
1323271.0,-0.9649,2.3367,4.6304,-0.2176,-1.9411,0.033
1323281.0,-0.5722,2.6049,4.221,-0.1815,-1.8321,0.0341
1323291.0,-0.2777,2.7797,3.9433,-0.1469,-1.6522,0.066
1323301.0,-0.1053,2.7845,3.8403,-0.1474,-1.4548,0.1176
1323311.0,0.2442,2.5235,4.0725,-0.1522,-1.2584,0.1799
1323321.0,0.5986,2.2122,4.3718,-0.1117,-1.06,0.2389
1323331.0,0.8188,1.889,4.6328,-0.0724,-0.8982,0.2841
1323341.0,1.0032,1.5347,5.023,-0.0431,-0.7806,0.3118
1323351.0,1.2594,1.2857,5.102,-0.0128,-0.7136,0.3155
1323361.0,1.3695,1.1061,5.0925,0.0021,-0.6699,0.3028
1323371.0,1.5083,1.0846,4.8004,0.0176,-0.6311,0.2815
1323381.0,1.585,1.1827,4.2258,-0.0074,-0.5938,0.2533
1323391.0,1.6688,1.4245,3.6966,-0.0388,-0.5034,0.2357
1323401.0,1.6592,1.6041,3.2705,-0.0048,-0.2985,0.2506
1323411.0,1.6041,1.652,3.1747,0.0947,0.0021,0.2975
1323421.0,1.5299,1.5826,3.3543,0.2208,0.3379,0.357
1323431.0,1.4629,1.4269,3.8235,0.3491,0.6566,0.4119
1323441.0,1.3479,1.3096,4.4676,0.4486,0.9243,0.4539
1323451.0,1.1971,1.1779,5.114,0.4906,1.1052,0.4762
1323461.0,1.0558,1.1205,5.2696,0.4337,1.1675,0.4741
1323471.0,0.9409,1.0439,5.1475,0.2496,1.1451,0.4528
1323481.0,0.7829,0.9697,4.853,0.0511,1.1829,0.431
1323491.0,0.4717,0.7638,4.8626,-0.0654,1.3702,0.4262
1323501.0,0.067,0.4597,5.3463,-0.0926,1.6405,0.4331
1323511.0,-0.2705,0.0551,6.122,-0.074,1.8959,0.4337
1323521.0,-0.5291,-0.3663,7.1395,-0.0543,2.0822,0.4092
1323531.0,-0.7661,-0.7566,8.193,-0.0654,2.1726,0.3501
1323541.0,-1.0678,-1.1109,9.2057,-0.1298,2.1173,0.2533
1323551.0,-1.4413,-1.3623,9.6558,-0.1958,1.9231,0.125
1323561.0,-1.6975,-1.3815,9.4403,-0.1362,1.7459,-0.0096
1323571.0,-2.0734,-1.075,8.7149,0.1133,1.7602,-0.1304
1323581.0,-2.5379,-0.5794,8.3725,0.4007,1.9491,-0.241
1323591.0,-3.0023,0.0287,8.6886,0.6157,2.1657,-0.3437
1323601.0,-3.3734,0.6608,9.4786,0.7476,2.3131,-0.4401
1323611.0,-3.6823,1.2953,10.3022,0.8152,2.3471,-0.5204
1323621.0,-4.0677,1.913,10.8697,0.7748,2.229,-0.5864
1323631.0,-4.4676,2.6121,10.8242,0.6572,1.9864,-0.6306
1323641.0,-4.7429,3.2657,10.4315,0.5805,1.7959,-0.6215
1323651.0,-5.1787,3.9744,9.6917,0.6508,1.8198,-0.5374
1323661.0,-5.715,4.2665,9.7899,0.7168,1.9832,-0.3991
1323671.0,-5.8897,4.1372,10.4076,0.737,2.1237,-0.2442
1323681.0,-6.0047,3.6775,11.5927,0.7114,2.1668,-0.1187
1323691.0,-6.0693,3.146,12.6581,0.7093,2.0795,-0.0372
1323701.0,-5.9209,2.7797,13.2591,0.7482,1.8656,-0.0064
1323711.0,-5.8945,2.7916,13.0101,0.8455,1.6043,-0.0165
1323721.0,-6.11,3.2106,12.0668,0.978,1.4207,-0.0404
1323731.0,-6.4859,3.7852,10.9559,1.0637,1.3755,-0.0521
1323741.0,-6.6391,4.0582,10.5417,1.0483,1.4692,-0.0527
1323751.0,-6.845,4.1348,10.738,0.9668,1.6256,-0.0511
1323761.0,-7.0294,4.13,11.6598,0.8046,1.7246,-0.0702
1323771.0,-7.094,4.1492,12.8353,0.5949,1.7017,-0.1059
1323781.0,-7.2425,4.1587,13.9558,0.3906,1.5644,-0.1415
1323791.0,-7.501,4.3191,14.5974,0.241,1.3377,-0.165
1323801.0,-7.6638,4.4963,14.8848,0.1607,1.0791,-0.1655
1323811.0,-7.7117,4.6424,14.7698,0.1655,0.8546,-0.1368
1323821.0,-7.7716,4.7262,14.5615,0.2038,0.696,-0.0873
1323831.0,-7.841,4.6759,14.5448,0.2097,0.5582,-0.0319
1323841.0,-7.8003,4.5825,14.6597,0.1426,0.3698,0.0074
1323851.0,-7.8171,4.4556,14.7219,0.0548,0.1474,0.0372
1323861.0,-7.774,4.2976,14.4873,0.0037,-0.0766,0.0665
1323871.0,-7.5944,4.0247,14.1497,-0.0458,-0.2857,0.0873
1323881.0,-7.2616,3.7565,13.5272,-0.107,-0.4821,0.0883
1323891.0,-6.924,3.45,12.9119,-0.2448,-0.6641,0.0527
1323901.0,-6.5841,3.2441,12.3325,-0.4161,-0.8093,-0.0122
1323911.0,-6.3853,3.1292,11.8202,-0.5992,-0.9126,-0.0921
1323921.0,-6.3542,3.1149,11.552,-0.7881,-0.994,-0.1751
1323931.0,-6.3255,3.1053,11.5377,-0.9158,-1.0578,-0.2368
1323941.0,-6.3422,3.0574,11.6286,-0.9269,-1.1025,-0.2698
1323951.0,-6.2225,3.0478,11.6119,-0.8413,-1.1563,-0.2815
1323961.0,-6.0501,3.1484,11.4754,-0.713,-1.2201,-0.2804
1323971.0,-5.8466,3.3447,11.1115,-0.5731,-1.2717,-0.2645
1323981.0,-5.6479,3.4931,10.671,-0.4895,-1.3085,-0.2421
1323991.0,-5.5091,3.5937,10.3358,-0.5124,-1.3595,-0.2219
1324001.0,-5.3846,3.6871,10.058,-0.588,-1.4048,-0.2017
1324011.0,-5.3343,3.7517,9.9718,-0.6577,-1.4154,-0.1735
1324021.0,-5.3415,3.7469,10.0221,-0.7066,-1.4074,-0.1304
1324031.0,-5.2912,3.4979,10.2831,-0.7348,-1.4112,-0.0761
1324041.0,-5.0901,3.0837,10.5105,-0.7205,-1.4362,-0.0282
1324051.0,-5.0135,2.8323,10.659,-0.6768,-1.4899,-0.0048
1324061.0,-4.9081,2.6312,10.7643,-0.5992,-1.5394,0.0069
1324071.0,-4.7357,2.5139,10.8002,-0.481,-1.5687,0.0208
1324081.0,-4.616,2.3966,10.7739,-0.4081,-1.6293,0.0245
1324091.0,-4.4412,2.2984,10.6614,-0.4081,-1.7432,0.0085
1324101.0,-4.2521,2.1979,10.3094,-0.4667,-1.8858,-0.0261
1324111.0,-4.0294,2.1835,9.8402,-0.5502,-2.0178,-0.0713
1324121.0,-3.8738,2.2338,9.3877,-0.629,-2.1098,-0.1224
1324131.0,-3.6631,2.4229,8.8633,-0.687,-2.1614,-0.1724
1324141.0,-3.3902,2.5786,8.4755,-0.7162,-2.146,-0.199
1324151.0,-3.1915,2.7246,8.2073,-0.7221,-2.08,-0.2011
1324161.0,-2.9281,2.6863,8.2696,-0.7391,-2.0146,-0.1873
1324171.0,-2.6552,2.6264,8.4348,-0.7279,-1.9678,-0.1612
1324181.0,-2.32,2.4541,8.6143,-0.687,-1.9406,-0.1245
1324191.0,-1.968,2.2769,8.7556,-0.6242,-1.9465,-0.0867
1324201.0,-1.585,2.1811,8.6024,-0.5773,-1.9944,-0.0575
1324211.0,-1.221,2.1045,8.1475,-0.5694,-2.079,-0.0357
1324221.0,-0.9649,2.0925,7.525,-0.5986,-2.1598,-0.0176
1324231.0,-0.6153,2.0255,6.9049,-0.6135,-2.1849,0.0112
1324241.0,-0.2777,1.9082,6.3159,-0.5773,-2.1375,0.0511
1324251.0,0.0479,1.6544,5.8706,-0.5231,-2.047,0.0915
1324261.0,0.4908,1.4557,5.4516,-0.4635,-1.9342,0.1245
1324271.0,0.9098,1.2665,5.0613,-0.4188,-1.8172,0.1437
1324281.0,1.3048,1.1468,4.6495,-0.4161,-1.7044,0.1479
1324291.0,1.5802,1.0511,4.3479,-0.4273,-1.5761,0.1469
1324301.0,1.7621,1.0654,4.063,-0.4443,-1.4463,0.1421
1324311.0,2.0255,1.0965,3.7086,-0.4683,-1.3292,0.1399
1324321.0,2.3415,1.1444,3.2681,-0.4901,-1.1951,0.1373
1324331.0,2.569,1.1325,2.897,-0.5252,-1.0318,0.1426
1324341.0,2.6959,1.0798,2.66,-0.5694,-0.8407,0.1527
1324351.0,2.7318,1.0367,2.5522,-0.5997,-0.6407,0.1697
1324361.0,2.8443,0.8643,2.6193,-0.5837,-0.4353,0.1953
1324371.0,2.8922,0.8547,2.4469,-0.4927,-0.2187,0.2261
1324381.0,2.7988,0.8308,2.3272,-0.3533,0.0202,0.2634
1324391.0,2.6671,0.7925,2.1691,-0.1532,0.315,0.3161
1324401.0,2.4612,0.6991,2.2889,0.1022,0.6774,0.3794
1324411.0,2.2098,0.5148,2.6312,0.3735,1.0642,0.4432
1324421.0,1.9848,0.2059,3.1939,0.6093,1.4128,0.4805
1324431.0,1.7621,0.012,3.8714,0.7646,1.6873,0.4794
1324441.0,1.5299,-0.1915,4.695,0.8157,1.8656,0.4363
1324451.0,1.3503,-0.3711,5.3558,0.7551,1.9092,0.3528
1324461.0,1.2186,-0.3663,5.7604,0.613,1.8225,0.2352
1324471.0,0.8499,0.0263,5.6168,0.5172,1.7512,0.1187
1324481.0,0.2945,0.6153,5.4085,0.5582,1.8156,0.0537
1324491.0,-0.2538,1.0487,5.5474,0.7551,2.0444,0.0569
1324501.0,-0.7183,1.3551,6.0837,1.0637,2.336,0.1032
1324511.0,-1.1588,1.5682,6.8043,1.3462,2.5488,0.1479
1324521.0,-1.4389,1.6305,7.5729,1.5453,2.6547,0.1729
1324531.0,-1.8842,1.7597,7.8482,1.5953,2.6153,0.1628
1324541.0,-2.1668,1.7717,7.6112,1.3947,2.4009,0.1165
1324551.0,-2.2577,1.8316,6.9384,1.152,2.2583,0.0596
1324561.0,-2.5666,1.9297,6.608,1.0041,2.369,0.0101
1324571.0,-3.134,2.1117,6.9073,0.9504,2.6324,-0.0266
1324581.0,-3.6775,2.3463,7.8362,0.9131,2.866,-0.0623
1324591.0,-4.1037,2.739,8.8466,0.8764,2.9899,-0.0952
1324601.0,-4.4604,3.0574,9.7995,0.7976,2.9953,-0.1149
1324611.0,-4.9728,3.1316,10.4435,0.6188,2.8351,-0.1213
1324621.0,-5.3893,2.8874,10.8194,0.3677,2.5414,-0.125
1324631.0,-5.4037,2.7725,10.6446,0.265,2.2966,-0.1229
1324641.0,-5.6479,2.8156,10.2735,0.414,2.2918,-0.0984
1324651.0,-6.0741,2.988,10.2256,0.6875,2.4504,-0.0591
1324661.0,-6.3925,3.1771,10.3406,0.8748,2.5669,-0.0357
1324671.0,-6.5003,3.2561,10.7284,0.879,2.5754,-0.0452
1324681.0,-6.9121,3.2777,10.9846,0.7545,2.4983,-0.0782
1324691.0,-7.4939,3.2729,11.3629,0.5358,2.3456,-0.1235
1324701.0,-7.6782,3.2681,11.4203,0.4193,2.2088,-0.1517
1324711.0,-7.9368,3.3495,11.3461,0.4832,2.2248,-0.1559
1324721.0,-8.3845,3.5386,11.4539,0.6141,2.3589,-0.1463
1324731.0,-8.7652,3.5602,12.3589,0.6795,2.4929,-0.1458
1324741.0,-8.9064,3.6152,13.5584,0.6657,2.5094,-0.1644
1324751.0,-9.1291,3.6176,14.8153,0.5875,2.3769,-0.2049
1324761.0,-9.3757,3.7565,15.7993,0.4784,2.1141,-0.2565
1324771.0,-9.4882,4.0103,16.4506,0.3906,1.781,-0.3022
1324781.0,-9.6654,4.3742,16.5607,0.3475,1.4463,-0.3272
1324791.0,-9.6414,4.628,16.4003,0.2762,1.1206,-0.3384
1324801.0,-9.5122,4.7932,16.0028,0.1133,0.7811,-0.3539
1324811.0,-9.4882,4.9368,15.5791,-0.1527,0.4496,-0.3821
1324821.0,-9.5577,4.9464,15.5072,-0.423,0.149,-0.3996
1324831.0,-9.6391,4.8722,15.5384,-0.5566,-0.1144,-0.3874
1324841.0,-9.651,4.7764,15.4498,-0.5007,-0.3331,-0.3421
1324851.0,-9.4882,4.6304,15.1721,-0.3076,-0.5215,-0.281
1324861.0,-9.2201,4.6639,14.4682,-0.1123,-0.7306,-0.2277
1324871.0,-8.8729,4.81,13.5177,0.0059,-0.9344,-0.1852
1324881.0,-8.6455,4.944,12.5265,0.0245,-1.0749,-0.1447
1324891.0,-8.2935,4.8842,11.9255,-0.083,-1.1632,-0.1101
1324901.0,-8.0756,4.6998,11.5784,-0.2724,-1.2531,-0.0883
1324911.0,-7.9511,4.391,11.5927,-0.5013,-1.3723,-0.0814
1324921.0,-7.7716,4.0414,11.5808,-0.6614,-1.4995,-0.0777
1324931.0,-7.671,3.6105,11.5448,-0.7359,-1.6187,-0.0782
1324941.0,-7.4651,3.3208,11.461,-0.729,-1.731,-0.0899
1324951.0,-7.1563,3.122,11.1833,-0.6667,-1.8438,-0.1117
1324961.0,-6.9168,3.146,10.6494,-0.6098,-1.9608,-0.1469
1324971.0,-6.5793,3.3662,9.9216,-0.5981,-2.0556,-0.1852
1324981.0,-6.2848,3.6368,9.2009,-0.6353,-2.0853,-0.2144
1324991.0,-6.0908,3.7757,8.7053,-0.7636,-2.0816,-0.232
1325001.0,-5.8897,3.7206,8.5832,-0.9551,-2.0923,-0.2389
1325011.0,-5.6503,3.4955,8.5832,-1.1201,-2.1024,-0.2389
1325021.0,-5.533,3.2202,8.7269,-1.184,-2.0907,-0.2299
1325031.0,-5.3678,2.9185,8.9495,-1.1265,-2.0673,-0.2107
1325041.0,-5.1451,2.6145,9.1674,-0.9434,-2.0332,-0.1868
1325051.0,-4.853,2.4948,9.4978,-0.6641,-1.9869,-0.1607
1325061.0,-4.5203,2.5977,9.4786,-0.3581,-1.9582,-0.132
1325071.0,-4.3239,2.8276,8.9926,-0.1889,-2.0109,-0.1064
1325081.0,-4.027,3.0789,8.3294,-0.1953,-2.0992,-0.0873
1325091.0,-3.6248,3.1699,7.7859,-0.3145,-2.1237,-0.0665
1325101.0,-3.4046,3.1125,7.592,-0.4906,-2.0987,-0.0484
1325111.0,-3.213,2.9113,7.7237,-0.6699,-2.0795,-0.0404
1325121.0,-2.9209,2.6647,7.8458,-0.7822,-2.0689,-0.0346
1325131.0,-2.7078,2.4732,7.932,-0.8189,-2.055,-0.0298
1325141.0,-2.4301,2.3296,8.0278,-0.7817,-2.0359,-0.0234
1325151.0,-2.1715,2.3224,8.011,-0.6572,-1.9864,-0.0021
1325161.0,-1.8962,2.3104,7.8913,-0.538,-1.9459,0.0314
1325171.0,-1.5658,2.2625,7.5824,-0.473,-1.9401,0.0686
1325181.0,-1.1995,2.2314,7.2161,-0.4491,-1.9278,0.107
1325191.0,-0.826,2.138,7.0509,-0.4289,-1.8667,0.1469
1325201.0,-0.5124,1.9968,6.8977,-0.4108,-1.7868,0.1884
1325211.0,-0.2179,1.8364,6.6295,-0.4427,-1.7405,0.2198
1325221.0,0.0383,1.6879,6.3734,-0.5326,-1.7246,0.2379
1325231.0,0.2753,1.4916,6.1986,-0.5954,-1.6735,0.2618
1325241.0,0.5219,1.2665,6.0669,-0.5741,-1.5639,0.2948
1325251.0,0.8164,0.984,5.9903,-0.4794,-1.4271,0.332
1325261.0,1.0918,0.7207,5.8395,-0.3523,-1.2914,0.3645
1325271.0,1.4772,0.4836,5.5689,-0.2379,-1.1611,0.3783
1325281.0,1.8651,0.2682,5.3103,-0.1729,-1.0392,0.373
1325291.0,2.1715,0.1173,4.9273,-0.2075,-0.9573,0.3379
1325301.0,2.3008,0.0886,4.4365,-0.3656,-0.9253,0.2719
1325311.0,2.4277,0.1173,4.0294,-0.5757,-0.9025,0.1979
1325321.0,2.3631,0.249,3.6152,-0.7226,-0.8104,0.141
1325331.0,2.3056,0.3065,3.4381,-0.7482,-0.629,0.1245
1325341.0,2.3607,0.2298,3.2992,-0.6619,-0.4044,0.1346
1325351.0,2.3559,0.1245,3.3567,-0.4954,-0.1538,0.1554
1325361.0,2.3535,0.0407,3.2729,-0.2618,0.1187,0.1809
1325371.0,2.296,-0.0742,3.2394,-0.0415,0.39,0.1979
1325381.0,2.2889,-0.1987,3.292,0.1277,0.6375,0.1995
1325391.0,2.0806,-0.249,3.292,0.2442,0.8636,0.1799
1325401.0,1.7286,-0.2131,3.316,0.3225,1.0882,0.1458
1325411.0,1.3408,-0.1197,3.4069,0.4081,1.3505,0.1165
1325421.0,0.9505,-0.158,3.7948,0.5172,1.6687,0.0947
1325431.0,0.7518,-0.3352,4.5849,0.6481,1.9965,0.0686
1325441.0,0.3831,-0.4573,5.5091,0.754,2.262,0.0176
1325451.0,0.1987,-0.5722,6.3782,0.7987,2.427,-0.066
1325461.0,-0.0742,-0.4118,7.2951,0.7859,2.5196,-0.1878
1325471.0,-0.4741,0.0048,8.0589,0.6731,2.4935,-0.3257
1325481.0,-0.9744,0.486,8.4851,0.4055,2.3221,-0.4507
1325491.0,-1.5634,1.0726,8.497,0.0532,2.0811,-0.5406
1325501.0,-2.0734,1.5227,8.3821,-0.2714,1.9007,-0.5683
1325511.0,-2.5738,1.7502,8.4611,-0.4103,1.8821,-0.5231
1325521.0,-2.9904,1.6305,8.9639,-0.3704,1.9624,-0.4331
1325531.0,-3.1532,1.2713,9.7229,-0.2208,2.0268,-0.3416
1325541.0,-3.2106,0.8859,10.3597,-0.0287,1.9944,-0.2847
1325551.0,-3.3279,0.8164,10.2927,0.1437,1.8331,-0.2724
1325561.0,-3.4309,1.1588,9.4978,0.3113,1.6746,-0.2778
1325571.0,-3.7421,1.822,8.5521,0.5481,1.7304,-0.2554
1325581.0,-4.2138,2.466,7.8889,0.77,1.9571,-0.1985
1325591.0,-4.9416,2.8395,7.8051,0.8631,2.2216,-0.1203
1325601.0,-5.1068,2.4086,8.8681,0.8711,2.527,-0.0367
1325611.0,-5.1906,1.7454,10.5273,0.8125,2.7319,-0.0085
1325621.0,-5.3391,1.1013,12.4379,0.6321,2.6547,-0.074
1325631.0,-5.3726,0.9864,13.4027,0.4683,2.3418,-0.2059
1325641.0,-5.5689,1.4222,13.4027,0.4108,2.0401,-0.3517
1325651.0,-6.0334,2.4373,12.5169,0.4369,1.8773,-0.4576
1325661.0,-6.6295,3.4141,11.8034,0.3437,1.8225,-0.5034
1325671.0,-7.173,4.0845,11.6286,0.1474,1.839,-0.4874
1325681.0,-7.7069,4.13,12.4091,-0.0564,1.9305,-0.4145
1325691.0,-8.0948,3.6057,13.9271,-0.1368,2.0066,-0.3129
1325701.0,-8.3246,3.0095,15.5049,-0.058,1.9752,-0.2261
1325711.0,-8.5593,2.8228,16.5391,0.1437,1.8326,-0.1697
1325721.0,-8.8178,2.9305,17.1497,0.3986,1.6384,-0.1192
1325731.0,-8.9495,3.1771,17.4849,0.6417,1.4362,-0.0559
1325741.0,-8.8729,3.3782,17.4825,0.7944,1.1973,0.0117
1325751.0,-8.6886,3.5793,17.3005,0.7859,0.9269,0.0553
1325761.0,-8.5976,3.7493,17.0802,0.6002,0.6396,0.074
1325771.0,-8.4324,3.5961,17.1736,0.2645,0.3049,0.0814
1325781.0,-8.2887,3.2394,17.1281,-0.0857,-0.0772,0.0766
1325791.0,-8.193,2.7892,16.8815,-0.3751,-0.464,0.0596
1325801.0,-7.9895,2.3056,16.4553,-0.5513,-0.8179,0.0431
1325811.0,-7.671,1.8483,15.8592,-0.588,-1.119,0.0261
1325821.0,-7.3334,1.549,14.9135,-0.5225,-1.3792,0.0027
1325831.0,-7.0006,1.4796,13.7906,-0.4236,-1.5692,-0.0325
1325841.0,-6.7421,1.4964,12.8257,-0.3225,-1.6778,-0.0676
1325851.0,-6.4572,1.6544,11.9495,-0.2256,-1.7358,-0.0968
1325861.0,-6.2441,1.7741,11.1929,-0.1501,-1.7517,-0.1245
1325871.0,-6.0262,1.9225,10.647,-0.1288,-1.7437,-0.149
1325881.0,-5.8059,2.0016,10.3932,-0.1671,-1.7182,-0.1793
1325891.0,-5.6192,2.0734,10.4722,-0.215,-1.6836,-0.2059
1325901.0,-5.4779,2.083,10.8122,-0.2267,-1.6511,-0.2208
1325911.0,-5.3032,2.1141,11.1713,-0.1942,-1.6607,-0.2283
1325921.0,-5.1523,2.1883,11.4156,-0.1713,-1.7272,-0.2395
1325931.0,-5.0135,2.3343,11.3222,-0.1767,-1.84,-0.2501
1325941.0,-4.8435,2.3128,11.2815,-0.2081,-1.9624,-0.2565
1325951.0,-4.7022,2.2984,11.2192,-0.2368,-2.0864,-0.257
1325961.0,-4.7405,2.3367,10.9128,-0.2597,-2.2349,-0.2613
1325971.0,-4.5705,2.2218,10.7404,-0.2224,-2.345,-0.2442
1325981.0,-4.2689,2.0949,10.5441,-0.0585,-2.3652,-0.207
1325991.0,-3.9576,1.9896,10.2687,0.1011,-2.4041,-0.182
1326001.0,-3.6344,2.2553,9.493,0.1948,-2.4908,-0.1809
1326011.0,-3.1843,2.6121,8.6479,0.1713,-2.5573,-0.191
1326021.0,-2.9688,2.9544,7.8626,0.0612,-2.5605,-0.1894
1326031.0,-2.6791,2.9161,7.4771,-0.1453,-2.5414,-0.1756
1326041.0,-2.3391,2.6624,7.2975,-0.3134,-2.4839,-0.1564
1326051.0,-2.0087,2.3727,7.2927,-0.4103,-2.4051,-0.1463
1326061.0,-1.5083,2.0255,7.4651,-0.3986,-2.2891,-0.1368
1326071.0,-1.1875,1.9082,7.841,-0.2815,-2.1332,-0.133
1326081.0,-0.8739,1.9824,8.1977,-0.1655,-2.0391,-0.1394
1326091.0,-0.6776,2.3128,8.2911,-0.1101,-2.0364,-0.1437
1326101.0,-0.498,2.7078,7.9224,-0.1671,-2.1221,-0.1309
1326111.0,-0.0646,2.7509,7.4819,-0.2959,-2.2168,-0.091
1326121.0,0.2227,2.7246,6.8546,-0.4049,-2.2498,-0.042
1326131.0,0.5626,2.5642,6.3518,-0.4879,-2.2205,0.0101
1326141.0,0.7494,2.4157,5.7485,-0.5348,-2.1556,0.0607
1326151.0,0.929,2.0782,5.4612,-0.5513,-2.0454,0.1144
1326161.0,1.3503,1.7286,5.1619,-0.4794,-1.8874,0.1676
1326171.0,1.8507,1.3862,5.1212,-0.3682,-1.7107,0.2006
1326181.0,2.2266,1.2689,4.7788,-0.2554,-1.5596,0.2118
1326191.0,2.5043,1.2354,4.3551,-0.2203,-1.4447,0.2027
1326201.0,2.9042,1.2689,3.8331,-0.2639,-1.3484,0.1799
1326211.0,3.2322,1.4006,3.2705,-0.3586,-1.2377,0.157
1326221.0,3.4237,1.4772,2.7749,-0.4651,-1.0834,0.1474
1326231.0,3.4836,1.6544,2.3439,-0.5135,-0.862,0.1575
1326241.0,3.3375,1.7119,2.1691,-0.5369,-0.6029,0.1889
1326251.0,3.2513,1.6927,2.047,-0.5039,-0.3235,0.2474
1326261.0,3.2394,1.4605,2.217,-0.4087,-0.0085,0.3209
1326271.0,3.3423,1.1612,2.4493,-0.2714,0.2921,0.3842
1326281.0,3.371,0.9026,2.6264,-0.1415,0.5449,0.423
1326291.0,3.3495,0.826,2.6336,-0.0176,0.7811,0.4385
1326301.0,3.1556,0.929,2.5642,0.0931,1.0339,0.4459
1326311.0,2.7198,1.1756,2.4948,0.1889,1.3164,0.4581
1326321.0,2.1859,1.3623,2.6121,0.2682,1.6331,0.4906
1326331.0,1.6664,1.2402,3.1149,0.3427,1.9885,0.5417
1326341.0,1.1396,0.838,3.8307,0.3927,2.3152,0.5912
1326351.0,0.8619,0.0766,5.0159,0.3954,2.5744,0.6103
1326361.0,0.6895,-0.5818,6.0094,0.3783,2.7361,0.5619
1326371.0,0.5459,-1.1205,6.8259,0.2708,2.7532,0.4337
1326381.0,0.3759,-1.1229,6.9576,0.1117,2.6776,0.2533
1326391.0,-0.1772,-0.6321,6.8331,-0.0138,2.6787,0.0798
1326401.0,-1.1301,0.2011,6.6439,-0.0915,2.8037,-0.0325
1326411.0,-1.9656,0.6512,7.1108,-0.174,3.0261,-0.0564
1326421.0,-2.4229,0.4645,8.3438,-0.2176,3.305,-0.0186
1326431.0,-2.909,0.0215,10.1155,-0.3129,3.4529,0.0043
1326441.0,-2.9951,-0.6249,12.2009,-0.4816,3.3566,-0.0192
1326451.0,-2.9042,-1.0511,13.5871,-0.5848,3.0485,-0.0809
1326461.0,-2.8252,-1.1229,13.9079,-0.6141,2.602,-0.1751
1326471.0,-3.0574,-0.3424,12.8712,-0.5151,2.2029,-0.265
1326481.0,-3.8211,0.9553,11.1761,-0.3821,1.9912,-0.3054
1326491.0,-4.5562,1.8459,10.1035,-0.2836,2.0226,-0.2469
1326501.0,-4.8602,1.7933,10.3286,-0.1772,2.2567,-0.1096
1326511.0,-4.9321,0.9457,12.0093,-0.0963,2.4701,0.0144
1326521.0,-5.0709,0.1125,14.0468,0.0117,2.4552,0.0654
1326531.0,-5.1571,-0.2753,15.4929,0.2405,2.2051,0.0564
1326541.0,-5.1284,-0.0575,15.5168,0.671,1.8933,0.0346
1326551.0,-5.1882,0.656,14.4706,1.1419,1.6714,0.025
1326561.0,-5.2696,1.4557,13.4075,1.3798,1.541,0.0154
1326571.0,-5.3199,2.1213,12.8281,1.3643,1.4511,0.0016
1326581.0,-5.6719,2.7366,12.3253,1.1877,1.3569,-0.009
1326591.0,-5.9185,2.9281,12.1194,0.9429,1.2957,-0.0032
1326601.0,-6.1124,2.7821,12.1961,0.7269,1.3047,0.0144
1326611.0,-6.2513,2.2721,12.9263,0.5364,1.3303,0.0186
1326621.0,-6.3782,1.9776,13.4363,0.4289,1.3111,-0.0085
1326631.0,-6.4907,1.8483,13.9438,0.3443,1.2377,-0.0612
1326641.0,-6.5529,2.0135,14.2096,0.281,1.1393,-0.1187
1326651.0,-6.675,2.2793,14.4753,0.2118,1.0376,-0.1671
1326661.0,-6.7947,2.6815,14.765,0.1176,0.8945,-0.199
1326671.0,-6.9456,3.0957,14.9087,0.0043,0.7141,-0.2054
1326681.0,-7.0773,3.3136,15.2559,-0.0915,0.547,-0.1719
1326691.0,-7.0677,3.2465,15.5647,-0.1442,0.3613,-0.1064
1326701.0,-6.9623,2.9736,15.8113,-0.1751,0.1203,-0.0404
1326711.0,-6.7876,2.8587,15.4163,-0.1591,-0.1469,0.0059
1326721.0,-6.62,2.7461,14.7962,-0.1639,-0.3821,0.0383
1326731.0,-6.3853,2.5738,14.2,-0.2081,-0.5651,0.0617
1326741.0,-6.2106,2.2027,13.963,-0.2788,-0.7157,0.0745
1326751.0,-5.9568,1.7645,13.6757,-0.2943,-0.8626,0.0782
1326761.0,-5.6767,1.4198,13.3142,-0.2692,-1.0206,0.0623
1326771.0,-5.4396,1.3216,12.6174,-0.2054,-1.1733,0.0298
1326781.0,-5.1882,1.3288,11.9255,-0.1399,-1.2781,-0.0101
1326791.0,-5.0182,1.4533,11.248,-0.0851,-1.3308,-0.0474
1326801.0,-4.9153,1.5826,10.7931,-0.042,-1.3409,-0.0734
1326811.0,-4.7333,1.7334,10.3908,-0.0069,-1.3319,-0.0921
1326821.0,-4.5083,1.8579,10.0724,-0.0005,-1.3085,-0.1054
1326831.0,-4.3598,1.9417,9.8713,-0.0372,-1.2962,-0.1165
1326841.0,-4.1659,1.9273,9.8402,-0.0905,-1.2781,-0.124
1326851.0,-4.027,1.9225,9.8378,-0.1426,-1.2627,-0.1357
1326861.0,-3.9552,1.7909,9.9575,-0.1937,-1.2537,-0.1485
1326871.0,-3.8116,1.6688,10.0628,-0.1815,-1.2265,-0.1591
1326881.0,-3.6272,1.4964,10.2831,-0.1517,-1.2031,-0.1761
1326891.0,-3.4884,1.4126,10.4459,-0.1293,-1.2185,-0.2112
1326901.0,-3.4165,1.5083,10.6159,-0.1325,-1.2606,-0.2613
1326911.0,-3.371,1.8052,10.5512,-0.1479,-1.3361,-0.3113
1326921.0,-3.3351,2.1835,10.2568,-0.1932,-1.4324,-0.3491
1326931.0,-3.2226,2.5043,9.9766,-0.2347,-1.4931,-0.3592
1326941.0,-3.1723,2.7533,9.6989,-0.2682,-1.5064,-0.3432
1326951.0,-3.1149,2.806,9.7492,-0.3028,-1.5,-0.3001
1326961.0,-2.8946,2.6456,10.0844,-0.2788,-1.4708,-0.2442
1326971.0,-2.7773,2.5067,10.3693,-0.2182,-1.4809,-0.1974
1326981.0,-2.648,2.4565,10.489,-0.1639,-1.5708,-0.1607
1326991.0,-2.4373,2.557,10.173,-0.099,-1.6863,-0.124
1327001.0,-2.2841,2.6767,9.7109,-0.042,-1.7661,-0.0798
1327011.0,-2.0853,2.6695,9.2249,-0.0011,-1.8071,-0.0261
1327021.0,-1.8076,2.6576,8.8059,0.0314,-1.8023,0.0245
1327031.0,-1.7142,2.8036,8.4013,0.0181,-1.781,0.0665
1327041.0,-1.4533,2.5738,8.4372,-0.0676,-1.7528,0.1101
1327051.0,-1.1516,2.296,8.5856,-0.1224,-1.7155,0.1506
1327061.0,-0.826,1.9537,8.6335,-0.1953,-1.7395,0.1639
1327071.0,-0.4908,1.7382,8.4348,-0.2565,-1.8113,0.1564
1327081.0,-0.1556,1.6807,7.9583,-0.2985,-1.8714,0.1378
1327091.0,0.1413,1.7957,7.5154,-0.3108,-1.8762,0.1219
1327101.0,0.3807,2.0303,6.9552,-0.2916,-1.8225,0.1277
1327111.0,0.5507,2.1021,6.5434,-0.3336,-1.7703,0.1596
1327121.0,0.7757,2.0853,5.9376,-0.3954,-1.7155,0.2086
1327131.0,1.2091,1.6592,5.7676,-0.4438,-1.607,0.2677
1327141.0,1.6688,1.2282,5.5641,-0.4454,-1.483,0.3124
1327151.0,1.98,0.7542,5.4061,-0.4555,-1.3968,0.3182
1327161.0,2.3296,0.4453,5.1116,-0.4528,-1.3431,0.2884
1327171.0,2.715,0.3735,4.5298,-0.4374,-1.2861,0.2352
1327181.0,2.9904,0.5267,3.8618,-0.406,-1.1829,0.1815
1327191.0,3.0789,0.7997,3.1101,-0.3145,-0.9876,0.1511
1327201.0,3.2154,1.0918,2.66,-0.1793,-0.6939,0.1586
1327211.0,3.1651,1.3623,2.3511,-0.0202,-0.3363,0.1963
1327221.0,3.043,1.4868,2.3391,0.0926,0.0059,0.2549
1327231.0,3.0119,1.4748,2.3176,0.1745,0.3315,0.3203
1327241.0,2.9856,1.2546,2.6504,0.2192,0.6641,0.3826
1327251.0,2.9951,0.9146,3.1053,0.2187,0.953,0.422
1327261.0,2.9736,0.5818,3.6631,0.1703,1.1701,0.4236
1327271.0,2.7725,0.5363,4.0606,0.1203,1.3393,0.398
1327281.0,2.4086,0.6608,4.3766,0.1,1.5011,0.3682
1327291.0,1.9632,0.8978,4.6136,0.1325,1.6788,0.3608
1327301.0,1.5514,1.1013,4.9129,0.199,1.8693,0.3789
1327311.0,1.1684,1.1636,5.1619,0.2336,2.0263,0.4065
1327321.0,0.8859,0.9816,5.4109,0.2011,2.1428,0.4278
1327331.0,0.498,0.644,5.7509,0.1,2.237,0.4284
1327341.0,0.4046,0.3519,6.0501,-0.0388,2.2844,0.3943
1327351.0,0.1149,0.316,6.2153,-0.166,2.3264,0.3326
1327361.0,-0.4453,0.7614,5.9065,-0.2267,2.419,0.2788
1327371.0,-1.142,1.233,5.6743,-0.29,2.5956,0.2591
1327381.0,-1.8028,1.6137,5.7485,-0.414,2.8372,0.2847
1327391.0,-2.3703,1.4509,6.7612,-0.6534,3.073,0.3453
1327401.0,-2.9113,0.9816,8.2289,-0.9653,3.1725,0.4119
1327411.0,-3.1603,0.261,9.5744,-1.2819,3.0517,0.4667
1327421.0,-3.6296,-0.2897,10.3094,-1.4207,2.8601,0.5066
1327431.0,-4.3527,-0.5578,10.5465,-1.2749,2.7643,0.5518
1327441.0,-4.8698,-0.7949,10.7476,-0.9147,2.7947,0.613
1327451.0,-5.3822,-0.929,11.0014,-0.4581,2.8809,0.6577
1327461.0,-5.6767,-1.1061,11.7579,0.0154,2.9655,0.6689
1327471.0,-5.6767,-1.2546,12.4906,0.5332,3.0139,0.6428
1327481.0,-5.9089,-1.2186,12.8186,1.0036,2.9857,0.5614
1327491.0,-6.3446,-0.6967,12.6917,1.3659,2.9405,0.4299
1327501.0,-6.9001,0.0622,12.651,1.5399,2.9298,0.2863
1327511.0,-7.3263,0.747,13.0412,1.4628,2.9048,0.1517
1327521.0,-7.6974,1.1133,13.7978,1.1712,2.8181,0.0271
1327531.0,-7.8458,1.154,14.6932,0.737,2.6074,-0.1027
1327541.0,-7.9248,1.1875,15.8137,0.2815,2.3072,-0.2458
1327551.0,-8.169,1.3192,16.9318,-0.0117,1.9874,-0.3613
1327561.0,-8.327,1.6305,17.4418,-0.0883,1.6283,-0.4273
1327571.0,-8.4539,1.9513,17.4011,-0.0208,1.2733,-0.4427
1327581.0,-8.442,2.3176,16.9605,0.1032,0.944,-0.4172
1327591.0,-8.4084,2.545,16.429,0.199,0.6417,-0.3661
1327601.0,-8.3222,2.7557,15.6916,0.2889,0.3826,-0.2948
1327611.0,-8.169,2.8491,14.9638,0.3666,0.1809,-0.2107
1327621.0,-7.9272,2.8036,14.3221,0.4055,0.0325,-0.1261
1327631.0,-7.8386,2.6767,14.0133,0.3943,-0.0921,-0.0516
1327641.0,-7.6614,2.4469,13.9151,0.4092,-0.216,0.0176
1327651.0,-7.4292,2.2793,13.5296,0.4816,-0.3363,0.0756
1327661.0,-7.2592,2.0997,13.0867,0.5348,-0.4518,0.1117
1327671.0,-7.0342,1.9178,12.5815,0.5326,-0.5646,0.1256
1327681.0,-6.7756,1.6951,12.2631,0.5108,-0.6353,0.1171
1327691.0,-6.6367,1.5395,11.9471,0.481,-0.687,0.0915
1327701.0,-6.5146,1.415,11.71,0.4464,-0.7428,0.0484
