time_ms,ax,ay,az,gx,gy,gz
26551.0,1.0846,-0.5986,10.477,-0.0851,-0.0197,-0.05
26561.0,1.1564,-0.2658,10.228,-0.0415,-0.0037,-0.0436
26571.0,1.245,-0.3112,10.3382,0.0101,0.0271,-0.0277
26581.0,1.2641,-0.2274,10.343,0.066,0.0543,-0.0064
26591.0,1.1684,-0.1748,10.4938,0.0649,0.0591,0.0197
26601.0,1.2282,-0.2658,10.659,0.049,0.025,0.0452
26611.0,1.166,-0.0742,10.6686,0.0591,0.0149,0.0788
26621.0,1.0654,-0.5124,10.9223,0.0293,-0.0202,0.1192
26631.0,1.1085,-0.5626,10.7691,0.0341,-0.058,0.1373
26641.0,1.0367,-0.8404,10.5249,0.0255,-0.0686,0.1362
26651.0,1.1516,-0.6393,10.3837,0.0032,-0.0617,0.1101
26661.0,1.0439,-0.5962,10.7404,0.0037,-0.0229,0.0835
26671.0,1.1349,-0.5938,10.6494,0.0287,-0.0442,0.0692
26681.0,1.0726,-0.3089,10.6614,0.017,-0.0814,0.058
26691.0,1.0654,-0.1891,10.422,0.0287,-0.0958,0.0756
26701.0,1.1061,-0.5914,10.4076,0.0229,-0.0926,0.1032
26711.0,1.2905,-0.6177,9.9455,0.0484,-0.0947,0.1203
26721.0,1.3144,-0.826,9.9,0.041,-0.058,0.1309
26731.0,1.0056,-1.1181,10.3669,0.0729,-0.0027,0.1213
26741.0,1.1133,-0.9553,10.3693,0.1453,-0.0117,0.0926
26751.0,1.1636,-0.7302,10.1347,0.1538,-0.0383,0.0559
26761.0,1.2306,-0.4405,9.8857,0.1644,0.0011,0.042
26771.0,1.1444,-0.5962,10.41,0.1144,0.0724,0.041
26781.0,1.2402,-0.2179,10.4938,0.0926,0.0793,0.0367
26791.0,1.2641,-0.2538,10.884,0.0335,0.0521,0.0447
26801.0,1.245,-0.2658,10.477,0.0484,0.009,0.0654
26811.0,1.2881,-0.5914,10.4459,0.0208,-0.0069,0.0708
26821.0,1.2785,-0.2227,10.094,0.0857,0.0314,0.0527
26831.0,1.3408,-0.407,10.4196,0.124,0.0718,0.0388
26841.0,1.3288,-0.0431,10.5345,0.1522,0.0894,0.0298
26851.0,1.2474,-0.2466,10.8816,0.1022,0.0564,0.0303
26861.0,1.2546,-0.182,10.7667,0.0633,-0.008,0.0261
26871.0,1.2665,-0.3448,10.6805,0.0011,-0.0463,0.0176
26881.0,1.3288,-0.4645,10.5249,-0.0452,-0.0553,-0.0064
26891.0,1.4581,-0.3519,10.1586,-0.0819,-0.0681,-0.0436
26901.0,1.494,-0.1149,9.9216,-0.0974,-0.0346,-0.0724
26911.0,1.3743,-0.1676,10.173,-0.0697,0.0458,-0.0777
26921.0,1.3934,-0.1915,10.2975,-0.0234,0.0681,-0.0803
26931.0,1.3623,-0.0335,10.3621,0.0021,0.0713,-0.0883
26941.0,1.3336,0.0215,10.4291,0.0032,0.0814,-0.0846
26951.0,1.3001,0.0,10.7691,-0.0335,0.0878,-0.0761
26961.0,1.2402,-0.0359,10.7404,-0.0644,0.0681,-0.0686
26971.0,1.2689,-0.1652,10.556,-0.0974,0.0351,-0.0628
26981.0,1.4006,-0.1365,10.2232,-0.0857,0.0314,-0.0569
26991.0,1.2641,-0.3639,10.1801,-0.0867,0.0596,-0.0585
27001.0,1.2258,-0.2658,10.2687,-0.0442,0.0803,-0.0654
27011.0,1.1516,0.1532,10.1993,0.009,0.1048,-0.0553
27021.0,1.4533,0.103,10.0868,0.0096,0.1272,-0.0005
27031.0,1.5227,-0.2658,10.252,-0.0346,0.1596,0.049
27041.0,1.2857,-0.4621,10.5441,-0.0468,0.1884,0.0516
27051.0,1.087,-0.3879,10.4267,-0.0144,0.1666,0.0404
27061.0,1.1995,-0.4621,10.1418,0.0064,0.1437,0.0341
27071.0,1.2905,-0.5315,9.9599,0.0186,0.1676,0.033
27081.0,1.4245,-0.8523,10.1538,0.0005,0.2054,-0.0011
27091.0,1.245,-0.8332,10.24,0.0106,0.2347,-0.0686
27101.0,1.2881,-0.407,10.0365,0.0367,0.2384,-0.1336
27111.0,1.2378,-0.0096,10.0676,0.0106,0.2602,-0.158
27121.0,1.142,-0.0048,10.4483,-0.0362,0.2932,-0.1538
27131.0,1.0391,0.1867,10.7524,-0.0458,0.3033,-0.141
27141.0,0.9553,0.735,11.5089,-0.0239,0.3108,-0.1176
27151.0,0.7757,0.8763,12.5289,-0.0388,0.2442,-0.067
27161.0,0.5746,0.6153,13.0149,-0.0979,0.0543,-0.0144
27171.0,0.7015,0.7757,12.6988,-0.1282,-0.1809,0.0239
27181.0,0.7829,0.3591,11.825,-0.0947,-0.3507,0.0697
27191.0,0.6752,0.3567,11.1163,-0.008,-0.4033,0.0921
27201.0,0.7997,-0.1317,10.9247,0.0766,-0.4193,0.107
27211.0,1.2522,-0.1604,9.8881,0.2198,-0.4246,0.0883
27221.0,1.98,-0.4477,8.8059,0.273,-0.3363,0.0468
27231.0,1.8579,-0.4429,8.9256,0.1357,-0.1362,-0.0255
27241.0,1.4198,-0.1125,9.9192,-0.1096,0.0,-0.0798
27251.0,1.2929,0.2729,10.6159,-0.2794,0.0048,-0.075
27261.0,1.403,0.3998,10.0149,-0.3666,-0.0543,-0.0261
27271.0,1.5969,0.644,9.1435,-0.4268,-0.0059,0.0229
27281.0,1.798,0.6033,9.0214,-0.4768,0.1458,0.0809
27291.0,1.4102,0.2873,9.5289,-0.4693,0.3022,0.124
27301.0,1.1492,0.0622,9.6534,-0.3608,0.3352,0.158
27311.0,1.0056,0.079,9.3374,-0.1389,0.3416,0.2166
27321.0,1.4916,-0.0455,8.4084,0.1219,0.3959,0.3139
27331.0,1.5969,-0.8475,8.2768,0.19,0.5055,0.4204
27341.0,1.9465,-0.917,7.9655,0.1346,0.6141,0.4507
27351.0,3.9385,-0.8428,8.3127,-0.0463,0.7615,0.4225
27361.0,3.0335,-0.1987,8.9328,-0.3086,0.9211,0.3773
27371.0,2.636,-0.3112,9.2081,-0.464,0.9775,0.3475
27381.0,1.8627,-0.8954,10.5896,-0.4603,1.086,0.2799
27391.0,1.7119,-0.8212,10.6207,-0.2522,1.0456,0.1948
27401.0,1.2617,-0.4142,10.5489,-0.0027,1.0211,0.1235
27411.0,1.0175,-0.8308,10.3908,0.1937,1.0046,0.0367
27421.0,0.6608,0.0215,9.3972,0.2666,0.9993,-0.083
27431.0,-0.1389,0.1628,10.7021,0.1304,1.1084,-0.1383
27441.0,-0.5459,0.3974,11.2312,0.0532,1.1036,-0.1213
27451.0,-0.9768,0.5028,11.7124,0.0138,1.0648,-0.0601
27461.0,-1.3551,0.395,12.3445,0.0011,0.9951,0.0367
27471.0,-1.664,0.3328,12.3014,-0.0005,0.8354,0.149
27481.0,-1.9417,0.0599,12.2727,-0.0197,0.663,0.2581
27491.0,-2.375,0.0263,12.0811,0.0122,0.5295,0.3624
27501.0,-2.5546,-0.4669,12.141,0.0277,0.4124,0.4534
27511.0,-2.2098,-1.2785,12.3661,0.0032,0.2666,0.4901
27521.0,-1.8172,-1.4844,12.0931,-0.0341,0.0873,0.4528
27531.0,-1.1923,-1.4365,11.3964,-0.0803,-0.0729,0.3608
27541.0,-0.9337,-1.3743,11.0588,-0.1203,-0.116,0.2325
27551.0,-0.8619,-1.3815,11.2599,-0.1522,-0.1431,0.0974
27561.0,-0.6656,-1.2115,11.3246,-0.1426,-0.2517,-0.016
27571.0,-0.5722,-0.7326,10.7212,-0.0809,-0.3709,-0.0851
27581.0,-0.4094,-0.3855,10.1011,-0.0085,-0.4331,-0.0931
27591.0,-0.0646,-0.1173,9.3613,0.0521,-0.4119,-0.0575
27601.0,0.1724,0.0215,8.9088,0.075,-0.2911,-0.0101
27611.0,0.1365,0.0694,8.9735,0.0756,-0.1107,0.0309
27621.0,-0.0215,-0.1532,9.5385,0.108,0.0458,0.0591
27631.0,-0.0622,-0.158,9.7707,0.2246,0.1399,0.0724
27641.0,-0.2011,0.237,9.8402,0.3725,0.2118,0.0931
27651.0,-0.2251,0.5195,10.0197,0.4667,0.2661,0.1368
27661.0,-0.2394,0.6776,10.5393,0.4688,0.2804,0.2033
27671.0,-0.1484,0.5339,11.0109,0.4071,0.2198,0.2708
27681.0,0.4453,0.0144,11.5257,0.3267,0.1112,0.298
27691.0,0.8356,-0.2083,11.394,0.2762,-0.0309,0.2522
27701.0,1.142,-0.2418,10.8912,0.2474,-0.1426,0.1655
27711.0,1.4748,-0.1293,10.2927,0.2522,-0.1389,0.0623
27721.0,1.6688,0.0311,10.3573,0.2288,-0.0681,-0.0511
27731.0,1.6017,0.2849,10.5656,0.2006,-0.0245,-0.1463
27741.0,1.2713,0.5339,10.6159,0.1777,-0.0261,-0.2033
27751.0,0.9409,0.4621,10.6542,0.1485,-0.0537,-0.2517
27761.0,0.6033,0.2921,10.5584,0.1346,-0.0569,-0.3246
27771.0,0.3831,0.1413,10.6805,0.0873,-0.0559,-0.4214
27781.0,-0.2969,0.3352,10.8529,0.0213,-0.0766,-0.5066
27791.0,-0.6273,0.6297,10.489,-0.0144,-0.1149,-0.5369
27801.0,-0.8428,0.5866,10.3549,-0.0277,-0.0835,-0.538
27811.0,-0.8739,0.5267,10.5752,-0.0404,-0.0484,-0.5108
27821.0,-0.589,0.51,10.4411,-0.0686,-0.0793,-0.4566
27831.0,-0.2921,0.486,10.319,-0.1054,-0.0926,-0.4001
27841.0,0.1317,0.2442,10.3837,-0.1431,-0.1006,-0.3501
27851.0,0.4286,0.1197,10.3406,-0.1197,-0.1016,-0.3272
27861.0,0.759,0.0383,10.3022,-0.0527,-0.0883,-0.3272
27871.0,0.8452,0.1365,10.0652,0.0314,-0.0506,-0.365
27881.0,0.6273,0.2705,10.3262,0.0734,0.0149,-0.4305
27891.0,0.2682,0.2921,10.8098,0.0798,0.0543,-0.4826
27901.0,-0.2011,0.4094,11.0612,-0.0053,-0.0202,-0.506
27911.0,-0.0168,0.4166,10.8242,-0.1245,-0.1368,-0.497
27921.0,-0.0072,0.6225,10.5417,-0.1974,-0.1426,-0.4991
27931.0,0.0072,0.6871,10.8816,-0.2682,-0.1266,-0.4874
27941.0,0.0718,0.68,11.0708,-0.2975,-0.1341,-0.4581
27951.0,0.1125,0.431,11.2144,-0.282,-0.1729,-0.4347
27961.0,0.0694,0.3639,11.0038,-0.2395,-0.2347,-0.4331
27971.0,0.4214,0.2801,10.501,-0.1916,-0.2772,-0.4363
27981.0,0.486,0.2466,10.3789,-0.1692,-0.2517,-0.4385
27991.0,0.4429,0.158,10.3573,-0.165,-0.2395,-0.4369
28001.0,0.498,0.0718,10.2256,-0.1474,-0.2623,-0.4406
28011.0,0.3903,0.091,10.0054,-0.1357,-0.2698,-0.448
28021.0,0.3926,-0.0982,10.1131,-0.1309,-0.2645,-0.4592
28031.0,0.51,-0.1053,9.9671,-0.0931,-0.2666,-0.4805
28041.0,0.6369,0.0622,9.6031,-0.0532,-0.2533,-0.4949
28051.0,0.4741,0.1915,9.4954,-0.0186,-0.1671,-0.4858
28061.0,0.1006,0.1987,9.7707,0.0388,-0.0357,-0.4363
28071.0,-0.1221,-0.0718,10.228,0.1293,0.0777,-0.3592
28081.0,0.0958,-0.3089,10.2759,0.24,0.1213,-0.3065
28091.0,0.3639,-0.5483,10.1538,0.3081,0.1532,-0.2985
28101.0,0.6632,-0.565,9.9,0.3347,0.2086,-0.3288
28111.0,0.6057,-0.4573,10.2185,0.3299,0.3374,-0.3741
28121.0,0.4118,-0.395,10.8577,0.3209,0.4401,-0.398
28131.0,-0.1101,-0.2969,11.3605,0.3512,0.4895,-0.3725
28141.0,-0.4142,-0.4214,11.904,0.4273,0.513,-0.2969
28151.0,-0.4118,-0.6081,12.2631,0.531,0.4869,-0.2091
28161.0,-0.1245,-0.5555,12.3014,0.646,0.4124,-0.1522
28171.0,0.0144,-0.1748,12.1841,0.7497,0.3416,-0.1383
28181.0,0.1532,0.3974,12.1793,0.8344,0.2852,-0.1447
28191.0,-0.0766,0.7997,12.5504,0.9046,0.2272,-0.1485
28201.0,0.1724,0.6297,12.5767,1.0025,0.1548,-0.132
28211.0,-0.5363,1.2641,12.3852,1.093,0.1112,-0.1378
28221.0,-0.2801,1.2737,12.0692,0.9301,0.0016,-0.1011
28231.0,-0.0934,1.1779,11.4443,0.555,-0.0968,-0.0937
28241.0,-0.3017,1.166,11.8513,0.1437,-0.0915,-0.1187
28251.0,-0.1125,0.4908,12.3924,-0.1352,-0.107,-0.1229
28261.0,-0.5698,-0.5818,13.1777,-0.1176,-0.0729,-0.1288
28271.0,-0.2514,0.1365,12.2942,0.0702,-0.1075,-0.1431
28281.0,0.0646,0.8092,11.473,0.1713,-0.1006,-0.1474
28291.0,-0.2131,1.1564,11.6023,0.2001,-0.0261,-0.1362
28301.0,-0.1676,1.482,11.2049,0.2203,-0.0208,-0.1059
28311.0,0.0982,1.0582,11.2216,0.2267,-0.0144,-0.0734
28321.0,0.7853,-1.3575,11.0923,0.2847,0.0346,-0.0628
28331.0,0.0096,-2.6911,12.73,0.2357,0.0415,-0.1628
28341.0,0.1389,-1.9609,11.8705,0.3459,-0.0144,-0.3166
28351.0,0.4884,-1.9585,11.0971,0.199,-0.2097,-0.481
28361.0,0.4046,-1.5083,10.3884,0.0011,-0.2139,-0.646
28371.0,0.4334,-1.0918,10.9415,-0.2746,-0.1314,-0.7907
28381.0,0.1341,-0.8954,11.9614,-0.5273,-0.1596,-0.9131
28391.0,-0.0958,-0.577,12.4403,-0.6923,-0.273,-1.0121
28401.0,-0.103,-0.1341,12.7156,-0.7412,-0.3666,-1.0791
28411.0,-0.1987,0.34,12.7324,-0.7343,-0.489,-1.118
28421.0,0.0407,0.7901,12.3158,-0.7093,-0.6231,-1.1297
28431.0,0.1772,1.1277,11.9351,-0.6784,-0.7024,-1.1174
28441.0,0.3017,1.2546,11.4443,-0.6731,-0.7827,-1.0871
28451.0,0.4166,1.2761,10.7955,-0.7082,-0.862,-1.0653
28461.0,0.4884,1.2234,10.4507,-0.7694,-0.9152,-1.0557
28471.0,0.4621,1.1899,10.0102,-0.7604,-0.9376,-1.0413
28481.0,0.5794,1.245,9.481,-0.6529,-0.919,-1.0222
28491.0,0.7135,1.3599,8.9495,-0.4842,-0.8317,-0.9966
28501.0,0.759,1.5227,8.6,-0.3124,-0.7157,-0.9732
28511.0,0.9673,1.6376,8.2217,-0.1777,-0.6039,-0.9557
28521.0,1.1732,1.5921,8.0445,-0.1203,-0.4869,-0.9567
28531.0,1.1229,1.7693,8.1642,-0.1314,-0.3491,-0.9839
28541.0,0.9625,1.968,8.6574,-0.2357,-0.2756,-1.0248
28551.0,1.0415,2.2482,9.098,-0.3358,-0.2586,-1.0493
28561.0,1.0439,2.4517,9.5529,-0.3757,-0.241,-1.0429
28571.0,0.9864,2.7102,9.7755,-0.3922,-0.2735,-1.0201
28581.0,0.9433,3.1173,9.5936,-0.4001,-0.3421,-0.9802
28591.0,1.0654,3.4189,9.3158,-0.4028,-0.3927,-0.9104
28601.0,1.1325,3.5745,8.7652,-0.3602,-0.3863,-0.8104
28611.0,1.0104,3.4907,8.4132,-0.348,-0.357,-0.704
28621.0,0.9409,3.0885,8.4348,-0.3374,-0.3092,-0.6029
28631.0,1.0199,2.5857,8.7077,-0.182,-0.2059,-0.5092
28641.0,1.0774,2.1835,8.9184,0.1213,-0.0649,-0.4299
28651.0,1.075,2.0925,8.9304,0.4379,0.0431,-0.3794
28661.0,1.2282,2.332,8.7053,0.6699,0.1064,-0.3507
28671.0,1.312,2.6049,8.5449,0.8083,0.1756,-0.3235
28681.0,1.3671,2.9066,8.3917,0.8604,0.2458,-0.2911
28691.0,1.3503,3.1268,8.3222,0.8104,0.2895,-0.2591
28701.0,1.2115,3.2346,8.406,0.6928,0.3251,-0.2171
28711.0,1.1612,3.1173,8.5569,0.5598,0.3453,-0.1666
28721.0,1.2186,2.9281,8.7484,0.4278,0.3368,-0.1235
28731.0,1.5251,2.7773,8.7891,0.3028,0.3171,-0.0937
28741.0,1.6113,2.5666,8.9519,0.2097,0.3198,-0.0681
28751.0,1.5443,2.3703,8.9807,0.1772,0.3352,-0.042
28761.0,1.4892,2.138,9.0046,0.1836,0.3507,-0.0213
28771.0,1.494,1.9441,8.8538,0.1894,0.3581,-0.0154
28781.0,1.664,1.8076,8.7747,0.1809,0.3741,-0.0271
28791.0,1.5754,1.8124,8.6933,0.1846,0.423,-0.0516
28801.0,1.5874,1.8244,8.7795,0.1878,0.4704,-0.0745
28811.0,1.6233,2.0255,8.7628,0.2091,0.5268,-0.0926
28821.0,1.415,2.2386,9.0022,0.1889,0.5837,-0.1038
28831.0,1.2163,2.4325,9.2943,0.1607,0.6093,-0.0974
28841.0,1.1372,2.4684,9.7564,0.1692,0.6284,-0.067
28851.0,0.8667,2.3894,10.1394,0.2219,0.6252,-0.0223
28861.0,0.7374,2.2122,10.3453,0.2996,0.5763,0.0176
28871.0,0.7183,2.0518,10.2161,0.3895,0.5151,0.042
28881.0,0.5555,2.0231,9.8258,0.4661,0.4571,0.0516
28891.0,0.4932,2.1284,9.4739,0.5396,0.4443,0.0527
28901.0,0.4238,2.2769,9.0046,0.6029,0.4667,0.0569
28911.0,0.419,2.3296,8.7867,0.6258,0.5151,0.067
28921.0,0.4453,2.3727,8.8825,0.6742,0.6157,0.0803
28931.0,0.1532,2.3918,9.2057,0.7529,0.7317,0.0974
28941.0,0.0527,2.4636,9.6534,0.8599,0.8232,0.1176
28951.0,-0.0192,2.6264,10.0293,0.9732,0.886,0.1373
28961.0,-0.2011,2.818,10.2663,1.0392,0.9067,0.1506
28971.0,-0.4046,3.0191,10.4291,1.052,0.8865,0.1612
28981.0,-0.4094,3.0861,10.4555,1.0089,0.8354,0.1745
28991.0,-0.498,3.201,10.5321,0.9802,0.8221,0.183
29001.0,-0.6536,3.225,10.7284,0.944,0.8051,0.1905
29011.0,-0.7853,3.2465,10.7859,0.8993,0.7817,0.1953
29021.0,-0.826,3.237,10.8338,0.779,0.7279,0.1825
29031.0,-0.7973,3.3279,10.8386,0.5752,0.6401,0.1447
29041.0,-0.838,3.4548,10.9032,0.3278,0.5582,0.1
29051.0,-0.8188,3.5578,11.1977,0.0846,0.4911,0.0644
29061.0,-0.8763,3.5195,11.5137,-0.125,0.4065,0.0484
29071.0,-0.7901,3.3184,11.7986,-0.2884,0.2895,0.041
29081.0,-0.735,3.0191,11.8226,-0.3714,0.1815,0.0372
29091.0,-0.6033,2.7414,11.6717,-0.3757,0.0873,0.0271
29101.0,-0.5004,2.5355,11.145,-0.339,0.0186,0.0059
29111.0,-0.2514,2.4325,10.6326,-0.3421,-0.0202,-0.0378
29121.0,-0.1556,2.5187,10.2113,-0.4257,-0.0474,-0.1
29131.0,-0.1915,2.6839,10.0341,-0.5502,-0.0511,-0.1586
29141.0,-0.1341,2.7222,10.1754,-0.655,-0.0346,-0.1948
29151.0,-0.1484,2.6288,10.3477,-0.7194,-0.0229,-0.2123
29161.0,-0.1484,2.4134,10.489,-0.7391,-0.025,-0.2256
29171.0,-0.0048,2.241,10.4722,-0.7487,-0.0644,-0.2464
29181.0,-0.0096,2.1644,10.5105,-0.7662,-0.1155,-0.2804
29191.0,0.0024,2.2793,10.3549,-0.7354,-0.1469,-0.3049
29201.0,0.0431,2.4349,10.1993,-0.6726,-0.1532,-0.3182
29211.0,-0.0239,2.6456,9.9766,-0.6199,-0.1458,-0.3171
29221.0,-0.0742,2.7318,9.8737,-0.5922,-0.1501,-0.3001
29231.0,-0.0359,2.8299,9.5577,-0.5225,-0.1282,-0.2687
29241.0,0.0192,2.9281,9.2153,-0.4581,-0.0756,-0.2293
29251.0,0.0287,2.8898,9.1506,-0.4342,0.0027,-0.19
29261.0,-0.0527,2.7821,9.3302,-0.4379,0.0809,-0.157
29271.0,-0.1532,2.6384,9.6798,-0.4055,0.1479,-0.124
29281.0,-0.2274,2.4493,10.0437,-0.3262,0.1937,-0.0894
29291.0,-0.3256,2.332,10.3789,-0.2102,0.2144,-0.0612
29301.0,-0.3974,2.3176,10.4698,-0.0692,0.2171,-0.0378
29311.0,-0.4022,2.3894,10.3621,0.0484,0.2043,-0.0208
29321.0,-0.431,2.5259,10.2328,0.1181,0.1916,-0.0096
29331.0,-0.5315,2.6887,10.1897,0.1336,0.1756,0.0005
29341.0,-0.6632,2.7845,10.1275,0.1304,0.1548,0.0122
29351.0,-0.6584,2.8252,10.0676,0.141,0.1288,0.0271
29361.0,-0.7446,3.0191,9.8234,0.1735,0.1272,0.0399
29371.0,-0.8236,3.2705,9.7875,0.1873,0.1431,0.0537
29381.0,-0.9098,3.5243,9.8114,0.1852,0.1591,0.0835
29391.0,-1.0127,3.7613,9.6558,0.1559,0.1575,0.1235
29401.0,-1.0199,3.8475,9.6798,0.1064,0.1745,0.1761
29411.0,-0.9505,3.7541,9.8713,0.067,0.2128,0.2448
29421.0,-0.8571,3.395,10.1275,0.0346,0.232,0.3124
29431.0,-0.7566,2.9736,10.2927,0.0261,0.2336,0.364
29441.0,-0.735,2.6288,10.343,0.0335,0.2368,0.3911
29451.0,-0.6847,2.3463,10.398,0.0447,0.2464,0.398
29461.0,-0.6512,2.083,10.4172,0.0431,0.2533,0.3895
29471.0,-0.4836,1.9178,10.3932,0.0245,0.2469,0.3602
29481.0,-0.51,1.8411,10.5321,-0.0282,0.2352,0.3118
29491.0,-0.5746,1.81,10.6757,-0.108,0.1937,0.2581
29501.0,-0.4932,1.8411,10.6997,-0.1681,0.1368,0.2081
29511.0,-0.486,1.9225,10.5967,-0.1963,0.0947,0.1692
29521.0,-0.5148,2.0949,10.4076,-0.2027,0.0676,0.1442
29531.0,-0.4477,2.2338,10.1897,-0.2006,0.0559,0.1357
29541.0,-0.2993,2.3272,9.9359,-0.2176,0.0575,0.1373
29551.0,-0.2251,2.332,9.8138,-0.2458,0.0809,0.1463
29561.0,-0.2011,2.2936,9.7995,-0.2815,0.1112,0.157
29571.0,-0.1149,2.162,9.754,-0.2975,0.1399,0.1729
29581.0,-0.0048,1.8962,9.6965,-0.3118,0.1591,0.1841
29591.0,0.1317,1.6376,9.5385,-0.3166,0.1894,0.1793
29601.0,0.2059,1.4844,9.3901,-0.3033,0.2565,0.1602
29611.0,0.1867,1.4006,9.4906,-0.2804,0.3581,0.1389
29621.0,0.1939,1.2857,9.833,-0.2352,0.4768,0.1155
29631.0,0.1796,1.1684,10.2951,-0.1458,0.5853,0.0963
29641.0,0.1532,1.0965,10.659,0.0133,0.6912,0.0777
29651.0,-0.0144,1.2402,11.1019,0.2458,0.8508,0.0649
29661.0,-0.3687,1.4868,11.9112,0.5204,1.0397,0.0623
29671.0,-0.6369,1.8627,12.4953,0.7556,1.1621,0.0612
29681.0,-0.9577,2.4325,13.0963,0.9009,1.2627,0.0543
29691.0,-1.2857,2.8778,14.1114,0.8748,1.3085,0.0463
29701.0,-1.6879,3.1316,15.3444,0.7173,1.2467,0.0341
29711.0,-2.1931,3.213,16.5272,0.4432,1.0515,0.0059
29721.0,-2.3032,3.237,17.3771,0.0979,0.7359,-0.0436
29731.0,-2.6576,3.3088,18.0164,-0.2666,0.357,-0.1187
29741.0,-2.8347,3.4572,18.1217,-0.6114,-0.0915,-0.1974
29751.0,-2.9137,3.6224,17.4849,-0.9206,-0.5518,-0.2698
29761.0,-2.9473,3.8451,16.4577,-1.2052,-0.9567,-0.3368
29771.0,-2.897,4.1899,15.3277,-1.4511,-1.2616,-0.3874
29781.0,-2.9904,4.4963,14.4035,-1.6389,-1.4569,-0.3996
29791.0,-2.9832,4.4819,13.939,-1.7602,-1.6017,-0.3677
29801.0,-2.8515,4.276,13.5943,-1.7171,-1.6932,-0.2921
29811.0,-2.7078,3.9672,13.3189,-1.5197,-1.7432,-0.1894
29821.0,-2.545,3.8116,12.876,-1.2058,-1.7826,-0.0692
29831.0,-2.2529,3.5937,12.2846,-0.8423,-1.8257,0.0692
29841.0,-2.0877,3.3471,11.497,-0.48,-1.8507,0.2139
29851.0,-1.7885,2.8946,10.3382,-0.2182,-1.9241,0.3432
29861.0,-1.3527,2.4253,8.8274,-0.0697,-1.9741,0.4326
29871.0,-0.8715,2.0351,7.7165,-0.0335,-1.905,0.4613
29881.0,-0.6919,1.7693,7.2856,-0.1016,-1.7799,0.4417
29891.0,-0.5578,1.403,7.3813,-0.2336,-1.6746,0.398
29901.0,-0.2418,1.0127,7.7668,-0.3528,-1.5953,0.3374
29911.0,-0.091,0.8811,8.2791,-0.4385,-1.5479,0.2666
29921.0,-0.0192,0.8547,8.7652,-0.5007,-1.574,0.2011
29931.0,0.1556,0.9266,8.837,-0.5396,-1.6703,0.1495
29941.0,0.1796,1.0822,8.5976,-0.5491,-1.7544,0.1133
29951.0,0.1508,1.3958,8.4276,-0.5002,-1.8007,0.1022
29961.0,0.3519,1.6424,8.2097,-0.3826,-1.8071,0.1229
29971.0,0.5028,1.5586,7.8123,-0.2629,-1.7789,0.1713
29981.0,0.7566,1.0511,7.7931,-0.2192,-1.7358,0.2118
29991.0,0.984,0.644,8.2432,-0.1708,-1.6565,0.2203
30001.0,1.1181,0.2729,9.2799,-0.0676,-1.5889,0.2139
30011.0,1.3024,0.237,9.6941,0.116,-1.5958,0.2038
30021.0,1.5227,0.431,9.4284,0.1995,-1.7086,0.1793
30031.0,1.7214,0.7805,8.916,0.1527,-1.8416,0.1511
30041.0,2.3296,1.0822,8.2983,0.0128,-1.9459,0.1298
30051.0,2.4086,1.0199,7.6231,-0.1666,-2.0109,0.1192
30061.0,2.3798,1.2546,7.1419,-0.3054,-2.0151,0.0926
30071.0,2.8706,1.7669,6.019,-0.3895,-1.9949,0.091
30081.0,3.5243,1.4629,4.8147,-0.6141,-1.939,0.1235
30091.0,4.0055,0.7278,4.7022,-0.9163,-1.7687,0.133
30101.0,4.7525,-0.1484,5.4109,-1.1148,-1.5884,0.1117
30111.0,3.8355,2.2553,6.8738,-0.9477,-1.3564,0.0846
30121.0,3.8116,1.4724,6.4955,-0.5518,-1.2494,0.3086
30131.0,5.782,0.1221,5.4205,-0.1857,-1.1015,0.4816
30141.0,5.3702,-0.1532,6.0238,-0.058,-0.9009,0.473
30151.0,5.2122,0.4357,5.7724,-0.0074,-0.845,0.4401
30161.0,5.4061,0.68,5.3175,0.0016,-0.7939,0.4475
30171.0,5.9592,0.0096,4.6663,-0.0713,-0.7301,0.4688
30181.0,6.213,-0.7973,4.0438,-0.2134,-0.5699,0.4369
30191.0,6.3207,-1.7095,4.5729,-0.3714,-0.3092,0.3363
30201.0,6.0885,-2.1572,5.7628,-0.3789,-0.0346,0.2001
30211.0,5.8826,-2.2817,6.9504,-0.2778,0.124,0.0601
30221.0,5.7557,-2.0542,7.7788,-0.1442,0.1575,-0.0697
30231.0,5.4899,-1.743,8.1523,-0.0245,0.0617,-0.1751
30241.0,5.5641,-1.0534,7.3574,0.0958,-0.0979,-0.2607
30251.0,5.6168,-0.249,5.3343,0.0245,-0.2953,-0.3225
30261.0,5.8754,-0.3448,3.4572,-0.2485,-0.373,-0.357
30271.0,6.2513,-0.4166,1.9992,-0.4816,-0.1963,-0.3932
30281.0,6.3303,-0.814,1.4988,-0.6215,0.1059,-0.4204
30291.0,6.213,-0.826,1.0606,-0.4879,0.4837,-0.4284
30301.0,6.0669,-0.1484,0.2155,-0.2554,0.8615,-0.4129
30311.0,5.4588,0.5243,-0.2059,-0.1618,1.1265,-0.3549
30321.0,4.9656,1.7214,-2.0375,-0.1687,1.26,-0.2469
30331.0,3.5314,2.9281,-5.8562,-0.6699,1.1286,-0.1219
30341.0,2.6169,3.213,-11.1139,-1.7576,0.8189,0.016
30351.0,1.6712,2.6671,-16.5918,-2.775,0.9684,0.2198
30361.0,1.6712,2.6671,-16.5918,-2.775,0.9684,0.2198
30371.0,-0.9002,0.1269,-21.9381,-2.9697,2.8495,0.6832
30381.0,-0.9002,0.1269,-21.9381,-2.9697,2.8495,0.6832
30391.0,-3.4333,0.1724,-22.1751,-1.7113,4.5639,0.9232
30401.0,-8.6526,0.4094,-18.9333,0.3618,6.8483,1.2026
30411.0,-13.9055,0.3017,-14.1521,2.3902,8.8293,1.3846
30421.0,-18.7179,-0.079,-7.3334,3.9174,10.4624,1.3675
30431.0,-22.9053,-2.4421,4.5969,5.0732,11.8991,1.1297
30441.0,-25.8215,-4.3527,18.2199,6.14,12.7313,0.6114
30451.0,-25.2684,-2.4493,29.5995,6.8568,12.37,-0.2437
30461.0,-25.6754,3.7158,39.1787,6.587,11.1094,-1.1781
30471.0,-23.8941,11.0277,46.2919,5.0982,8.7245,-1.8736
30481.0,-20.8679,15.8664,48.2025,3.2485,5.8367,-2.1056
30491.0,-18.9214,18.069,45.983,1.433,3.2688,-1.9608
30501.0,-17.5447,15.8376,41.9584,-0.2969,0.8588,-1.5915
30511.0,-14.4394,11.9159,34.4166,-0.9557,-0.8796,-1.1329
30521.0,-12.1625,9.8306,26.6139,-0.5279,-1.2393,-0.7678
30531.0,-10.7739,8.6359,21.4281,-0.0341,-0.8402,-0.5263
30541.0,-10.0868,7.1227,21.3659,0.0112,-0.365,-0.4108
30551.0,-10.5201,6.6439,23.1088,0.0346,-0.0585,-0.3624
30561.0,-10.6255,7.003,24.3873,-0.0867,-0.3006,-0.3363
30571.0,-10.3453,7.2712,24.8135,-0.3129,-0.9184,-0.2613
30581.0,-10.094,6.7947,23.1543,-0.4204,-1.6017,-0.1086
30591.0,-9.1722,5.1092,20.4201,-0.6476,-2.295,0.0112
30601.0,-8.3821,3.2106,17.8392,-0.9413,-2.7675,0.0223
30611.0,-7.6998,2.1213,16.0986,-1.2409,-3.0863,-0.0851
30621.0,-7.2999,1.5323,15.0643,-1.3729,-3.2698,-0.2192
30631.0,-7.0677,1.6688,13.8385,-1.2643,-3.372,-0.3145
30641.0,-6.6272,2.1596,12.5169,-1.1398,-3.504,-0.3688
30651.0,-6.3159,2.3679,11.6167,-0.9972,-3.5407,-0.3565
30661.0,-5.8849,2.3056,11.2504,-0.7753,-3.5236,-0.2969
30671.0,-5.7197,2.3607,10.7571,-0.522,-3.5508,-0.2235
30681.0,-5.4229,2.1596,10.2472,-0.3453,-3.6391,-0.1383
30691.0,-5.0398,1.8148,9.6702,-0.2144,-3.7392,-0.0644
30701.0,-4.7094,1.549,9.0549,-0.1181,-3.8445,-0.0133
30711.0,-4.3215,1.3695,8.023,-0.1043,-3.9924,0.009
30721.0,-3.8642,1.2354,6.9671,-0.1878,-4.1159,0.0016
30731.0,-3.0622,1.2594,5.9735,-0.3257,-4.1643,-0.0346
30741.0,-2.6671,1.5203,4.7309,-0.5619,-4.1861,-0.0926
30751.0,-2.071,1.3743,3.7924,-0.961,-4.2191,-0.1602
30761.0,-1.3384,1.0918,3.5793,-1.3207,-4.1547,-0.2331
30771.0,-0.8547,0.9266,4.0318,-1.4314,-4.0052,-0.2985
30781.0,-0.5507,0.9242,4.1108,-1.1877,-3.8312,-0.307
30791.0,0.2849,0.7685,3.9456,-0.6529,-3.562,-0.2559
30801.0,0.9673,0.8284,3.5985,-0.0032,-3.1905,-0.182
30811.0,1.3455,1.3264,3.6009,0.4741,-2.8425,-0.1256
30821.0,1.5634,2.0231,3.1532,0.6008,-2.6169,-0.0766
30831.0,1.9154,2.2817,2.8754,0.2533,-2.5823,-0.05
30841.0,1.9417,2.0375,3.0478,-0.2677,-2.5648,-0.0388
30851.0,2.1332,1.2306,3.6033,-0.6274,-2.5334,-0.0309
30861.0,2.6935,0.3112,4.1276,-0.5832,-2.4073,-0.0213
30871.0,3.1484,0.0,4.6376,-0.1681,-2.1625,-0.0197
30881.0,3.5099,0.2682,4.6855,0.3315,-1.9832,-0.0239
30891.0,3.9433,0.9361,3.6703,0.6715,-1.8911,-0.0154
30901.0,4.0127,1.5467,2.478,0.6141,-1.8778,-0.0181
30911.0,4.288,2.15,1.2402,0.2927,-1.8831,-0.0282
30921.0,4.3646,2.3487,0.0862,-0.1309,-1.8533,-0.0197
30931.0,4.9847,1.9872,-1.2737,-0.4981,-1.7847,0.0074
30941.0,5.8562,1.2163,-2.4086,-0.6306,-1.5304,0.0362
30951.0,6.4572,0.6895,-3.7158,-0.4693,-1.0477,0.0553
30961.0,6.9097,0.2203,-5.2026,-0.2943,-0.5316,0.0463
30971.0,7.1323,0.0622,-6.6248,-0.207,0.0394,0.0043
30981.0,6.7684,0.2586,-7.2449,-0.2091,0.688,-0.0633
30991.0,6.1292,1.0558,-6.8929,-0.0931,1.4048,-0.1144
31001.0,5.1834,2.7126,-7.2209,0.1442,2.0146,-0.1096
31011.0,3.7421,4.7525,-10.1442,-0.0404,2.2375,-0.0394
31021.0,2.5211,6.0262,-15.3588,-0.9551,2.2684,0.1096
31031.0,0.9744,5.9903,-21.9285,-2.3386,2.5169,0.3634
31041.0,-1.7047,4.2689,-26.3578,-3.6907,3.3305,0.7098
31051.0,-4.956,1.6185,-26.2141,-4.1558,4.8454,1.1494
31061.0,-10.0102,-0.6393,-21.4856,-2.8958,7.0792,1.6182
31071.0,-16.1321,-1.6113,-13.8409,-0.315,9.5131,1.9587
31081.0,-21.7154,-3.3327,-4.5226,2.4089,11.5272,2.1056
31091.0,-26.0034,-5.5426,6.4189,4.5091,12.9793,1.8741
31101.0,-28.4072,-6.7421,19.156,5.3839,13.4188,1.1722
31111.0,-28.242,-4.1492,28.9291,5.4749,12.7797,0.1953
31121.0,-28.4599,1.4485,39.387,4.5139,11.4649,-0.7923
31131.0,-26.432,6.9552,50.1729,3.0219,9.379,-1.4383
31141.0,-24.3586,12.7395,55.0714,1.9236,6.9153,-1.5985
31151.0,-21.5095,13.9845,57.2023,0.6593,4.0664,-1.3739
31161.0,-19.1488,13.4027,51.6693,-0.1596,1.2063,-0.9222
31171.0,-16.01,10.9774,42.8634,-0.7348,-1.0397,-0.4741
31181.0,-13.6446,8.3007,32.7838,-1.1526,-2.4653,-0.1607
31191.0,-11.3318,5.9592,23.796,-1.3367,-3.0447,0.0197
31201.0,-9.1674,4.2976,18.1816,-1.2185,-2.7441,0.1
31211.0,-8.327,3.6416,15.7922,-0.9727,-1.9965,0.124
31221.0,-7.6495,2.6839,17.085,-0.8913,-1.4745,0.1213
31231.0,-7.4867,2.1907,19.235,-0.6114,-1.2175,0.1458
31241.0,-7.3095,1.8555,20.1496,-0.2756,-1.4298,0.2006
31251.0,-6.5817,1.4533,17.8033,-0.1644,-2.0779,0.2379
31261.0,-5.5354,0.6249,14.4753,-0.3884,-2.6845,0.215
31271.0,-4.798,-0.1413,11.0923,-0.7524,-3.033,0.1165
31281.0,-3.8906,-0.8859,8.5688,-1.1212,-3.1427,-0.0399
31291.0,-3.1125,-1.0798,7.1084,-1.3047,-2.9777,-0.2166
31301.0,-2.818,-0.838,6.9121,-1.2702,-2.6499,-0.3602
31311.0,-2.5498,-0.158,7.1227,-1.0637,-2.3636,-0.4432
31321.0,-2.3798,0.4932,7.2281,-0.7833,-2.1588,-0.447
31331.0,-2.1165,0.735,7.0892,-0.4991,-2.0018,-0.3858
31341.0,-1.7669,0.6129,6.4212,-0.3001,-1.8911,-0.3145
31351.0,-1.2546,0.091,6.2177,-0.2565,-1.7363,-0.2836
31361.0,-1.2306,-0.2825,6.7349,-0.2682,-1.5064,-0.3092
31371.0,-1.0822,-0.4549,7.8123,-0.3065,-1.3606,-0.3746
31381.0,-1.1923,-0.2634,8.8418,-0.2868,-1.2904,-0.4438
31391.0,-1.2091,0.2298,9.5361,-0.2166,-1.3005,-0.4954
31401.0,-1.1636,0.7087,9.8569,-0.1548,-1.3686,-0.5119
31411.0,-1.2522,1.1756,10.4148,-0.091,-1.4144,-0.4975
31421.0,-1.2953,1.6951,10.8577,0.016,-1.4787,-0.4486
31431.0,-1.3024,2.1428,10.7428,0.133,-1.5873,-0.364
31441.0,-1.1277,2.2362,10.3166,0.1485,-1.7182,-0.2591
31451.0,-1.1277,2.0375,9.6127,0.0426,-1.8475,-0.1628
31461.0,-0.7853,1.3168,9.2919,-0.1224,-1.9268,-0.0915
31471.0,-0.6177,0.5986,9.1506,-0.1751,-1.8991,-0.0569
31481.0,-0.4573,0.0886,9.3589,-0.1447,-1.8486,-0.0628
31491.0,-0.3926,-0.0479,9.3541,-0.0479,-1.8071,-0.0947
31501.0,-0.2203,0.0431,9.5289,-0.0021,-1.8267,-0.1453
31511.0,-0.0958,0.6009,9.56,0.0378,-1.8613,-0.1979
31521.0,-0.0215,1.154,9.7229,0.0601,-1.9108,-0.2224
31531.0,0.1389,1.7789,9.1243,0.0905,-1.9821,-0.2017
31541.0,0.4669,2.0039,7.9918,-0.0239,-2.0662,-0.1591
31551.0,1.087,1.506,7.592,-0.2687,-2.0593,-0.1208
31561.0,1.3599,1.0175,8.1139,-0.4326,-1.939,-0.1165
31571.0,1.482,0.814,8.8298,-0.4464,-1.8518,-0.1245
31581.0,1.5395,0.9361,9.3015,-0.4028,-1.8757,-0.1314
31591.0,1.4868,1.257,9.3326,-0.3326,-1.9906,-0.1181
31601.0,1.7262,1.4988,8.7604,-0.1857,-2.104,-0.0676
31611.0,2.0614,1.7741,7.4986,-0.0138,-2.1508,0.0043
31621.0,2.4541,1.9106,6.2489,0.041,-2.121,0.0756
31631.0,2.7964,1.7621,5.3702,-0.0442,-2.0215,0.1383
31641.0,3.3255,1.1492,5.2672,-0.2118,-1.8917,0.1761
31651.0,3.6871,0.6943,5.8227,-0.2911,-1.7251,0.1804
31661.0,3.5195,0.6345,6.7062,-0.2293,-1.5995,0.1713
31671.0,3.4836,0.9409,7.3646,-0.0484,-1.5974,0.1846
31681.0,3.3064,1.2043,7.0725,0.1171,-1.7437,0.2277
31691.0,3.2394,1.4988,5.3774,0.1708,-1.9864,0.2799
31701.0,3.8499,1.2857,2.7461,0.0277,-2.2434,0.3214
31711.0,4.7597,0.8164,-0.0024,-0.1852,-2.2647,0.3235
31721.0,5.296,0.4645,-2.1284,-0.3022,-1.9459,0.29
31731.0,5.9544,0.0646,-3.1627,-0.3374,-1.4729,0.2256
31741.0,6.2824,0.3687,-4.2856,-0.2288,-0.8971,0.1415
31751.0,6.3015,0.8499,-4.5466,-0.1713,-0.3278,0.0644
31761.0,6.1555,1.7142,-5.3199,-0.1298,0.1655,0.0277
31771.0,5.7916,2.8826,-7.0222,-0.2953,0.5119,0.0287
31781.0,5.2601,3.7972,-9.1578,-0.796,0.7662,0.0814
31791.0,4.3479,4.1348,-10.2496,-1.3649,1.1084,0.2065
31801.0,3.201,4.197,-11.8034,-1.5676,1.5133,0.4156
31811.0,1.9178,4.2377,-14.4538,-1.3404,2.0082,0.688
31821.0,0.6177,4.6471,-17.9757,-0.7545,2.8058,1.0073
31831.0,-2.3655,4.1875,-21.5334,-0.1288,3.9233,1.3649
31841.0,-4.7238,2.4612,-24.2652,0.3384,5.2104,1.6597
31851.0,-9.0788,1.0726,-24.8901,0.8966,7.0574,1.8118
31861.0,-14.9566,-0.5986,-19.7857,1.5804,9.3024,1.8251
31871.0,-22.0889,-1.1684,-10.8481,2.6191,11.4766,1.7065
31881.0,-28.5604,-1.4868,2.6097,3.9738,13.3496,1.4787
31891.0,-33.4039,-0.9385,19.1273,5.7117,14.6464,1.1345
31901.0,-32.0081,3.3399,29.9108,7.2596,14.5416,0.6375
31911.0,-32.9634,9.3637,40.9265,6.6344,13.2065,0.0101
31921.0,-29.7049,11.9806,52.9717,4.3027,10.4576,-0.472
31931.0,-26.1614,14.1114,57.7003,2.1418,7.275,-0.6917
31941.0,-24.7872,12.8209,60.8391,0.1314,4.2255,-0.6816
31951.0,-22.0195,10.8912,55.3348,-1.0828,0.8897,-0.5076
31961.0,-19.0794,9.4188,44.8985,-1.5591,-1.5814,-0.2852
31971.0,-16.5846,8.5305,33.7128,-1.6123,-2.8159,-0.0665
31981.0,-14.279,7.2018,24.6962,-1.748,-3.2746,0.1032
31991.0,-12.3708,5.3534,19.3499,-1.8518,-3.1224,0.223
32001.0,-11.0421,3.3423,17.0419,-1.7187,-2.6643,0.2895
32011.0,-9.7276,1.6712,15.7945,-1.4149,-2.2498,0.281
32021.0,-8.6646,0.5435,15.876,-1.1116,-1.9225,0.1889
32031.0,-7.8793,0.2729,16.3404,-0.9222,-1.814,0.0341
32041.0,-7.3215,0.1867,16.4817,-0.9211,-1.9805,-0.1298
32051.0,-6.7564,-0.3208,16.1944,-1.0456,-2.3301,-0.2916
32061.0,-6.2058,-0.34,14.7459,-1.177,-2.7473,-0.4741
32071.0,-5.6838,0.0718,12.9024,-1.3356,-3.0714,-0.6619
32081.0,-5.5091,0.6656,10.8721,-1.5149,-3.3023,-0.8072
32091.0,-4.7716,0.8068,9.0357,-1.6458,-3.4492,-0.8929
32101.0,-4.2737,1.3048,7.0461,-1.525,-3.3273,-0.9168
32111.0,-3.7589,1.6999,5.8035,-1.3532,-3.0447,-0.8955
32121.0,-3.1939,1.7741,5.1834,-1.1643,-2.6872,-0.8253
32131.0,-2.7916,1.4509,6.1962,-0.9259,-2.2487,-0.7301
32141.0,-2.6025,1.1396,7.6591,-0.5475,-1.8459,-0.6199
32151.0,-2.4995,0.8906,9.0908,-0.2128,-1.6543,-0.5268
32161.0,-2.375,0.5483,10.3645,0.0043,-1.6442,-0.456
32171.0,-2.2482,0.4788,10.884,0.091,-1.8017,-0.4252
32181.0,-2.2482,0.7638,10.8122,0.016,-2.0763,-0.4374
32191.0,-2.2242,1.3431,10.0173,-0.1357,-2.3392,-0.4496
32201.0,-1.8435,1.9273,8.9112,-0.3767,-2.5568,-0.4555
32211.0,-1.6089,2.4373,7.8434,-0.6098,-2.626,-0.4321
32221.0,-1.3575,2.3703,7.5106,-0.8237,-2.6063,-0.3746
32231.0,-1.0463,2.0375,7.1778,-0.8913,-2.5499,-0.2996
32241.0,-0.6776,1.5395,6.9839,-0.7982,-2.4355,-0.2192
32251.0,-0.3496,1.166,6.6319,-0.613,-2.2737,-0.1554
32261.0,0.0239,0.9577,6.5314,-0.4677,-2.105,-0.1203
32271.0,0.3352,0.9553,6.5146,-0.3555,-1.9215,-0.1
32281.0,0.5291,1.0151,6.7732,-0.331,-1.7671,-0.0905
32291.0,0.5794,0.9074,7.2688,-0.365,-1.648,-0.0798
32301.0,0.7781,0.8332,7.932,-0.389,-1.5687,-0.0745
32311.0,0.8787,0.8787,8.7771,-0.3491,-1.499,-0.0644
32321.0,0.9433,1.0223,9.7205,-0.2559,-1.4404,-0.0372
32331.0,0.8452,1.1588,10.4555,-0.2112,-1.5117,-0.0016
32341.0,1.0822,1.2641,10.3645,-0.2368,-1.7219,0.0383
32351.0,1.3192,1.2809,9.4379,-0.3331,-1.9465,0.0772
32361.0,1.7765,1.2713,8.442,-0.4491,-2.072,0.1096
32371.0,1.8028,1.3767,7.5154,-0.5103,-2.0603,0.1527
32381.0,2.1572,0.9984,7.4891,-0.5454,-1.9699,0.2134
32391.0,2.2122,0.5148,7.9392,-0.4432,-1.8007,0.2847
32401.0,2.4995,-0.2298,8.9304,-0.2597,-1.6517,0.3491
32411.0,2.6288,-0.723,9.3254,-0.0793,-1.6384,0.3767
32421.0,2.9066,-1.0247,9.1291,-0.049,-1.7629,0.3592
32431.0,3.1532,-1.1708,8.442,-0.1282,-1.8996,0.3155
32441.0,3.541,-1.4844,7.6327,-0.2847,-2.0135,0.2501
32451.0,3.881,-1.5179,6.9384,-0.4347,-2.0582,0.1548
32461.0,3.8642,-1.245,6.6319,-0.5193,-2.0226,0.0623
32471.0,4.0103,-1.0942,6.869,-0.4848,-1.9534,0.0096
32481.0,3.9863,-0.6321,6.845,-0.2623,-1.8667,0.0011
32491.0,4.0869,-0.1197,6.7373,-0.0011,-1.8007,0.042
32501.0,4.5298,0.0239,6.5505,0.2554,-1.7315,0.1341
32511.0,4.7477,-0.1844,6.2345,0.4379,-1.6799,0.2347
32521.0,4.9775,-0.4597,5.7245,0.456,-1.7134,0.2953
32531.0,5.2625,-0.5291,5.1787,0.3485,-1.7666,0.306
32541.0,5.4684,-0.3496,4.8411,0.1809,-1.8145,0.2932
32551.0,5.5665,-0.2682,4.1515,0.0032,-1.8917,0.2895
32561.0,5.8227,-0.3089,3.1699,-0.1772,-1.9603,0.2884
32571.0,5.8562,-0.3903,2.3439,-0.3065,-1.9225,0.2911
32581.0,5.8706,-0.5698,2.0159,-0.3288,-1.7953,0.3113
32591.0,6.0837,-0.8715,1.4126,-0.1623,-1.6331,0.3544
32601.0,6.699,-1.2665,-0.3208,-0.0064,-1.5091,0.3852
32611.0,7.3957,-1.8699,-2.3559,-0.0527,-1.3505,0.3624
32621.0,7.4962,-1.901,-4.2018,-0.3209,-1.1313,0.2597
32631.0,7.4388,-1.1325,-6.8618,-0.8423,-0.9743,0.1229
32641.0,6.8666,-0.7135,-8.2839,-1.5756,-0.803,0.009
32651.0,5.8466,0.3974,-10.4483,-2.0061,-0.5603,-0.0442
32661.0,5.2648,3.3662,-16.3093,-2.1508,-0.365,-0.0106
32671.0,4.6831,7.3047,-24.0426,-2.4211,0.0101,0.1564
32681.0,3.3112,12.7443,-34.4837,-2.9357,0.6316,0.5412
32691.0,-2.7246,17.3388,-43.2034,-3.4492,1.9225,1.2648
32701.0,-8.8825,17.9565,-48.1953,-3.1198,4.0999,2.411
32711.0,-16.3093,12.8425,-51.0827,-1.9278,7.0074,3.7147
32721.0,-26.5732,2.7461,-43.3063,-0.7513,10.4853,4.6065
32731.0,-38.9752,-5.2122,-25.855,1.2781,14.2021,4.8215
32741.0,-48.3389,-11.5137,-4.9943,4.2468,17.0904,4.425
32751.0,-52.8759,-12.074,12.1985,7.1452,17.4357,3.3167
32761.0,-57.073,-5.0805,33.526,8.3047,17.4357,1.6942
32771.0,-51.6334,6.7588,46.5936,7.6832,17.1452,0.3608
32781.0,-49.1314,14.4107,61.8518,4.9902,13.8631,-0.3145
32791.0,-42.4348,16.5607,69.633,2.8697,10.0191,-0.1293
32801.0,-35.3384,14.7794,71.0455,1.6315,6.3566,0.4337
32811.0,-29.2787,9.5577,66.329,0.9993,2.7936,1.0541
32821.0,-23.2142,5.4612,54.5399,1.1701,-0.1272,1.5171
32831.0,-18.7322,3.4237,41.4412,1.5719,-1.8299,1.7288
32841.0,-15.5767,1.6017,29.7336,1.558,-2.8404,1.7278
32851.0,-12.615,-0.2346,19.4266,1.1047,-3.3507,1.5586
32861.0,-9.7899,-3.1412,12.2128,0.4055,-3.3954,1.2388
32871.0,-7.0174,-4.3766,6.9599,0.1522,-2.7175,0.8056
32881.0,-6.5314,-4.197,7.3813,0.2112,-1.4287,0.3565
32891.0,-6.869,-2.9999,10.3238,0.4784,-0.3799,0.0218
32901.0,-6.8354,-2.0016,14.607,0.7088,0.0208,-0.1825
32911.0,-6.8259,-1.2905,18.3659,1.1222,0.0607,-0.2501
32921.0,-6.9073,-1.087,20.3603,1.4601,-0.3666,-0.2591
32931.0,-7.0629,-0.7805,19.4649,1.4575,-1.1919,-0.3219
32941.0,-6.4404,-0.407,17.7362,1.1307,-1.9491,-0.4603
32951.0,-6.687,0.1437,15.3349,0.6737,-2.4211,-0.6279
32961.0,-6.687,0.4118,13.86,0.0463,-2.8021,-0.8365
32971.0,-6.5529,1.9201,12.2918,-0.3959,-2.9527,-1.0307
32981.0,-6.7421,2.8706,12.6246,-0.6252,-2.8644,-1.0993
32991.0,-6.7445,3.7278,13.1394,-0.4816,-2.7718,-1.0323
33001.0,-6.7684,4.0917,13.6685,-0.1266,-2.768,-0.8604
33011.0,-6.4667,4.0677,13.216,0.2863,-2.9037,-0.6433
33021.0,-6.1268,3.8307,11.9447,0.5662,-3.1012,-0.4592
33031.0,-5.7174,3.7972,10.24,0.572,-3.2996,-0.3581
33041.0,-5.2218,3.8259,8.849,0.3177,-3.4422,-0.3379
33051.0,-4.8123,4.0582,7.8075,-0.0543,-3.4907,-0.3618
33061.0,-4.4532,4.5514,7.276,-0.4943,-3.4837,-0.4001
33071.0,-4.2306,4.6543,7.288,-0.9237,-3.5013,-0.3964
33081.0,-3.7493,4.1539,8.0325,-1.0674,-3.4465,-0.3283
33091.0,-3.7182,4.0677,8.5904,-0.7529,-3.2805,-0.2107
33101.0,-3.6895,3.9648,8.9735,-0.2921,-3.2017,-0.049
33111.0,-3.0861,3.9385,8.5258,0.1016,-3.2315,0.1219
33121.0,-2.5355,3.8379,8.1355,0.2964,-3.2565,0.2618
33131.0,-2.0949,3.9049,7.501,0.2517,-3.3135,0.3555
33141.0,-1.4724,3.9983,6.6152,-0.0532,-3.4422,0.4012
33151.0,-1.063,4.142,5.3391,-0.4826,-3.5428,0.4299
33161.0,-0.2825,3.5171,4.9392,-0.9498,-3.5343,0.4656
33171.0,-0.0766,2.909,5.3247,-1.1126,-3.3305,0.5146
33181.0,-0.0215,2.3463,6.3805,-0.9232,-3.0873,0.5997
33191.0,0.2897,1.6568,7.1299,-0.4273,-2.883,0.7311
33201.0,0.644,1.2522,6.8761,0.0724,-2.7835,0.8508
33211.0,1.4198,1.0104,6.0908,0.24,-2.8532,0.8993
33221.0,2.0016,1.0343,4.8937,0.1878,-2.8947,0.895
33231.0,2.32,1.0367,4.2832,-0.0202,-2.8468,0.8652
33241.0,2.6312,1.0918,3.5267,-0.2187,-2.75,0.8418
33251.0,3.0742,0.6416,3.1196,-0.4268,-2.6244,0.8296
33261.0,3.6966,0.0431,3.3375,-0.5071,-2.4073,0.8216
33271.0,3.9648,-0.6033,4.0127,-0.3799,-2.1492,0.82
33281.0,4.5562,-1.0247,4.3646,-0.091,-1.9486,0.8152
33291.0,4.5418,-1.1875,4.3646,0.1213,-1.8619,0.7843
33301.0,5.0111,-1.2282,3.9792,0.2251,-1.88,0.7348
33311.0,5.2505,-1.0582,3.0813,0.2799,-1.8943,0.6768
33321.0,5.6336,-0.8475,1.5754,0.2554,-1.8752,0.6135
33331.0,6.0717,-0.735,0.0455,0.091,-1.8102,0.5406
33341.0,6.5194,-0.4429,-1.0391,-0.0958,-1.6118,0.4645
33351.0,6.7493,-0.2394,-1.1516,-0.149,-1.2595,0.4299
33361.0,6.5481,0.0527,-0.7733,-0.0378,-0.9094,0.4358
33371.0,6.3422,1.0151,-1.1444,0.1117,-0.7173,0.4688
33381.0,5.7628,2.4876,-3.8954,-0.0798,-0.8434,0.5454
33391.0,5.5976,3.869,-9.1171,-0.9104,-1.2537,0.6444
33401.0,5.2241,5.2481,-15.6126,-2.1444,-1.557,0.7737
33411.0,7.2018,6.7756,-23.3674,-3.0432,-1.3973,0.9823
33421.0,3.1005,10.1059,-32.1278,-3.3257,-0.5018,1.3505
33431.0,-0.1987,11.7651,-37.826,-3.2108,0.8971,2.0151
33441.0,-3.5626,12.1602,-42.8921,-1.8757,2.8122,2.9208
33451.0,-11.078,10.3358,-45.9591,0.5768,5.6606,3.9004
33461.0,-20.3387,5.2816,-44.1203,3.2038,9.1736,4.5879
33471.0,-28.4264,-3.0646,-37.0742,5.1062,12.5376,4.623
33481.0,-37.6512,-10.1131,-24.7177,5.9357,15.5499,3.6987
33491.0,-42.7604,-16.0866,-7.7596,5.6345,17.4357,1.9555
33501.0,-50.2902,-14.868,15.682,4.9194,17.4357,-0.2692
33511.0,-53.1609,-2.5402,36.8252,4.9465,17.4357,-2.2466
33521.0,-49.1506,12.6079,53.1632,4.5948,15.6606,-3.3135
33531.0,-48.2551,25.266,65.6227,3.7557,12.3785,-3.1395
33541.0,-40.4668,29.2524,71.8476,2.9436,8.2392,-1.839
33551.0,-32.2547,21.0594,67.5165,2.2865,3.5199,-0.1453
33561.0,-25.5988,11.1043,54.0084,3.0831,0.5156,1.184
33571.0,-20.9636,3.5769,37.5052,4.0387,-0.7753,1.756
33581.0,-14.054,0.17,23.5925,3.1192,-1.409,1.3713
33591.0,-12.2703,-1.0343,20.7673,0.8679,-1.176,0.4374
33601.0,-12.9574,-0.3424,22.5773,-0.6737,-0.754,-0.3932
33611.0,-12.6629,1.6712,24.3514,-1.2271,-0.928,-0.9445
33621.0,-12.1697,4.4029,23.389,-0.8732,-1.4309,-1.1244
33631.0,-10.9583,5.7509,19.8551,-0.1676,-1.9417,-0.9716
33641.0,-9.4212,5.5641,15.4713,0.3938,-2.2402,-0.696
33651.0,-8.327,3.7972,13.1944,0.63,-2.1896,-0.4587
33661.0,-7.5513,1.7861,12.6174,0.6588,-2.0747,-0.3645
33671.0,-7.3909,0.2227,12.1482,0.5497,-2.1678,-0.4432
33681.0,-7.0485,0.103,10.6039,0.3044,-2.3519,-0.6651
33691.0,-6.5745,0.7805,9.9766,-0.2022,-2.4371,-0.9631
33701.0,-6.8211,1.8938,10.3573,-0.7588,-2.469,-1.2361
33711.0,-6.7876,2.9281,11.6143,-1.1472,-2.5398,-1.4149
33721.0,-6.7205,4.1994,12.4498,-1.1148,-2.593,-1.4548
33731.0,-6.8618,5.0853,13.137,-0.8301,-2.6643,-1.3516
33741.0,-6.9839,5.3678,13.1561,-0.4214,-2.8292,-1.1387
33751.0,-6.5649,5.2098,11.904,-0.0043,-3.0921,-0.8828
33761.0,-6.0047,5.0542,9.7181,0.2703,-3.2863,-0.6556
33771.0,-5.4468,5.2457,7.094,0.2267,-3.3645,-0.4858
33781.0,-4.6471,4.8985,6.2656,-0.1399,-3.3007,-0.3714
33791.0,-4.2066,4.4676,6.1842,-0.4523,-3.0953,-0.2751
33801.0,-3.8092,3.5051,7.0342,-0.6731,-2.9192,-0.1963
33811.0,-3.3016,2.7342,7.4891,-0.7396,-2.8527,-0.1596
33821.0,-2.909,2.2769,7.7093,-0.6864,-2.8213,-0.1522
33831.0,-2.5402,2.1715,7.5585,-0.5183,-2.7925,-0.1479
33841.0,-2.0303,2.4205,6.9456,-0.2852,-2.7313,-0.1341
33851.0,-1.8172,2.8994,6.0861,-0.1394,-2.6228,-0.1059
33861.0,-1.403,3.2322,5.4205,-0.2059,-2.5408,-0.0681
33871.0,-0.8787,3.3112,5.2433,-0.3528,-2.4057,-0.0213
33881.0,-0.6249,3.1532,5.7293,-0.4507,-2.1934,0.042
33891.0,-0.2945,2.9042,6.2728,-0.4853,-2.0188,0.1107
33901.0,-0.1053,2.5977,6.7564,-0.5486,-1.9427,0.1671
33911.0,0.2849,1.8603,7.5872,-0.5917,-1.8975,0.2214
33921.0,0.6512,1.0726,8.0972,-0.4826,-1.8422,0.2602
33931.0,0.9002,0.4381,8.3103,-0.315,-1.8246,0.2581
33941.0,1.0558,0.2682,8.1834,-0.1846,-1.8251,0.2128
33951.0,1.0223,0.51,8.2576,-0.1527,-1.8427,0.1458
33961.0,1.2163,0.8715,8.6503,-0.1027,-1.8251,0.1
33971.0,1.2354,1.3671,8.9567,0.0245,-1.7773,0.0974
33981.0,1.4174,1.7071,9.2727,0.058,-1.8113,0.1112
33991.0,1.4557,2.2673,8.9232,-0.0601,-1.9592,0.1288
34001.0,1.6759,2.4373,8.3629,-0.3161,-2.1646,0.1634
34011.0,1.992,2.2218,7.434,-0.4938,-2.2567,0.2267
34021.0,2.2601,1.5802,6.6631,-0.5736,-2.2067,0.2964
34031.0,2.806,0.8068,6.3686,-0.5539,-2.0454,0.3432
34041.0,3.122,0.3448,6.9647,-0.3986,-1.7868,0.3592
34051.0,3.3327,0.2179,7.8243,-0.108,-1.5107,0.373
34061.0,3.2633,0.3065,8.3414,0.0436,-1.4356,0.3693
34071.0,3.3782,0.4525,8.406,-0.0415,-1.5745,0.3427
34081.0,3.4764,0.6416,8.1116,-0.2246,-1.7602,0.3193
34091.0,3.4884,0.5411,7.3143,-0.3884,-1.9443,0.3203
34101.0,4.0055,0.0551,5.679,-0.5044,-2.0955,0.3304
34111.0,4.6783,-0.4932,3.8331,-0.5949,-2.1002,0.3086
34121.0,5.0398,-0.9242,2.7438,-0.6497,-1.8762,0.2512
34131.0,5.3199,-1.3479,2.8467,-0.6151,-1.5351,0.1799
34141.0,5.5976,-1.3862,3.0095,-0.4635,-1.2473,0.1006
34151.0,5.6503,-1.2163,2.9018,-0.3257,-1.0807,0.0213
34161.0,5.8873,-1.0918,2.4157,-0.2357,-0.97,-0.0362
34171.0,6.122,-1.1157,1.6544,-0.1671,-0.8471,-0.0835
34181.0,6.4787,-1.0008,0.7135,-0.0261,-0.6204,-0.133
34191.0,6.6152,-0.8882,0.0024,0.1708,-0.2756,-0.1735
34201.0,6.5984,-0.8452,-0.1532,0.4427,0.1793,-0.2017
34211.0,6.3901,-0.4621,0.0814,0.7971,0.7024,-0.2304
34221.0,5.9687,-0.0718,0.7614,1.094,1.1797,-0.2522
34231.0,5.4899,0.419,1.5227,1.2553,1.5639,-0.2756
34241.0,5.2002,0.9194,2.5833,1.1781,1.7767,-0.3129
34251.0,4.8914,1.2929,3.4955,0.9621,1.8241,-0.3347
34261.0,4.7956,1.1133,4.1635,0.6997,1.7501,-0.3342
34271.0,4.7118,1.1684,4.0318,0.4784,1.6373,-0.3576
34281.0,4.1922,1.7214,3.6966,0.2581,1.516,-0.3916
34291.0,3.1173,2.6743,3.0813,0.1219,1.4378,-0.381
34301.0,2.1261,4.1779,1.7909,0.0128,1.3457,-0.3076
34311.0,1.2426,6.5601,-2.0518,-0.3028,1.1126,-0.1527
34321.0,0.3208,8.9902,-9.2775,-1.3462,0.7098,0.0952
34331.0,-1.5467,10.9343,-18.6532,-3.3358,0.3432,0.4448
34341.0,-0.68,11.1378,-26.092,-5.4786,0.4704,0.9807
34351.0,-5.43,12.8186,-31.6537,-5.5616,2.1093,1.8714
34361.0,-13.0221,11.6215,-32.4462,-3.712,4.5192,3.1256
34371.0,-18.3396,6.3758,-34.2012,-0.0293,7.4368,4.4453
34381.0,-28.7232,-2.9664,-30.5811,4.217,11.6144,5.187
34391.0,-40.6033,-13.6853,-17.3197,7.6592,16.2773,4.632
34401.0,-52.6653,-16.429,0.7733,9.3652,17.4357,2.3945
34411.0,-48.0061,-9.3541,21.4736,8.7506,17.4357,-0.647
34421.0,-62.934,6.7804,46.0525,5.8405,17.4357,-3.1666
34431.0,-51.9518,14.5951,76.8922,2.0422,15.1061,-4.4474
34441.0,-47.2208,25.2421,78.4508,0.0516,9.2737,-4.3883
34451.0,-41.3263,30.1813,78.4508,-0.4805,3.5002,-3.0708
34461.0,-35.4438,28.3186,75.5155,0.4331,-2.1609,-1.0115
34471.0,-29.5349,19.994,52.6054,1.8369,-5.832,0.9535
34481.0,-24.3586,9.3996,28.8142,3.0048,-7.3288,2.2993
34491.0,-16.6253,2.0758,7.1419,2.5765,-7.6938,2.6361
34501.0,-10.4962,-2.7749,-2.3128,0.6508,-6.6887,2.0587
34511.0,-8.1163,-3.5219,-4.9632,-0.8296,-4.7337,1.177
34521.0,-6.5074,-2.9999,-0.7997,-1.839,-3.0123,0.3278
34531.0,-6.7014,-0.4118,4.4748,-1.5351,-1.5554,-0.1894
34541.0,-7.2664,1.5826,9.3518,-0.5688,-0.696,-0.3124
34551.0,-6.5481,2.3607,11.1282,0.3879,-0.5662,-0.1974
34561.0,-5.8514,2.2338,11.6981,0.9397,-0.6396,-0.0404
34571.0,-5.4372,1.2186,12.7994,0.8684,-0.8705,0.0298
34581.0,-5.4923,0.0335,12.8353,0.4055,-1.3803,-0.0431
34591.0,-5.1092,-0.5698,11.8226,-0.2011,-1.9587,-0.257
34601.0,-4.2904,-0.431,10.9654,-0.6907,-2.2657,-0.5252
34611.0,-4.6304,0.4166,10.331,-0.9642,-2.3275,-0.7482
34621.0,-4.3718,1.0918,10.0078,-1.1919,-2.4115,-0.8833
34631.0,-4.1659,1.6352,10.0245,-1.2702,-2.4467,-0.9402
34641.0,-4.1013,1.822,9.8952,-1.1233,-2.4163,-0.8998
34651.0,-3.8714,1.5897,9.5385,-0.912,-2.4254,-0.828
34661.0,-3.7637,1.3527,8.8011,-0.6806,-2.4286,-0.7684
34671.0,-3.4237,1.0175,8.2384,-0.455,-2.3775,-0.7359
34681.0,-3.395,1.075,7.4771,-0.1985,-2.2418,-0.7391
34691.0,-3.0454,1.5395,6.9935,-0.058,-2.0705,-0.7753
34701.0,-2.6456,2.1356,6.9576,-0.0937,-1.8975,-0.8237
34711.0,-2.3679,2.8323,7.4531,-0.2389,-1.7352,-0.8647
34721.0,-2.3846,3.5171,8.1954,-0.4576,-1.6549,-0.8753
34731.0,-2.4612,3.7661,9.4667,-0.6694,-1.6559,-0.8344
34741.0,-2.727,3.8307,10.6087,-0.7104,-1.715,-0.7402
34751.0,-2.8228,3.7469,11.2456,-0.5465,-1.839,-0.5976
34761.0,-2.8132,3.5123,11.2551,-0.2347,-1.9768,-0.4326
34771.0,-2.5905,3.4022,10.6279,0.0617,-2.1327,-0.2852
34781.0,-2.1835,3.5003,9.5744,0.2261,-2.254,-0.1724
34791.0,-1.7933,3.5386,8.8011,0.2049,-2.3136,-0.0915
34801.0,-1.3982,3.644,8.1786,0.0202,-2.3599,-0.0404
34811.0,-1.2833,3.6871,7.8961,-0.2623,-2.394,-0.0011
34821.0,-1.1708,3.5099,7.774,-0.5289,-2.4147,0.049
34831.0,-1.0199,3.1364,7.7476,-0.6981,-2.4174,0.1171
34841.0,-0.8021,2.3727,7.9847,-0.7301,-2.3982,0.199
34851.0,-0.4549,1.6065,7.7524,-0.5928,-2.3876,0.2756
34861.0,0.0718,0.8715,7.2089,-0.3794,-2.3429,0.3209
34871.0,0.5746,0.4597,6.4931,-0.1783,-2.2359,0.3124
34881.0,1.0822,0.4429,6.0238,-0.099,-2.1061,0.2501
34891.0,1.4916,0.7422,5.5881,-0.1522,-1.972,0.1655
34901.0,1.5802,1.1899,5.5402,-0.3363,-1.8416,0.0889
34911.0,1.9201,1.3958,5.9711,-0.5731,-1.7129,0.0426
34921.0,1.9273,1.4748,7.0366,-0.7694,-1.6171,0.0208
34931.0,1.9968,1.5251,7.7141,-0.7913,-1.6059,0.042
34941.0,2.1548,1.5443,7.75,-0.6274,-1.6192,0.1022
34951.0,2.3391,1.5083,7.1635,-0.39,-1.6267,0.1873
34961.0,2.715,1.3431,6.2369,-0.1979,-1.6075,0.2714
34971.0,3.1149,1.3384,4.9656,-0.0729,-1.5107,0.3304
34981.0,3.5243,1.4916,4.2114,-0.074,-1.3356,0.3581
34991.0,3.7924,1.7358,4.118,-0.1006,-1.061,0.389
35001.0,3.8858,1.9656,4.6208,-0.1272,-0.7774,0.4411
35011.0,3.9409,2.15,5.2409,-0.1655,-0.5741,0.5151
35021.0,3.541,2.1428,5.7868,-0.2783,-0.4959,0.6002
35031.0,3.5362,1.3168,6.2177,-0.3959,-0.4805,0.7125
35041.0,3.9887,-0.0886,6.5673,-0.4039,-0.4065,0.8104
35051.0,4.0701,-1.4389,7.1299,-0.406,-0.3384,0.7987
35061.0,4.1922,-2.059,7.9104,-0.3677,-0.2996,0.6689
35071.0,4.0534,-1.7454,8.8969,-0.2001,-0.2602,0.4981
35081.0,4.0917,-0.9457,9.6534,0.0394,-0.2815,0.3751
35091.0,3.869,-0.0718,9.8474,0.1506,-0.4518,0.3124
35101.0,3.8834,0.4429,9.3398,0.0718,-0.7971,0.3012
35111.0,4.0725,0.498,7.7428,-0.0623,-1.1653,0.3267
35121.0,4.3503,0.1844,5.3439,-0.1224,-1.3159,0.3693
35131.0,4.8937,-0.644,3.6536,-0.1495,-1.1542,0.3842
35141.0,5.1667,-1.1684,2.8874,-0.2017,-0.8152,0.3246
35151.0,5.0949,-1.4174,3.4165,-0.2778,-0.4832,0.2022
35161.0,5.0877,-1.166,4.0223,-0.1809,-0.2038,0.0835
35171.0,4.9105,-0.7781,4.5442,0.0915,0.0341,0.0202
35181.0,4.9009,-0.5555,4.3766,0.423,0.1745,0.0096
35191.0,5.0805,-0.5148,3.0215,0.6263,0.1963,0.0069
35201.0,5.5522,-0.9337,0.8092,0.5412,0.182,-0.0293
35211.0,5.7652,-1.5203,-1.5036,0.3539,0.3863,-0.1213
35221.0,5.2888,-2.0159,-3.1819,0.0968,0.8093,-0.2889
35231.0,4.8674,-2.1189,-4.4317,-0.1889,1.2813,-0.5289
35241.0,4.2952,-1.4581,-5.2577,-0.3517,1.8667,-0.7913
35251.0,3.1125,0.0503,-5.8323,-0.398,2.5509,-0.9844
35261.0,1.6927,1.2857,-5.5905,-0.4347,3.2182,-1.0312
35271.0,0.5483,1.9704,-5.2984,-0.3938,3.786,-0.9413
35281.0,-0.5698,2.2003,-5.5833,-0.1804,4.3676,-0.77
35291.0,-2.3008,2.0925,-5.1954,0.3714,5.2754,-0.5731
35301.0,-4.9249,2.1596,-3.3279,1.1547,6.4774,-0.414
35311.0,-7.8171,2.2913,0.3855,1.7613,7.4804,-0.3187
35321.0,-10.1514,2.2889,5.1044,2.1859,8.1174,-0.2618
35331.0,-12.2032,1.9513,9.7181,2.4248,8.4127,-0.2267
35341.0,-12.8784,0.7063,14.6214,2.3056,8.2339,-0.2751
35351.0,-13.3573,0.237,18.828,2.1407,7.8072,-0.4603
35361.0,-13.7331,0.8523,22.4552,2.005,7.2575,-0.738
35371.0,-14.0971,2.7414,25.4216,1.8241,6.5881,-1.0153
35381.0,-14.4011,5.0039,28.0026,1.4213,5.7175,-1.202
35391.0,-14.3892,6.5817,30.3082,0.919,4.7055,-1.2297
35401.0,-14.5639,7.0844,31.625,0.5342,3.6242,-1.0919
35411.0,-14.0037,6.0669,31.048,0.2831,2.4456,-0.8743
35421.0,-13.2016,4.7405,28.6083,0.1101,1.3808,-0.7253
35431.0,-12.6198,3.9528,26.2021,-0.0037,0.7194,-0.6912
35441.0,-12.4091,3.814,24.4041,-0.1032,0.3555,-0.7221
35451.0,-12.0787,3.7014,23.8462,-0.3709,-0.0027,-0.7817
35461.0,-11.9016,3.5698,24.4209,-0.5316,-0.3491,-0.8131
35471.0,-11.8489,3.6296,24.4185,-0.3789,-0.7503,-0.7758
35481.0,-11.157,3.4165,23.3076,-0.1681,-1.3127,-0.7093
35491.0,-10.5632,3.2561,21.0139,-0.099,-1.9316,-0.671
35501.0,-9.8545,3.0287,18.5359,-0.2458,-2.4812,-0.6843
35511.0,-9.2344,2.7366,16.2159,-0.4539,-2.8511,-0.7242
35521.0,-8.7771,2.6695,14.1497,-0.6917,-3.0804,-0.7891
35531.0,-8.0709,2.5594,12.8138,-0.9828,-3.256,-0.8748
35541.0,-7.7812,2.7078,11.9926,-1.1222,-3.273,-0.9461
35551.0,-7.6207,3.0789,11.6717,-1.1009,-3.2331,-0.978
35561.0,-7.1515,3.6679,11.3892,-0.9812,-3.2352,-0.97
35571.0,-6.9145,4.3144,11.5424,-0.754,-3.2225,-0.8993
35581.0,-6.6104,4.9057,11.054,-0.4113,-3.2427,-0.7391
35591.0,-6.0956,5.0853,10.5728,-0.1282,-3.2837,-0.5305
35601.0,-5.6264,5.0374,9.9264,0.0639,-3.3486,-0.307
35611.0,-5.0589,4.695,9.0046,0.1421,-3.438,-0.099
35621.0,-4.4077,4.2353,7.9679,0.1288,-3.4885,0.0708
35631.0,-3.7948,3.7613,7.082,0.0245,-3.472,0.1937
35641.0,-3.2489,3.2537,6.45,-0.1644,-3.4417,0.2703
35651.0,-2.5307,2.6217,5.8395,-0.423,-3.4321,0.3076
35661.0,-1.901,2.0303,5.3415,-0.6992,-3.4103,0.3028
35671.0,-1.2617,1.5012,4.8147,-0.9573,-3.3842,0.2661
35681.0,-0.5387,1.1301,4.1492,-1.2228,-3.3672,0.1921
35691.0,-0.0575,0.9505,3.8954,-1.4596,-3.2879,0.0984
35701.0,0.3208,0.838,3.9025,-1.5516,-3.1804,0.0314
35711.0,1.008,0.6847,3.5817,-1.4601,-3.0889,0.0005
35721.0,1.7119,0.8715,2.5833,-1.1882,-2.9048,-0.0085
35731.0,2.1572,1.1205,2.0327,-0.9158,-2.6169,0.0043
35741.0,2.411,1.3288,1.6137,-0.7056,-2.3056,0.0511
35751.0,2.6312,1.1779,1.6161,-0.5747,-2.0167,0.1266
35761.0,3.0454,0.3855,1.7597,-0.4448,-1.7427,0.2134
35771.0,3.5817,-0.4405,2.0207,-0.2762,-1.4505,0.2597
35781.0,3.8738,-1.2043,2.885,-0.0537,-1.1047,0.2458
35791.0,4.1276,-1.4509,4.0893,0.2389,-0.7827,0.1729
35801.0,4.2066,-1.0127,4.9009,0.5076,-0.597,0.0681
35811.0,4.0654,-0.3184,5.2433,0.6098,-0.5566,-0.0229
35821.0,4.1348,0.4046,5.0637,0.5587,-0.5768,-0.0708
35831.0,4.1252,0.9098,4.9297,0.3597,-0.6188,-0.0862
35841.0,4.3431,1.1157,4.7118,0.1772,-0.6183,-0.0585
35851.0,4.3311,1.0774,4.5657,0.0851,-0.5295,-0.0021
35861.0,4.4412,0.8164,4.4508,0.0926,-0.3986,0.0623
35871.0,4.5155,0.4214,4.2162,0.1745,-0.2293,0.1176
35881.0,4.7453,-0.0742,3.9863,0.2879,-0.0048,0.1485
35891.0,4.7549,-0.3783,4.1492,0.3672,0.257,0.1309
35901.0,4.6304,-0.5459,4.8507,0.4273,0.4975,0.0846
35911.0,4.4604,-0.328,5.2625,0.5449,0.6806,0.0383
35921.0,4.4221,-0.1413,5.2002,0.5901,0.7801,-0.0037
35931.0,4.5131,-0.1245,4.7238,0.4826,0.7934,-0.0436
35941.0,4.5729,-0.2945,4.2904,0.39,0.9051,-0.0926
35951.0,4.2042,-0.1125,4.1013,0.4512,1.2302,-0.1474
35961.0,3.7445,0.1413,4.6543,0.4991,1.5788,-0.2054
35971.0,3.3878,0.4932,5.5952,0.5305,1.8518,-0.2528
35981.0,2.8156,0.9122,6.5912,0.5832,2.0571,-0.273
35991.0,2.217,1.3192,7.6088,0.6667,2.1891,-0.2554
36001.0,1.9968,1.5897,8.1523,0.7019,2.188,-0.2081
36011.0,2.1141,1.3815,8.1139,0.6433,2.0657,-0.1607
36021.0,2.1428,1.3024,7.2233,0.6428,2.0412,-0.1352
36031.0,1.8292,1.3575,6.4643,0.6561,2.1859,-0.1325
36041.0,1.5634,1.2402,6.3231,0.6917,2.4892,-0.1373
36051.0,0.8835,1.4341,6.857,0.7269,2.8484,-0.1671
36061.0,0.3232,1.9225,8.011,0.7077,3.1043,-0.2033
36071.0,-0.2322,2.8228,8.9016,0.7029,3.2092,-0.2038
36081.0,-0.5938,3.8307,8.77,0.6423,3.1405,-0.1437
36091.0,-0.7973,4.64,7.2592,0.4693,2.9793,-0.0303
36101.0,-1.8292,5.5857,4.8028,0.3161,3.0655,0.124
36111.0,-3.5027,5.7628,3.7206,0.2256,3.5891,0.3507
36121.0,-4.8219,4.1061,5.7604,0.2645,4.4586,0.6306
36131.0,-5.691,1.3934,10.3166,0.4597,5.2647,0.8232
36141.0,-6.2297,-0.7997,15.0643,0.63,5.5255,0.7955
36151.0,-6.5553,-2.0183,18.148,0.6731,5.1977,0.5678
36161.0,-6.3614,-2.8252,19.6708,0.5545,4.5171,0.2219
36171.0,-6.4045,-2.6121,19.9892,0.5092,3.9297,-0.1974
36181.0,-7.1443,-0.6656,19.8192,0.5406,3.5859,-0.6465
36191.0,-8.3151,2.1787,19.7689,0.2831,3.1959,-1.0429
36201.0,-9.0261,4.3622,20.2286,-0.3379,2.684,-1.2835
36211.0,-9.1961,4.7285,22.6348,-0.9094,2.2812,-1.3266
36221.0,-9.8976,4.5538,25.1128,-1.1004,1.8305,-1.2712
36231.0,-10.0748,4.3694,26.0585,-1.0653,1.0248,-1.1914
36241.0,-9.7229,4.1444,25.2181,-0.8109,0.1495,-1.0828
36251.0,-9.5217,4.3263,23.2214,-0.3714,-0.4667,-0.9599
36261.0,-9.323,4.8818,20.5135,-0.0968,-0.9817,-0.8705
36271.0,-8.6359,8.8729,15.9023,0.0186,-1.5245,-0.7567
36281.0,-8.4779,5.2601,15.943,-0.4438,-1.6778,-0.5938
36291.0,-6.9576,5.375,13.2854,-0.8232,-2.0364,-0.539
36301.0,-7.5178,4.8363,13.6637,-1.0717,-2.0252,-0.4901
36311.0,-6.5457,4.6471,12.2272,-1.0962,-2.1662,-0.3815
36321.0,-6.3255,3.9217,12.5193,-0.9998,-2.1614,-0.273
36331.0,-5.8227,3.802,11.6909,-0.745,-2.2311,-0.1575
36341.0,-5.3486,3.6368,10.8553,-0.5279,-2.2828,-0.0431
36351.0,-5.047,3.4668,10.1394,-0.4081,-2.3269,0.0596
36361.0,-4.5418,3.4261,9.3661,-0.389,-2.3754,0.1495
36371.0,-4.1013,3.3495,9.0525,-0.4475,-2.4206,0.2192
36381.0,-3.7924,3.4405,8.3797,-0.5193,-2.4919,0.2911
36391.0,-3.3998,3.2944,7.8338,-0.6055,-2.5494,0.3719
36401.0,-2.9712,3.0191,7.2233,-0.629,-2.5222,0.4651
36411.0,-2.6408,2.6432,7.0078,-0.6215,-2.4286,0.5577
36421.0,-2.1787,1.9896,7.0318,-0.6013,-2.3216,0.6401
36431.0,-1.7717,1.2594,7.2353,-0.5587,-2.2061,0.6992
36441.0,-1.4653,0.6823,7.7333,-0.5108,-2.1146,0.7157
36451.0,-1.257,0.4118,8.0756,-0.456,-2.105,0.7024
36461.0,-0.9433,0.237,7.8793,-0.3927,-2.1535,0.6843
36471.0,-0.6153,0.1413,7.4555,-0.3384,-2.17,0.6651
36481.0,-0.4812,0.1867,7.027,-0.3251,-2.105,0.6444
36491.0,0.0383,-0.0862,7.4244,-0.3576,-1.9614,0.6226
36501.0,0.3855,-0.2035,8.1092,-0.3922,-1.8188,0.589
36511.0,0.5315,-0.4645,8.837,-0.5779,-1.8459,0.5284
36521.0,0.6273,-0.5866,9.2536,-0.8354,-2.0428,0.447
36531.0,0.7733,-0.6129,9.1985,-1.002,-2.2514,0.3773
36541.0,0.8571,-0.5195,8.9902,-0.9482,-2.3291,0.3459
36551.0,0.7566,-0.3711,8.8226,-0.7519,-2.3275,0.3629
36561.0,0.9816,-0.3208,8.6335,-0.5076,-2.3237,0.406
36571.0,1.1468,-0.4908,8.1834,-0.3209,-2.3482,0.4645
36581.0,1.5921,-1.0918,7.3981,-0.2916,-2.4584,0.5018
36591.0,2.1596,-1.6424,6.1292,-0.3789,-2.5999,0.4746
36601.0,2.6695,-1.9776,4.4724,-0.5279,-2.6925,0.3874
36611.0,3.2753,-2.1715,2.7557,-0.6588,-2.6611,0.2692
36621.0,3.7469,-2.0614,0.996,-0.745,-2.4929,0.1362
36631.0,4.2162,-1.8555,-0.2394,-0.763,-2.1652,0.0154
36641.0,4.7333,-1.5706,-0.7254,-0.6242,-1.6687,-0.0639
36651.0,5.0661,-1.257,-1.0511,-0.3704,-1.1345,-0.0995
36661.0,5.1739,-1.1061,-1.1684,-0.1022,-0.5997,-0.1016
36671.0,5.193,-1.1109,-0.9984,0.1623,-0.0218,-0.0814
36681.0,5.035,-1.2115,-0.0814,0.3645,0.5507,-0.0708
36691.0,4.8435,-1.2402,1.0726,0.5225,1.0233,-0.0777
36701.0,4.5825,-0.9864,2.2338,0.6497,1.4026,-0.0905
36711.0,4.2856,-0.68,3.3902,0.7013,1.6847,-0.0968
36721.0,3.9672,-0.6153,4.5993,0.6832,1.8943,-0.0867
36731.0,3.7206,-0.4812,5.9137,0.7056,2.0939,-0.0724
36741.0,3.1316,-0.1867,7.0892,0.7114,2.2221,-0.0686
36751.0,2.6336,0.0646,8.3342,0.7066,2.2689,-0.0559
36761.0,2.2098,0.4884,9.1961,0.7599,2.2625,-0.0255
36771.0,1.8723,0.8859,9.7755,0.8317,2.195,0.0293
36781.0,1.5682,1.0798,9.8162,0.9094,2.0742,0.1123
36791.0,1.7885,1.0391,8.9208,0.8924,1.8943,0.1868
36801.0,1.9393,0.8404,7.7141,0.7854,1.8012,0.2246
36811.0,1.7047,0.7542,6.4476,0.6939,1.9124,0.2309
36821.0,1.3479,0.7159,5.6743,0.5917,2.1721,0.2118
36831.0,0.6297,0.984,5.624,0.4965,2.5201,0.174
36841.0,-0.0838,1.3599,6.098,0.4103,2.8527,0.1522
36851.0,-0.8475,1.8411,6.9192,0.3677,3.1086,0.1681
36861.0,-1.561,2.1452,7.3478,0.381,3.2432,0.2331
36871.0,-2.1141,2.1141,6.8307,0.4087,3.2629,0.3262
36881.0,-2.6288,1.5874,5.9448,0.5396,3.4646,0.4252
36891.0,-2.9592,0.5267,6.1148,0.7684,3.993,0.4901
36901.0,-3.8906,-0.1389,7.0006,0.7976,4.4767,0.4273
36911.0,-4.5035,-0.5507,8.7388,0.4544,4.6395,0.2389
36921.0,-5.2768,-0.0335,10.0796,0.0968,4.631,0.0213
36931.0,-6.7277,1.3719,10.6662,-0.1575,4.5714,-0.1415
36941.0,-7.8817,2.296,11.6502,-0.3427,4.5395,-0.1655
36951.0,-8.2337,1.3743,14.9805,-0.1618,4.8593,-0.0287
36961.0,-9.0812,0.2179,19.5582,0.3342,5.1269,0.0633
36971.0,-9.2727,0.1604,22.9005,0.6455,4.6837,-0.0277
36981.0,-9.0094,1.2139,23.8558,0.6577,3.7668,-0.216
36991.0,-8.7317,2.6336,23.5111,0.4225,2.8984,-0.3884
37001.0,-9.2536,4.1611,22.7784,-0.0309,2.1513,-0.5098
37011.0,-9.8426,5.1715,21.9883,-0.6816,1.3393,-0.5507
37021.0,-9.9742,5.3319,20.6739,-1.1797,0.6699,-0.4667
37031.0,-9.8378,4.3,20.5782,-1.3239,0.3783,-0.29
37041.0,-9.8833,3.0406,21.057,-1.1829,0.174,-0.1235
37051.0,-9.5505,1.913,21.2294,-0.9525,-0.2464,-0.0287
37061.0,-8.9878,1.2929,20.1759,-0.613,-0.7003,0.0074
37071.0,-8.6119,1.2689,18.5862,-0.3235,-1.0504,-0.0069
37081.0,-8.1977,1.6472,16.8001,-0.2916,-1.4037,-0.0607
37091.0,-7.7045,2.0518,15.1673,-0.522,-1.7522,-0.1282
37101.0,-7.3717,2.2027,14.2192,-0.804,-1.9592,-0.1719
37111.0,-7.2784,2.2098,13.86,-0.9525,-2.0619,-0.1607
37121.0,-7.0557,1.9249,13.8026,-0.9849,-2.212,-0.108
37131.0,-6.6463,1.5514,13.3908,-0.8514,-2.3775,-0.0325
37141.0,-6.1531,1.3743,12.8473,-0.5773,-2.4679,0.05
37151.0,-5.9544,1.3168,12.2511,-0.315,-2.5419,0.1309
37161.0,-5.545,1.3503,11.3581,-0.1719,-2.6983,0.1969
37171.0,-5.1547,1.5658,10.0317,-0.1703,-2.8777,0.2458
37181.0,-4.6064,1.6257,8.588,-0.2975,-2.9852,0.2969
37191.0,-3.802,1.1851,7.7285,-0.5295,-3.007,0.3416
37201.0,-3.2394,0.3807,7.4292,-0.7434,-2.9745,0.3602
37211.0,-3.0454,-0.4669,7.3813,-0.8764,-2.9362,0.3427
37221.0,-2.6384,-1.4078,7.1682,-0.8471,-2.8989,0.3081
37231.0,-1.8603,-2.3703,7.0222,-0.6832,-2.8085,0.2357
37241.0,-1.561,-2.7509,6.8498,-0.4246,-2.6217,0.1086
37251.0,-1.2641,-2.4804,6.6487,-0.306,-2.5286,-0.0692
37261.0,-0.7709,-1.889,6.1699,-0.3406,-2.51,-0.2543
37271.0,-0.6416,-1.0798,6.1387,-0.4656,-2.4089,-0.4097
37281.0,-0.589,-0.498,6.7109,-0.5571,-2.2498,-0.4981
37291.0,-0.6105,-0.2586,7.5393,-0.5694,-2.1199,-0.5236
37301.0,-0.2729,-0.2682,8.4563,-0.5087,-2.0321,-0.5231
37311.0,-0.3615,0.1293,9.5026,-0.3842,-1.9827,-0.5188
37321.0,-0.6273,0.9313,9.9072,-0.2485,-2.0869,-0.4869
37331.0,-0.3998,1.5203,9.2991,-0.1048,-2.2514,-0.3879
37341.0,-0.2011,1.64,8.4013,0.0271,-2.2838,-0.2357
37351.0,0.2538,1.2665,7.7883,0.067,-2.2162,-0.0894
37361.0,0.5052,0.7877,7.3789,0.0037,-2.1348,0.0112
37371.0,1.0511,-0.1556,7.9248,-0.1054,-2.0109,0.0628
37381.0,1.1708,-0.5914,8.3222,-0.1282,-1.8917,0.0623
37391.0,1.4102,-1.0989,9.1698,-0.124,-1.8533,0.0346
37401.0,1.6496,-1.1325,9.2057,0.041,-1.8624,0.0011
37411.0,1.7166,-0.7374,8.8466,0.2581,-1.8523,-0.0303
37421.0,1.8603,-0.2634,8.0565,0.4587,-1.8044,-0.0277
37431.0,2.0997,-0.0862,7.422,0.5193,-1.7177,-0.009
37441.0,2.4828,0.0862,7.2161,0.4566,-1.6043,-0.0048
37451.0,2.5474,0.146,7.0006,0.3363,-1.5027,0.0032
37461.0,2.9712,-0.4405,7.1227,0.1277,-1.4202,0.0074
37471.0,3.1173,-0.9792,8.1762,-0.0362,-1.2909,-0.0303
37481.0,3.0885,-0.972,9.8665,0.0564,-1.1568,-0.0702
37491.0,3.134,-0.3136,10.7428,0.4092,-1.1201,-0.0644
37501.0,2.9161,0.589,10.829,0.7226,-1.2079,-0.0101
37511.0,2.7509,1.4054,9.9814,0.7987,-1.4484,0.0793
37521.0,3.0406,1.47,9.1506,0.6997,-1.657,0.1878
37531.0,3.3255,1.3623,7.9248,0.597,-1.7246,0.2831
37541.0,3.6152,0.8068,7.264,0.3762,-1.724,0.3395
37551.0,3.9145,0.3304,7.2281,0.1644,-1.6634,0.3544
37561.0,4.0031,0.0862,7.8338,0.1458,-1.533,0.3581
37571.0,3.9169,0.1006,8.9783,0.3805,-1.3744,0.3975
37581.0,3.881,0.3304,9.5481,0.8062,-1.293,0.4832
37591.0,3.7661,0.9026,9.1219,1.0743,-1.4314,0.5672
37601.0,3.9576,1.3623,7.8147,1.0903,-1.7145,0.6449
37611.0,4.3144,1.4317,5.7461,1.0158,-1.8853,0.7279
37621.0,4.6902,1.0918,3.7709,0.7753,-1.9092,0.779
37631.0,5.1667,0.6416,2.8874,0.3613,-1.8565,0.7615
37641.0,5.2936,0.5842,2.8084,0.0452,-1.7586,0.7189
37651.0,5.4324,0.3352,1.8771,-0.0803,-1.7044,0.7189
37661.0,5.7509,-0.5243,0.486,-0.1969,-1.6863,0.7269
37671.0,6.1675,-1.008,-2.545,-0.2964,-1.6911,0.6917
37681.0,6.5481,-1.0534,-7.5369,-0.589,-1.682,0.5938
37691.0,6.347,-0.4166,-11.9542,-1.0541,-1.3255,0.4571
37701.0,5.9735,1.142,-15.9693,-1.4633,-0.7779,0.3629
37711.0,5.6934,3.1963,-22.2278,-1.8768,-0.2586,0.4172
37721.0,5.0781,3.8068,-27.7344,-2.4413,0.3831,0.6385
37731.0,2.1931,4.3239,-32.4151,-2.3269,1.5367,1.0185
37741.0,-1.0439,3.6392,-37.7733,-1.5144,2.9325,1.5261
37751.0,-5.7413,2.1548,-42.7964,-0.0803,4.8848,2.0151
37761.0,-13.6374,0.4669,-44.5752,1.7533,7.6151,2.3456
37771.0,-23.8175,-1.3312,-41.0582,3.8812,11.2143,2.4616
37781.0,-35.8915,-3.9193,-30.5021,5.6947,14.9822,2.2327
37791.0,-47.3142,-7.0294,-15.0883,6.3502,17.4357,1.4548
37801.0,-54.5279,-9.7205,5.3989,5.9501,17.4357,0.1325
37811.0,-56.2183,-6.1196,26.5014,5.1966,17.4357,-1.5123
37821.0,-55.5598,0.4525,47.3214,3.9116,17.2777,-2.8723
37831.0,-50.5201,8.2361,60.5948,3.4619,14.1569,-3.4949
37841.0,-45.2744,15.615,70.4614,3.0267,10.3805,-3.5785
37851.0,-40.3231,22.6922,72.6137,2.9458,6.5753,-3.0793
37861.0,-36.3392,24.5837,72.36,2.6749,2.7792,-2.1343
37871.0,-31.9674,21.4113,62.8789,2.9867,-0.7684,-0.9009
37881.0,-26.5709,15.3995,47.4052,3.2528,-3.4981,0.0947
37891.0,-21.5382,9.7875,31.1438,2.6733,-5.3557,0.4603
37901.0,-17.3867,6.2489,17.3508,1.5282,-6.1039,0.2735
37911.0,-12.9454,6.2369,7.6183,0.2368,-5.857,-0.2613
37921.0,-10.7045,8.3462,4.4484,-0.7056,-4.6028,-0.7529
37931.0,-10.2256,10.7643,6.1675,-0.9445,-3.0527,-0.9025
37941.0,-9.8617,12.4618,10.6398,-0.7918,-2.0981,-0.7082
37951.0,-9.5026,12.5169,13.113,-0.1932,-1.7789,-0.1985
37961.0,-8.5617,10.9152,12.8233,0.2256,-1.9944,0.365
37971.0,-7.5465,8.4707,11.8274,0.1697,-2.386,0.7641
37981.0,-7.0318,6.3135,9.6606,0.0069,-2.6803,0.9913
37991.0,-5.703,4.7692,6.7924,-0.3544,-2.924,1.0472
38001.0,-4.7285,3.4548,4.7597,-0.8971,-2.9351,0.9802
38011.0,-3.7278,1.221,5.2289,-1.3627,-2.6632,0.8679
38021.0,-3.3471,-0.4429,6.5122,-1.5048,-2.3338,0.6822
38031.0,-3.2202,-1.2186,8.2839,-1.5107,-2.2498,0.4182
38041.0,-2.9999,-0.7614,8.5353,-1.2925,-2.345,0.1708
38051.0,-2.8204,0.2418,7.6399,-1.0525,-2.4514,-0.0133
38061.0,-2.4181,1.3719,6.0573,-0.9924,-2.5424,-0.1261
38071.0,-1.9728,1.7933,5.2912,-1.0765,-2.4855,-0.166
38081.0,-1.6664,2.2218,4.64,-1.0291,-2.245,-0.1543
38091.0,-1.2977,2.5642,4.6376,-0.9668,-1.9486,-0.1123
38101.0,-1.0295,2.624,4.889,-0.8854,-1.6299,-0.033
38111.0,-1.0487,2.2003,6.1579,-0.8429,-1.3223,0.0521
38121.0,-1.0463,1.9321,7.3502,-0.738,-1.1339,0.1192
38131.0,-0.9122,1.3886,8.3677,-0.6226,-1.0382,0.1772
38141.0,-0.8308,0.6823,9.3948,-0.5539,-1.0089,0.1974
38151.0,-0.6919,0.5483,10.003,-0.5369,-1.102,0.1522
38161.0,-0.6776,0.814,10.1203,-0.5683,-1.259,0.0825
38171.0,-0.5315,1.2163,9.8234,-0.6364,-1.4122,0.0229
38181.0,-0.3974,1.7741,9.3182,-0.7354,-1.5208,-0.0255
38191.0,-0.5746,2.387,9.165,-0.8157,-1.532,-0.0372
38201.0,-0.589,2.5163,9.4643,-0.812,-1.4638,0.0138
38211.0,-0.7015,2.478,10.1083,-0.7152,-1.3686,0.1048
38221.0,-0.8092,2.2482,11.3701,-0.5917,-1.318,0.2027
38231.0,-0.929,2.2769,12.3062,-0.4012,-1.3675,0.3054
38241.0,-1.1564,2.3248,12.7874,-0.2661,-1.5655,0.4156
38251.0,-0.8332,1.9465,12.4906,-0.2102,-1.8645,0.5337
38261.0,-0.644,1.3168,11.8537,-0.2139,-2.1343,0.6247
38271.0,-0.2251,0.6153,10.9391,-0.307,-2.378,0.6556
38281.0,0.2131,0.0431,9.7947,-0.4938,-2.6074,0.6183
38291.0,0.5962,-0.2538,8.6718,-0.7285,-2.7712,0.5295
38301.0,0.9601,-0.4525,7.75,-0.9115,-2.834,0.4342
38311.0,1.415,-0.5914,7.0461,-0.9557,-2.8101,0.357
38321.0,1.9058,-0.2969,6.1627,-0.8051,-2.6898,0.3129
38331.0,2.047,0.0527,5.6096,-0.5763,-2.4924,0.3219
38341.0,2.4948,0.3112,5.1595,-0.2916,-2.2764,0.3842
38351.0,2.7294,0.5794,4.7142,-0.0819,-2.0891,0.4635
38361.0,3.2657,0.4501,4.9057,0.0995,-1.8768,0.555
38371.0,3.6966,0.2658,3.9911,0.2432,-1.7262,0.6428
38381.0,4.5945,-0.3783,2.2601,-0.0293,-1.7783,0.6524
38391.0,5.387,-1.1851,0.8595,-0.5529,-1.757,0.571
38401.0,5.7126,-1.6424,0.7111,-0.8753,-1.4303,0.4592
38411.0,5.3989,-1.6855,1.3288,-0.895,-1.0142,0.3677
38421.0,5.4803,-1.5467,1.8196,-0.7668,-0.7524,0.3182
38431.0,5.6072,-1.5682,1.5658,-0.6231,-0.6364,0.3102
38441.0,5.8466,-1.8699,1.142,-0.4395,-0.5342,0.3102
38451.0,6.0166,-1.743,0.1197,-0.0734,-0.2618,0.3038
38461.0,6.043,-1.4222,-0.9792,0.2134,0.0724,0.2794
38471.0,6.2106,-1.3264,-2.1763,0.2288,0.3272,0.2309
38481.0,6.268,-1.2617,-2.9784,0.0873,0.6188,0.1506
38491.0,5.5905,-0.3998,-3.8523,-0.0878,0.945,0.0548
38501.0,4.7884,1.0774,-5.8706,-0.4848,1.0653,-0.0229
38511.0,3.9576,3.1436,-9.73,-1.2952,0.953,-0.0527
38521.0,2.9497,5.0613,-13.8002,-2.3498,0.8775,0.0484
38531.0,1.9489,6.0118,-17.0491,-2.9261,1.1382,0.3794
38541.0,-0.4717,6.3949,-22.4528,-2.3381,1.8917,0.9461
38551.0,-3.0694,4.5753,-28.649,-1.2553,2.9756,1.5825
38561.0,-6.8714,1.8747,-32.9299,0.0633,4.697,2.0508
38571.0,-13.0532,0.6273,-34.1748,1.4617,7.0707,2.2131
38581.0,-20.8439,-0.3974,-30.9163,2.4743,9.5147,2.1194
38592.0,-29.3697,-1.1899,-24.9955,3.363,12.0497,1.8826
38601.0,-38.3288,-3.4429,-13.4865,3.8743,14.441,1.4287
38611.0,-45.3701,-5.1595,1.9441,4.25,16.3949,0.6534
38621.0,-50.1011,-2.1548,20.3794,4.4985,17.4357,-0.4124
38631.0,-51.1282,3.0358,42.1906,3.8365,16.9206,-1.4069
38641.0,-59.6132,18.3324,78.0342,2.6952,13.9185,-1.9199
38651.0,-35.834,8.2935,78.4508,0.406,8.1264,-1.7496
38661.0,-32.9658,18.0906,58.555,2.3769,5.0572,-0.8886
38671.0,-28.9028,10.1706,56.5391,0.861,0.6513,-0.183
38681.0,-22.9197,8.3534,35.5754,1.757,-1.8246,0.5305
38691.0,-20.0083,3.8882,28.0289,2.0502,-1.7528,0.861
38701.0,-17.188,1.5826,19.7809,2.2115,-1.3798,0.8711
38711.0,-15.2702,-0.5722,20.0586,1.3526,-0.9307,0.505
38721.0,-14.5041,0.8332,19.5415,0.6188,-0.8679,-0.0021
38731.0,-13.9462,1.8675,22.2086,-0.1554,-1.0312,-0.3991
38741.0,-14.2455,4.1276,23.3267,-0.3698,-1.474,-0.563
38751.0,-13.872,5.533,22.8527,-0.4369,-2.3764,-0.5108
38761.0,-13.2471,5.9233,19.8144,-0.2474,-3.264,-0.282
38771.0,-12.1625,5.5402,15.5503,-0.0335,-3.9041,-0.0101
38781.0,-10.7332,4.5322,11.4682,-0.0005,-4.2665,0.1852
38791.0,-9.8665,3.8379,7.2999,-0.0968,-4.3378,0.2852
38801.0,-8.5281,2.6025,5.2218,-0.4193,-4.2069,0.2927
38811.0,-7.7069,2.3894,3.8379,-0.5247,-3.7652,0.2517
38821.0,-7.4388,1.6496,4.7932,-0.6391,-3.2501,0.2134
38831.0,-6.9935,0.9912,6.5194,-0.5295,-2.8803,0.1857
38841.0,-6.6056,1.1181,7.762,-0.1421,-2.5605,0.1681
38851.0,-6.3015,1.2857,8.6143,0.0963,-2.4365,0.1458
38861.0,-5.715,1.8818,9.0644,-0.0452,-2.5871,0.0756
38871.0,-5.5905,2.466,9.426,-0.4241,-2.8809,-0.0016
38881.0,-5.2409,2.8611,9.1794,-0.712,-3.1767,-0.025
38891.0,-5.1188,3.1915,8.4204,-0.8035,-3.363,0.0112
38901.0,-4.8219,3.3734,7.106,-0.7982,-3.479,0.1011
38911.0,-4.3144,3.0933,5.4875,-0.8152,-3.5364,0.2112
38921.0,-3.5171,2.2075,4.3383,-0.7806,-3.4045,0.3235
38931.0,-2.8084,1.2186,3.5027,-0.6726,-3.124,0.4001
38941.0,-2.0877,0.3639,3.1436,-0.5843,-2.8229,0.4161
38951.0,-1.2953,-0.1772,3.0191,-0.497,-2.494,0.3837
38961.0,-0.7518,-0.3041,3.1915,-0.4491,-2.1694,0.3129
38971.0,-0.3711,-0.1269,3.2585,-0.5151,-1.9326,0.2251
38981.0,-0.0575,0.0359,3.9337,-0.6396,-1.7299,0.1426
38991.0,0.0287,0.2969,4.6878,-0.5773,-1.466,0.1027
39001.0,-0.0287,0.419,5.7126,-0.4044,-1.1887,0.108
39011.0,0.0359,0.4142,6.754,-0.2783,-1.0312,0.1181
39021.0,0.1365,0.4405,7.5848,-0.2043,-0.9738,0.1181
39031.0,0.2705,0.5459,8.2384,-0.1447,-0.9269,0.1117
39041.0,0.1389,0.8236,9.1004,-0.132,-0.8913,0.1032
39051.0,0.2203,1.1181,9.6031,-0.1474,-0.9477,0.1096
39061.0,0.2131,1.1468,9.8474,-0.1841,-1.0275,0.1431
39071.0,0.4262,0.7278,10.1897,-0.2224,-1.0807,0.1815
39081.0,0.4501,0.4884,10.2975,-0.2602,-1.1462,0.1969
39091.0,0.6871,0.067,10.6063,-0.3209,-1.2148,0.19
39101.0,0.723,0.0024,10.9798,-0.2911,-1.2302,0.1671
39111.0,0.5195,0.1293,11.3389,-0.2841,-1.3202,0.1389
39121.0,0.4884,0.2586,11.0349,-0.2464,-1.4974,0.1325
39131.0,0.7326,0.3136,10.4507,-0.1096,-1.5798,0.1543
39141.0,0.905,0.4932,9.3446,0.0122,-1.6027,0.1836
39151.0,1.2474,0.328,8.8155,-0.0229,-1.6017,0.2001
39161.0,1.6903,0.1891,8.7508,-0.0788,-1.5213,0.1969
39171.0,1.7406,0.3663,8.7867,-0.2065,-1.4984,0.1692
39181.0,1.9752,0.3519,8.8035,-0.3672,-1.5846,0.1469
39191.0,2.1548,0.3783,8.272,-0.4007,-1.6357,0.1548
39201.0,2.3846,-0.0048,8.0948,-0.315,-1.5974,0.1873
39211.0,2.7509,-0.5052,7.1994,-0.0452,-1.4926,0.2389
39221.0,3.2729,-1.087,6.4955,0.1697,-1.3218,0.2517
39231.0,3.3998,-1.3551,6.1028,0.2272,-1.1419,0.1995
39241.0,3.5817,-1.3862,6.3853,0.141,-1.0312,0.1
39251.0,3.6631,-1.0463,6.6391,0.1091,-0.9296,0.0048
39261.0,3.5817,-0.5339,6.6942,0.1532,-0.8748,-0.0463
39271.0,3.881,-0.1101,6.2991,0.216,-0.878,-0.0553
39281.0,4.0917,0.0934,5.7652,0.3017,-0.8391,-0.0239
39291.0,4.4843,-0.0311,4.9656,0.4278,-0.7753,0.0314
39301.0,4.9105,-0.0646,3.5985,0.5593,-0.6678,0.0649
39311.0,5.0326,0.0742,2.1117,0.5444,-0.5087,0.0607
39321.0,5.205,0.2753,0.6201,0.3347,-0.3714,0.0287
39331.0,5.3606,0.51,-1.1899,-0.0819,-0.298,-0.025
39341.0,5.1068,1.1923,-3.5889,-0.6795,-0.2762,-0.091
39351.0,3.7086,2.3439,-6.4045,-1.5293,-0.3693,-0.1346
39361.0,3.0837,3.7757,-10.1993,-2.4818,-0.6646,-0.0963
39371.0,2.5402,5.3367,-16.7905,-3.2576,-1.0339,0.0793
39381.0,1.992,5.3319,-25.3426,-3.314,-0.9163,0.4704
39391.0,0.103,5.0326,-35.3887,-2.0034,0.4608,1.0248
39401.0,-3.0478,2.8635,-42.3055,-0.1559,2.7047,1.4755
39411.0,-10.0772,2.0111,-48.0109,1.9486,5.7857,1.6299
39421.0,-20.1951,0.9026,-48.078,3.4912,9.578,1.5426
39431.0,-34.4478,-0.68,-39.1069,4.425,13.7833,1.1877
39441.0,-50.5009,-3.723,-21.5334,5.1785,17.4357,0.5183
39451.0,-61.8757,-5.4851,3.2489,5.6883,17.4357,-0.6316
39461.0,-66.6235,-0.3136,35.5802,5.0998,17.4357,-2.1684
39471.0,-62.2109,8.2935,71.3281,3.0112,17.4357,-3.3645
39481.0,-55.7921,17.9421,78.4508,0.2927,13.0261,-3.5508
39491.0,-43.4907,19.0602,78.4508,0.4821,6.8265,-2.486
39501.0,-42.2768,20.6572,78.4508,1.1526,1.1164,-1.0259
39511.0,-33.6697,11.9279,68.6513,-0.4624,-6.5301,0.041
39521.0,-31.5005,6.2369,38.98,0.563,-9.3349,0.9919
39531.0,-22.7186,1.8938,12.1171,0.6534,-10.4289,1.267
39541.0,-14.3389,-0.723,-5.6288,0.1437,-9.2939,0.9908
39551.0,-8.0876,0.8116,-12.4379,-0.1314,-6.1182,0.4965
39561.0,-7.7213,4.039,-10.7524,-0.6502,-3.0102,0.0197
39571.0,-7.4819,5.0135,-2.3224,-1.1451,-1.011,-0.191
39581.0,-8.4491,5.703,4.7525,-0.5268,0.3448,-0.0633
39591.0,-7.6902,4.8914,9.6822,0.149,0.6353,0.1517
39601.0,-6.4069,4.0965,12.1841,0.6838,0.5539,0.315
39611.0,-5.8969,3.4477,15.1984,0.721,0.3065,0.348
39621.0,-5.6288,2.5498,16.9174,0.1751,-0.5412,0.2586
39631.0,-5.0254,1.6424,16.3644,-0.5161,-1.6884,0.1038
39641.0,-5.0781,1.3503,14.2455,-0.9248,-2.5653,-0.0575
39651.0,-5.0925,1.6041,10.6973,-1.0078,-3.0926,-0.1799
39661.0,-4.7022,2.3846,6.5649,-1.0233,-3.2581,-0.2634
39671.0,-4.2737,2.7821,4.3167,-1.1712,-3.0426,-0.3065
39681.0,-4.063,2.8826,4.3598,-1.1515,-2.5323,-0.2847
39691.0,-4.027,2.9185,5.3893,-0.8226,-1.9486,-0.1878
39701.0,-3.9289,2.8419,7.015,-0.4379,-1.5043,-0.0591
39711.0,-3.8283,2.6408,8.5617,-0.1362,-1.2723,0.0692
39721.0,-3.814,2.5355,9.6869,0.0181,-1.2499,0.1676
39731.0,-3.6129,2.6264,9.7659,-0.0388,-1.4261,0.2304
39741.0,-3.2944,2.466,9.5074,-0.3592,-1.7107,0.2613
39751.0,-3.0694,2.0925,9.0357,-0.7184,-1.9582,0.274
39761.0,-2.7078,1.4245,8.339,-0.9684,-2.1141,0.2778
39771.0,-2.3822,0.7326,7.829,-1.0685,-2.1433,0.2607
39781.0,-2.1524,0.3136,7.2233,-1.0424,-2.1018,0.2187
39791.0,-1.6855,0.1053,7.1754,-0.9206,-1.9773,0.1666
39801.0,-1.3288,0.2753,7.3239,-0.6162,-1.699,0.141
39811.0,-1.2881,0.5698,7.6734,-0.4113,-1.4936,0.1336
39821.0,-0.8667,0.5363,7.9559,-0.4273,-1.4697,0.1282
39831.0,-0.6177,0.4836,8.2121,-0.514,-1.4676,0.1213
39841.0,-0.4956,0.4501,8.4443,-0.5869,-1.4644,0.1235
39851.0,-0.419,0.3304,8.3725,-0.629,-1.4846,0.1378
39861.0,-0.1053,0.1891,8.1738,-0.6864,-1.5101,0.1442
39871.0,0.0383,-0.0144,8.5832,-0.7157,-1.4755,0.1453
39881.0,0.1676,-0.3591,8.8107,-0.6279,-1.4324,0.1623
39891.0,0.4357,-0.814,8.6886,-0.5731,-1.4862,0.1623
39901.0,0.6704,-0.9744,8.181,-0.5534,-1.5543,0.124
39911.0,0.9218,-0.9074,7.5609,-0.4986,-1.5426,0.0857
39921.0,1.233,-0.8499,6.7157,-0.4369,-1.4867,0.0644
39931.0,1.5107,-0.972,6.0166,-0.4337,-1.367,0.0463
39941.0,1.6017,-1.2498,6.1292,-0.422,-1.1749,0.0261
39951.0,1.7047,-1.4676,6.4093,-0.265,-0.9339,0.0085
39961.0,1.9249,-1.561,6.4931,-0.0878,-0.7482,-0.0208
39971.0,2.0638,-1.7214,6.5529,-0.0277,-0.6236,-0.0676
39981.0,2.0638,-1.8675,6.7109,-0.0521,-0.5305,-0.1352
39991.0,2.1835,-1.9656,6.9887,-0.0915,-0.448,-0.2176
40001.0,2.2266,-1.9513,7.4029,-0.0697,-0.3225,-0.2996
40011.0,2.1596,-1.7286,8.2983,-0.0144,-0.1942,-0.3794
40021.0,1.9058,-1.1085,8.9423,0.0623,-0.157,-0.4432
40031.0,1.8723,-0.4669,9.0908,0.1096,-0.2208,-0.4725
40041.0,1.9273,0.0383,8.837,0.1059,-0.3358,-0.4645
40051.0,2.0614,0.4094,8.0613,0.0793,-0.4092,-0.4273
40061.0,2.1476,0.5315,7.6471,0.058,-0.3565,-0.3719
40071.0,2.1811,0.4118,7.5322,0.0937,-0.1948,-0.2996
40081.0,2.1428,0.1173,7.8913,0.1453,-0.0287,-0.241
40091.0,2.0782,-0.1652,8.4779,0.2331,0.116,-0.2054
40101.0,1.8675,-0.4357,9.5553,0.3491,0.2325,-0.1846
40111.0,1.81,-0.6225,10.4962,0.5348,0.2645,-0.1767
40121.0,1.8124,-0.4764,10.6255,0.6838,0.158,-0.1953
40131.0,1.9249,-0.2418,10.2185,0.6917,-0.0176,-0.2352
40141.0,2.0686,-0.0096,9.6055,0.6343,-0.1453,-0.2794
40151.0,2.2146,0.2203,8.8825,0.5678,-0.1868,-0.3219
40161.0,2.2984,0.565,8.2815,0.4837,-0.1612,-0.3592
40171.0,2.2889,0.6464,8.0206,0.3645,-0.1203,-0.3831
40181.0,2.3846,0.7278,7.7524,0.2895,-0.0905,-0.3938
40191.0,2.2913,0.9122,7.4508,0.2522,-0.0681,-0.4007
40201.0,2.3703,1.1444,6.9887,0.2246,-0.1011,-0.3927
40211.0,2.5498,1.4222,5.9472,0.1979,-0.1697,-0.3704
40221.0,2.5139,1.6688,4.1372,0.0905,-0.2453,-0.3384
40231.0,2.6312,1.7358,0.905,-0.2442,-0.3751,-0.3076
40241.0,3.1292,0.984,-3.0167,-1.0185,-0.5279,-0.3076
40251.0,3.5721,-0.2251,-6.5649,-1.8486,-0.373,-0.3437
40261.0,2.9305,-0.8164,-9.0525,-2.3956,0.1575,-0.422
40271.0,1.9058,-0.6273,-10.6326,-2.4754,0.9376,-0.4853
40281.0,0.6919,0.0048,-11.813,-1.9816,1.9055,-0.4454
40291.0,-1.4557,1.1756,-13.8313,-1.0302,3.0948,-0.2847
40301.0,-4.142,1.8723,-14.9422,-0.0229,4.4389,-0.0527
40311.0,-7.525,2.0997,-14.3293,1.1749,6.1028,0.1974
40321.0,-12.6534,2.7677,-12.7036,2.4584,7.9647,0.3682
40331.0,-17.8081,2.6312,-8.0589,3.2741,9.6382,0.406
40341.0,-22.2182,2.9568,-0.2945,3.8796,11.2707,0.3092
40351.0,-25.606,4.1539,11.3222,3.8142,12.2322,0.05
40361.0,-26.8151,5.3582,25.0098,2.9224,11.7863,-0.2602
40371.0,-25.6634,6.6128,34.261,2.0098,10.1006,-0.4486
40381.0,-23.8917,8.0038,38.403,1.1903,7.8375,-0.5422
40391.0,-22.7521,9.8952,38.6544,0.6093,5.766,-0.5108
40401.0,-21.4209,9.1937,39.6049,0.2054,4.2303,-0.2905
40411.0,-20.3124,6.6966,40.2729,0.0639,2.9075,-0.0277
40421.0,-19.2973,4.3527,40.1077,-0.083,1.35,0.0686
40431.0,-18.184,2.4684,37.905,0.0325,-0.2043,0.0889
40441.0,-16.6517,1.992,32.1733,0.2996,-1.5639,0.0314
40451.0,-15.3037,1.9704,26.5278,0.1415,-2.6228,-0.1341
40461.0,-13.8552,2.4517,21.1216,-0.2591,-3.2959,-0.3278
40471.0,-12.8281,2.5905,17.9565,-0.7657,-3.5944,-0.4943
40481.0,-12.0883,2.8611,15.7634,-1.0408,-3.6913,-0.5779
40491.0,-11.3461,2.8587,14.267,-1.1568,-3.7913,-0.5747
40501.0,-10.3142,2.6839,12.5313,-1.0823,-3.8892,-0.5002
40511.0,-9.3398,2.2601,10.5943,-0.8684,-3.8866,-0.3858
40521.0,-8.3773,1.7526,8.8107,-0.6886,-3.8397,-0.2889
40531.0,-7.4244,1.1492,7.355,-0.5444,-3.7604,-0.2251
40541.0,-6.3973,0.9074,5.387,-0.3943,-3.6476,-0.2102
40551.0,-5.3989,0.8787,3.7206,-0.3549,-3.446,-0.2437
40561.0,-4.5107,1.0295,2.7892,-0.4017,-3.1113,-0.3044
40571.0,-3.8954,0.9385,2.818,-0.5071,-2.7212,-0.3688
40581.0,-3.3327,0.8787,3.5099,-0.6077,-2.3785,-0.4406
40591.0,-3.0119,1.1372,4.4436,-0.6343,-2.0992,-0.5146
40601.0,-2.8491,1.5538,5.5378,-0.5688,-1.8656,-0.5587
40611.0,-2.6839,2.1117,6.3542,-0.4315,-1.6852,-0.5566
40621.0,-2.5666,2.4948,7.2736,-0.3533,-1.608,-0.522
40631.0,-2.4421,2.9137,7.7117,-0.2841,-1.6187,-0.4629
40641.0,-2.2769,3.1723,7.9607,-0.2182,-1.6096,-0.3831
40651.0,-2.0782,3.4477,8.1475,-0.1548,-1.5474,-0.2863
40661.0,-2.0949,3.5243,8.5162,-0.2086,-1.5277,-0.1846
40671.0,-2.0494,3.2489,8.9639,-0.3581,-1.5862,-0.0857
40681.0,-1.889,2.6983,9.3063,-0.4736,-1.673,0.009
40691.0,-1.7214,2.1739,9.0237,-0.4502,-1.7347,0.1
40701.0,-1.5945,1.4868,8.6718,-0.4177,-1.7671,0.165
40711.0,-1.2617,0.7901,8.1666,-0.39,-1.7666,0.1937
40721.0,-0.9242,0.0287,8.3079,-0.3427,-1.6517,0.1783
40731.0,-0.7614,-0.237,9.0668,-0.224,-1.4532,0.1208
40741.0,-0.9792,0.1077,10.3382,-0.1112,-1.3319,0.0436
40751.0,-0.917,0.7901,11.1618,-0.1006,-1.4404,-0.0149
40761.0,-0.9385,1.5083,11.1474,-0.1862,-1.6985,-0.0346
40771.0,-0.7638,2.0375,10.556,-0.2799,-1.9342,-0.008
40781.0,-0.5267,2.4493,9.7516,-0.3629,-2.0646,0.0585
40791.0,-0.4669,2.4445,8.9783,-0.4464,-2.1141,0.158
40801.0,-0.1987,1.834,8.2815,-0.5587,-2.1582,0.2692
40811.0,0.2777,0.8428,7.9871,-0.5757,-2.1221,0.3586
40821.0,0.6632,0.0024,7.7572,-0.4113,-1.9731,0.4108
40831.0,0.9625,-0.4812,7.7692,-0.2134,-1.8214,0.414
40841.0,1.2043,-0.5219,7.7381,-0.042,-1.7262,0.3852
40851.0,1.4724,-0.419,7.4986,0.0756,-1.6682,0.3565
40861.0,1.743,-0.3807,7.2568,0.1054,-1.6368,0.3257
40871.0,1.9824,-0.2394,6.9456,0.0724,-1.624,0.2916
40881.0,2.2075,-0.0407,6.6248,-0.0213,-1.6384,0.2586
40891.0,2.5809,-0.0551,6.0956,-0.1325,-1.6916,0.2331
40901.0,2.9281,-0.146,4.9392,-0.2214,-1.7421,0.207
40911.0,3.3567,-0.1772,3.6799,-0.2852,-1.6958,0.1703
40921.0,3.5434,-0.2179,2.8204,-0.2666,-1.4883,0.1394
40931.0,3.7996,-0.1149,2.0614,-0.1793,-1.209,0.1192
40941.0,4.0845,0.0383,1.8076,-0.0314,-0.8652,0.1112
40951.0,4.1875,0.2562,1.8675,0.2033,-0.4023,0.1362
40961.0,4.0749,0.3376,2.4469,0.415,0.0569,0.1804
40971.0,3.8954,0.3472,3.3782,0.5124,0.3672,0.2107
40981.0,3.6799,0.4717,4.1037,0.5944,0.6098,0.24
40991.0,3.4141,0.3998,5.1499,0.6822,0.8477,0.2788
41001.0,3.2825,0.1963,6.0262,0.7301,0.9722,0.3139
41011.0,3.1819,-0.1197,6.5362,0.6353,0.9269,0.3134
41021.0,3.237,-0.6273,6.3518,0.364,0.6933,0.2703
41031.0,3.462,-1.1444,5.0996,0.058,0.3895,0.1932
41041.0,3.6129,-1.5682,3.2322,-0.1538,0.2325,0.0883
41051.0,3.7876,-1.7597,1.0319,-0.2421,0.2826,-0.0239
41061.0,3.6224,-1.9034,-1.1803,-0.3501,0.4507,-0.1474
41071.0,3.1101,-2.0063,-3.6823,-0.5044,0.6784,-0.2788
41081.0,2.6384,-2.0399,-6.8115,-0.7274,0.9658,-0.4257
41091.0,2.3128,-1.8723,-10.1634,-1.019,1.3856,-0.589
41101.0,0.7901,-1.1061,-13.5296,-1.2537,2.0811,-0.729
41111.0,-1.5203,-0.1963,-15.4498,-1.2648,3.1203,-0.7817
41121.0,-4.5274,0.6081,-16.1992,-0.68,4.6028,-0.7072
41131.0,-7.8386,1.2713,-15.8161,0.3187,6.3806,-0.5752
41141.0,-11.8896,1.7933,-12.3684,1.3904,8.3041,-0.4869
41151.0,-18.1169,2.9784,-6.3662,2.395,10.0553,-0.4651
41161.0,-23.2285,4.8937,1.4868,3.1905,11.3329,-0.4741
41171.0,-27.8996,6.9384,11.4874,3.7647,12.1699,-0.4374
41181.0,-30.2819,8.6311,22.1368,3.9813,12.3301,-0.3517
41191.0,-30.6194,9.3278,32.7599,3.5066,11.5399,-0.3193
41201.0,-28.7256,8.7891,42.0589,2.4211,9.8398,-0.3746
41211.0,-27.9595,7.841,50.4147,1.2127,7.7332,-0.5034
41221.0,-25.843,6.9288,55.2677,0.1666,5.0705,-0.6141
41231.0,-24.0186,6.3997,55.421,-0.5358,2.1529,-0.6742
41241.0,-22.891,6.5505,50.3501,-0.8604,-0.6561,-0.6625
41251.0,-21.3252,6.6942,41.549,-1.0568,-3.0224,-0.5726
41261.0,-19.7857,6.6631,31.6178,-1.1478,-4.6182,-0.4278
41271.0,-17.6333,6.541,22.144,-1.1877,-5.4738,-0.2522
41281.0,-15.0404,5.7724,14.5663,-1.2255,-5.6404,-0.0601
41291.0,-12.4618,4.7238,9.5505,-1.2122,-5.2674,0.1219
41301.0,-10.5177,3.5219,7.0078,-1.1792,-4.648,0.2682
41311.0,-8.8155,2.1332,6.2297,-1.1531,-4.0818,0.3608
41321.0,-7.7237,1.0511,5.794,-1.0722,-3.6977,0.3991
41331.0,-6.778,0.3376,4.6974,-0.9828,-3.5167,0.381
41341.0,-5.5426,-0.4597,3.8882,-0.8402,-3.2725,0.3272
41351.0,-4.7405,-1.1396,3.5147,-0.5204,-2.7984,0.2629
41361.0,-3.9217,-1.7166,3.8355,-0.3294,-2.394,0.1309
41371.0,-3.213,-1.7573,4.5777,-0.3001,-2.1205,-0.0713
41381.0,-3.0047,-1.0391,5.5115,-0.3453,-1.9268,-0.2921
41391.0,-2.8659,-0.0383,6.7086,-0.3847,-1.8108,-0.4661
41401.0,-3.0239,1.3144,7.4364,-0.315,-1.6996,-0.5454
41411.0,-3.0287,2.4708,8.2911,-0.2959,-1.6783,-0.5348
41421.0,-3.0358,3.3567,8.7915,-0.2538,-1.7304,-0.4369
41431.0,-3.0694,3.7469,9.1722,-0.1373,-1.7459,-0.2581
41441.0,-2.9329,3.541,9.5289,0.0399,-1.7405,-0.0399
41451.0,-2.7892,2.9281,9.5241,0.1618,-1.7773,0.1554
41461.0,-2.399,2.0901,9.3158,0.1096,-1.8816,0.274
41471.0,-2.1548,1.2019,9.1028,-0.0495,-1.9678,0.3139
41481.0,-1.9944,0.3615,8.9998,-0.2857,-2.0625,0.2804
41491.0,-1.8148,-0.1772,8.8585,-0.5007,-2.1684,0.1926
41501.0,-1.6424,-0.3208,8.6622,-0.588,-2.2136,0.0894
41511.0,-1.2809,-0.1915,8.8633,-0.5039,-2.1465,0.0048
41521.0,-1.2139,0.3855,9.0118,-0.3363,-2.0369,-0.0521
41531.0,-1.0942,1.0487,9.4475,-0.2746,-2.0401,-0.0809
41541.0,-0.9888,1.4844,9.4739,-0.2692,-2.1364,-0.0596
41551.0,-0.7709,1.561,9.1171,-0.2661,-2.2381,0.0048
41561.0,-0.4357,1.2809,8.2648,-0.2783,-2.3056,0.0793
41571.0,0.0072,0.814,7.4819,-0.3347,-2.312,0.1304
41581.0,0.4046,0.3304,6.9432,-0.3927,-2.2306,0.1458
41591.0,0.7518,0.091,6.8618,-0.3959,-2.0832,0.132
41601.0,0.9553,0.0455,7.2616,-0.306,-1.8954,0.1181
41611.0,1.2522,0.0575,7.7979,-0.1288,-1.7182,0.1213
41621.0,1.3671,0.1365,7.9655,-0.0436,-1.6841,0.1171
41631.0,1.6999,0.067,7.7093,-0.0952,-1.79,0.1016
41641.0,2.0782,-0.1077,7.0629,-0.1458,-1.8592,0.0782
41651.0,2.3487,-0.2107,6.4931,-0.1282,-1.7953,0.0458
41661.0,2.5738,-0.1844,6.213,-0.0351,-1.6426,0.0149
41671.0,2.7964,0.1628,5.8035,0.0511,-1.5053,-0.0176
41681.0,2.9353,0.5938,5.1954,0.025,-1.4303,-0.0463
41691.0,3.225,0.8332,4.7692,-0.0548,-1.3319,-0.0553
41701.0,3.4548,1.0678,4.2737,-0.0952,-1.1712,-0.0452
41711.0,3.7134,1.1947,3.9385,-0.1389,-0.9764,-0.0261
41721.0,3.8978,1.2186,3.7948,-0.1894,-0.7625,0.0
41731.0,3.9983,1.0678,4.0845,-0.1948,-0.5268,0.0404
41741.0,4.0941,0.9122,4.6711,-0.0878,-0.2756,0.0905
41751.0,4.2138,0.6728,5.2002,0.0926,-0.066,0.141
41761.0,4.5705,0.7135,5.4779,0.2586,0.0388,0.1745
41771.0,4.604,0.6895,5.3151,0.3177,0.0639,0.1942
41781.0,4.6304,0.6249,4.7453,0.2437,0.0314,0.1979
41791.0,4.604,0.4645,4.0869,0.1469,0.0495,0.1963
41801.0,4.7142,0.3424,3.3232,0.1261,0.1767,0.1953
41811.0,4.6184,0.2801,2.6121,0.1282,0.381,0.1884
41821.0,4.3215,0.3472,2.2625,0.0857,0.5906,0.1788
41831.0,3.9624,0.5363,1.9345,0.0367,0.7779,0.183
41841.0,3.5841,0.8164,1.4653,-0.0202,0.9057,0.2107
41851.0,3.1149,1.1947,0.1676,-0.1256,0.9599,0.2661
41861.0,2.9066,1.5586,-2.5355,-0.455,0.9275,0.3336
41871.0,3.4931,1.5299,-7.2257,-1.1978,0.8407,0.406
41881.0,3.3016,0.7661,-11.497,-2.2317,1.0605,0.4672
41891.0,1.5107,0.7326,-15.1888,-2.9649,1.856,0.5593
41901.0,-2.2027,0.7877,-14.9901,-3.0458,3.2725,0.7561
41911.0,-5.466,0.9409,-13.1274,-2.1205,5.0146,1.1244
41921.0,-9.3685,0.3376,-10.8146,-0.7205,6.6253,1.574
41931.0,-13.7738,-1.2234,-7.7237,0.828,8.078,1.9502
41941.0,-17.7362,-3.8523,-3.7397,2.5419,9.6962,2.1646
41951.0,-20.8415,-7.92,3.7421,4.0143,11.3351,1.9949
41961.0,-23.3578,-10.6805,13.635,4.7821,12.3157,1.234
41971.0,-23.9253,-9.9599,27.1191,4.6198,12.3285,0.0053
41981.0,-24.5382,-5.5881,40.3878,3.9834,11.0562,-1.2638
41991.0,-23.389,0.9649,47.2496,3.0187,8.4138,-2.2423
42001.0,-22.9556,7.8171,50.3237,1.7336,5.5435,-2.7665
42011.0,-23.0825,12.651,51.1928,0.5662,2.7526,-2.6898
42021.0,-21.871,14.6836,46.5864,0.0208,0.1011,-2.0997
42031.0,-21.0738,14.3939,39.9903,0.0442,-1.79,-1.2675
42041.0,-19.3835,12.7084,32.0703,0.5183,-2.9804,-0.3852
42051.0,-17.018,10.0868,24.373,0.9929,-3.6067,0.3602
42061.0,-13.9821,7.9511,17.4657,1.1988,-3.712,0.8439
42071.0,-11.904,5.533,14.2718,0.8828,-3.5024,1.0493
42081.0,-10.0724,3.6416,12.4786,0.3874,-3.306,1.0515
42091.0,-8.8609,1.9896,12.0452,-0.183,-3.2294,0.9094
42101.0,-8.0397,0.9409,11.825,-0.6199,-3.3081,0.7003
42111.0,-7.2712,0.0168,11.5353,-0.796,-3.4444,0.4965
42121.0,-6.4883,-0.6105,10.7404,-0.6843,-3.5534,0.3102
42131.0,-5.8179,-0.7111,9.3733,-0.447,-3.621,0.1272
42141.0,-5.102,-0.2729,7.9871,-0.2144,-3.6375,-0.0484
42151.0,-4.446,0.6512,5.9472,-0.0192,-3.588,-0.1905
42161.0,-3.5434,1.5395,4.4029,0.0043,-3.4502,-0.2895
42171.0,-2.9161,2.4924,3.1077,-0.0537,-3.1714,-0.3331
42181.0,-2.4062,3.0837,2.7222,-0.2325,-2.8159,-0.3235
42191.0,-1.9537,3.134,3.1675,-0.4342,-2.4371,-0.2703
42201.0,-1.7023,2.7845,4.3,-0.5561,-2.0465,-0.1916
42211.0,-1.5945,2.15,5.9448,-0.5635,-1.7113,-0.1043
42221.0,-1.6137,1.3623,8.1331,-0.4225,-1.4761,-0.0186
42231.0,-1.6544,0.5483,9.9503,-0.1357,-1.3968,0.0527
42241.0,-1.573,0.0934,10.9152,0.1868,-1.4915,0.0788
42251.0,-1.3479,0.012,11.0373,0.4193,-1.6996,0.0569
42261.0,-1.2474,0.1197,10.8888,0.4629,-1.9465,-0.0048
42271.0,-1.0439,0.3543,10.2951,0.3576,-2.2178,-0.0926
42281.0,-0.7422,0.6847,9.3111,0.1463,-2.477,-0.1995
42291.0,-0.4812,1.1133,8.2528,-0.1224,-2.6622,-0.3033
42301.0,-0.2921,1.5538,7.3382,-0.3602,-2.7249,-0.3831
42311.0,-0.1077,2.059,6.6655,-0.4715,-2.6563,-0.414
42321.0,0.0958,2.4205,6.2058,-0.4539,-2.4961,-0.3773
42331.0,0.5219,2.5905,5.9544,-0.3517,-2.2971,-0.2863
42341.0,0.8739,2.7031,5.7533,-0.1687,-2.0529,-0.1644
42351.0,1.1995,2.5355,5.928,0.0314,-1.7991,-0.0239
42361.0,1.4102,1.9968,6.3375,0.2128,-1.5548,0.107
42371.0,1.8459,1.391,6.9145,0.3512,-1.359,0.1894
42381.0,2.1572,0.996,7.4699,0.3677,-1.2696,0.1969
42391.0,2.3248,0.929,7.6878,0.2554,-1.301,0.1485
42401.0,2.5331,0.9864,7.6686,0.0665,-1.3835,0.0819
42411.0,2.6264,1.1827,7.2329,-0.1075,-1.4548,0.0271
42421.0,2.8156,1.233,6.9911,-0.2368,-1.4575,-0.0053
42431.0,2.9113,1.391,6.9719,-0.2347,-1.3792,-0.0101
42441.0,3.1196,1.6831,6.6679,-0.1825,-1.3399,0.0053
42451.0,3.4022,1.8387,6.0717,-0.2011,-1.3606,0.0367
42461.0,3.5937,1.8148,5.1475,-0.2549,-1.3638,0.0814
42471.0,3.9744,1.4461,4.1539,-0.3054,-1.3042,0.1266
42481.0,4.4197,1.1612,3.1484,-0.2953,-1.1302,0.1522
42491.0,4.6232,0.9266,2.4062,-0.2783,-0.8439,0.1586
42501.0,4.7381,0.5962,2.4445,-0.2613,-0.5146,0.1559
42511.0,4.7836,0.3998,2.6073,-0.1969,-0.2033,0.1431
42521.0,4.6591,0.395,2.7557,-0.132,0.0474,0.1208
42531.0,4.6232,0.419,2.7102,-0.1144,0.2416,0.0995
42541.0,4.7285,0.3208,2.162,-0.1841,0.3778,0.0761
42551.0,4.9416,-0.0886,1.4724,-0.3533,0.4933,0.0298
42561.0,4.9105,-0.2993,0.5818,-0.4475,0.7295,-0.0426
42571.0,4.5011,-0.3472,0.1484,-0.4459,1.1116,-0.133
42581.0,4.0414,-0.1413,0.1556,-0.265,1.6256,-0.2086
42591.0,3.2825,0.3807,0.6632,0.0458,2.2104,-0.2586
42601.0,2.5953,1.0175,1.6113,0.3097,2.726,-0.2799
42611.0,1.7502,1.6664,2.873,0.4353,3.0937,-0.2692
42621.0,1.0463,2.2841,4.2784,0.3922,3.2539,-0.2309
42631.0,0.6584,2.9353,4.7022,0.1948,3.1735,-0.158
42641.0,0.2897,3.0023,4.2258,-0.2065,2.8936,-0.0543
42651.0,0.2705,2.8874,2.6528,-0.5438,2.6691,0.0612
42661.0,-0.3136,3.4069,0.3663,-0.5598,2.85,0.1862
42671.0,-1.7047,4.4915,-1.7071,-0.4997,3.3395,0.3315
42681.0,-3.371,5.4755,-2.6264,-0.5896,3.9318,0.5401
42691.0,-5.7988,5.8059,-2.1476,-0.6705,4.6331,0.8524
42701.0,-8.5138,4.7046,-0.8643,-0.6071,5.3403,1.2632
42711.0,-10.3789,1.5012,1.5706,-0.3485,6.0544,1.6735
42721.0,-11.7627,-3.1651,5.1834,0.2474,6.9398,1.9231
42731.0,-13.1897,-7.7381,11.0325,1.1111,7.8859,1.7799
42741.0,-14.6214,-9.3446,17.741,2.1221,8.5484,1.1499
42751.0,-16.2686,-6.7014,23.7529,2.8633,8.6202,0.2373
42761.0,-17.3077,-1.9249,28.4766,2.7473,7.9269,-0.6194
42771.0,-17.2502,2.1596,33.0567,1.5282,6.636,-1.2318
42781.0,-17.9014,3.8834,39.1667,-0.1123,5.1886,-1.5506
42791.0,-18.3683,3.4357,45.8418,-1.4032,3.4369,-1.6091
42801.0,-18.4449,2.2817,49.3373,-1.6166,1.3186,-1.4319
42811.0,-17.9254,2.4924,45.588,-0.895,-1.011,-1.1446
42821.0,-16.5703,2.6647,37.1963,-0.1075,-3.0453,-0.8402
42831.0,-15.1649,3.0239,26.59,0.2655,-4.4123,-0.63
42841.0,-13.216,2.9113,17.6979,-0.1235,-5.1908,-0.5928
42851.0,-11.3174,2.4134,11.3677,-0.7497,-5.3254,-0.6566
42861.0,-9.6893,1.9369,7.4484,-1.1605,-4.9332,-0.7444
42871.0,-8.2528,1.5802,5.6336,-1.3042,-4.2936,-0.837
42881.0,-7.2425,1.4868,5.3391,-1.176,-3.604,-0.9041
42891.0,-6.3686,1.652,6.0669,-0.8221,-2.958,-0.9269
42901.0,-5.7844,2.3272,7.1563,-0.3767,-2.4685,-0.9083
42911.0,-5.5545,3.2034,8.1642,0.0266,-2.2024,-0.8402
42921.0,-4.9201,4.2713,8.0062,0.3129,-2.1455,-0.7263
42931.0,-4.2473,5.1571,7.6854,0.3187,-2.1609,-0.5875
42941.0,-3.8499,5.8371,7.2712,0.1261,-2.1567,-0.4204
42951.0,-3.5698,5.6671,7.7213,-0.182,-2.1274,-0.223
42961.0,-3.2609,4.7884,8.4036,-0.3517,-2.0784,-0.0043
42971.0,-2.909,3.5554,8.9711,-0.3512,-2.0566,0.1889
42981.0,-2.4062,2.2266,9.2536,-0.2841,-2.0784,0.3113
42991.0,-2.0327,1.0582,9.5577,-0.2017,-2.1056,0.3586
43001.0,-1.8172,0.1484,9.7133,-0.1117,-2.1827,0.3374
43011.0,-1.4174,-0.2514,9.1387,-0.041,-2.3402,0.2517
43021.0,-0.7901,0.1245,7.5322,-0.0958,-2.5196,0.1165
43031.0,-0.5219,0.5339,6.1723,-0.3618,-2.6004,-0.0202
43041.0,-0.158,0.7661,5.0087,-0.6753,-2.5807,-0.1235
43051.0,0.2179,0.8978,4.5657,-0.8929,-2.4488,-0.1985
43061.0,0.4501,1.1468,4.367,-0.8759,-2.1843,-0.2219
43071.0,0.6225,1.1277,4.6424,-0.6955,-1.8475,-0.1793
43081.0,0.9697,0.7685,5.3319,-0.4347,-1.5309,-0.1006
43091.0,1.3982,0.4334,6.0549,-0.165,-1.2776,-0.0346
43101.0,1.5107,0.3448,6.8115,0.0197,-1.126,0.0
43111.0,1.6664,0.4477,7.4077,0.107,-1.0882,0.0223
43121.0,1.98,0.7614,7.3406,0.0952,-1.1467,0.0404
43131.0,2.1691,1.0415,7.0198,-0.0436,-1.2217,0.0591
43141.0,2.2338,1.0558,6.7684,-0.2299,-1.2446,0.0968
43151.0,2.3559,0.5195,7.2544,-0.3331,-1.1632,0.157
43161.0,2.6097,-0.1508,8.2576,-0.2166,-0.9802,0.2107
43171.0,2.4995,-0.2514,9.0764,-0.0287,-0.8753,0.2288
43181.0,2.4517,-0.3328,9.7971,0.0479,-0.9786,0.2304
43191.0,2.6695,-0.3184,9.742,0.1027,-1.1733,0.2352
43201.0,2.715,-0.2682,9.0453,0.1213,-1.3601,0.2405
43211.0,2.806,-0.2801,8.0397,0.0596,-1.5394,0.241
43221.0,3.0526,-0.3855,7.0198,0.0144,-1.6171,0.2405
43231.0,3.0071,-0.3232,5.9975,0.0756,-1.5341,0.2432
43241.0,3.0526,-0.6177,5.612,0.1735,-1.3335,0.2613
43251.0,3.3615,-0.8571,5.5881,0.3272,-1.0892,0.2634
43261.0,3.5578,-0.7063,6.098,0.481,-0.8588,0.2272
43271.0,3.8547,-0.3017,6.1986,0.6412,-0.7088,0.1985
43281.0,4.2353,0.0096,6.0837,0.6832,-0.6556,0.1804
43291.0,4.3742,0.3543,5.4205,0.6151,-0.6455,0.1713
43301.0,4.3646,0.4357,4.7142,0.4603,-0.5976,0.1729
43311.0,4.3574,0.1508,4.3718,0.299,-0.4523,0.182
43321.0,4.3766,-0.2322,4.7884,0.273,-0.157,0.182
43331.0,4.1539,-0.3136,5.5593,0.3549,0.1474,0.1602
43341.0,4.0749,-0.3376,6.347,0.4406,0.3049,0.1293
43351.0,4.0342,-0.2969,6.8881,0.555,0.3523,0.1048
43361.0,3.8259,-0.1101,6.6846,0.7024,0.34,0.0846
43371.0,3.9289,-0.0383,6.1531,0.7801,0.2932,0.0596
43381.0,4.3239,-0.0168,5.1547,0.8115,0.2613,0.0282
43391.0,4.3191,-0.1676,4.1587,0.7955,0.3219,-0.0218
43401.0,4.1372,-0.1844,3.4381,0.7902,0.5013,-0.1048
43411.0,3.8475,0.0838,3.0358,0.8546,0.7694,-0.2123
43421.0,3.4955,0.5818,2.6863,0.9871,1.0568,-0.3081
43431.0,3.2992,1.1779,2.0063,1.1472,1.3351,-0.3773
43441.0,3.0885,2.0686,0.1556,1.1446,1.5463,-0.4486
43451.0,3.1412,3.213,-2.8826,0.6151,1.6304,-0.5348
43461.0,2.9113,4.0486,-5.9544,-0.4635,1.7783,-0.5901
43471.0,1.5778,4.6017,-8.3869,-1.8667,2.0763,-0.5704
43481.0,0.067,5.1427,-9.9383,-3.1842,2.5031,-0.439
43491.0,-2.5187,6.3255,-10.7619,-3.7716,3.2762,-0.1336
43501.0,-6.5098,8.4611,-10.9128,-3.272,4.5373,0.4113
43511.0,-11.4778,10.4651,-9.4308,-1.7677,6.2842,1.2191
43521.0,-16.3787,10.647,-6.7469,0.1564,8.127,2.1849
43531.0,-20.2382,7.3957,-1.8866,1.8198,9.8159,3.0666
43541.0,-23.3411,1.3192,4.9799,2.8707,11.1334,3.5407
43551.0,-23.4991,-7.592,15.0643,3.2118,12.0869,3.381
43561.0,-22.1512,-14.9853,32.3648,2.8606,12.4137,2.3131
43571.0,-21.0139,-14.109,47.1873,2.3376,10.8365,0.6423
43581.0,-18.9669,-9.3134,52.5839,1.5165,7.6076,-0.9386
43591.0,-18.7777,-3.2944,52.7491,0.2395,4.226,-2.1545
43601.0,-19.5247,3.4381,49.5289,-0.9339,1.1935,-2.8346
43611.0,-20.2526,9.3182,43.359,-1.4362,-1.2494,-2.833
43621.0,-19.6899,12.5265,34.7973,-1.2212,-3.0793,-2.1817
43631.0,-17.5471,13.4746,23.6834,-0.4592,-4.0441,-1.1488
43641.0,-14.5544,11.3916,14.3197,0.2123,-4.0744,-0.074
43651.0,-11.7268,8.3821,7.5609,0.6359,-3.3172,0.7764
43661.0,-9.2823,5.0422,5.0685,0.4438,-2.2844,1.2568
43671.0,-7.5729,1.8627,6.5122,-0.0952,-1.4197,1.3931
43681.0,-6.766,0.0551,8.9543,-0.4518,-0.8604,1.3079
43691.0,-6.3853,-0.6584,11.497,-0.6518,-0.7519,1.1079
43701.0,-5.8826,-0.7087,12.4762,-0.5598,-0.9488,0.9168
43711.0,-4.8147,-1.3671,12.7467,-0.2735,-1.1164,0.7849
43721.0,-3.9696,-2.1668,12.6629,0.0117,-1.2169,0.6231
43731.0,-3.7757,-1.8507,12.2727,-0.0362,-1.5186,0.3219
43741.0,-3.4117,-1.0199,11.3964,-0.2804,-1.9587,-0.0085
43751.0,-3.395,0.0622,9.833,-0.4289,-2.2125,-0.2586
43761.0,-3.3734,1.2019,8.4683,-0.4986,-2.229,-0.4188
43771.0,-3.316,2.0255,7.75,-0.5678,-2.1332,-0.4954
43781.0,-3.1891,2.5666,7.3741,-0.5768,-1.9651,-0.4975
43791.0,-3.2848,2.7773,7.446,-0.5204,-1.7235,-0.448
43801.0,-3.2394,2.7461,8.1882,-0.4268,-1.467,-0.3741
43811.0,-3.3208,2.6887,9.414,-0.2778,-1.2356,-0.2911
43821.0,-3.4069,2.9521,10.5249,-0.116,-1.1265,-0.2086
43831.0,-3.383,3.2346,11.3318,-0.074,-1.202,-0.1256
43841.0,-3.1651,3.3471,11.6909,-0.1596,-1.4117,-0.0293
43851.0,-2.7845,3.1843,11.6646,-0.3203,-1.6719,0.0686
43861.0,-2.4708,2.9233,11.3701,-0.4901,-1.9332,0.1612
43871.0,-2.2434,2.5043,10.7308,-0.6215,-2.1657,0.2512
43881.0,-1.9273,2.0016,9.8785,-0.6795,-2.3365,0.3315
43891.0,-1.5993,1.5371,9.1171,-0.6332,-2.3642,0.4001
43901.0,-1.2306,0.7853,8.9304,-0.5119,-2.2567,0.4672
43911.0,-0.9529,0.0934,9.0668,-0.39,-2.1753,0.4943
43921.0,-0.7326,-0.4046,8.9016,-0.3294,-2.22,0.4667
43931.0,-0.3089,-0.5866,7.9344,-0.3374,-2.3376,0.3932
43941.0,0.0838,-0.5387,6.7133,-0.4236,-2.3828,0.2943
43951.0,0.4046,-0.3519,5.7078,-0.5694,-2.3062,0.19
43961.0,0.4357,-0.1532,5.351,-0.7237,-2.1322,0.0979
43971.0,0.8021,-0.2203,6.0861,-0.7285,-1.8411,0.0447
43981.0,1.1229,-0.2514,7.2137,-0.4949,-1.4596,0.025
43991.0,1.0151,-0.1006,8.746,-0.3033,-1.2297,0.0069
44001.0,1.0582,-0.012,10.1227,-0.2246,-1.2521,-0.0053
44011.0,0.929,0.1532,10.7883,-0.1538,-1.434,-0.0053
44021.0,0.9002,0.4118,10.3932,-0.1112,-1.7129,0.0053
44031.0,1.2474,0.6656,9.0501,-0.1187,-2.0002,0.025
44041.0,1.561,0.8212,7.4029,-0.1458,-2.1316,0.0623
44051.0,1.8818,0.6632,6.1268,-0.1809,-2.0635,0.1165
44061.0,1.9848,0.316,5.5354,-0.1926,-1.8629,0.1687
44071.0,2.5498,-0.5028,6.2489,-0.0819,-1.5202,0.2123
44081.0,2.8132,-0.8475,7.3167,0.1846,-1.1456,0.2235
44091.0,2.6193,-0.8475,8.5545,0.3108,-1.0073,0.1825
44101.0,2.7725,-0.4693,8.9519,0.2506,-1.1685,0.1171
44111.0,2.7653,-0.0742,8.4348,0.1149,-1.417,0.0729
44121.0,2.8898,0.2969,7.2305,-0.016,-1.5974,0.0665
44131.0,3.0957,0.316,6.3542,-0.0889,-1.5963,0.0968
44141.0,3.2777,0.2083,5.6144,-0.0266,-1.4415,0.1548
44151.0,3.6655,-0.1796,5.217,0.0766,-1.2185,0.2097
44161.0,3.9145,-0.4405,5.0757,0.174,-0.9802,0.2309
44171.0,4.0438,-0.6464,5.1834,0.2442,-0.7646,0.2224
44181.0,4.1156,-0.7518,5.2074,0.3145,-0.5885,0.2001
44191.0,4.1922,-0.6871,4.9057,0.3842,-0.4507,0.166
44201.0,4.3407,-0.4645,4.446,0.4246,-0.3118,0.1272
44211.0,4.4867,-0.1006,3.9792,0.4225,-0.1346,0.0947
44221.0,4.604,0.2945,3.5243,0.3485,0.0452,0.0708
44231.0,4.4388,0.6464,3.0622,0.216,0.216,0.0612
44241.0,4.3144,0.7805,2.6959,0.0867,0.4427,0.0729
44251.0,4.1132,0.5938,2.7964,0.0128,0.7487,0.1027
44261.0,3.8571,0.2203,3.2346,0.0298,1.0669,0.1272
44271.0,3.5602,0.1101,3.6895,0.1442,1.3436,0.1304
44281.0,3.1364,0.1844,3.8786,0.2969,1.557,0.124
44291.0,2.8467,0.3567,3.7733,0.4613,1.7491,0.125
44301.0,2.4876,0.4501,3.7302,0.5475,1.9247,0.1282
44311.0,2.2721,0.5195,3.6655,0.4938,1.9954,0.116
44321.0,2.1691,0.5746,3.1795,0.3177,1.9326,0.083
44331.0,1.9273,0.7494,2.071,0.1527,1.8757,0.0468
44341.0,1.3096,1.221,0.2251,0.1059,1.9624,0.0303
44351.0,0.4142,1.8818,-2.1189,0.0697,2.1827,0.0378
44361.0,-0.4262,2.5283,-4.5131,-0.0229,2.543,0.0777
44371.0,-1.8004,3.0957,-5.8203,-0.0931,3.1368,0.1612
44381.0,-3.8666,3.6703,-6.9288,-0.0208,3.8711,0.3124
44391.0,-5.8634,3.1675,-7.3502,0.1618,4.7119,0.5156
44401.0,-8.2217,1.9201,-6.7469,0.6806,5.9261,0.7066
44411.0,-10.884,0.3496,-4.6017,1.2739,7.3256,0.771
44421.0,-13.9893,-0.8906,-0.0862,1.6064,8.5314,0.5965
44431.0,-17.516,-0.1676,4.7764,1.7922,9.3641,0.2315
44441.0,-20.9756,1.7549,9.4451,1.6671,9.752,-0.1357
44451.0,-23.6571,3.134,15.6772,1.2271,9.8361,-0.365
44461.0,-24.938,2.9329,24.2988,1.0094,9.8526,-0.4236
44471.0,-25.0026,2.4205,34.6345,1.1616,9.6733,-0.4752
44481.0,-24.5956,2.5402,46.0357,1.1366,8.6724,-0.6465
44491.0,-23.4728,3.4429,54.9613,0.6779,6.206,-0.8961
44501.0,-22.1009,5.7197,56.6444,0.365,2.966,-1.0413
44511.0,-21.8591,8.011,52.785,0.1532,-0.1453,-1.0004
44521.0,-21.3635,9.4284,44.987,-0.1064,-2.9208,-0.8099
44531.0,-20.9924,9.9599,34.589,-0.3496,-5.1152,-0.5119
44541.0,-19.5247,9.5098,22.9891,-0.4715,-6.479,-0.157
44551.0,-16.9414,8.5186,12.8712,-0.5417,-6.8387,0.1761
44561.0,-13.6565,6.9911,5.9256,-0.5853,-6.3854,0.4475
