time_ms,ax,ay,az,gx,gy,gz
2472781.0,-2.0782,2.4852,10.2017,-0.1884,0.0447,0.0899
2472791.0,-2.0303,2.6456,10.0126,-0.2011,0.0367,0.1208
2472801.0,-1.9609,2.5881,9.8976,-0.1501,0.0713,0.1735
2472811.0,-1.8914,2.3727,9.9024,-0.0607,0.1298,0.2288
2472821.0,-1.8172,2.0351,9.9455,0.0048,0.1777,0.2629
2472831.0,-1.7262,1.7957,9.9431,0.0239,0.1958,0.2666
2472841.0,-1.719,1.6999,9.9144,-0.0271,0.1926,0.2389
2472851.0,-1.6592,1.9082,9.8689,-0.1086,0.1969,0.2011
2472861.0,-1.7334,2.0925,10.0293,-0.2171,0.1974,0.1713
2472871.0,-1.7502,2.3152,10.082,-0.2895,0.1735,0.1639
2472881.0,-1.81,2.3942,10.137,-0.2868,0.1639,0.1841
2472891.0,-1.7502,2.3056,10.0796,-0.2059,0.19,0.2272
2472901.0,-1.6855,2.1883,9.9335,-0.1176,0.2208,0.2655
2472911.0,-1.743,2.0207,9.9311,-0.0995,0.2214,0.2863
2472921.0,-1.6759,1.8938,9.8114,-0.1064,0.1995,0.2948
2472931.0,-1.5706,1.9058,9.6295,-0.1006,0.1995,0.29
2472941.0,-1.5203,1.9369,9.3087,-0.1096,0.1979,0.2815
2472951.0,-1.4461,1.9513,8.9807,-0.1442,0.1857,0.2751
2472961.0,-1.2713,1.9249,8.5377,-0.1878,0.1708,0.2698
2472971.0,-1.1516,1.7238,8.2361,-0.2144,0.1804,0.2666
2472981.0,-0.9194,1.5945,7.7644,-0.1729,0.2102,0.2575
2472991.0,-0.8643,1.7166,7.3574,-0.0734,0.3108,0.2373
2473001.0,-1.0606,2.0877,7.2065,0.0378,0.4661,0.2214
2473011.0,-1.1875,2.636,7.3215,0.116,0.5976,0.2187
2473021.0,-1.2522,3.3327,7.3287,0.1314,0.6747,0.2373
2473031.0,-1.3934,3.869,7.2425,0.0543,0.7019,0.2863
2473041.0,-1.4509,4.1228,7.252,-0.0229,0.7162,0.3725
2473051.0,-1.4413,3.6033,7.7069,0.0654,0.8344,0.4981
2473061.0,-1.5275,2.6312,8.2049,0.3278,1.0068,0.6061
2473071.0,-1.6161,2.0351,8.3821,0.5566,1.0876,0.6279
2473081.0,-1.5826,1.9968,8.5066,0.6029,1.0946,0.5667
2473091.0,-1.798,2.4469,8.8035,0.5188,1.086,0.4768
2473101.0,-2.2194,2.9568,9.3733,0.4193,1.0461,0.4129
2473111.0,-2.4205,3.4644,9.3063,0.4385,0.9477,0.4033
2473121.0,-2.3296,3.6057,8.7484,0.5374,0.8705,0.4379
2473131.0,-2.308,3.5123,8.2432,0.7093,0.92,0.4885
2473141.0,-2.2889,3.0789,8.1523,0.8854,1.0461,0.5161
2473151.0,-2.4229,3.1987,7.8243,1.0099,1.1627,0.4864
2473161.0,-2.727,3.5626,7.7716,0.9163,1.268,0.415
2473171.0,-3.1149,4.1611,8.1786,0.5912,1.3266,0.3304
2473181.0,-3.6583,4.6759,8.9807,0.1288,1.2866,0.2677
2473191.0,-3.8642,4.8866,9.5265,-0.2559,1.1643,0.2623
2473201.0,-3.9528,4.719,9.7803,-0.439,1.0679,0.3076
2473211.0,-3.9744,4.4532,9.7516,-0.4417,1.028,0.3831
2473221.0,-4.0797,3.8618,10.1035,-0.356,1.0302,0.4597
2473231.0,-4.0701,3.6559,10.386,-0.1815,1.035,0.5119
2473241.0,-4.2976,3.6296,11.0181,-0.017,1.0014,0.5507
2473251.0,-4.561,3.4668,11.3916,0.1596,0.9131,0.5928
2473261.0,-4.5729,3.2705,11.1091,0.2645,0.7215,0.6119
2473271.0,-4.2952,3.2633,10.0772,0.2464,0.5156,0.6013
2473281.0,-4.0845,3.3327,9.4188,0.0921,0.4129,0.5726
2473291.0,-4.1444,3.5099,9.086,-0.1054,0.3688,0.5491
2473301.0,-4.3718,3.5147,8.9567,-0.257,0.3246,0.5582
2473311.0,-4.379,2.8659,9.019,-0.2794,0.3209,0.6071
2473321.0,-4.2976,2.0686,8.7149,-0.1596,0.3501,0.6433
2473331.0,-4.1539,1.3431,8.339,-0.0713,0.3916,0.6263
2473341.0,-4.1372,0.9744,8.1523,-0.0724,0.4635,0.5539
2473351.0,-4.221,0.8667,8.5162,-0.1139,0.5699,0.4544
2473361.0,-4.5131,0.9816,9.0644,-0.0963,0.696,0.3688
2473371.0,-4.7214,0.9074,9.9934,-0.033,0.7881,0.3177
2473381.0,-4.889,0.5124,10.908,0.1437,0.895,0.3001
2473391.0,-5.0805,0.1676,11.8202,0.3608,0.9695,0.2719
2473401.0,-5.3798,-0.0215,12.5648,0.5076,0.9759,0.2134
2473411.0,-5.7365,-0.0814,13.0915,0.5369,0.9142,0.124
2473421.0,-5.9592,-0.2059,13.4363,0.4699,0.8088,0.008
2473431.0,-6.0765,-0.3879,13.9702,0.3911,0.771,-0.1357
2473441.0,-6.268,-0.249,14.7746,0.2549,0.7673,-0.3209
2473451.0,-6.7995,0.328,16.2973,-0.0559,0.6508,-0.5358
2473461.0,-7.4029,1.2306,17.9541,-0.4182,0.3496,-0.7237
2473471.0,-7.7333,2.1548,18.9118,-0.6476,-0.1181,-0.8312
2473481.0,-7.8075,3.0023,18.6173,-0.6215,-0.6093,-0.8429
2473491.0,-7.774,3.5482,17.8392,-0.4619,-1.0105,-0.7838
2473501.0,-7.6495,4.1061,16.532,-0.2868,-1.3457,-0.6971
2473511.0,-7.6136,4.5226,15.0811,-0.2464,-1.6559,-0.6098
2473521.0,-7.2688,4.7908,13.4051,-0.3283,-1.938,-0.5247
2473531.0,-6.8139,4.9297,11.8417,-0.4864,-2.1338,-0.448
2473541.0,-6.4907,4.9656,10.5752,-0.6657,-2.2109,-0.3714
2473551.0,-6.2321,4.7405,9.7659,-0.8514,-2.2423,-0.2959
2473561.0,-5.9113,4.4676,8.8825,-0.9695,-2.262,-0.2251
2473571.0,-5.4564,4.0223,7.9416,-1.0562,-2.2535,-0.165
2473581.0,-4.8363,3.4309,7.1395,-1.1196,-2.2013,-0.1245
2473591.0,-4.3838,2.9018,6.5481,-1.1494,-2.1088,-0.1139
2473601.0,-4.0486,2.4157,6.2991,-1.1313,-1.9885,-0.1266
2473611.0,-3.7589,2.071,5.9855,-1.0626,-1.8805,-0.1602
2473621.0,-3.4692,2.0255,5.4995,-0.9913,-1.8001,-0.2097
2473631.0,-3.2777,2.0949,4.7645,-0.9647,-1.7267,-0.2575
2473641.0,-2.897,2.1021,3.9097,-0.9998,-1.6602,-0.2948
2473651.0,-2.4636,1.9393,3.1029,-1.0211,-1.5351,-0.3182
2473661.0,-2.0901,1.8459,2.3535,-0.9583,-1.3058,-0.331
2473671.0,-1.834,1.6951,1.822,-0.8578,-1.0206,-0.3384
2473681.0,-1.6496,1.3862,1.7813,-0.77,-0.7242,-0.3453
2473691.0,-1.4892,0.7757,2.332,-0.629,-0.3778,-0.3613
2473701.0,-1.4245,0.3783,2.9784,-0.4619,-0.0548,-0.4113
2473711.0,-1.4126,0.3208,3.9337,-0.4252,0.1346,-0.5066
2473721.0,-1.4557,0.5962,4.9895,-0.4076,0.2554,-0.6061
2473731.0,-1.5682,1.2498,5.9233,-0.281,0.3374,-0.6667
2473741.0,-1.6855,2.0087,6.3973,-0.0665,0.3874,-0.6598
2473751.0,-1.6951,2.332,6.9935,0.2065,0.4842,-0.5859
2473761.0,-1.8364,2.5929,7.6614,0.4667,0.6077,-0.489
2473771.0,-2.0111,2.7007,8.5497,0.5497,0.6407,-0.4044
2473781.0,-1.901,2.6959,9.5457,0.4544,0.5465,-0.3432
2473791.0,-1.9225,2.7749,10.0413,0.2948,0.3746,-0.298
2473801.0,-1.9896,2.6863,10.161,0.0958,0.1458,-0.2618
2473811.0,-1.8938,2.5618,9.505,-0.0447,-0.0766,-0.2304
2473821.0,-1.6879,2.5163,8.3845,-0.1016,-0.1788,-0.2075
2473831.0,-1.7071,2.3032,7.8578,-0.099,-0.0921,-0.1932
2473841.0,-1.7214,2.0566,7.9751,-0.0426,0.0899,-0.1953
2473851.0,-1.8387,2.2673,8.3414,-0.0266,0.2182,-0.2235
2473861.0,-2.0279,2.5498,9.3948,-0.0825,0.2799,-0.2453
2473871.0,-2.1189,3.1556,10.161,-0.0814,0.2464,-0.2304
2473881.0,-2.1189,3.8068,9.991,-0.0527,0.107,-0.1612
2473891.0,-1.7909,4.3431,8.6383,-0.1495,-0.1101,-0.0495
2473901.0,-1.3815,4.4293,6.3111,-0.5252,-0.3528,0.0782
2473911.0,-1.1085,3.699,3.565,-1.0765,-0.5092,0.2091
2473921.0,0.1604,2.332,0.2298,-1.6256,-0.5374,0.3113
2473931.0,-0.6752,1.1971,-1.6807,-2.0396,-0.2448,0.3331
2473941.0,-2.2745,0.9122,-5.0254,-2.1237,0.1963,0.3986
2473951.0,-0.6129,-1.1923,-7.5369,-1.9938,0.6183,0.4576
2473961.0,-0.8212,-1.0104,-9.9647,-0.9147,1.9683,0.5076
2473971.0,-3.9624,-0.1221,-7.1994,0.2006,3.6875,0.5619
2473981.0,-6.9432,0.5243,-1.2091,1.3186,5.0572,0.6625
2473991.0,-9.5984,0.3591,5.1427,2.5153,6.0251,0.7913
2474001.0,-11.3581,-1.6089,13.6661,3.5024,6.5578,0.8221
2474011.0,-12.4068,-1.5443,20.3579,4.3069,6.6163,0.6359
2474021.0,-13.0891,-0.3065,27.6291,4.2101,5.9671,0.2517
2474031.0,-13.7188,2.8778,32.5683,3.5689,4.665,-0.1681
2474041.0,-13.6565,6.2752,32.6162,2.4717,2.7202,-0.4363
2474051.0,-12.0165,8.4994,27.5908,1.0781,0.6683,-0.4981
2474061.0,-10.2017,8.4731,21.3659,-0.2549,-0.6965,-0.3863
2474071.0,-8.9447,7.0844,16.3739,-1.1073,-1.1988,-0.19
2474081.0,-7.5633,4.8674,12.8401,-1.425,-1.1834,0.0122
2474091.0,-6.5577,2.739,11.3509,-1.3351,-0.845,0.149
2474101.0,-6.019,1.6376,10.9487,-0.9892,-0.4523,0.2107
2474111.0,-5.6743,0.8428,11.5784,-0.53,-0.1804,0.2448
2474121.0,-5.2265,0.4693,11.6358,0.0937,-0.017,0.274
2474131.0,-5.1188,0.4788,11.1857,0.6497,0.1006,0.2804
2474141.0,-5.1164,0.4669,11.1642,0.9408,0.1548,0.2602
2474151.0,-5.0398,0.4118,11.0588,1.0445,0.1309,0.2198
2474161.0,-4.9608,0.3184,10.8386,1.0259,0.0937,0.1548
2474171.0,-4.9847,0.1245,10.5321,0.8588,0.0468,0.0559
2474181.0,-4.9608,0.3208,10.2496,0.5491,-0.0293,-0.0873
2474191.0,-5.2265,0.8787,10.1251,0.1644,-0.0873,-0.2347
2474201.0,-5.43,1.0199,10.3741,-0.2187,-0.1719,-0.348
2474211.0,-5.3702,0.9409,10.647,-0.422,-0.2496,-0.4294
2474221.0,-5.6503,1.0798,10.8026,-0.4023,-0.257,-0.4848
2474231.0,-5.9879,1.1277,11.4778,-0.2618,-0.2746,-0.5092
2474241.0,-6.0406,1.1756,11.8274,0.0085,-0.3469,-0.513
2474251.0,-5.9975,1.7502,11.4634,0.29,-0.4363,-0.5252
2474261.0,-6.0956,2.7485,11.2168,0.3358,-0.5305,-0.5523
2474271.0,-6.1435,3.6081,11.7436,0.1681,-0.63,-0.5619
2474281.0,-6.1986,4.276,12.0165,-0.0841,-0.8157,-0.5428
2474291.0,-6.0573,4.6974,11.7603,-0.4746,-1.1329,-0.5108
2474301.0,-5.9496,4.628,11.4275,-0.9083,-1.4457,-0.4581
2474311.0,-5.9664,4.0821,11.1905,-1.1808,-1.6948,-0.3831
2474321.0,-5.703,2.9999,10.6877,-1.1456,-1.8416,-0.3022
2474331.0,-5.3175,2.5498,9.1219,-0.9716,-1.9619,-0.2655
2474341.0,-4.8866,1.9513,8.0613,-0.8913,-1.989,-0.2682
2474351.0,-4.3383,1.561,7.0725,-0.8008,-1.9113,-0.3022
2474361.0,-3.869,1.5251,6.3973,-0.8035,-1.8326,-0.3751
2474371.0,-3.5482,1.8818,5.7581,-0.845,-1.707,-0.4507
2474381.0,-3.3064,2.2314,5.6886,-0.9386,-1.5527,-0.505
2474391.0,-3.316,2.7222,5.6048,-1.0589,-1.4303,-0.5284
2474401.0,-3.3327,2.6767,5.715,-1.2356,-1.3553,-0.5151
2474411.0,-2.9664,2.4469,5.3008,-1.4101,-1.3569,-0.4885
2474421.0,-2.7126,1.9561,5.0206,-1.5117,-1.3015,-0.4555
2474431.0,-2.3248,1.3551,4.9488,-1.4048,-1.1025,-0.4156
2474441.0,-2.0207,0.9218,5.0829,-1.1802,-0.8769,-0.3959
2474451.0,-2.0614,0.6776,5.4253,-0.9535,-0.6699,-0.3927
2474461.0,-1.9489,0.4693,5.8993,-0.7817,-0.538,-0.4012
2474471.0,-1.8004,0.4956,5.9352,-0.6822,-0.5023,-0.4289
2474481.0,-1.6807,0.6297,5.794,-0.6439,-0.4864,-0.4592
2474491.0,-1.798,1.0918,5.5498,-0.5949,-0.4427,-0.4704
2474501.0,-1.8866,1.403,5.3726,-0.5188,-0.3916,-0.4321
2474511.0,-1.7909,1.5921,4.2976,-0.4119,-0.3597,-0.3533
2474521.0,-1.4461,1.6328,2.5762,-0.423,-0.3262,-0.2671
2474531.0,-1.1157,1.664,0.4214,-0.563,-0.2011,-0.1884
2474541.0,-0.5842,1.6903,-1.81,-0.7976,0.0383,-0.1123
2474551.0,-0.7446,1.1205,-2.7629,-1.0126,0.4757,-0.0346
2474561.0,-1.7358,0.8859,-3.9289,-0.9871,0.9812,0.0878
2474571.0,-0.6153,-0.5962,-4.9129,-0.7588,1.4096,0.2033
2474581.0,-1.3599,-0.1173,-7.1898,-0.1793,2.1625,0.2746
2474591.0,-2.8946,0.9337,-7.3526,0.2267,3.0666,0.3315
2474601.0,-5.5282,2.5977,-5.6192,0.6125,4.01,0.4448
2474611.0,-8.1786,2.5331,-0.8021,1.2404,5.0386,0.6747
2474621.0,-10.2615,2.0159,4.0534,2.1689,5.7569,0.8998
2474631.0,-11.7771,0.4621,10.3765,3.2081,6.3449,1.0302
2474641.0,-13.1537,-1.1301,18.433,4.3048,6.81,0.9935
2474651.0,-15.354,-1.0463,26.2764,4.9236,6.4652,0.7258
2474661.0,-12.6653,-0.2251,31.8668,4.8428,5.0609,0.2905
2474671.0,-13.5727,3.4836,31.0336,4.2191,3.2432,-0.1458
2474681.0,-12.8832,5.8514,28.1606,2.7393,1.1632,-0.53
2474691.0,-11.4036,8.916,20.2837,1.2563,-0.3948,-0.7609
2474701.0,-10.5584,9.1626,16.1345,-0.4363,-1.0882,-0.8237
2474711.0,-9.8904,8.588,13.3094,-1.6043,-1.2813,-0.7354
2474721.0,-9.6367,6.6942,12.8066,-2.1109,-1.2467,-0.5401
2474731.0,-8.7125,5.4348,11.1881,-1.8209,-1.151,-0.2815
2474741.0,-8.0493,4.0797,10.6901,-1.1291,-0.8796,-0.0176
2474751.0,-7.5753,3.1484,10.2089,-0.1979,-0.5406,0.2134
2474761.0,-7.0605,2.5881,9.5864,0.5672,-0.3326,0.3666
2474771.0,-6.5505,2.32,8.9399,0.9482,-0.2325,0.4347
2474781.0,-6.2704,2.1835,8.8969,0.9668,-0.183,0.4284
2474791.0,-6.1675,2.2984,8.8873,0.821,-0.1639,0.3826
2474801.0,-6.2441,2.2505,9.2201,0.5358,-0.1745,0.3219
2474811.0,-6.4524,2.047,9.821,0.1554,-0.2724,0.2506
2474821.0,-6.4787,1.7549,10.2544,-0.1655,-0.4528,0.1799
2474831.0,-6.4907,1.6927,9.9647,-0.3469,-0.6508,0.1176
2474841.0,-6.3901,1.5419,9.505,-0.3975,-0.7742,0.075
2474851.0,-6.3279,1.5826,8.8562,-0.3666,-0.8322,0.041
2474861.0,-6.2537,1.3862,8.5473,-0.3299,-0.8051,0.0085
2474871.0,-6.1651,1.4365,8.3366,-0.3544,-0.7811,-0.0479
2474881.0,-6.2201,1.7909,8.4539,-0.5028,-0.8019,-0.124
2474891.0,-6.3446,2.0183,8.9687,-0.6678,-0.8333,-0.1793
2474901.0,-6.3853,1.98,9.8593,-0.6811,-0.8652,-0.1958
2474911.0,-6.4883,1.968,10.4674,-0.4981,-0.9131,-0.1804
2474921.0,-6.3542,1.7885,10.8218,-0.2538,-0.9988,-0.1548
2474931.0,-6.3327,1.8148,11.0349,-0.0426,-1.1212,-0.1453
2474941.0,-6.3351,1.9728,10.8242,0.0442,-1.2925,-0.1564
2474951.0,-6.11,2.1883,10.058,-0.0511,-1.5202,-0.1884
2474961.0,-5.8155,2.4852,8.7724,-0.3304,-1.7315,-0.2416
2474971.0,-5.442,2.7102,7.8051,-0.7583,-1.8587,-0.3054
2474981.0,-5.1523,2.7677,7.2592,-1.1547,-1.8762,-0.3528
2474991.0,-5.0111,2.739,7.2784,-1.3925,-1.8177,-0.3704
2475001.0,-4.9057,2.1404,8.3103,-1.4138,-1.6724,-0.3421
2475011.0,-4.9991,1.3958,9.7588,-1.143,-1.5277,-0.2964
2475021.0,-5.126,1.233,10.5943,-0.8024,-1.5921,-0.2772
2475031.0,-5.0805,0.8859,10.8936,-0.5028,-1.7283,-0.2607
2475041.0,-4.9392,0.7374,10.5584,-0.3549,-1.9183,-0.274
2475051.0,-4.5729,0.9864,9.596,-0.4278,-2.1865,-0.3294
2475061.0,-4.1827,1.7406,7.841,-0.6332,-2.4264,-0.398
2475071.0,-3.7541,2.5115,6.0454,-0.8966,-2.485,-0.4331
2475081.0,-3.3854,3.1316,5.0877,-1.1393,-2.344,-0.4188
2475091.0,-3.2465,3.4812,5.0254,-1.2882,-2.0715,-0.3523
2475101.0,-3.1939,2.9712,6.1962,-1.35,-1.764,-0.2426
2475111.0,-2.9137,2.1644,7.5513,-1.2712,-1.5458,-0.1399
2475121.0,-2.8419,1.5658,8.77,-1.1701,-1.4883,-0.0809
2475131.0,-2.6288,1.4868,9.2632,-1.0557,-1.5532,-0.0458
2475141.0,-2.7102,1.7933,9.1985,-0.9035,-1.6453,-0.0048
2475151.0,-2.2314,2.3367,8.09,-0.7524,-1.7522,0.0676
2475161.0,-1.9058,2.6552,7.0054,-0.6188,-1.731,0.1793
2475171.0,-1.6927,2.6121,5.7269,-0.5103,-1.6378,0.3187
2475181.0,-1.1516,2.0542,4.1348,-0.5018,-1.5362,0.4518
2475191.0,-0.5842,1.1157,2.4445,-0.5741,-1.3239,0.5444
2475201.0,0.0383,0.3328,0.6009,-0.7545,-1.002,0.5624
2475211.0,0.5124,-0.4956,-0.3065,-1.094,-0.5741,0.5055
2475221.0,0.6608,-1.087,-0.0383,-1.3872,-0.016,0.4092
2475231.0,0.2873,-0.8787,0.7494,-1.5437,0.5247,0.3102
2475241.0,-0.3256,-0.5818,1.7406,-1.6245,0.8817,0.2634
2475251.0,-0.7542,-0.668,2.5355,-1.4489,1.1643,0.3054
2475261.0,-1.0247,-1.1157,2.9425,-0.911,1.4612,0.4049
2475271.0,-1.1133,-1.1444,1.9992,-0.1538,1.7038,0.4959
2475281.0,-1.0918,0.2251,-1.1612,0.4943,1.8847,0.5497
2475291.0,-1.6017,2.4062,-5.3774,0.7375,2.1934,0.6178
2475301.0,-2.557,4.3096,-8.3773,0.6125,2.825,0.7599
2475311.0,-4.9057,6.6176,-9.426,0.5018,3.8413,1.0084
2475321.0,-8.3773,7.9823,-7.1587,0.4959,5.0412,1.4122
2475331.0,-12.0859,8.1858,-3.0143,0.7529,6.1704,1.9454
2475341.0,-15.6222,5.4779,4.7908,1.1584,7.0904,2.5238
2475351.0,-16.8983,0.0239,14.7291,2.1348,7.7428,2.9985
2475361.0,-16.6182,-5.3271,23.4392,3.4896,7.8247,3.1198
2475371.0,-15.5144,-7.7668,31.2252,4.1675,7.141,2.7462
2475381.0,-13.8121,-9.1028,39.0255,4.0531,5.5526,2.013
2475391.0,-12.8736,-7.5824,40.2944,3.8775,3.3119,1.2169
2475401.0,-12.572,-3.0861,34.3592,3.4332,1.0153,0.5071
2475411.0,-12.2056,0.4166,25.3307,2.1194,-0.8764,-0.1325
2475421.0,-10.9319,3.1771,16.8959,0.0128,-1.9539,-0.6763
2475431.0,-10.5704,3.9552,14.0444,-2.2051,-2.2381,-1.077
2475441.0,-10.3286,4.209,12.481,-3.3496,-2.063,-1.2404
2475451.0,-9.8426,3.2825,13.3477,-3.6067,-1.7049,-1.2042
2475461.0,-9.2871,2.5977,14.7148,-3.0251,-1.3771,-1.0355
2475471.0,-8.9136,1.6664,16.8288,-1.872,-1.21,-0.7843
2475481.0,-8.2863,1.3599,16.7546,-0.2847,-1.2904,-0.4869
2475491.0,-7.5824,1.1971,14.619,1.2212,-1.4729,-0.2054
2475501.0,-6.7086,1.0271,11.8489,2.1524,-1.6096,-0.0186
2475511.0,-6.0286,0.6416,9.8593,2.4025,-1.6533,0.0287
2475521.0,-5.7269,0.8188,8.1451,2.113,-1.6948,-0.0654
2475531.0,-5.4157,1.0367,7.3119,1.4724,-1.6762,-0.2421
2475541.0,-5.272,1.4317,7.3406,0.7327,-1.5905,-0.4454
2475551.0,-5.2218,1.8435,8.1714,0.0612,-1.5213,-0.6279
2475561.0,-5.3654,2.2984,8.9591,-0.3613,-1.491,-0.746
2475571.0,-5.2409,2.6815,9.6295,-0.5545,-1.5208,-0.7865
2475581.0,-5.2337,2.8994,9.9934,-0.5353,-1.549,-0.7646
2475591.0,-5.3056,3.1532,10.0604,-0.4204,-1.6011,-0.7082
2475601.0,-5.4037,3.4093,9.7252,-0.3533,-1.7203,-0.6401
2475611.0,-5.1619,3.5075,8.8059,-0.348,-1.8384,-0.5646
2475621.0,-4.9608,3.3998,7.9296,-0.4257,-1.8895,-0.4959
2475631.0,-4.5083,3.1987,7.2209,-0.5209,-1.8656,-0.4401
2475641.0,-4.0342,3.1508,6.7062,-0.6194,-1.7709,-0.4039
2475651.0,-3.8307,3.3112,6.8163,-0.7114,-1.6033,-0.3661
2475661.0,-3.7828,3.2346,7.7069,-0.7779,-1.45,-0.3092
2475671.0,-3.6703,2.9928,8.3222,-0.7779,-1.3904,-0.2395
2475681.0,-3.6536,2.8611,8.6407,-0.8205,-1.4511,-0.1809
2475691.0,-3.6057,2.5786,8.8801,-0.9025,-1.5431,-0.1277
2475701.0,-3.5386,2.1931,8.9615,-0.9285,-1.6192,-0.0772
2475711.0,-3.4788,2.0063,8.5377,-0.9062,-1.7166,-0.0335
2475721.0,-3.1771,1.3982,7.9152,-0.8647,-1.7719,0.0149
2475731.0,-3.1771,1.3982,7.9152,-0.8647,-1.7719,0.0149
2475741.0,-2.557,0.6943,7.2185,-0.7774,-1.7384,0.0367
2475751.0,-2.0901,0.4214,6.6918,-0.7072,-1.5915,0.0117
2475761.0,-1.992,0.4645,6.9216,-0.7923,-1.4303,-0.0537
2475771.0,-2.1045,0.8068,7.288,-0.9945,-1.3814,-0.1256
2475781.0,-2.2242,1.087,7.1754,-1.2116,-1.4197,-0.1623
2475791.0,-1.9201,0.4764,7.1395,-1.3803,-1.4378,-0.1681
2475801.0,-1.7645,-0.012,6.5266,-1.4346,-1.3915,-0.19
2475811.0,-1.4892,-0.2035,6.7349,-1.5032,-1.3133,-0.2384
2475821.0,-1.4605,0.2274,6.7469,-1.3734,-1.1573,-0.2613
2475831.0,-1.4174,0.5291,7.0294,-1.2042,-1.0722,-0.2347
2475841.0,-1.0965,0.6656,6.1292,-0.9966,-1.0594,-0.157
2475851.0,-0.6704,0.1484,5.2936,-0.7992,-0.9509,-0.0612
2475861.0,-0.2753,-0.4477,4.4676,-0.5757,-0.7189,0.0133
2475871.0,-0.1867,-1.008,4.2234,-0.397,-0.4268,0.049
2475881.0,-0.091,-1.6065,4.4939,-0.2208,-0.124,0.05
2475891.0,-0.2011,-2.162,5.1284,-0.0011,0.2006,0.0197
2475901.0,-0.3232,-2.0039,5.8778,0.1926,0.4571,-0.0543
2475911.0,-0.759,-1.2546,6.7804,0.2964,0.6204,-0.1325
2475921.0,-1.0247,-0.5171,7.5776,0.3576,0.6965,-0.1655
2475931.0,-1.1827,0.1796,7.853,0.4023,0.687,-0.1548
2475941.0,-1.2139,0.7159,7.6974,0.4076,0.6417,-0.108
2475951.0,-1.1684,1.1444,7.0246,0.3954,0.5997,-0.0335
2475961.0,-1.075,1.4724,5.8969,0.3682,0.6002,0.0596
2475971.0,-0.8739,1.4293,4.2713,0.2623,0.6024,0.1607
2475981.0,-0.4046,1.5131,1.6927,0.0873,0.588,0.2469
2475991.0,3.7397,1.336,-1.2186,-0.0766,0.7109,0.3241
2476001.0,-2.6863,3.9935,-4.1324,-0.058,1.2866,0.4321
2476011.0,-0.8475,4.7692,-7.1204,0.0133,1.6879,0.6955
2476021.0,-2.1524,7.1084,-11.5161,0.4023,2.5547,1.0264
2476031.0,-5.5091,8.5329,-11.1282,0.8328,4.0531,1.4894
2476041.0,-9.1937,8.0038,-6.1627,1.492,5.5691,2.0699
2476051.0,-12.9071,5.3271,1.008,2.7085,6.91,2.6627
2476061.0,-14.8512,1.0678,7.3047,3.9717,7.6534,3.0416
2476071.0,-15.3061,-4.3455,13.1418,4.8502,8.0173,3.008
2476081.0,-14.2862,-7.4651,18.5479,4.7172,7.8444,2.4094
2476091.0,-14.2359,-7.4053,25.6587,3.4369,7.0116,1.3627
2476101.0,-13.9319,-4.1539,32.5947,2.0077,5.8351,0.3118
2476111.0,-14.3341,0.1915,34.5411,0.8221,4.2633,-0.4033
2476121.0,-14.4801,1.2282,33.4614,-0.8077,2.2184,-0.8195
2476131.0,-13.5751,0.8212,29.7001,-2.5494,0.3368,-1.0834
2476141.0,-13.5919,0.7566,28.2971,-3.3018,-0.6199,-1.2622
2476151.0,-14.2982,2.2745,25.3115,-2.5946,-0.9908,-1.2292
2476161.0,-13.4578,1.743,21.9261,-1.5612,-1.3085,-1.0323
2476231.0,-8.1451,4.4891,11.959,0.5683,-2.1912,-0.2416
2476241.0,-8.2169,4.1444,11.995,-0.1421,-2.2141,-0.2964
2476251.0,-8.1163,3.4692,12.4379,-0.7221,-2.3573,-0.3528
2476261.0,-7.7165,2.7869,12.3589,-0.9349,-2.5132,-0.3842
2476271.0,-7.1467,2.2817,11.8633,-0.7684,-2.5611,-0.389
2476281.0,-6.8881,2.5067,10.9487,-0.4406,-2.5371,-0.3868
2476291.0,-6.7373,3.0813,10.2472,-0.2762,-2.5643,-0.381
2476301.0,-6.4763,3.6966,9.5002,-0.2203,-2.6212,-0.3469
2476311.0,-6.2584,3.7757,9.0908,-0.1889,-2.6292,-0.2767
2476321.0,-5.9592,3.6966,8.3869,-0.1112,-2.5935,-0.1926
2476331.0,-5.7197,3.0191,8.3031,-0.1352,-2.5329,-0.1314
2476341.0,-5.3941,2.4756,8.0469,-0.249,-2.5142,-0.1293
2476351.0,-5.0709,2.3343,8.0996,-0.539,-2.5871,-0.2006
2476361.0,-4.7429,2.6432,7.9823,-0.8349,-2.6568,-0.2884
2476371.0,-4.6471,3.1987,8.1187,-1.0642,-2.7191,-0.3491
2476381.0,-4.5059,4.0199,7.7955,-1.1329,-2.7883,-0.3453
2476391.0,1.0487,2.3296,8.193,-1.1105,-2.858,-0.2735
2476401.0,-7.58,4.2521,7.8817,-0.936,-2.7069,-0.2081
2476411.0,-4.1037,3.4141,8.5928,-0.8652,-3.0128,-0.0202
2476421.0,-3.9313,2.6001,6.7804,-0.3113,-3.148,0.1564
2476431.0,-2.9736,1.2833,5.3056,0.4065,-2.8995,0.3384
2476441.0,0.68,-0.0814,4.2114,0.7061,-2.7563,0.3693
2476451.0,-4.4149,1.7095,3.3255,0.6295,-2.4999,0.2772
2476461.0,-1.0606,0.917,2.6863,0.1219,-2.7042,0.2033
2476471.0,-0.2825,1.719,0.4214,-0.0963,-2.5919,0.1027
2476481.0,-0.0311,2.5187,-0.4022,-0.2778,-2.1332,0.0591
2476491.0,-0.0096,3.2633,-0.6943,-0.5853,-1.8071,0.0676
2476501.0,0.0383,3.0718,0.1748,-0.7551,-1.4841,0.157
2476511.0,0.7446,2.0303,0.6776,-0.5183,-1.126,0.3198
2476521.0,0.8859,0.7901,1.8507,-0.0261,-0.655,0.4555
2476531.0,0.917,-0.067,2.9425,0.4406,-0.3544,0.5151
2476541.0,1.1085,-0.328,3.5171,0.7615,-0.281,0.4911
2476551.0,1.2546,0.1628,2.7126,1.0014,-0.2591,0.4284
2476561.0,1.4198,0.8332,1.5538,1.002,-0.182,0.3592
2476571.0,1.3743,1.3599,0.8859,0.8109,0.0218,0.2985
2476581.0,1.4341,1.0343,0.972,0.4677,0.3161,0.241
2476591.0,1.2354,1.2665,1.2426,-0.0559,0.5678,0.1394
2476601.0,0.905,1.5107,2.8754,-0.6699,0.7801,0.0511
2476611.0,0.4238,1.7621,4.8171,-0.9466,1.011,0.0436
2476621.0,0.0,1.8675,6.7828,-0.8317,1.1941,0.1256
2476631.0,-0.1867,1.5443,8.2097,-0.4246,1.325,0.2655
2476641.0,-0.3879,1.1277,9.0668,0.0372,1.3686,0.3959
2476651.0,-0.4046,0.1365,9.9934,0.3725,1.3532,0.4805
2476661.0,-0.2538,-0.7087,10.7069,0.6002,1.3074,0.4725
2476671.0,-0.4788,-0.8954,11.0995,0.6125,1.1456,0.3528
2476681.0,-0.7278,-0.656,10.817,0.3549,0.8056,0.1666
2476691.0,-0.6153,-0.067,9.5074,-0.0447,0.3416,-0.0404
2476701.0,-0.431,1.6592,5.375,-0.4145,-0.1022,-0.2091
2476711.0,-0.0886,3.7038,-1.1923,-0.9935,-0.431,-0.2799
2476721.0,2.4852,5.4205,-11.7962,-1.9002,-0.5167,-0.2176
2476731.0,1.3934,6.7109,-19.9245,-3.0474,0.3821,-0.0495
2476741.0,-1.3815,9.1913,-23.2453,-3.7743,2.3573,0.3331
2476751.0,-6.1675,10.252,-18.4928,-3.9642,4.5645,0.9871
2476761.0,-13.781,10.2017,-9.4954,-2.9852,6.5955,1.9614
2476771.0,-18.7227,4.2545,2.9018,-0.8604,8.1929,3.1474
2476781.0,-22.1488,-2.7557,12.0644,2.1737,9.2322,3.9499
2476791.0,-20.2909,-3.7661,17.9876,4.8529,9.7685,3.8796
2476801.0,-18.172,-16.0244,11.3102,5.0934,9.5163,3.0634
2476811.0,-20.7003,-11.9423,32.4103,-0.9817,8.2749,1.3548
2476821.0,-7.6303,-6.3087,21.95,-2.6824,6.4412,0.1011
2476831.0,-22.2661,-11.7675,51.6094,-5.1322,6.1996,-0.7705
2476841.0,-16.4458,-3.7637,31.7543,-4.2165,3.4758,-1.0509
2476851.0,-20.2741,-8.8681,50.9869,-5.5372,1.6751,-1.3537
2476861.0,-15.4713,-3.7445,31.2371,-3.1698,-0.5619,-1.1217
2476871.0,-14.0851,-7.8051,33.7439,-1.7852,-1.3,-0.928
2476881.0,-13.8385,-4.8818,22.9532,0.9083,-1.8278,-0.6604
2476891.0,-11.2887,-5.0996,20.3914,1.9821,-2.2067,-0.5353
2476901.0,-9.7636,-3.3399,15.5456,3.1506,-2.1838,-0.4321
2476911.0,-8.3701,-2.8587,12.8281,3.3406,-2.2498,-0.3959
2476921.0,-7.7859,-2.241,11.0588,3.0671,-2.2774,-0.4603
2476931.0,-6.3087,-1.5778,7.7189,2.4302,-2.3812,-0.5726
2476941.0,-6.1842,-1.494,6.9671,1.5373,-2.2429,-0.7577
2476951.0,-5.1427,-0.6081,5.0135,0.7189,-2.005,-0.9344
2476961.0,-5.2361,-0.3208,6.4524,-0.1203,-1.5676,-1.1196
2476971.0,-5.2744,0.9601,7.7692,-0.647,-1.1994,-1.2563
2476981.0,-5.5067,2.0662,10.4267,-0.9977,-0.9482,-1.3074
2476991.0,-6.2608,2.9856,13.0628,-1.0078,-0.8929,-1.243
2477001.0,-6.2249,3.8834,13.113,-0.8934,-1.1313,-1.0504
2477011.0,-5.8897,3.2705,13.702,-0.8567,-1.3681,-0.7992
2477021.0,-5.6575,2.5235,13.5536,-0.6433,-1.5304,-0.5486
2477031.0,-5.6719,1.1349,13.8026,-0.4438,-1.6597,-0.3437
2477041.0,-5.679,-0.5483,14.1378,-0.1948,-1.7943,-0.2081
2477051.0,-5.0973,-1.9058,14.4729,0.0761,-1.9385,-0.1974
2477061.0,-5.0494,-1.913,14.6238,0.3108,-2.0683,-0.3113
2477071.0,-5.2098,-0.7661,14.2335,0.2655,-2.3711,-0.4816
2477081.0,-5.0326,0.4286,13.3094,-0.0266,-2.7941,-0.6215
2477091.0,-4.7956,1.2905,11.9471,-0.2708,-3.14,-0.6827
2477101.0,-4.6855,2.047,9.9934,-0.3102,-3.3044,-0.6529
2477111.0,-4.5059,2.2817,8.5138,-0.2054,-3.2539,-0.5199
2477121.0,-4.0247,1.3934,8.3366,0.0048,-3.073,-0.3288
2477131.0,-3.5243,0.6632,8.1427,0.397,-2.8867,-0.1596
2477141.0,-3.1651,0.5674,7.9655,0.8168,-2.7659,-0.0362
2477151.0,-2.8826,0.6249,7.592,1.218,-2.6547,0.0803
2477161.0,-2.2601,0.5411,7.1898,1.5346,-2.5717,0.1884
2477171.0,-0.7135,0.2801,6.5386,1.7549,-2.5078,0.2645
2477181.0,0.3472,0.9553,7.829,1.7815,-2.4036,0.2836
2477191.0,-3.8523,1.8507,6.2656,2.3849,-2.2184,0.3826
2477201.0,-0.0048,-0.4405,6.1244,2.0172,-2.577,0.5374
2477211.0,-0.0359,0.4621,4.5729,2.1433,-2.3009,0.5433
2477221.0,-0.6201,0.3759,5.3917,2.1561,-2.0768,0.5917
2477231.0,1.0391,0.4956,3.395,2.2035,-2.0412,0.6385
2477241.0,1.5538,-0.1724,5.4444,2.1231,-1.7368,0.6465
2477251.0,0.6393,1.0989,3.2034,2.2822,-1.6788,0.6513
2477261.0,1.5514,0.4022,3.1508,2.0055,-1.6112,0.6497
2477271.0,2.0231,0.8284,1.0175,1.7384,-1.4543,0.5949
2477281.0,1.9441,0.6991,1.3575,1.2835,-1.1483,0.5007
2477291.0,2.296,0.9146,-0.1077,0.8955,-0.8716,0.4182
2477301.0,1.9632,0.1006,0.6823,0.4135,-0.472,0.3214
2477311.0,2.727,-0.2753,0.5818,0.0144,-0.1352,0.182
2477321.0,2.4157,-0.3543,2.4038,-0.3272,0.2767,-0.0011
2477331.0,2.1021,0.6225,2.976,-0.4012,0.5773,-0.1532
2477341.0,1.7933,1.3623,3.9576,-0.506,0.7944,-0.2607
2477351.0,1.4413,2.5091,4.1946,-0.5534,0.9583,-0.3203
2477361.0,1.2234,3.8858,3.8666,-0.7215,1.0004,-0.3257
2477371.0,0.9194,5.1451,2.6743,-0.9365,1.0147,-0.2389
2477381.0,0.759,6.5122,0.5938,-1.1275,1.1025,-0.0479
2477391.0,0.3687,6.8115,-3.3447,-1.3271,1.2616,0.2501
2477401.0,-0.3735,5.9759,-5.7126,-1.5272,1.815,0.6178
2477411.0,-1.4485,6.3566,-7.7596,-1.351,2.817,0.9759
2477421.0,-4.7549,5.1643,-5.8849,-1.11,4.1042,1.3404
2477431.0,-6.213,3.3112,0.0192,-0.5859,5.4398,1.7166
2477441.0,-7.8075,-0.0838,7.4555,0.3092,6.4966,1.9486
2477451.0,-8.5832,-3.3255,13.9726,1.0062,6.8345,1.8906
2477461.0,-7.4388,-5.4492,17.7769,0.9488,6.5876,1.4947
2477471.0,-8.3893,-5.8012,23.1615,-0.1905,6.0836,0.8046
2477481.0,-5.6862,-6.1723,25.3546,-2.179,4.9146,0.0255
2477491.0,-10.5656,-5.7964,34.3736,-3.8349,3.9765,-0.6763
2477501.0,-9.414,-3.7828,36.7271,-4.1356,2.3966,-0.9418
2477511.0,-11.0636,-3.3543,33.2531,-3.3981,0.8226,-0.92
2477521.0,-10.8816,-4.7142,31.7902,-2.0391,-0.1958,-0.7418
2477531.0,-7.944,-3.4285,24.021,-0.0261,-0.7913,-0.5491
2477541.0,-7.7596,-3.158,22.302,1.0797,-0.9147,-0.5055
2477551.0,-7.082,-0.3735,18.6101,1.8826,-1.0531,-0.5055
2477561.0,-6.8881,0.6656,18.1504,2.0045,-1.1632,-0.4773
2477571.0,-5.8993,1.9968,15.6365,1.815,-1.4335,-0.4518
2477581.0,-5.3965,2.7078,14.6932,1.16,-1.699,-0.4741
2477591.0,-4.6424,3.5362,12.7802,0.4821,-1.93,-0.4816
2477601.0,-3.9959,3.2825,11.9135,-0.1139,-1.9874,-0.4459
2477611.0,-3.5458,3.1364,11.5544,-0.4464,-1.9278,-0.3922
2477621.0,-3.5698,2.3296,13.2016,-0.4917,-1.8353,-0.3097
2477631.0,-3.6559,1.9417,14.1809,-0.0287,-1.9087,-0.1777
2477641.0,-3.5171,1.1229,15.3373,0.7732,-2.121,0.0043
2477651.0,-3.4261,0.8763,14.0085,1.9002,-2.4914,0.2059
2477661.0,-2.6719,0.668,10.0676,2.7931,-2.9628,0.3672
2477671.0,-0.1197,-0.5698,1.1971,3.0357,-3.2587,0.3235
2477681.0,1.2737,1.2953,0.8835,1.9257,-2.5323,-0.1458
2477691.0,-1.64,4.3048,1.6688,0.8727,-1.4069,-0.4661
2477701.0,-1.2522,3.5602,6.4476,-1.176,-1.358,-0.6678
2477711.0,-0.6895,3.4165,9.0166,-2.5116,-1.4835,-0.8503
2477721.0,-1.2857,3.2801,11.4922,-2.8825,-1.4745,-0.9163
2477731.0,-1.2546,3.1292,13.2256,-2.4929,-1.2845,-0.8391
2477741.0,-2.3774,2.7366,16.532,-1.9044,-1.2286,-0.7098
2477751.0,-2.3894,3.067,17.3316,-1.2334,-1.6687,-0.5577
2477761.0,-2.2673,3.3974,17.3651,-0.5779,-2.2109,-0.3959
2477771.0,-2.0351,3.9863,15.5623,0.2022,-2.6803,-0.182
2477781.0,-1.9728,4.1899,13.2711,0.8838,-2.983,0.05
2477791.0,-2.4421,3.8571,8.3845,1.2228,-3.2767,0.2677
2477801.0,0.0311,2.7749,5.928,0.7146,-3.4241,0.3565
2477811.0,1.1708,2.7725,3.7613,0.4177,-3.123,0.3395
2477821.0,1.5826,2.047,3.5147,0.3113,-2.5988,0.3448
2477831.0,2.3679,1.7957,2.6073,0.2224,-2.1513,0.3219
2477841.0,2.5929,1.6496,3.802,-0.0952,-1.7645,0.2442
2477851.0,3.0358,2.1955,3.8834,-0.3171,-1.491,0.1932
2477861.0,3.1173,2.4517,4.6543,-0.5374,-1.1999,0.182
2477871.0,3.0933,2.7198,5.1523,-0.7843,-1.0057,0.2027
2477881.0,3.2154,1.8411,6.3877,-1.0445,-0.8913,0.2474
2477891.0,3.2968,1.0056,7.1012,-1.0977,-0.8328,0.2751
2477901.0,3.2226,0.1891,7.9057,-1.0163,-0.8226,0.2735
2477911.0,3.3136,-0.2705,7.9679,-0.6976,-0.8136,0.2703
2477921.0,3.4836,-0.3352,7.7812,-0.2921,-0.7689,0.2543
2477931.0,3.5745,0.5339,6.9791,0.0681,-0.7184,0.2272
2477941.0,3.5099,1.6855,6.2608,0.224,-0.6572,0.2288
2477951.0,3.5578,2.4014,5.7269,0.2309,-0.5449,0.2873
2477961.0,3.5243,2.8443,5.4253,0.0915,-0.4448,0.3778
2477971.0,3.3088,2.6647,5.5234,-0.133,-0.3592,0.489
2477981.0,3.2681,1.9728,5.5665,-0.307,-0.3092,0.6109
2477991.0,3.45,1.1612,5.0302,-0.4049,-0.2916,0.704
2478001.0,3.6224,0.4621,4.3598,-0.4975,-0.2607,0.7529
2478011.0,3.9696,-0.2466,3.4093,-0.5763,-0.1953,0.7646
2478021.0,4.1468,-0.6177,2.1261,-0.6795,-0.0958,0.7231
2478031.0,4.0989,-0.2921,0.4836,-0.8594,0.0005,0.647
2478041.0,4.3503,0.4573,-2.0351,-1.0004,0.1628,0.6114
2478051.0,6.0334,0.5195,-3.7278,-1.1744,0.4869,0.6332
2478061.0,2.6073,1.6233,-8.3462,-1.2137,0.9668,0.7364
2478071.0,3.1077,-0.5171,-9.9335,-1.7145,1.4415,0.8647
2478081.0,3.7541,-1.652,-11.7675,-1.7012,2.3887,0.9275
2478091.0,0.4741,-1.9872,-9.3158,-1.2308,3.8248,0.9802
2478101.0,-2.2242,-1.8052,-4.707,-0.4337,5.0019,1.0834
2478111.0,-4.7022,-1.1253,0.7422,0.829,5.966,1.2531
2478121.0,-6.9528,-0.8954,6.9815,2.3754,6.7376,1.4521
2478131.0,-8.1906,-0.6081,11.971,3.8754,7.2005,1.5756
2478141.0,-8.7149,-0.6369,17.2598,4.6677,7.258,1.4926
2478151.0,-8.2169,0.328,18.1696,4.2904,6.6876,1.176
2478161.0,-8.6431,-0.3663,26.2859,2.1513,5.8176,0.6188
2478171.0,-8.6957,0.7853,27.2987,0.4417,4.4878,0.182
2478181.0,-8.102,-1.1756,30.04,-1.126,3.0506,-0.1256
2478191.0,-6.8115,-1.1588,27.3873,-1.5437,1.8416,-0.3118
2478201.0,-6.4859,-0.9984,26.1375,-1.1909,1.1627,-0.4119
2478211.0,-5.8658,0.5243,23.0035,-0.2299,0.6763,-0.4225
2478221.0,-5.5426,2.3415,19.5295,0.7742,0.3517,-0.3682
2478231.0,-5.3415,3.9744,15.7778,1.4787,0.1501,-0.2554
2478241.0,-4.0223,4.6448,12.2416,1.7033,0.0681,-0.1256
2478251.0,-3.644,5.0661,10.6805,1.6469,0.3693,-0.0314
2478261.0,-3.7852,5.4588,10.4028,1.2308,0.6886,0.0404
2478271.0,-3.8762,4.7932,12.3325,0.4576,0.804,0.0814
2478281.0,-3.9073,4.2066,13.872,-0.1591,0.6476,0.1006
2478291.0,-3.7948,3.7709,14.5567,-0.4624,0.414,0.1288
2478301.0,-3.6488,3.4093,14.3628,-0.5795,0.1735,0.1729
2478311.0,-3.6176,3.1987,13.7858,-0.6582,-0.1006,0.2123
2478321.0,-3.4907,3.0143,12.6486,-0.6657,-0.3358,0.2634
2478331.0,-3.4572,2.6911,11.3389,-0.6167,-0.4677,0.3209
2478341.0,-3.3375,1.9632,10.5991,-0.5135,-0.4709,0.3794
2478351.0,-2.9808,0.7518,10.252,-0.3416,-0.4049,0.4108
2478361.0,-2.5833,-0.3783,9.845,-0.1995,-0.339,0.3608
2478371.0,-2.3415,-0.7135,9.3158,-0.2506,-0.3219,0.2123
2478381.0,-2.1284,-0.4405,9.2129,-0.5055,-0.3235,0.0122
2478391.0,-2.2625,0.7829,8.9926,-0.8067,-0.2953,-0.174
2478401.0,-2.6145,1.664,9.6343,-1.1781,-0.2512,-0.2788
2478411.0,-2.9401,1.8818,10.8577,-1.4239,-0.2868,-0.2852
2478421.0,-3.1915,1.6999,11.6981,-1.3569,-0.3975,-0.2128
2478431.0,-3.0263,1.0247,12.141,-0.9802,-0.4778,-0.0952
2478441.0,-2.7892,0.1317,12.5743,-0.4198,-0.4752,0.0037
2478451.0,-2.8323,0.0144,12.4498,0.0181,-0.5715,0.0213
2478461.0,-2.6384,0.5148,11.3964,0.0921,-0.8556,-0.0213
2478471.0,-2.0901,1.2426,9.8904,-0.1421,-1.1132,-0.0756
2478481.0,-1.7717,1.6951,8.9687,-0.4683,-1.1685,-0.1032
2478491.0,-1.6568,2.1428,8.3582,-0.7769,-1.1286,-0.099
2478501.0,-2.0016,2.3008,8.1954,-1.1047,-1.0892,-0.0564
2478511.0,-2.0518,1.4796,8.8657,-1.3643,-1.1052,0.0319
2478521.0,-1.6951,0.3232,8.9184,-1.2058,-1.1057,0.1437
2478531.0,-1.1923,-0.6345,8.1714,-0.7088,-1.0121,0.2277
2478541.0,-0.7925,-0.9146,7.1323,-0.1894,-0.7923,0.2692
2478551.0,-0.759,-0.9385,7.0533,0.067,-0.5199,0.2661
2478561.0,-0.5962,-0.5052,7.2856,0.0665,-0.3613,0.2331
2478571.0,-0.7614,-0.2801,7.9918,-0.0474,-0.2533,0.2043
2478581.0,-0.7542,-0.5555,9.0142,-0.0915,-0.1511,0.2086
2478591.0,-0.7614,-1.2977,9.9383,-0.0809,-0.0995,0.2112
2478601.0,-0.5124,-2.6983,11.4347,-0.0862,-0.1245,0.1676
2478611.0,-0.1317,-3.4022,12.3277,-0.0495,-0.3038,0.0298
2478621.0,-0.0431,-3.0837,12.3517,-0.0208,-0.6013,-0.1761
2478631.0,-0.2011,-2.0614,11.5568,-0.0383,-0.9413,-0.365
2478641.0,-0.0144,-0.8691,10.2807,-0.0564,-1.2345,-0.4848
2478651.0,-0.0311,0.4022,8.5329,0.0,-1.434,-0.5263
2478661.0,0.0479,1.8411,4.525,0.0921,-1.5724,-0.4661
2478671.0,0.5124,1.7621,1.1133,-0.1048,-1.5064,-0.3485
2478681.0,1.506,1.2809,-3.4022,-0.3815,-1.2223,-0.2453
2478691.0,2.5379,0.0551,-5.5354,-0.6827,-0.5608,-0.2118
2478701.0,2.0782,0.9361,-6.4452,-0.564,0.5976,-0.2182
2478711.0,0.3208,2.6911,-4.4604,-0.5172,1.7251,-0.1963
2478721.0,-1.0558,4.6184,-2.8826,-0.6343,2.4238,-0.0756
2478731.0,-2.1883,5.7197,-2.4038,-1.0094,2.8,0.1378
2478741.0,-3.055,4.8578,-0.9744,-1.4564,3.3002,0.4321
2478751.0,-4.0582,1.9369,3.5075,-1.5772,4.0696,0.7263
2478761.0,-5.6982,-0.6177,9.3134,-1.2616,4.7119,0.8961
2478771.0,-6.7636,-2.5953,15.4546,-0.8471,4.8263,0.9184
2478781.0,-6.9432,-3.2489,20.1568,-0.2474,4.5006,0.8359
2478791.0,-7.0318,-2.3679,22.8455,0.4326,3.9781,0.7045
2478801.0,-7.2903,-0.6967,24.0785,0.8705,3.2879,0.5853
2478811.0,-7.5561,0.8236,23.4201,0.8796,2.3961,0.5273
2478821.0,-7.1778,0.6249,22.0482,0.5028,1.4835,0.5374
2478831.0,-6.3734,-0.6464,20.334,0.191,0.8322,0.5577
2478841.0,-5.8873,-2.071,19.0842,0.0516,0.4805,0.5279
2478851.0,-5.6455,-3.2585,18.6436,0.0553,0.2565,0.4315
2478861.0,-5.5043,-3.4022,17.4705,0.1511,-0.074,0.2719
2478871.0,-4.9895,-3.0287,15.3827,0.2384,-0.4629,0.0995
2478881.0,-4.3311,-2.4995,13.0819,0.3874,-0.6242,-0.0372
2478891.0,-4.0701,-1.6951,11.0971,0.5055,-0.5864,-0.141
2478901.0,-3.8858,-1.1181,9.5864,0.431,-0.5497,-0.2182
2478911.0,-3.6966,-0.917,8.5976,0.2607,-0.4784,-0.2719
2478921.0,-3.4405,-0.8811,8.09,0.116,-0.3427,-0.3145
2478931.0,-3.3782,-0.4381,7.9344,0.0708,-0.1495,-0.3549
2478941.0,-3.4788,0.3759,8.1116,0.0266,0.0394,-0.3751
2478951.0,-3.6296,0.9888,8.509,-0.1139,0.1527,-0.3576
2478961.0,-3.7014,1.221,9.1051,-0.2884,0.1836,-0.3038
2478971.0,-3.6919,0.8021,9.8665,-0.4001,0.1841,-0.2214
2478981.0,-3.5626,-0.0407,10.6231,-0.3741,0.1687,-0.141
2478991.0,-3.6464,-0.9625,11.3725,-0.2038,0.1266,-0.0937
2479001.0,-3.4955,-1.7765,11.6358,0.0649,0.0229,-0.0937
2479011.0,-3.2896,-2.071,11.3964,0.3065,-0.108,-0.1591
2479021.0,-3.2825,-1.5897,10.8864,0.4241,-0.2416,-0.2661
2479031.0,-3.2585,-0.6895,10.2041,0.4241,-0.3443,-0.3661
2479041.0,-3.2226,0.3041,9.5888,0.3209,-0.4156,-0.4353
2479051.0,-3.2106,0.9313,9.2368,0.1543,-0.4135,-0.4528
2479061.0,-3.2465,1.1803,9.4834,-0.066,-0.3954,-0.439
2479071.0,-3.3064,1.2641,9.7348,-0.2868,-0.4294,-0.4103
2479081.0,-3.304,0.8882,10.4627,-0.4214,-0.4688,-0.364
2479091.0,-3.3375,0.5028,10.9128,-0.3741,-0.5225,-0.3155
2479101.0,-3.2705,0.0527,11.4539,-0.1873,-0.5827,-0.2692
2479111.0,-3.3088,0.1173,11.5879,0.0937,-0.679,-0.232
2479121.0,-3.201,0.3639,11.2216,0.3884,-0.7955,-0.1884
2479131.0,-3.0765,0.8595,10.3286,0.5981,-0.8955,-0.141
2479141.0,-2.8515,1.4078,9.256,0.5986,-0.9621,-0.1
2479151.0,-2.7246,1.6161,8.5593,0.3741,-0.9887,-0.0601
2479161.0,-2.545,1.1444,8.5114,0.0548,-0.9541,-0.0229
2479171.0,-2.5307,0.3328,8.9495,-0.216,-0.9285,-0.0112
2479181.0,-2.2697,-0.5818,9.2727,-0.3054,-0.9323,-0.0239
2479191.0,-2.0806,-1.166,9.5074,-0.1783,-0.8663,-0.0607
2479201.0,-1.9896,-0.9984,9.6702,0.0138,-0.7971,-0.124
2479211.0,-2.0901,-0.2873,9.7947,0.1139,-0.7801,-0.1884
2479221.0,-2.1452,0.6416,9.6606,0.0718,-0.8344,-0.2283
2479231.0,-2.2769,1.1971,9.7707,-0.0702,-0.911,-0.2198
2479241.0,-2.1524,1.3527,9.8474,-0.1554,-0.9982,-0.1666
2479251.0,-2.1189,1.2546,9.6582,-0.0676,-1.0004,-0.0777
2479261.0,-1.9249,0.3496,10.3525,0.1139,-0.8854,0.025
2479271.0,-1.8387,-0.4166,11.4323,0.323,-0.7955,0.0756
2479281.0,-1.9106,-0.7135,12.7922,0.4385,-0.8354,0.0553
2479291.0,-2.1141,-0.4262,13.6206,0.456,-1.0163,0.0016
2479301.0,-2.3727,0.1652,13.8193,0.3102,-1.4016,-0.0575
2479311.0,-2.1237,0.8236,12.4522,0.1527,-1.8603,-0.0819
2479321.0,-1.7047,1.2498,9.9718,0.017,-2.2035,-0.0708
2479331.0,-1.0367,1.4605,6.7947,-0.1399,-2.3567,-0.0372
2479341.0,-0.2251,0.9529,5.126,-0.3161,-2.1939,0.017
2479351.0,0.1077,0.4717,5.0278,-0.2634,-1.7991,0.075
2479361.0,0.0144,0.1413,5.5043,-0.0096,-1.4654,0.1373
2479371.0,0.0575,0.3639,3.9409,0.2522,-1.4106,0.1963
2479381.0,0.5531,0.6249,-0.6536,0.141,-1.5846,0.2315
2479391.0,2.0399,-0.012,-6.7229,-0.4135,-1.6102,0.2283
2479401.0,6.1962,-2.1955,-11.6095,-1.0722,-1.002,0.1501
2479411.0,0.7302,-1.8459,-13.0269,-1.5463,0.3406,-0.0074
2479421.0,2.0949,-2.7988,-10.7619,-1.6549,1.4963,-0.1575
2479431.0,0.1508,-2.4684,-8.5832,-0.762,2.9883,-0.2256
2479441.0,-2.5115,-2.5809,-3.8954,0.2496,4.4027,-0.2575
2479451.0,-4.1587,-2.3727,1.3743,0.9759,5.2562,-0.3485
2479461.0,-6.1842,-1.2043,7.7859,1.6176,5.8282,-0.4917
2479471.0,-7.8434,0.7111,12.9598,2.1002,5.9485,-0.6141
2479481.0,-10.8098,2.8659,16.6996,2.1529,5.5132,-0.6923
2479491.0,-7.2353,2.794,19.1153,1.939,4.7401,-0.6928
2479501.0,-7.343,3.5841,21.713,1.8624,4.4272,-0.6795
2479511.0,-9.5361,4.3694,24.5956,1.4138,4.0057,-0.6625
2479521.0,-8.5162,3.8379,27.8805,0.2655,2.7654,-0.6832
2479531.0,-8.77,4.2832,27.4926,-0.5114,1.5282,-0.6529
2479541.0,-8.2313,3.814,26.274,-0.8753,0.5007,-0.5236
2479551.0,-7.9799,3.6943,23.7433,-0.6625,-0.2043,-0.323
2479561.0,-7.6519,3.4333,20.899,-0.1756,-0.7045,-0.0782
2479571.0,-6.9959,3.0311,17.3747,0.4305,-1.0041,0.1713
2479581.0,-6.0621,2.2098,14.2886,0.9003,-1.0371,0.3704
2479591.0,-5.4492,1.5586,12.0692,1.0387,-0.9051,0.4544
2479601.0,-4.968,1.1516,11.3581,0.7615,-0.7604,0.4198
2479611.0,-4.7908,1.063,11.6047,0.2703,-0.6699,0.3134
2479621.0,-4.7357,0.9457,12.4355,-0.2783,-0.7109,0.1932
2479631.0,-4.5633,0.6057,13.2806,-0.6588,-0.8386,0.0979
2479641.0,-4.5705,0.589,13.3692,-0.8242,-1.0509,0.0293
2479651.0,-4.4365,0.5483,13.0556,-0.8477,-1.3228,-0.0069
2479661.0,-4.1946,0.7039,11.9231,-0.6306,-1.5341,0.0005
2479671.0,-3.723,0.7494,10.4004,-0.2565,-1.6033,0.0479
2479681.0,-3.3136,0.9122,8.746,0.1203,-1.5298,0.1032
2479691.0,-3.0382,0.8404,7.9104,0.3161,-1.351,0.1453
2479701.0,-2.8515,0.8811,7.4699,0.3198,-1.1792,0.1511
2479711.0,-2.5786,0.7374,7.6854,0.1554,-1.0546,0.1229
2479721.0,-2.4086,0.6393,8.1738,-0.0106,-0.9126,0.0793
2479731.0,-2.4421,0.3448,9.2416,-0.1969,-0.8226,0.0213
2479741.0,-2.5809,0.2801,10.1107,-0.3177,-0.8429,-0.0452
2479751.0,-2.6169,0.1053,10.7859,-0.3698,-0.9477,-0.1011
2479761.0,-2.4157,-0.158,10.8864,-0.2895,-1.0754,-0.149
2479771.0,-2.2051,-0.3136,10.659,-0.1378,-1.177,-0.2022
2479781.0,-2.0446,-0.3663,10.4603,0.0245,-1.2036,-0.2618
2479791.0,-2.0087,0.0814,10.5153,0.1144,-1.2345,-0.3342
2479801.0,-2.0327,0.838,10.4722,0.1399,-1.3143,-0.3858
2479811.0,-2.0446,2.0758,9.5385,0.1171,-1.4606,-0.3938
2479821.0,-1.7693,2.9544,8.2289,0.0192,-1.5719,-0.3331
2479831.0,-1.4078,3.1029,7.2329,-0.0484,-1.4841,-0.2086
2479841.0,-1.0558,2.3511,7.1084,-0.1027,-1.2451,-0.0713
2479851.0,-1.0247,1.2306,8.023,-0.1953,-1.0062,0.0138
2479861.0,-0.8715,0.0048,9.3661,-0.3225,-0.9514,0.0202
2479871.0,-0.7159,-0.4621,9.73,-0.3672,-1.0701,-0.0479
2479881.0,-0.5866,-0.3591,9.4715,-0.3006,-1.1935,-0.1352
2479891.0,-0.4046,0.3256,8.4491,-0.1203,-1.2473,-0.1969
2479901.0,-0.2251,1.3048,7.2736,0.0378,-1.2318,-0.2176
2479911.0,0.0934,2.1284,6.3949,0.19,-1.0839,-0.174
2479921.0,0.1508,2.7461,5.8993,0.3118,-0.8296,-0.0798
2479931.0,0.1221,2.8084,6.11,0.3113,-0.5997,0.0367
2479941.0,0.1796,2.3008,6.5577,0.2421,-0.431,0.1442
2479951.0,0.2251,1.6879,6.7445,0.1144,-0.3661,0.2097
2479961.0,0.5387,0.8859,6.5505,0.0112,-0.3246,0.2379
2479971.0,0.7757,0.34,6.1292,-0.016,-0.2246,0.2246
2479981.0,0.9601,0.2921,5.7413,-0.0261,-0.0926,0.1793
2479991.0,1.1372,0.4956,5.5354,-0.0149,0.0782,0.1336
2480001.0,0.8404,1.3671,4.5873,-0.0298,0.2166,0.1027
2480011.0,0.747,1.8196,2.9018,-0.3241,0.19,0.0963
2480021.0,0.9625,1.8196,-0.3065,-0.7742,0.1479,0.1149
2480031.0,1.5203,1.1612,-4.0845,-1.2398,0.3459,0.132
2480041.0,1.3671,0.3017,-6.3327,-1.4037,1.1313,0.1527
2480051.0,0.1844,-0.7326,-5.1954,-1.1983,2.3732,0.1618
2480061.0,-1.5179,-1.2282,-1.0247,-0.7242,3.5806,0.133
2480071.0,-3.5147,-1.1181,3.7517,-0.1415,4.4139,0.083
2480081.0,-4.6567,-1.5897,8.4755,0.2256,4.6927,0.008
2480091.0,-5.3367,-1.075,11.3342,0.4975,4.5794,-0.1112
2480101.0,-6.0166,0.4238,13.2375,0.6987,4.3649,-0.2283
2480111.0,-7.2089,2.9066,14.1306,0.8615,4.1547,-0.2645
2480121.0,-7.6136,3.4381,16.2423,0.9269,3.9951,-0.1618
2480131.0,-7.6255,2.6815,18.8663,1.0754,3.9259,-0.0181
2480141.0,-8.1235,1.5036,22.3954,0.9493,3.6625,0.0298
2480151.0,-8.2887,0.182,25.5653,0.423,2.9053,-0.0383
2480161.0,-7.8817,-0.826,27.0617,-0.1522,1.8092,-0.1809
2480171.0,-7.5896,-0.5507,25.5126,-0.4741,0.7364,-0.3411
2480181.0,-7.2329,0.4741,22.4576,-0.6747,-0.1197,-0.456
2480191.0,-6.7995,1.4317,19.6588,-0.7577,-0.6518,-0.472
2480201.0,-6.4955,2.3224,17.3699,-0.5938,-0.8796,-0.3842
2480211.0,-6.3255,2.8826,15.4402,-0.2559,-0.9184,-0.2155
2480221.0,-6.122,3.0143,13.6469,0.033,-0.9285,-0.0192
2480231.0,-5.612,2.375,12.4882,0.149,-0.9158,0.1474
2480241.0,-5.0733,1.7095,11.7316,0.157,-0.862,0.241
2480251.0,-4.719,1.3982,11.473,0.0596,-0.7934,0.2618
2480261.0,-4.5921,1.2019,11.5496,-0.158,-0.7992,0.232
2480271.0,-4.3574,1.0942,11.4802,-0.4619,-0.9296,0.1751
2480281.0,-4.0606,0.9385,11.1163,-0.7168,-1.0807,0.1192
2480291.0,-3.7757,0.7183,10.9439,-0.8051,-1.1377,0.0788
2480301.0,-3.7254,0.6416,10.7643,-0.7258,-1.1531,0.0527
2480311.0,-3.5985,0.3112,10.5417,-0.6024,-1.1898,0.0335
2480321.0,-3.3926,0.3783,9.9431,-0.4943,-1.26,-0.0005
2480331.0,-3.3208,0.8332,9.4068,-0.4081,-1.3143,-0.0319
2480341.0,-3.1173,1.2617,8.3821,-0.29,-1.3228,-0.0261
2480351.0,-2.7557,1.5012,7.2137,-0.2581,-1.3,-0.0032
2480361.0,-2.399,1.4581,6.4356,-0.3022,-1.1818,0.0271
2480371.0,-2.1763,1.0965,6.4165,-0.39,-0.9807,0.0474
2480381.0,-2.0518,0.3831,7.0988,-0.4709,-0.779,0.0447
2480391.0,-1.9944,-0.261,7.9607,-0.5055,-0.6332,0.0069
2480401.0,-1.9201,-0.8428,9.1075,-0.5396,-0.5859,-0.0697
2480411.0,-1.9704,-0.5722,9.6869,-0.489,-0.6417,-0.1697
2480421.0,-1.9824,0.4022,9.6247,-0.3549,-0.7317,-0.2336
2480431.0,-1.968,1.5969,8.7628,-0.2171,-0.8019,-0.2246
2480441.0,-1.9178,2.3511,8.0828,-0.1431,-0.7992,-0.1415
2480451.0,-1.7909,2.466,7.9464,-0.0521,-0.6737,-0.0005
2480461.0,-1.7861,1.7957,8.3989,0.0388,-0.4757,0.1501
2480471.0,-1.6712,0.5219,9.6223,0.0649,-0.3209,0.2458
2480481.0,-1.731,-0.2921,10.817,-0.0005,-0.3081,0.2522
2480491.0,-1.7166,-0.9026,12.0261,-0.1687,-0.4661,0.1878
2480501.0,-1.5826,-0.8068,12.0141,-0.2767,-0.7333,0.0915
2480511.0,-1.585,-0.0934,11.1642,-0.3368,-0.9881,0.0165
2480521.0,-1.4964,0.6584,9.742,-0.3501,-1.135,0.0016
2480531.0,-1.336,0.8356,8.7364,-0.34,-1.1424,0.0452
2480541.0,-1.1061,0.3136,8.4276,-0.1974,-0.9839,0.1245
2480551.0,-0.8523,-0.5291,8.5808,0.041,-0.7359,0.1868
2480561.0,-0.8547,-1.1827,9.3709,0.165,-0.5577,0.1804
2480571.0,-0.8499,-1.3336,10.2232,0.1059,-0.5523,0.1043
2480581.0,-0.905,-0.9505,10.8577,-0.0016,-0.6566,0.0128
2480591.0,-0.8882,-0.2729,10.8433,-0.0255,-0.7843,-0.0357
2480601.0,-0.7877,0.5148,10.2113,-0.0021,-0.9174,-0.0335
2480611.0,-0.7159,1.1492,9.1937,-0.05,-1.0504,0.0138
2480621.0,-0.5914,0.905,8.3917,-0.1692,-1.1664,0.0984
2480631.0,0.0144,0.0096,6.9456,-0.2288,-1.2936,0.1809
2480641.0,0.6991,-0.8691,4.7477,-0.2389,-1.3553,0.2166
2480651.0,1.4126,-1.5658,2.1548,-0.2794,-1.2856,0.1948
2480661.0,1.8794,-1.4653,-1.652,-0.4789,-1.2111,0.1165
2480671.0,3.735,-1.6448,-6.7516,-0.969,-1.1244,0.008
2480681.0,4.5059,-3.4716,-8.5521,-1.5304,-0.4778,-0.1288
2480691.0,-1.7023,-3.0981,-9.5002,-1.8007,0.4236,-0.2964
2480701.0,2.0423,-3.5171,-9.7564,-1.8384,0.5454,-0.5013
2480711.0,0.5602,-0.4812,-14.2431,-0.0516,2.0077,-0.5167
2480721.0,-2.4373,0.0048,-12.3086,1.5123,3.9371,-0.389
2480731.0,-4.628,0.1604,-8.2073,2.519,5.4419,-0.3272
2480741.0,-8.3246,0.3783,-1.3312,3.1379,6.8004,-0.3916
2480751.0,-10.9702,0.5267,7.7165,3.239,7.6342,-0.564
2480761.0,-16.01,1.1444,17.0228,2.9628,7.854,-0.8147
2480771.0,-11.1139,0.9553,27.0569,2.2961,7.1856,-1.0935
2480781.0,-14.0372,5.1834,35.3528,1.7001,6.2906,-1.3196
2480791.0,-14.4203,5.9544,40.6296,0.6864,4.3096,-1.2952
2480801.0,-12.5504,5.9256,39.7701,-0.3326,1.6953,-1.1302
2480811.0,-11.1378,4.6352,34.0479,-0.6731,-0.2341,-0.8647
2480821.0,-9.7013,4.8459,28.4383,-0.481,-1.3409,-0.6039
2480831.0,-9.165,6.0932,20.9852,0.1469,-1.7778,-0.2905
2480841.0,-8.2576,5.5857,17.0683,0.3411,-1.8629,0.0506
2480851.0,-7.2903,4.3838,13.8337,0.4427,-1.7395,0.3512
2480861.0,-6.3422,2.3894,12.8808,0.3565,-1.4947,0.53
2480871.0,-5.9041,0.8116,12.8712,0.2315,-1.2563,0.5598
2480881.0,-5.5186,-0.2705,13.2639,0.0027,-1.2233,0.4656
2480891.0,-5.2361,-0.395,13.0604,-0.2522,-1.367,0.2953
2480901.0,-4.9895,-0.2155,12.9742,-0.4842,-1.5373,0.1245
2480911.0,-4.7477,0.4956,12.4522,-0.5358,-1.7028,0.0
2480921.0,-4.4245,1.4796,11.2527,-0.4438,-1.8491,-0.0553
2480931.0,-4.1348,2.5546,9.7612,-0.3209,-1.9108,-0.0394
2480941.0,-3.7373,2.7725,8.2672,-0.2581,-1.8885,0.041
2480951.0,-3.3016,2.241,7.2065,-0.2602,-1.79,0.1368
2480961.0,-2.7438,1.7741,6.8331,-0.2607,-1.6022,0.1953
2480971.0,-2.624,1.166,7.2592,-0.1149,-1.2675,0.2246
2480981.0,-2.6264,0.51,7.2999,0.0239,-0.9695,0.2373
2480991.0,-2.4588,0.067,8.5114,-0.207,-0.8524,0.1501
2481001.0,-2.6145,0.5004,10.1155,-0.4997,-0.7934,0.0223
2481011.0,-3.0263,0.8404,12.3613,-0.638,-0.8413,-0.0601
2481021.0,-3.3136,1.4557,13.1106,-0.4991,-1.0871,-0.0718
2481031.0,-3.3136,1.9752,12.0979,-0.3225,-1.4591,-0.0208
2481041.0,-2.7988,1.8651,10.3956,-0.2565,-1.7709,0.0553
2481051.0,-2.1596,1.7813,8.2049,-0.2198,-1.8768,0.124
2481061.0,-1.64,1.4605,6.6631,-0.2698,-1.764,0.1697
2481071.0,-1.2617,0.8715,6.3039,-0.414,-1.5234,0.1921
2481081.0,-1.0223,0.0168,7.3957,-0.5513,-1.2755,0.182
2481091.0,-1.0391,-0.4022,8.6886,-0.513,-1.1393,0.1527
2481101.0,-1.0319,-0.7326,9.4691,-0.3225,-1.1111,0.1266
2481111.0,-0.8954,-0.7925,9.4164,-0.1517,-1.2127,0.0857
2481121.0,-0.4741,-0.7805,8.6766,-0.0782,-1.3564,0.0298
2481131.0,-0.1149,-0.4645,7.5585,-0.0282,-1.3904,-0.0282
2481141.0,0.0527,-0.158,6.924,-0.0213,-1.3074,-0.0724
2481151.0,0.2538,-0.0838,7.2185,0.0596,-1.1238,-0.0814
2481161.0,0.2274,0.0838,7.695,0.3283,-0.8844,-0.0543
2481171.0,0.2203,0.2155,8.2911,0.5763,-0.7253,-0.017
2481181.0,0.0383,0.3208,8.7628,0.6902,-0.6854,0.0096
2481191.0,0.1365,0.3855,8.7939,0.6598,-0.7758,0.0202
2481201.0,0.565,-0.1101,8.3199,0.5805,-0.8679,0.0138
2481211.0,1.0247,-0.3065,7.276,0.4438,-0.9025,-0.0479
2481221.0,1.2019,-0.4094,7.0222,0.1405,-0.8753,-0.1623
2481231.0,1.3623,-0.5435,7.944,-0.0676,-0.762,-0.2692
2481241.0,1.1923,0.0263,8.9519,0.0069,-0.6822,-0.3368
2481251.0,1.0056,0.8595,9.256,0.2714,-0.7189,-0.3315
2481261.0,0.9385,1.6544,8.5186,0.571,-0.8583,-0.2623
2481271.0,1.2665,2.3152,6.2608,0.7662,-1.0052,-0.1607
2481281.0,2.0518,2.4636,3.6943,0.7524,-1.0217,-0.067
2481291.0,3.3854,1.312,2.2338,0.6013,-0.7333,-0.0149
2481301.0,0.1963,2.7773,0.4142,0.3336,-0.373,-0.0085
2481311.0,2.1452,2.3846,-1.822,-0.1639,-0.3693,-0.0048
2481321.0,3.383,1.9728,-4.9512,-0.2629,0.2001,0.0633
2481331.0,2.6647,0.5938,-4.0821,-0.2272,1.2771,0.1139
2481341.0,1.6759,0.091,-2.6456,-0.1474,2.0768,0.0878
2481351.0,0.6105,-0.0096,-1.4748,-0.2549,2.3993,0.0064
2481361.0,-0.0383,0.1724,-1.585,-0.1846,2.6962,-0.0463
2481371.0,-1.0965,0.067,-0.6919,0.2192,3.3736,-0.0591
2481381.0,-2.6169,-0.0383,1.968,0.754,4.2159,-0.0819
2481391.0,-4.118,-0.249,6.5481,1.119,4.8428,-0.1596
2481401.0,-5.351,0.3496,10.6303,1.2606,4.996,-0.2975
2481411.0,-6.2608,1.5874,13.6829,1.1808,4.764,-0.4385
2481421.0,-6.9145,2.9999,15.2678,1.0078,4.3415,-0.5225
2481431.0,-7.3837,4.0486,15.5168,0.7764,3.8828,-0.5231
2481441.0,-9.8258,4.2425,15.4306,0.58,3.6152,-0.4464
2481451.0,-6.201,1.8747,16.3548,0.4273,3.4571,-0.3847
2481461.0,-7.8434,1.324,19.3212,0.4949,3.7748,-0.4581
2481471.0,-9.3925,1.1037,24.9308,0.3501,3.7854,-0.5976
2481481.0,-9.5337,1.7837,28.9914,0.0112,2.9282,-0.763
2481491.0,-9.6534,3.1125,30.2388,-0.2581,1.7485,-0.8642
2481501.0,-9.3039,4.4987,28.7975,-0.3943,0.6258,-0.8445
2481511.0,-9.0405,5.794,25.8502,-0.53,-0.3113,-0.7471
2481521.0,-8.5042,6.4883,22.1871,-0.7689,-1.0525,-0.5843
2481531.0,-7.9823,6.0956,19.6157,-0.9647,-1.4878,-0.3858
2481541.0,-7.58,5.5952,17.5016,-0.8418,-1.5915,-0.1644
2481551.0,-7.4196,4.7118,16.8743,-0.5747,-1.5474,0.0452
2481561.0,-7.2018,4.1587,16.2064,-0.2677,-1.583,0.2112
2481571.0,-6.8331,3.5482,15.6509,-0.1101,-1.7251,0.3214
2481581.0,-6.3303,3.395,14.3963,-0.1016,-1.9411,0.373
2481591.0,-5.8466,3.2465,13.0699,-0.2794,-2.1598,0.3847
2481601.0,-5.4037,3.043,11.6526,-0.5859,-2.3514,0.3661
2481611.0,-4.9464,2.8347,10.3046,-0.92,-2.4983,0.331
2481621.0,-4.4939,2.569,9.0525,-1.1744,-2.5728,0.3006
2481631.0,-3.9361,2.1237,8.0732,-1.259,-2.544,0.2889
2481641.0,-3.4165,1.7885,7.0797,-1.1297,-2.4169,0.2964
2481651.0,-2.9042,1.5443,6.2273,-0.9275,-2.2333,0.3134
2481661.0,-2.387,1.3024,5.6958,-0.7301,-2.0039,0.3299
2481671.0,-1.992,1.5275,5.193,-0.6151,-1.7826,0.3368
2481681.0,-1.719,1.4509,5.1715,-0.6582,-1.6001,0.3491
2481691.0,-1.3312,0.9433,5.387,-0.7253,-1.4468,0.3666
2481701.0,-0.9816,0.2562,5.6072,-0.7577,-1.3159,0.3634
2481711.0,-0.7614,-0.3256,5.9448,-0.7199,-1.1754,0.332
2481721.0,-0.6249,-0.7566,6.5266,-0.6407,-1.0546,0.2751
2481731.0,-0.6105,-0.9625,6.7421,-0.5449,-1.0099,0.1995
2481741.0,-0.486,-1.063,6.8235,-0.472,-1.0233,0.1165
2481751.0,-0.3136,-0.7111,6.5888,-0.3491,-1.011,0.0394
2481761.0,-0.158,-0.0311,6.4117,-0.1974,-0.9424,-0.0069
2481771.0,-0.0742,0.4286,6.6774,-0.0287,-0.7971,-0.0016
2481781.0,-0.1293,0.6632,7.5154,0.166,-0.6268,0.0367
2481791.0,-0.3208,1.154,7.9942,0.2309,-0.5997,0.0745
2481801.0,-0.395,1.2665,8.1762,0.058,-0.7317,0.1101
2481811.0,-0.146,0.8954,7.8147,-0.2389,-0.9365,0.1341
2481821.0,0.0694,0.2586,7.3741,-0.5209,-1.0765,0.1314
2481831.0,0.2538,-0.5986,7.6758,-0.5954,-1.0695,0.1155
2481841.0,0.3256,-0.9194,7.7261,-0.3799,-1.0195,0.0857
2481851.0,0.4908,-0.589,7.2616,-0.0623,-0.9935,0.0559
2481861.0,0.8236,-0.0718,6.4452,0.1873,-0.9551,0.0426
2481871.0,1.0965,0.565,5.6575,0.3065,-0.8684,0.0436
2481881.0,1.1157,0.9409,5.4181,0.3102,-0.7157,0.066
2481891.0,1.1732,0.7949,5.7485,0.2597,-0.589,0.107
2481901.0,1.1875,0.7087,5.8012,0.2783,-0.5172,0.1522
2481911.0,1.1229,0.0335,6.201,0.3528,-0.4406,0.1979
2481921.0,1.1588,-0.826,6.4787,0.4986,-0.4001,0.2134
2481931.0,1.561,-1.664,6.0525,0.6667,-0.4241,0.1788
2481941.0,2.3846,-2.4636,5.6623,0.7998,-0.4049,0.0708
2481951.0,2.4972,-1.8411,5.2625,0.953,-0.1708,-0.1016
2481961.0,2.0806,-0.9553,6.8929,0.8902,0.0803,-0.2778
2481971.0,1.8028,0.2538,8.3055,0.8195,0.1378,-0.3975
2481981.0,1.5634,1.2689,9.4475,0.713,0.0059,-0.4443
2481991.0,1.5897,1.4748,10.8481,0.6965,-0.1479,-0.4071
2482001.0,1.3695,1.652,11.9375,0.9057,-0.3783,-0.3241
2482011.0,0.6823,1.9082,11.5496,1.2143,-0.7641,-0.2235
2482021.0,0.5555,1.9752,9.1889,1.2537,-1.4463,-0.1586
2482031.0,1.1444,2.3343,3.7996,0.9844,-2.1902,-0.158
2482041.0,2.2338,2.3487,-2.6695,0.4294,-2.5376,-0.2059
2482051.0,6.1555,2.7294,-9.4355,-0.3789,-2.3445,-0.3124
2482061.0,2.162,3.6847,-11.0708,-1.5447,-1.4564,-0.4182
2482071.0,1.6305,4.7836,-13.1178,-2.7143,-1.077,-0.4315
2482081.0,3.3615,4.1779,-16.8839,-3.2948,-0.8929,-0.3171
2482091.0,3.0478,4.8147,-21.7848,-2.3844,0.3874,0.025
2482101.0,0.2849,4.1372,-21.9069,-0.8812,2.0912,0.4715
2482111.0,-1.0702,3.292,-23.037,1.5197,4.0935,0.9307
2482121.0,-6.0501,0.5507,-20.0275,3.8557,6.8967,1.1994
2482131.0,-11.1163,-2.897,-10.8697,4.7709,9.1497,1.0302
2482141.0,-21.6316,-0.3112,-0.5698,4.3681,10.596,0.4284
2482151.0,-18.3803,-2.411,12.9215,2.9149,10.978,-0.3661
2482161.0,-25.8813,-1.1301,29.2236,1.4644,11.2276,-1.0695
2482171.0,-25.527,-0.2179,45.5593,0.3395,9.685,-1.5389
2482181.0,-23.9564,3.1244,51.4035,0.5603,7.3575,-1.6575
2482191.0,-20.7242,5.0996,54.7051,1.2712,5.0104,-1.5442
2482201.0,-18.4665,8.5018,49.785,2.2673,2.7718,-1.2728
2482211.0,-16.3907,9.0022,43.9935,2.2003,0.5491,-1.0568
2482221.0,-14.1856,8.7628,34.4574,1.698,-1.3814,-0.9088
2482231.0,-11.6191,6.857,23.219,1.0046,-2.5509,-0.829
2482241.0,-8.8202,5.6288,16.0412,0.2395,-2.8574,-0.9163
2482251.0,-7.0318,9.7636,11.6598,0.4331,-2.1141,-0.9179
2482261.0,-8.3127,9.7013,11.1354,1.1637,-0.7492,-0.6412
2482271.0,-7.0773,8.8131,12.2918,1.3702,-0.0968,-0.2932
2482281.0,-6.608,7.7381,14.8536,0.9392,0.0319,-0.1112
2482291.0,-6.7876,6.5314,17.5375,0.5034,0.0357,-0.0059
2482301.0,-6.9552,5.3439,19.3619,0.0819,-0.3932,0.0261
2482311.0,-6.5984,4.81,18.0188,-0.2517,-1.1744,0.0181
2482321.0,-5.7389,4.3718,14.8704,-0.5406,-1.889,0.0096
2482331.0,-4.6902,4.3311,10.7548,-0.6492,-2.2434,0.0208
2482341.0,-3.8714,4.1659,7.2425,-0.6199,-2.1854,0.0654
2482351.0,-3.1388,3.5674,5.3606,-0.5172,-1.8448,0.1277
2482361.0,-2.7318,3.0287,4.2808,-0.3475,-1.3691,0.1772
2482371.0,-2.7725,2.3655,4.798,-0.2395,-0.8551,0.1894
2482381.0,-2.7198,2.3918,5.7341,-0.1841,-0.4422,0.1538
2482391.0,-3.237,2.7102,7.343,-0.298,-0.183,0.0841
2482401.0,-3.5338,2.9544,9.1004,-0.5055,-0.1176,0.016
2482411.0,-3.8164,2.8994,10.5225,-0.6859,-0.2054,-0.0388
2482421.0,-3.7733,2.6432,11.4036,-0.8077,-0.4124,-0.0921
2482431.0,-3.6392,2.8778,11.4012,-0.8487,-0.6683,-0.1548
2482441.0,-3.5482,3.4524,10.8936,-0.8801,-0.9264,-0.199
2482451.0,-3.4548,3.9289,10.1011,-0.8445,-1.0999,-0.1889
2482461.0,-3.2848,4.4269,9.0166,-0.7944,-1.2127,-0.1405
2482471.0,-3.237,5.0805,7.908,-0.7753,-1.2537,-0.0548
2482481.0,-3.2178,5.0589,7.2975,-0.7662,-1.1957,0.0819
2482491.0,-2.8347,4.2665,7.1036,-0.7173,-1.0956,0.2341
2482501.0,-2.5522,3.3112,6.9719,-0.6082,-0.9642,0.3491
2482511.0,-2.4038,2.2553,7.2137,-0.5268,-0.8349,0.4049
2482521.0,-2.059,1.0989,7.8314,-0.4603,-0.7551,0.398
2482531.0,-1.7669,0.6273,8.023,-0.3666,-0.7141,0.3187
2482541.0,-1.7334,1.0199,7.9775,-0.3948,-0.7317,0.1921
2482551.0,-1.8244,1.913,7.9176,-0.5651,-0.8072,0.0766
2482561.0,-1.822,2.3822,7.8506,-0.6944,-0.8673,0.0362
2482571.0,-1.5897,2.2673,7.6591,-0.63,-0.853,0.0601
2482581.0,-1.4892,2.4086,6.9767,-0.4475,-0.7817,0.0995
2482591.0,-1.4557,2.2817,6.7708,-0.331,-0.6864,0.1479
2482601.0,-1.245,1.5706,6.7349,-0.2123,-0.5752,0.1974
2482611.0,-0.9864,0.9936,6.5793,-0.0915,-0.4715,0.2027
2482621.0,-0.8595,0.8547,6.4045,-0.042,-0.3533,0.1591
2482631.0,-0.7518,0.893,6.8977,-0.083,-0.2368,0.0963
2482641.0,-0.8715,1.4126,7.2425,-0.1043,-0.1554,0.0458
2482651.0,-1.0199,1.7382,7.6998,-0.1245,-0.1341,0.0367
2482661.0,-1.0606,1.7023,7.6183,-0.1117,-0.165,0.0665
2482671.0,-0.9098,1.3264,7.2927,-0.0718,-0.2166,0.1086
2482681.0,-0.6776,1.1061,6.4763,0.0357,-0.2091,0.1437
2482691.0,-0.5052,0.5219,6.1794,0.1479,-0.0729,0.1703
2482701.0,-0.5914,0.1437,6.1723,0.2251,0.0857,0.1564
2482711.0,-0.4932,-0.0072,6.3782,0.157,0.1075,0.0915
2482721.0,-0.5219,0.3831,5.5162,0.0261,0.041,0.0011
2482731.0,-0.6081,1.5083,2.8252,-0.306,-0.125,-0.0873
2482741.0,-0.5052,2.1644,-2.1524,-1.0413,-0.4033,-0.1421
2482751.0,0.7183,1.1588,-7.2903,-1.9066,-0.4103,-0.1548
2482761.0,1.3144,0.6536,-11.9542,-2.2109,0.3586,-0.1522
2482771.0,3.0694,0.6536,-10.2304,-1.9443,1.9539,-0.1101
2482781.0,-9.1722,2.4397,-6.2752,-1.2563,3.7301,0.0729
2482791.0,-4.7788,-0.4525,-0.4166,-0.9966,3.9243,0.2421
2482801.0,-6.2991,-0.8787,1.6233,0.5151,5.1375,0.4145
2482811.0,-9.4475,-1.5945,12.1242,1.549,6.3901,0.4092
2482821.0,-11.303,-1.6185,19.259,2.1492,6.2406,0.2522
2482831.0,-11.1761,-1.6305,25.357,2.2429,5.2743,-0.0229
2482841.0,-9.9479,0.6081,26.918,2.4254,4.1005,-0.3182
2482851.0,-10.6997,3.0909,27.519,2.5243,3.1437,-0.5124
2482861.0,-10.2161,4.5083,26.8127,2.3589,2.1364,-0.5938
2482871.0,-9.9168,5.9831,26.8175,1.8188,1.201,-0.6502
2482881.0,-9.6678,5.7221,26.7121,1.2723,0.4081,-0.6364
2482891.0,-10.0963,6.9001,29.1039,0.9104,-0.4241,-0.6039
2482901.0,-10.7835,5.8538,24.3778,1.2207,-1.4857,-0.3666
2482911.0,-8.8394,7.4579,20.5183,1.2244,-2.5025,-0.166
2482921.0,-7.6016,8.2552,11.5927,1.5341,-2.883,0.0952
2482931.0,-5.3846,6.2153,7.2712,1.1478,-2.7516,0.2916
2482941.0,-3.8259,5.7078,3.055,0.7726,-2.1625,0.3421
2482951.0,-3.3351,4.1875,4.3646,0.1681,-1.2292,0.298
2482961.0,-3.5362,3.4213,7.197,-0.3528,-0.5704,0.183
2482971.0,-3.9744,3.1005,10.0485,-0.8477,-0.3879,0.0415
2482981.0,-4.1635,3.0837,11.5616,-1.242,-0.5683,-0.0697
2482991.0,-4.13,2.909,12.1554,-1.4612,-0.8812,-0.1256
2483001.0,-4.063,2.7653,11.7867,-1.2968,-1.1339,-0.1171
2483011.0,-3.7948,2.7821,10.1969,-0.803,-1.276,-0.0506
2483021.0,-3.5051,2.7581,8.1187,-0.2379,-1.2483,0.042
2483031.0,-3.1556,2.4588,6.8331,0.1681,-1.0467,0.1155
2483041.0,-2.9425,2.4948,6.3782,0.3283,-0.7886,0.1293
2483051.0,-3.0311,2.8395,7.2353,0.2522,-0.5188,0.099
2483061.0,-3.4907,3.4189,8.667,0.0128,-0.4023,0.0676
2483071.0,-3.6895,3.5889,9.7947,-0.2948,-0.53,0.066
2483081.0,-3.4931,3.6464,9.4571,-0.539,-0.7678,0.0889
2483091.0,-3.2226,3.5147,8.7436,-0.7609,-0.9477,0.1203
2483101.0,-2.9928,3.3112,8.0589,-0.8652,-0.9684,0.165
2483111.0,-3.0263,2.9856,7.9607,-0.8333,-0.8977,0.2246
2483121.0,-2.8299,2.3655,7.8841,-0.6332,-0.7881,0.2948
2483131.0,-2.7102,1.7789,7.8147,-0.3858,-0.6651,0.339
2483141.0,-2.6719,1.4006,7.6686,-0.2517,-0.5896,0.3336
2483151.0,-2.4014,0.8356,7.6183,-0.215,-0.5406,0.2895
2483161.0,-2.162,0.747,7.367,-0.2139,-0.4768,0.1995
2483171.0,-1.9872,0.7422,7.8386,-0.2852,-0.3602,0.0915
2483181.0,-2.0518,1.2689,8.7436,-0.2975,-0.2112,-0.0069
2483191.0,-2.4277,2.2482,9.6151,-0.3533,-0.1926,-0.075
2483201.0,-2.6312,2.794,9.9647,-0.4736,-0.3288,-0.0862
2483211.0,-2.66,2.6576,10.0844,-0.5598,-0.4965,-0.0484
2483221.0,-2.4014,1.7358,10.5153,-0.4645,-0.5779,0.0069
2483231.0,-2.3942,1.4245,10.1801,-0.132,-0.5869,0.0372
2483241.0,-2.2673,1.0247,9.9575,0.1634,-0.589,0.0335
2483251.0,-2.0949,1.3072,9.1028,0.315,-0.6071,-0.0208
2483261.0,-2.0279,1.992,8.8083,0.19,-0.6423,-0.1054
2483271.0,-1.992,2.7198,8.7412,0.0101,-0.6396,-0.1586
2483281.0,-1.992,3.2226,8.6311,-0.1032,-0.6135,-0.1591
2483291.0,-1.9704,3.3495,8.7125,-0.157,-0.563,-0.1176
2483301.0,-1.9106,2.8635,9.347,-0.1314,-0.4715,-0.058
2483311.0,-1.992,2.6671,10.0221,-0.0537,-0.4443,-0.0208
2483321.0,-2.0877,2.6456,10.2328,0.0074,-0.538,0.0027
2483331.0,-1.9393,2.5043,9.9455,0.0665,-0.7003,0.0271
2483341.0,-1.6376,2.5426,8.8897,0.1692,-0.829,0.0506
2483351.0,-1.3072,2.5714,7.7596,0.2533,-0.8434,0.0676
2483361.0,-1.1277,3.0526,6.426,0.2645,-0.7923,0.0734
2483371.0,-0.984,4.209,3.1244,-0.0319,-0.8849,0.074
2483381.0,-0.103,4.2952,-1.0151,-0.8652,-1.0834,0.0921
2483391.0,7.7165,1.7238,-3.6966,-1.6996,-0.9743,0.1458
2483401.0,-4.0366,2.1715,-2.6432,-1.781,0.0197,0.2118
2483411.0,0.1173,0.498,-3.5051,-1.1393,0.24,0.3235
2483421.0,1.4102,1.4102,-8.6215,0.0995,0.5976,0.3975
2483431.0,-2.411,3.134,-12.5121,1.6384,2.1141,0.5662
2483441.0,-2.66,1.4198,-10.3573,2.5169,3.7865,0.7114
2483451.0,-5.1715,-0.8763,-3.2896,3.1224,5.5898,0.647
2483461.0,-7.7524,-2.3056,6.0382,3.0804,6.6259,0.2927
2483471.0,-9.2273,-3.1173,16.5176,2.3099,6.6642,-0.2799
2483481.0,-13.556,-1.5371,26.2548,1.4495,6.0187,-0.8876
2483491.0,-8.8897,-0.1867,33.9091,0.8237,4.5501,-1.3622
2483501.0,-11.3677,5.6814,35.3456,0.8274,3.0176,-1.5809
2483511.0,-11.5209,8.8274,34.206,0.5513,1.2281,-1.4367
2483521.0,-10.2687,9.8282,29.578,0.2134,-0.4448,-1.1063
2483531.0,-9.1842,9.3087,24.0258,0.017,-1.4692,-0.7418
2483541.0,-7.8673,8.0637,18.828,-0.1538,-1.9507,-0.448
2483551.0,-7.1467,6.8522,15.7682,-0.3395,-2.038,-0.265
2483561.0,-6.4284,6.0382,13.8864,-0.3948,-1.9693,-0.1463
2483571.0,-5.8921,5.4684,12.2487,-0.34,-1.8741,-0.0575
2483581.0,-5.0542,4.5969,11.0038,-0.3049,-1.8145,0.0069
2483591.0,-4.3838,3.8786,10.0126,-0.2235,-1.7017,0.0255
2483601.0,-3.9456,3.7804,9.2464,-0.1405,-1.5708,0.0005
2483611.0,-3.8427,4.0199,8.5042,-0.1155,-1.4505,-0.0346
2483621.0,-3.6536,4.1539,8.1403,-0.2261,-1.4048,-0.0654
2483631.0,-3.3926,4.4173,7.7812,-0.3507,-1.3824,-0.0766
2483641.0,-3.1915,4.7692,7.5513,-0.3709,-1.2803,-0.049
2483651.0,-3.237,5.2768,6.9288,-0.3911,-1.1882,0.016
2483661.0,-3.0335,5.0996,6.6415,-0.5353,-1.1605,0.1091
2483671.0,-2.7031,4.4652,6.1507,-0.6045,-1.0993,0.2139
2483681.0,-2.4636,3.6224,5.9855,-0.5773,-0.9445,0.3038
2483691.0,-2.3583,2.6552,6.1746,-0.4268,-0.7322,0.3618
2483701.0,-2.1548,2.2721,5.794,-0.241,-0.5656,0.3672
2483711.0,-2.0279,1.8747,5.9185,-0.1878,-0.4049,0.331
2483721.0,-1.9178,1.6089,6.2058,-0.1719,-0.2107,0.2639
2483731.0,-1.9896,1.5658,6.8785,-0.241,-0.0559,0.1634
2483741.0,-2.1931,1.8531,7.829,-0.3943,0.0383,0.0543
2483751.0,-2.3894,2.1859,9.0836,-0.5747,0.0341,-0.0303
2483761.0,-2.5786,2.6025,9.7923,-0.6811,-0.0772,-0.074
2483771.0,-2.5809,2.5115,10.8864,-0.6486,-0.1995,-0.0639
2483781.0,-2.5881,2.6863,11.1833,-0.3044,-0.2661,-0.0133
2483791.0,-2.5498,2.8108,11.0875,0.0921,-0.3507,0.0553
2483801.0,-2.466,2.9281,10.2352,0.3544,-0.4789,0.1117
2483811.0,-2.2051,2.976,9.3613,0.3586,-0.6125,0.1336
2483821.0,-1.8914,2.6695,8.928,0.2528,-0.6465,0.1368
2483831.0,-1.7909,2.3104,8.8466,0.1793,-0.5992,0.1208
2483841.0,-1.743,2.0039,9.1387,0.116,-0.547,0.0803
2483851.0,-1.7286,1.9609,9.5792,0.0915,-0.4927,0.0293
2483861.0,-1.8124,2.2697,10.1538,0.0591,-0.5076,-0.0245
2483871.0,-1.9106,2.8084,10.3334,0.0474,-0.5859,-0.0543
2483881.0,-1.7669,3.2848,10.0556,0.0399,-0.6949,-0.0527
2483891.0,-1.6759,3.8475,9.3589,0.0335,-0.7668,-0.0213
2483901.0,-1.5514,3.8475,9.0573,-0.0037,-0.7609,0.041
2483911.0,-1.3192,3.3064,9.0118,0.0096,-0.7029,0.1128
2483921.0,-1.1516,2.4373,9.517,0.0601,-0.6098,0.1501
2483931.0,-1.1708,2.2386,9.6941,0.1181,-0.5486,0.1373
2483941.0,-1.2761,2.0853,10.2256,0.0479,-0.5949,0.0921
2483951.0,-1.1588,2.5067,9.9527,-0.0059,-0.7189,0.042
2483961.0,-1.0606,3.043,9.5098,-0.0532,-0.8157,0.0122
2483971.0,-0.8691,3.4477,9.1889,-0.0043,-0.8067,0.0287
2483981.0,-0.8284,3.62,9.1028,0.1442,-0.7168,0.0878
2483991.0,-0.7757,3.4381,9.1004,0.3118,-0.6183,0.1602
2484001.0,-0.7326,3.1939,9.0046,0.3932,-0.5779,0.2112
2484011.0,-0.6009,2.5809,9.268,0.3852,-0.5608,0.2299
2484021.0,-0.4405,2.1141,9.3158,0.3932,-0.538,0.2075
2484031.0,-0.3735,2.4756,8.8131,0.2996,-0.596,0.1341
2484041.0,-0.3376,3.1651,7.8051,0.0607,-0.6838,0.0591
2484051.0,-0.0838,3.7517,6.3758,-0.2618,-0.7513,0.0128
2484061.0,0.2705,5.0039,2.5498,-0.7269,-0.853,-0.0016
2484071.0,2.375,4.4604,-2.1476,-1.6426,-0.9264,0.0282
2484081.0,0.7446,3.5338,-5.6527,-2.6803,-0.4997,0.0537
2484091.0,1.6759,2.217,-5.703,-3.3933,0.3155,0.0963
2484101.0,0.4262,0.6416,-3.4141,-3.1341,1.309,0.2027
2484111.0,-0.9577,0.8499,-2.3248,-1.8331,2.304,0.3964
2484121.0,-2.5139,-0.2993,-0.6273,-0.2778,3.2054,0.6157
2484131.0,-3.6272,-2.4684,1.4796,1.3564,4.2377,0.7402
2484141.0,-4.3886,-5.1715,5.3367,2.3769,5.0604,0.5651
2484151.0,-4.798,-6.3829,11.0947,2.659,5.4935,0.0277
2484161.0,-7.2712,-4.391,18.8088,2.4541,5.592,-0.7003
2484171.0,-6.9145,-0.6033,26.7241,1.9725,5.0343,-1.3585
2484181.0,-9.256,5.43,33.8061,1.317,3.8823,-1.7586
2484191.0,-10.4794,10.2208,36.8156,0.5119,2.0258,-1.7209
2484201.0,-10.5704,12.0644,35.2379,-0.2634,-0.348,-1.3526
2484211.0,-9.007,12.5289,27.5261,-0.2288,-2.1109,-0.746
2484221.0,-7.4771,10.8314,20.1711,0.1256,-2.866,-0.1059
2484231.0,-6.268,9.1842,13.623,0.5603,-2.9064,0.4161
2484241.0,-5.2218,6.4811,10.7835,0.7253,-2.5664,0.762
2484251.0,-4.2186,4.1252,9.2823,0.8556,-2.1066,0.9158
2484261.0,-3.5434,2.3439,9.153,0.7833,-1.7411,0.8716
2484271.0,-3.0239,1.4581,9.1674,0.5507,-1.5522,0.6816
2484281.0,-2.4756,1.7454,8.6383,0.1793,-1.4931,0.4028
2484291.0,-2.3559,3.2968,7.9511,-0.3469,-1.4473,0.1176
2484301.0,-2.4253,4.9512,7.8219,-0.9525,-1.3877,-0.0676
2484311.0,-2.478,6.0382,7.865,-1.4042,-1.3228,-0.107
2484321.0,-2.4277,6.438,7.6686,-1.5958,-1.2217,-0.0117
2484331.0,-2.2625,5.4899,8.4587,-1.5735,-1.0248,0.1735
2484341.0,-2.3176,4.2306,9.4978,-1.3133,-0.8578,0.3555
2484351.0,-2.4301,3.1963,10.0556,-0.9152,-0.8104,0.4911
2484361.0,-2.1045,1.992,10.4794,-0.4895,-0.7822,0.5736
2484371.0,-1.889,1.7549,10.1538,-0.1772,-0.795,0.564
2484381.0,-1.8555,2.4014,9.3087,-0.2506,-0.9573,0.4789
2484391.0,-1.4198,2.806,8.3127,-0.5699,-1.1382,0.3986
2484401.0,-1.1396,2.9975,7.2449,-0.8429,-1.176,0.356
2484411.0,-0.9864,2.6959,6.6248,-1.0084,-1.0695,0.3555
2484421.0,-0.6919,1.6568,6.8091,-1.003,-0.8583,0.3762
2484431.0,-0.5315,1.1109,6.9576,-0.8924,-0.6758,0.3629
2484441.0,-0.5842,0.7638,7.6088,-0.7843,-0.5279,0.3283
2484451.0,-0.5794,0.5602,8.2959,-0.6199,-0.4268,0.29
2484461.0,-0.5866,0.7709,8.6072,-0.4693,-0.4257,0.2395
2484471.0,-0.5411,1.1396,8.5425,-0.381,-0.4911,0.1979
2484481.0,-0.4286,1.3264,8.1882,-0.3214,-0.5555,0.1767
2484491.0,-0.2394,1.5754,7.7859,-0.2309,-0.571,0.1724
2484501.0,-0.0599,1.8292,7.6854,-0.0745,-0.4715,0.1905
2484511.0,-0.1413,2.1069,7.8721,0.0878,-0.3187,0.2224
2484521.0,-0.2155,2.15,8.2121,0.1256,-0.2591,0.2517
2484531.0,-0.17,2.1907,8.1403,0.025,-0.3118,0.2591
2484541.0,-0.0168,2.3367,7.7764,-0.1804,-0.3927,0.2474
2484551.0,0.1772,2.3391,7.1706,-0.3826,-0.4172,0.2421
2484561.0,0.3424,2.0063,6.7325,-0.5364,-0.3608,0.2458
2484571.0,0.5076,1.4724,6.3542,-0.6848,-0.2512,0.2357
2484581.0,0.5674,0.5842,7.0174,-0.8684,-0.1075,0.1969
2484591.0,0.5339,-0.2107,8.3151,-0.8961,0.0325,0.1362
2484601.0,0.51,-0.2825,9.1818,-0.7295,0.0697,0.0596
2484611.0,0.3903,0.2107,9.2464,-0.5236,0.0005,-0.0053
2484621.0,0.6416,0.8619,8.5665,-0.3906,-0.1192,-0.0399
2484631.0,0.9673,1.8866,7.0342,-0.3735,-0.2033,-0.0521
2484641.0,1.1588,3.0742,5.205,-0.5694,-0.1937,-0.0277
2484651.0,1.2378,3.4429,3.6966,-1.0493,-0.1522,0.05
2484661.0,1.482,3.4117,0.7973,-1.7352,-0.2256,0.1522
2484671.0,5.9783,1.6137,-2.6552,-2.668,-0.3959,0.2692
2484681.0,-0.2969,1.2378,-6.7612,-3.3906,-0.1282,0.3959
2484691.0,3.8355,-0.7997,-11.0229,-3.6375,0.2097,0.513
2484701.0,2.8084,0.0838,-14.6549,-3.0591,1.4394,0.6433
2484711.0,-1.087,0.6871,-13.611,-2.0726,3.2682,0.8849
2484721.0,-4.0654,-0.3065,-8.5665,-1.0499,4.7693,1.1877
2484731.0,-7.2305,-2.8515,-1.2498,0.5146,6.3444,1.4489
2484741.0,-10.082,-5.8849,8.7077,1.9832,7.4969,1.4564
2484751.0,-15.6605,-5.8347,18.7897,3.239,7.9929,1.1536
2484761.0,-9.3853,-5.9472,28.6323,3.9956,7.5789,0.6162
2484771.0,-14.1066,-3.6344,33.5715,3.8307,6.6658,-0.0245
2484781.0,-10.9942,-3.8307,41.5993,1.6011,4.3655,-0.7779
2484791.0,-13.0915,0.8404,42.3702,0.0096,2.0172,-1.3877
2484801.0,-14.1497,3.1316,42.8538,-0.5741,0.1383,-1.5607
2484811.0,-13.3788,4.3622,36.4565,-0.1852,-1.8267,-1.3787
2484821.0,-11.7867,4.039,28.4311,0.7338,-3.1113,-1.0275
2484831.0,-9.5409,4.2928,17.7099,1.6746,-3.678,-0.6699
2484841.0,-8.1259,3.8164,13.1992,2.0635,-3.3528,-0.4177
2484851.0,-6.8857,6.5027,9.6845,2.3471,-2.8415,-0.2304
2484861.0,-6.4572,6.2393,8.3965,2.2099,-2.3871,-0.016
2484871.0,-4.3694,5.636,6.9528,1.5564,-2.2381,0.1394
2484881.0,-3.6152,4.9368,6.3087,0.6258,-2.1013,0.165
2484891.0,-2.9544,3.8331,6.6702,-0.1389,-1.8821,0.1378
2484901.0,-2.3104,3.4069,5.9161,-0.6518,-1.723,0.075
2484911.0,-1.9321,2.9832,5.5881,-1.1286,-1.5532,-0.0037
2484921.0,-1.6376,2.4852,6.1052,-1.5144,-1.3803,-0.0756
2484931.0,-1.6879,2.4205,6.948,-1.5905,-1.2068,-0.1022
2484941.0,-1.8435,2.5163,7.7261,-1.2835,-1.0578,-0.0452
2484951.0,-1.8794,2.2314,8.0493,-0.7125,-0.9386,0.0889
2484961.0,-1.6305,2.0853,7.4029,-0.0862,-0.8775,0.2395
2484971.0,-1.1636,1.7957,6.3686,0.3773,-0.7732,0.3618
2484981.0,-0.8715,1.8387,5.5713,0.5869,-0.5593,0.4252
2484991.0,-0.9266,1.9848,5.7892,0.4555,-0.3358,0.4321
2485001.0,-1.1013,1.8531,6.5505,0.141,-0.1841,0.4156
2485011.0,-1.1492,1.2091,7.5441,-0.1852,-0.1176,0.3858
2485021.0,-1.1636,0.4381,8.327,-0.4081,-0.0942,0.3347
2485031.0,-1.233,-0.407,9.4762,-0.4975,-0.0724,0.2575
2485041.0,-1.336,-0.6297,10.3789,-0.3922,-0.0947,0.1623
2485051.0,-1.403,-0.3041,10.7476,-0.1282,-0.1431,0.074
2485061.0,-1.3623,0.7063,10.7141,0.1799,-0.1607,0.0059
2485071.0,-1.6065,2.162,10.5465,0.3092,-0.2043,-0.0266
2485081.0,-1.5538,2.9377,10.7045,0.2102,-0.3267,-0.0016
2485091.0,-1.3934,3.4357,10.2711,0.1197,-0.4422,0.0734
2485101.0,-1.3647,3.5075,9.8857,0.0138,-0.5023,0.1772
2485111.0,-1.1708,2.7892,10.1275,-0.0303,-0.4885,0.2985
2485121.0,-1.0726,1.9058,10.5273,0.0968,-0.431,0.4012
2485131.0,-1.1109,1.245,10.8242,0.2852,-0.4204,0.456
2485141.0,-0.9481,0.4549,11.0612,0.4715,-0.4475,0.4709
2485151.0,-0.7159,0.1532,10.6829,0.6502,-0.5146,0.4347
2485161.0,-0.4094,0.4381,9.6774,0.7253,-0.5784,0.3539
2485171.0,-0.2203,0.9098,8.8681,0.6066,-0.5715,0.2559
2485181.0,-0.1604,1.4102,8.5856,0.3629,-0.5103,0.1687
2485191.0,-0.1437,1.9154,8.6095,0.107,-0.456,0.1075
2485201.0,-0.1532,2.2003,9.0022,-0.0628,-0.4065,0.0952
2485211.0,-0.1939,2.3248,9.5864,-0.0176,-0.3262,0.1394
2485221.0,-0.3184,2.411,10.1155,0.2224,-0.2863,0.2261
2485231.0,-0.3543,2.5235,9.6869,0.5337,-0.3283,0.3368
2485241.0,-0.0527,2.047,8.8083,0.7599,-0.3682,0.4454
2485251.0,0.3735,1.494,7.4412,0.8328,-0.3645,0.4954
2485261.0,0.6776,1.2498,6.292,0.6619,-0.2921,0.4683
2485271.0,0.7997,0.8428,6.0837,0.331,-0.1708,0.3975
2485281.0,0.7997,1.0175,5.3846,0.0777,-0.0819,0.3102
2485291.0,0.8188,1.6376,3.0885,-0.2379,-0.1011,0.2379
2485301.0,1.1732,2.0183,-1.2737,-0.7928,-0.1644,0.2001
2485311.0,2.2482,1.5299,-6.3255,-1.582,-0.0197,0.1729
2485321.0,2.1835,0.2921,-7.3933,-2.1886,0.9184,0.1517
2485331.0,-1.9441,0.8356,-5.9711,-2.3466,2.2562,0.1799
2485341.0,-1.1803,-1.2019,-1.2043,-2.3514,2.9309,0.2208
2485351.0,-2.8635,-0.8116,1.81,-1.1914,4.0089,0.357
2485361.0,-5.0877,-1.7645,9.0022,-0.0569,4.8412,0.4773
2485371.0,-6.2848,-3.4069,14.5017,1.259,5.12,0.5305
2485381.0,-6.8761,-4.2713,19.9652,2.3982,5.0237,0.3831
2485391.0,-8.7221,-2.8515,23.2166,3.2645,4.6374,0.0532
2485401.0,-7.762,-0.9074,25.4216,3.446,3.9648,-0.3629
2485411.0,-8.3845,2.0614,25.9412,2.634,3.0442,-0.8147
2485421.0,-9.4332,4.5203,28.6586,0.8333,1.9374,-1.2255
2485431.0,-9.9431,6.1292,30.2723,-0.6284,0.7556,-1.441
2485441.0,-10.3142,5.8155,29.6881,-1.2909,-0.3166,-1.408
2485451.0,-9.9455,8.6718,29.2236,-1.1552,-1.21,-1.21
2485461.0,-10.4842,10.2208,24.4496,-0.1474,-1.8464,-0.7189
2485471.0,-9.0908,9.8067,19.6995,0.6907,-2.3477,-0.157
2485481.0,-7.0988,9.0405,14.3604,1.3313,-2.3381,0.3395
2485491.0,-6.0573,7.252,13.2184,1.4266,-1.922,0.6657
2485501.0,-5.6886,6.4476,13.1178,1.1973,-1.6304,0.804
2485511.0,-5.2194,5.5522,13.4315,0.5726,-1.6937,0.8019
2485521.0,-4.6256,4.7956,12.809,-0.2144,-1.9938,0.7061
2485531.0,-3.6703,3.9959,11.6119,-0.9392,-2.304,0.5656
2485541.0,-2.9664,3.9193,9.7564,-1.3622,-2.4467,0.4209
2485551.0,-2.4565,3.9911,8.7508,-1.4894,-2.3301,0.3406
2485561.0,-2.138,4.1515,8.1547,-1.3218,-2.0673,0.3427
2485571.0,-2.0159,4.1276,8.2289,-1.0509,-1.8145,0.4023
2485581.0,-1.7813,4.0103,8.2959,-0.7519,-1.6229,0.4965
2485591.0,-1.6568,3.7326,8.5593,-0.5209,-1.5213,0.5949
2485601.0,-1.3216,3.4453,7.8482,-0.3799,-1.5394,0.6721
2485611.0,0.9744,1.889,7.1611,-0.4613,-1.6176,0.6912
2485621.0,-1.9178,0.905,6.3255,-0.6109,-1.5213,0.638
2485631.0,-0.0575,2.2721,6.8307,-0.8604,-1.6538,0.5188
2485641.0,-0.2298,2.9401,4.786,-0.588,-1.5628,0.4959
2485651.0,0.6847,2.7653,3.6583,-0.5028,-1.392,0.5678
2485661.0,0.8356,2.794,2.3798,-0.5954,-1.2292,0.613
2485671.0,0.8715,2.6647,3.0047,-0.6848,-0.936,0.6604
2485681.0,0.9433,3.0358,2.7198,-0.5832,-0.6944,0.7418
2485691.0,0.8452,2.5833,2.6504,-0.5098,-0.4757,0.8519
2485701.0,1.2426,1.9273,1.5562,-0.5571,-0.3304,0.9349
2485711.0,1.4748,0.6201,1.0295,-0.8759,-0.1713,0.9381
2485721.0,1.8555,-0.8308,1.2857,-1.1909,0.0628,0.8673
2485731.0,1.9154,-2.0327,2.4038,-1.2356,0.4486,0.7359
2485741.0,1.5993,-2.6288,4.5346,-1.0254,0.8897,0.5715
2485751.0,1.154,-2.3894,7.3861,-0.6838,1.2015,0.4012
2485761.0,0.4381,-1.0511,9.4355,-0.3246,1.2324,0.2607
2485771.0,0.0096,-0.0503,10.7739,-0.1192,1.0046,0.1995
2485781.0,0.012,0.5267,10.829,0.1304,0.7263,0.2208
2485791.0,0.1389,0.4573,10.3621,0.4262,0.58,0.2804
2485801.0,0.2274,0.1987,9.8785,0.6417,0.5608,0.3145
2485811.0,0.0934,0.3136,9.6774,0.6561,0.572,0.2884
2485821.0,0.0383,0.2394,10.2089,0.4981,0.5981,0.2288
2485831.0,-0.0407,0.5794,10.8793,0.3304,0.6348,0.1522
2485841.0,-0.2921,0.9697,12.2152,0.1437,0.6705,0.091
2485851.0,-0.6105,1.494,13.4147,-0.0239,0.5875,0.0612
2485861.0,-0.8068,1.8986,14.3149,-0.1905,0.3501,0.0697
2485871.0,-0.8763,2.0279,14.4945,-0.2948,0.0351,0.1282
2485881.0,-0.6249,1.7478,13.7643,-0.3171,-0.3209,0.2086
2485891.0,-0.3065,1.5874,11.5712,-0.3331,-0.6332,0.2703
2485901.0,0.2897,0.9337,9.4954,-0.5247,-0.8482,0.2943
2485911.0,0.8882,0.9888,6.1148,-0.7593,-0.9301,0.2655
2485921.0,1.664,1.4557,1.4198,-1.3196,-0.9477,0.1958
2485931.0,2.794,2.0853,-5.0757,-2.3764,-0.8844,0.1043
2485941.0,6.4907,1.2522,-11.8992,-4.0377,-0.5225,0.0149
2485951.0,1.8124,0.9242,-13.8672,-5.916,0.58,-0.0474
2485961.0,0.2849,-0.419,-9.0429,-7.0132,1.7709,0.0133
2485971.0,-2.9832,-0.9074,-2.7557,-6.2273,2.9708,0.3544
2485981.0,-4.5993,-2.9329,3.9337,-3.8674,3.903,0.8684
2485991.0,-5.284,-4.2306,8.4156,-0.5151,4.6613,1.2936
2486001.0,-6.5888,-5.5905,12.4594,2.734,5.3946,1.4963
2486011.0,-7.0773,-5.2768,16.8695,4.8044,5.6697,1.4026
2486021.0,-5.9233,-6.0262,18.6652,5.2961,5.2647,0.9599
2486031.0,-5.3654,-5.7269,20.2095,3.6971,4.2654,0.165
2486041.0,-6.3279,-3.2681,23.4704,0.8631,3.0612,-0.7668
2486051.0,-8.7005,-1.2833,27.0928,-1.3941,1.8549,-1.4314
2486061.0,-8.0421,0.0958,27.6004,-2.1157,0.7231,-1.6522
2486071.0,-8.7125,1.8435,26.3195,-1.5048,-0.0548,-1.5362
2486081.0,-8.4563,3.62,23.3937,-0.1575,-0.6566,-1.1792
2486091.0,-8.0302,3.3662,17.8296,1.3771,-1.0568,-0.6928
2486101.0,-6.4308,3.869,13.805,2.3626,-1.1776,-0.2618
2486111.0,-5.2888,6.3734,8.6,2.875,-0.9759,0.0867
2486121.0,-5.8131,5.7748,7.3023,2.486,-0.5412,0.3714
2486131.0,-4.0438,4.9321,5.679,1.3558,-0.3831,0.5497
2486141.0,-3.8427,2.8204,6.778,-0.2522,-0.2873,0.5475
2486151.0,-3.8164,1.0558,7.9057,-1.4873,-0.2325,0.4784
2486161.0,-3.6655,-0.9194,9.4739,-2.1279,-0.2426,0.4081
2486171.0,-3.5793,-1.9824,10.1059,-1.963,-0.2144,0.3586
2486181.0,-3.3662,-2.5666,10.4172,-1.2691,-0.1107,0.3448
2486191.0,-3.0718,-2.8635,10.2592,-0.3315,0.0511,0.3384
2486201.0,-2.8323,-2.7629,9.4355,0.4055,0.1602,0.2921
2486211.0,-2.5905,-2.6983,8.8442,0.6412,0.2091,0.1761
2486221.0,-2.4205,-2.1332,8.4539,0.3996,0.1942,-0.0059
2486231.0,-2.3894,-1.4557,8.5377,-0.1437,0.1304,-0.2017
2486241.0,-2.4756,-1.0822,8.9519,-0.6737,0.0995,-0.3475
2486251.0,-2.5857,-0.8595,9.4116,-1.0201,0.0878,-0.4369
2486261.0,-2.7988,-0.7398,10.1347,-1.1531,0.0803,-0.4805
2486271.0,-3.0478,-0.7159,11.157,-1.044,0.0649,-0.473
2486281.0,-3.1532,-0.8619,11.9351,-0.6497,0.0,-0.4188
2486291.0,-3.1101,-0.8547,11.5975,-0.067,-0.1086,-0.3501
2486301.0,-2.9449,-0.7302,10.3573,0.397,-0.2198,-0.3028
2486311.0,-2.6288,-0.3472,8.9998,0.5614,-0.2559,-0.2943
2486321.0,-2.4995,0.2705,8.0397,0.3991,-0.207,-0.3219
2486331.0,-2.5259,0.6608,7.8051,-0.0399,-0.1378,-0.3634
2486341.0,-2.648,0.6153,8.8394,-0.6082,-0.091,-0.3996
2486351.0,-2.9353,0.2418,10.9008,-0.9046,-0.0564,-0.3938
2486361.0,-3.0981,-0.0718,12.1817,-0.7455,-0.1314,-0.3453
2486371.0,-3.0382,-0.4166,12.2918,-0.3794,-0.3225,-0.2831
2486381.0,-2.6001,-0.3759,11.2743,-0.0383,-0.5225,-0.2464
2486391.0,-2.4301,0.1006,10.0509,0.0952,-0.6337,-0.2405
2486401.0,-2.3415,0.6752,8.8849,-0.0362,-0.6795,-0.2432
2486411.0,-2.241,0.759,8.0589,-0.4438,-0.7157,-0.2538
2486421.0,-1.9369,0.7326,6.8331,-1.0594,-0.8072,-0.2916
2486431.0,-1.5874,0.316,5.7245,-1.7767,-0.8477,-0.3512
2486441.0,-1.4437,-0.5507,6.517,-2.3312,-0.6524,-0.3986
2486451.0,-1.7382,-1.154,9.323,-2.3482,-0.3304,-0.4071
2486461.0,-2.4014,-0.9361,11.9806,-1.7368,-0.1687,-0.3459
2486471.0,-2.7916,-0.4381,13.2567,-0.8524,-0.307,-0.2086
2486481.0,-2.7653,-0.1915,12.6821,0.0112,-0.6268,-0.0181
2486491.0,-2.308,-0.067,10.7093,0.5864,-0.9482,0.1575
2486501.0,-1.7693,0.0934,8.4324,0.7199,-1.1637,0.2756
2486511.0,-1.391,-0.0766,6.7445,0.5082,-1.2404,0.3459
2486521.0,-0.8021,-0.3879,5.4157,0.1064,-1.2978,0.3746
2486531.0,-0.1197,-0.7877,4.13,-0.307,-1.3622,0.3805
2486541.0,0.668,-1.0463,2.1644,-0.5635,-1.375,0.3895
2486551.0,2.1859,-1.0846,-0.972,-0.7551,-1.376,0.4001
2486561.0,1.5874,-0.3519,-4.9392,-0.9951,-1.2063,0.4156
2486571.0,-0.1197,-0.0263,-9.991,-1.4819,-0.9051,0.4539
2486581.0,2.1356,-0.9792,-13.3046,-2.0279,-0.3964,0.4741
2486591.0,-0.146,-0.1317,-14.5376,-1.8007,1.0227,0.5608
2486601.0,-2.0518,-0.1341,-10.7643,-1.185,2.5972,0.7428
2486611.0,-4.0438,-0.826,-6.0813,0.0798,4.0361,0.9924
2486621.0,-7.2472,-1.391,-1.3695,1.4138,5.2775,1.1738
2486631.0,-11.71,-1.8244,3.2226,2.0752,6.0799,1.1749
2486641.0,-8.6167,-2.2027,8.8298,2.0066,6.4822,0.928
2486651.0,-11.7747,-0.5578,15.9669,1.4862,6.8334,0.5928
2486661.0,-11.4203,-0.6752,19.8886,0.0873,6.379,0.3448
2486671.0,-15.1888,-1.5993,30.4902,-2.1348,5.1344,0.0357
2486681.0,-15.5599,-2.8252,33.0328,-3.2065,3.5061,-0.0032
2486691.0,-12.0764,-5.7221,32.9346,-3.0596,2.1779,0.0819
2486701.0,-12.3804,-8.7508,37.0407,-2.4371,0.9658,0.1022
2486711.0,-11.7483,-7.1491,31.5197,-0.5396,-0.2783,0.1368
2486721.0,-11.9183,-7.2832,28.9435,1.0275,-1.3079,0.1724
2486731.0,-10.2208,-4.8626,19.6229,2.3487,-2.2093,0.2198
2486741.0,-9.1051,-3.5267,14.5304,2.5084,-2.5371,0.2049
2486751.0,-7.8865,-1.7071,9.165,2.1444,-2.5531,0.1756
2486761.0,-7.0102,-1.3312,6.8283,1.2175,-2.362,0.1293
2486771.0,-6.2752,-1.6496,5.4277,0.2847,-2.0955,0.0734
2486781.0,-5.3726,-3.0622,6.1962,-0.3448,-1.7102,0.009
2486791.0,-4.8195,-3.8523,7.1587,-0.3592,-1.2579,-0.0729
2486801.0,-4.7836,-3.7254,8.5952,-0.1064,-0.9094,-0.1799
2486811.0,-4.8698,-2.7964,9.5337,0.1602,-0.8397,-0.274
2486821.0,-4.5083,-1.7119,9.0764,0.3586,-0.9477,-0.3134
2486831.0,-4.0941,-0.9673,8.0158,0.373,-1.0392,-0.3134
2486841.0,-3.735,-0.6704,6.9552,0.2139,-1.0562,-0.3049
2486851.0,-3.4069,-0.7039,6.1459,-0.0394,-1.0121,-0.3038
2486861.0,-3.2489,-1.0175,6.1435,-0.2458,-0.8551,-0.3145
2486871.0,-3.1556,-1.0989,6.3207,-0.3257,-0.6662,-0.34
2486881.0,-3.4788,-0.9481,7.6519,-0.3086,-0.4725,-0.3602
2486891.0,-3.6775,-0.8164,8.5641,-0.0644,-0.3464,-0.331
2486901.0,-3.6344,-0.6345,9.0812,0.19,-0.3288,-0.2889
2486911.0,-3.5195,-0.249,9.3901,0.3618,-0.3448,-0.2496
2486921.0,-3.4788,0.2035,9.6199,0.4491,-0.3677,-0.1916
2486931.0,-3.4429,0.3232,10.0149,0.4177,-0.4241,-0.1117
2486941.0,-3.3734,0.1748,9.8354,0.3209,-0.5459,-0.0277
2486951.0,-3.2226,-0.3759,9.402,0.1261,-0.7077,0.0325
2486961.0,-2.9185,-1.2689,8.6742,-0.0479,-0.7955,0.0575
2486971.0,-2.7198,-2.2889,8.5018,-0.174,-0.7753,0.0271
2486981.0,-2.4828,-3.067,8.588,-0.1554,-0.7141,-0.0548
2486991.0,-2.2051,-3.1603,8.5545,0.0101,-0.6343,-0.1681
2487001.0,-2.1596,-2.4086,8.3629,0.2256,-0.5177,-0.2756
2487011.0,-2.0901,-1.1971,8.1642,0.3139,-0.4039,-0.3491
2487021.0,-2.2051,-0.1939,8.4683,0.1995,-0.3257,-0.3698
2487031.0,-2.3918,0.3328,9.2584,-0.0074,-0.3118,-0.3331
2487041.0,-2.5426,0.0742,9.9671,-0.1543,-0.3698,-0.2485
2487051.0,-2.5642,-0.8428,10.738,-0.1091,-0.4374,-0.1495
2487061.0,-2.3128,-1.5826,10.6135,0.1171,-0.5108,-0.0846
2487071.0,-2.15,-2.241,10.8433,0.3235,-0.5561,-0.0766
2487081.0,-2.0183,-2.1141,10.5201,0.538,-0.6082,-0.1101
2487091.0,-1.9369,-1.3575,10.0221,0.6231,-0.6822,-0.1596
2487101.0,-1.968,-0.5842,9.6917,0.6061,-0.7077,-0.1783
2487111.0,-2.083,0.0646,9.4188,0.5326,-0.7412,-0.1527
2487121.0,-2.0087,-0.0096,9.323,0.4464,-0.754,-0.0899
2487131.0,-1.7502,-0.6967,9.3398,0.4049,-0.7434,-0.0255
2487141.0,-1.6233,-1.1875,9.1746,0.3666,-0.7577,-0.0027
2487151.0,-1.3575,-1.3503,8.6335,0.2836,-0.8232,-0.0239
2487161.0,-1.087,-1.2594,7.6638,0.1282,-0.87,-0.0628
2487171.0,-0.6512,-1.3431,8.0206,-0.0372,-0.8269,-0.1027
2487181.0,-0.5483,-0.5267,6.1124,0.1059,-0.7849,-0.0915
2487191.0,-0.8906,-0.7183,6.2369,-0.0617,-0.7285,-0.0644
2487201.0,-0.2682,-0.4932,4.8746,0.0053,-0.6981,-0.008
2487211.0,-0.2083,-1.6376,5.3558,0.1575,-0.5821,0.0431
2487221.0,-0.9601,-1.075,2.1739,0.7136,-0.3922,0.1192
2487231.0,-0.1293,-2.2889,2.047,0.9009,-0.1165,0.149
2487241.0,0.9481,-1.7166,-0.2777,1.1185,0.1394,0.0958
2487251.0,0.2801,-1.2594,-1.6879,1.0248,0.4794,-0.0043
2487261.0,-0.1006,-0.6081,-3.4309,0.6497,0.7742,-0.1213
2487271.0,-0.6249,-0.3591,-3.984,0.2235,1.234,-0.215
2487281.0,-1.2857,-0.4741,-2.9305,0.1942,2.0082,-0.2698
2487291.0,-2.5283,-0.1053,-0.7422,0.5257,2.9734,-0.3155
2487301.0,-4.3981,0.1628,3.8427,0.8285,3.8557,-0.3799
2487311.0,-5.9711,0.7111,9.1842,1.0573,4.407,-0.4592
2487321.0,-7.4436,1.4102,15.1816,1.1786,4.5985,-0.5295
2487331.0,-8.5018,2.7557,20.808,1.2521,4.4501,-0.5555
2487341.0,-9.5074,3.9409,25.7257,1.0983,3.8993,-0.5114
2487351.0,-9.9647,4.2904,29.3912,0.5864,2.8042,-0.414
2487361.0,-9.833,3.9025,30.6242,0.1277,1.441,-0.2645
2487371.0,-9.4379,3.3519,29.4176,0.0378,0.2027,-0.0724
2487381.0,-9.0716,3.1125,26.772,0.3124,-0.7088,0.1415
2487391.0,-8.7652,3.1149,23.2381,0.7189,-1.3244,0.3677
2487401.0,-8.102,2.8467,19.982,0.97,-1.7081,0.572
2487411.0,-7.3909,2.2649,17.6117,1.0499,-1.889,0.7317
2487421.0,-6.5673,1.6137,15.5886,0.945,-1.9784,0.8173
2487431.0,-5.9759,0.6345,14.7914,0.6141,-2.0917,0.8109
2487441.0,-5.8969,0.182,13.1801,0.3496,-2.2939,0.746
2487451.0,-4.1827,-0.5794,10.319,0.0154,-2.5164,0.6518
2487461.0,-3.2825,-1.2761,9.7157,-0.2549,-2.4174,0.4901
2487471.0,-3.3303,-0.5435,8.1858,-0.0883,-2.2104,0.3528
2487481.0,-2.8156,0.3017,7.1706,0.0223,-1.9667,0.2724
2487491.0,-2.8108,0.9649,7.4364,0.1203,-1.6613,0.2485
2487501.0,-2.5331,1.3312,7.0437,0.2352,-1.4601,0.2815
2487511.0,-2.162,1.0127,7.4939,0.1889,-1.3015,0.3054
2487521.0,-2.2362,1.0056,7.5322,0.191,-1.1802,0.3155
2487531.0,-1.6712,0.5195,7.0461,0.0979,-1.1792,0.3022
2487541.0,-1.0151,-0.3256,6.6008,-0.0559,-1.1632,0.2272
2487551.0,-0.4884,-0.7087,6.2776,-0.0543,-0.9567,0.1
2487561.0,-0.7422,-0.4621,7.5058,0.0654,-0.622,-0.0463
2487571.0,-0.8691,0.4214,8.0661,0.2607,-0.3948,-0.1548
2487581.0,-1.2067,1.1923,9.7085,0.2703,-0.3049,-0.2389
2487591.0,-1.1564,2.4086,8.6048,0.2341,-0.4236,-0.2613
2487601.0,-1.3192,2.5019,9.4834,-0.1548,-0.5002,-0.2634
2487611.0,-1.5155,2.6839,10.0437,-0.3624,-0.5385,-0.216
2487621.0,-1.482,2.0159,10.8601,-0.4076,-0.6167,-0.1341
2487631.0,-1.2929,1.4581,10.6231,-0.2815,-0.7375,-0.0665
2487641.0,-0.8906,0.8475,10.6398,-0.1075,-0.8003,-0.0346
2487651.0,-0.4812,0.9337,10.0006,0.1054,-0.7833,-0.0442
2487661.0,-0.6201,1.312,10.2759,0.1229,-0.7524,-0.0788
2487671.0,-0.7374,2.0542,10.0269,0.033,-0.8003,-0.0963
2487681.0,-0.6871,2.4732,9.8354,-0.2102,-0.9142,-0.0825
2487691.0,-0.6057,2.7701,9.2129,-0.464,-1.0179,-0.0277
2487701.0,-0.4573,2.5019,8.6933,-0.6806,-1.0823,0.0548
2487711.0,-0.1796,1.7549,8.3438,-0.7386,-1.0578,0.1517
2487721.0,0.0192,0.8045,8.6311,-0.5848,-0.92,0.2352
2487731.0,0.2251,0.1939,8.8633,-0.2602,-0.7928,0.2879
2487741.0,0.4764,-0.091,8.7604,0.0474,-0.7444,0.2975
2487751.0,0.5914,0.1532,8.2121,0.2331,-0.7513,0.2666
2487761.0,0.7422,0.6991,7.3263,0.2277,-0.7838,0.2176
2487771.0,0.9194,1.2043,6.3327,0.0724,-0.804,0.1772
