time_ms,ax,ay,az,gx,gy,gz
3359351.0,6.8953,-2.8252,41.1611,-0.4592,0.1958,0.0074
3359361.0,6.9432,-3.3519,41.142,-0.4236,0.2437,0.0192
3359371.0,6.8091,-3.4285,41.1611,-0.3432,0.2661,0.0341
3359381.0,6.8761,-3.735,41.6495,-0.3565,0.3203,0.0479
3359391.0,6.7612,-3.7158,41.525,-0.2645,0.3214,0.0372
3359401.0,6.6846,-4.0127,41.4101,-0.2719,0.3006,0.0011
3359411.0,6.7325,-4.2521,41.8028,-0.3411,0.2623,-0.0138
3359421.0,6.7708,-4.4436,41.9368,-0.3384,0.2261,-0.0899
3359431.0,6.7804,-4.4819,41.9847,-0.3038,0.1884,-0.1187
3359441.0,6.675,-4.4245,41.4867,-0.3198,0.1804,-0.1666
3359451.0,6.7995,-3.9456,41.5538,-0.2964,0.174,-0.1995
3359461.0,6.7612,-3.7637,41.5633,-0.3187,0.1921,-0.2283
3359471.0,6.7708,-3.7254,41.5538,-0.2517,0.1926,-0.24
3359481.0,6.6846,-3.2657,41.6878,-0.1905,0.1692,-0.1974
3359491.0,6.608,-2.9592,41.3048,-0.1681,0.1692,-0.1873
3359501.0,6.8187,-3.1795,41.1037,-0.2006,0.1517,-0.1479
3359511.0,7.1635,-3.1508,41.1898,-0.223,0.1612,-0.1399
3359521.0,7.0773,-3.3902,40.7493,-0.2868,0.1671,-0.1575
3359531.0,6.9336,-3.304,40.7685,-0.3879,0.2118,-0.1628
3359541.0,6.9528,-3.2753,40.6631,-0.3927,0.257,-0.1761
3359551.0,6.79,-3.1412,40.8355,-0.3421,0.3831,-0.1538
3359561.0,6.3973,-2.9113,41.4963,-0.2219,0.4864,-0.0942
3359571.0,6.6367,-2.7485,41.9464,-0.1804,0.4635,-0.0633
3359581.0,6.5218,-2.8635,42.1763,-0.2304,0.3102,-0.0106
3359591.0,6.5697,-3.2274,41.9273,-0.2634,0.1884,0.0362
3359601.0,6.6559,-3.8882,41.8794,-0.257,0.182,0.0096
3359611.0,6.857,-3.9169,41.6591,-0.2889,0.2001,-0.0399
3359621.0,6.6176,-3.9265,41.7166,-0.3773,0.1671,-0.0899
3359631.0,6.7421,-3.8786,41.5921,-0.4081,0.141,-0.1054
3359641.0,6.4739,-3.8211,41.3718,-0.415,0.1282,-0.1032
3359651.0,6.5122,-3.4189,41.707,-0.3267,0.1926,-0.1213
3359661.0,6.608,-3.1795,41.9273,-0.1963,0.2522,-0.0825
3359671.0,6.541,-3.0742,42.023,-0.1602,0.1905,-0.0239
3359681.0,6.8091,-3.1508,41.8794,-0.1591,0.0676,0.0149
3359691.0,6.7516,-3.5243,41.0749,-0.1942,0.0543,0.0197
3359701.0,7.039,-3.8307,41.0749,-0.1873,0.1703,0.0027
3359711.0,6.9815,-4.0989,40.5099,-0.2352,0.215,-0.0521
3359721.0,6.6942,-3.6966,40.5482,-0.3113,0.2543,-0.0931
3359731.0,6.9432,-3.5721,40.8642,-0.3214,0.2629,-0.1155
3359741.0,6.8378,-3.4572,41.3239,-0.2735,0.3177,-0.1181
3359751.0,6.7516,-2.9975,41.3814,-0.249,0.3714,-0.0825
3359761.0,6.6176,-3.1508,41.7645,-0.199,0.3682,-0.0335
3359771.0,6.6176,-3.1987,42.2624,-0.1442,0.3092,0.0096
3359781.0,6.79,-3.5626,42.0326,-0.1096,0.2176,0.0176
3359791.0,6.6655,-3.8211,41.5921,-0.1474,0.1554,-0.0027
3359801.0,6.9719,-4.1755,41.5921,-0.174,0.1559,-0.0213
3359811.0,6.9911,-4.2234,41.5346,-0.1809,0.157,-0.0814
3359821.0,6.8187,-4.1468,40.8451,-0.2847,0.149,-0.1383
3359831.0,6.7708,-3.9169,41.3431,-0.3485,0.1431,-0.1681
3359841.0,6.6942,-3.553,41.391,-0.2905,0.1905,-0.1628
3359851.0,6.7133,-3.5051,41.0749,-0.2107,0.2677,-0.1453
3359861.0,6.6272,-3.1987,41.1132,-0.1421,0.2724,-0.124
3359871.0,6.6463,-3.0837,41.4867,-0.1219,0.282,-0.0782
3359881.0,6.8761,-3.0837,41.4388,-0.0889,0.2804,-0.0628
3359891.0,6.7325,-3.3615,41.6016,-0.1192,0.2368,-0.0537
3359901.0,6.7804,-3.2753,41.6112,-0.1639,0.1485,-0.0745
3359911.0,6.9336,-3.3232,41.0653,-0.2357,0.1543,-0.0926
3359921.0,7.0006,-2.9497,41.4005,-0.2671,0.1809,-0.099
3359931.0,6.7516,-2.8252,41.4388,-0.3225,0.1783,-0.0905
3359941.0,6.7133,-2.5762,40.9408,-0.3086,0.1852,-0.0713
3359951.0,6.541,-2.8347,41.3335,-0.2586,0.1995,-0.0404
3359961.0,6.5793,-3.0933,41.4771,-0.2559,0.2506,0.0011
3359971.0,6.5505,-3.0071,41.3622,-0.2448,0.2331,0.0266
3359981.0,6.7612,-3.3806,41.4963,-0.2575,0.2182,0.0463
3359991.0,6.8761,-3.6583,41.5155,-0.2703,0.1841,0.0298
3360001.0,6.9623,-3.6775,41.2665,-0.2549,0.2065,0.0218
3360011.0,6.8378,-3.7541,41.2186,-0.2815,0.2166,-0.0043
3360021.0,6.8283,-3.7637,41.2473,-0.2879,0.2075,-0.0303
3360031.0,6.7708,-3.5913,41.276,-0.3379,0.2049,-0.0506
3360041.0,6.7421,-4.0031,41.2665,-0.3352,0.2235,-0.0734
3360051.0,6.9432,-3.9169,41.2952,-0.2602,0.2996,-0.0926
3360061.0,6.7421,-3.802,41.391,-0.1979,0.3304,-0.1101
3360071.0,6.6846,-3.5721,41.8123,-0.1602,0.3134,-0.1117
3360081.0,6.79,-3.5243,41.5729,-0.1612,0.3092,-0.1016
3360091.0,6.7421,-3.3423,42.0039,-0.1474,0.2762,-0.1
3360101.0,6.7516,-3.5913,41.9847,-0.1394,0.2001,-0.1123
3360111.0,6.6367,-3.371,42.0996,-0.2038,0.1309,-0.1144
3360121.0,6.6846,-3.304,41.458,-0.2804,0.1064,-0.1458
3360131.0,6.6655,-3.4572,41.2473,-0.3368,0.1266,-0.1506
3360141.0,6.9623,-3.2274,40.7876,-0.3602,0.1458,-0.1612
3360151.0,6.7804,-3.0263,40.8163,-0.3448,0.2049,-0.1538
3360161.0,7.0294,-2.8539,41.3048,-0.3198,0.2836,-0.1405
3360171.0,6.8091,-2.7007,41.209,-0.2512,0.3166,-0.0857
3360181.0,6.6942,-2.7485,41.5442,-0.2272,0.323,-0.0431
3360191.0,6.5793,-2.7677,41.3814,-0.1527,0.2831,0.0011
3360201.0,6.6846,-3.1029,41.209,-0.1974,0.2485,0.0319
3360211.0,6.5793,-3.3327,41.5442,-0.2778,0.2368,0.0005
3360221.0,6.9528,-3.4668,41.5729,-0.3315,0.2586,-0.0197
3360231.0,6.9815,-3.7828,41.3622,-0.3315,0.24,-0.0564
3360241.0,6.8761,-3.7254,41.3431,-0.4103,0.2293,-0.0974
3360251.0,6.8283,-3.8595,41.8602,-0.3986,0.2001,-0.124
3360261.0,7.0964,-3.5338,41.6112,-0.3517,0.1772,-0.1128
3360271.0,6.6559,-3.3519,41.7357,-0.3624,0.1517,-0.1
3360281.0,6.5122,-3.1795,41.2665,-0.249,0.1841,-0.0623
3360291.0,6.5888,-3.237,40.9025,-0.1963,0.2198,-0.0495
3360301.0,6.4548,-3.3136,40.9504,-0.2235,0.2501,-0.0277
3360311.0,6.8953,-3.3615,40.4045,-0.2794,0.2767,-0.016
3360321.0,7.0102,-3.3902,40.4045,-0.3496,0.3118,-0.0138
3360331.0,7.7093,-3.5721,40.7685,-0.299,0.4656,-0.0085
3360341.0,7.7093,-3.7828,41.3814,-0.0772,0.5672,-0.017
3360351.0,7.2784,-3.6583,41.3526,-0.049,0.5566,-0.0181
3360361.0,7.1635,-3.7445,41.6495,-0.1948,0.3645,-0.0718
3360371.0,7.2784,-4.1276,41.1611,-0.299,0.3001,-0.0974
3360381.0,6.9049,-4.6639,40.529,-0.2623,0.3842,-0.166
3360391.0,6.5122,-4.4628,40.0311,-0.4363,0.7088,-0.2916
3360401.0,6.426,-3.0837,41.4005,-0.4395,0.9131,-0.3203
3360411.0,5.679,-1.5514,44.1012,-0.4065,0.8594,-0.2261
3360421.0,5.928,-1.245,46.8306,0.0335,0.7045,0.0181
3360431.0,5.8993,-2.1165,48.7651,1.1361,0.6151,0.3012
3360441.0,5.8514,-3.5913,50.1633,2.8787,0.6039,0.5736
3360451.0,7.7955,-3.6871,46.4188,4.1936,0.6912,0.7716
3360461.0,11.5017,-2.5283,43.0094,4.2032,1.1073,0.9344
3360471.0,12.038,-0.8236,43.517,4.1925,1.6964,1.0701
3360481.0,10.4579,3.3615,41.8411,3.1251,2.4115,1.3654
3360491.0,6.292,5.8323,41.3718,1.1233,2.8165,1.9066
3360501.0,6.3111,4.5777,42.2816,-1.6325,4.3367,2.6563
3360511.0,5.363,-6.2249,59.606,-2.1763,6.2369,2.9309
3360521.0,5.8227,-12.8904,73.6552,-0.647,6.1996,2.5525
3360531.0,5.7748,-16.6924,78.4508,-0.3416,4.8608,1.8805
3360541.0,5.8035,-18.397,78.4508,0.4023,3.1283,1.0605
3360551.0,3.9169,-17.8991,78.4508,1.3005,1.0286,0.2857
3360561.0,1.2641,-17.0084,78.4508,1.6421,-1.3718,-0.4379
3360571.0,0.9194,-17.0754,78.4508,1.7602,-3.4013,-1.2223
3360581.0,-0.5938,-14.1354,78.4508,2.0444,-5.4797,-1.9763
3360591.0,-2.5091,-9.4906,78.4508,1.9619,-7.8332,-2.5419
3360601.0,-3.9073,-4.2329,78.4508,1.5006,-10.1325,-2.7766
3360611.0,-4.5969,-0.2298,73.3296,0.8657,-11.9725,-2.7792
3360621.0,-4.7118,2.5953,64.404,-0.0154,-13.3496,-2.6419
3360631.0,-4.8746,4.0797,56.0722,-1.0238,-14.2069,-2.4371
3360641.0,-3.3806,3.7733,47.7787,-2.1721,-14.6113,-2.2588
3360651.0,-0.9194,1.6185,41.7836,-3.6812,-14.7358,-2.328
3360661.0,0.3735,0.6895,37.8188,-5.3882,-14.9625,-2.634
3360671.0,1.1301,0.9673,35.0894,-6.9936,-15.2429,-2.9836
3360681.0,1.8675,1.9345,33.0496,-8.0769,-15.4329,-3.3002
3360691.0,3.1891,2.9113,31.0576,-8.3105,-15.6313,-3.4848
3360701.0,4.3096,3.8786,27.3992,-8.086,-15.6319,-3.595
3360711.0,4.4245,4.9608,22.6396,-7.5932,-15.4696,-3.5987
3360721.0,4.865,5.5833,17.4968,-7.0457,-14.9705,-3.5284
3360731.0,8.9447,5.2194,12.5456,-6.3007,-14.3325,-3.4758
3360741.0,10.343,6.6942,7.0198,-6.031,-13.2943,-3.3933
3360751.0,11.2336,7.8338,4.3383,-6.0342,-12.2556,-3.2948
3360761.0,12.6414,10.0173,2.7581,-6.0379,-11.5373,-3.0809
3360771.0,14.4322,12.0859,-0.8428,-6.5365,-11.227,-2.7239
3360781.0,15.1122,12.7084,-3.9935,-6.9632,-10.9615,-2.2753
3360791.0,17.4202,12.8425,-9.1554,-6.6711,-10.2214,-1.8635
3360801.0,19.9964,13.3118,-16.1561,-6.2294,-8.4904,-1.4708
3360811.0,20.9349,14.1928,-20.7242,-5.8213,-6.1491,-1.1126
3360821.0,21.9692,16.6253,-23.626,-5.6351,-3.5487,-0.597
3360831.0,21.3563,19.0291,-22.2182,-5.5808,-1.2084,0.1517
3360841.0,20.0059,20.7338,-18.4354,-5.1535,0.7136,1.1616
3360851.0,20.0155,21.7394,-15.7538,-4.2734,2.5052,2.3328
3360861.0,18.7131,20.9636,-13.2256,-2.6999,4.4022,3.6535
3360871.0,18.4258,18.3587,-11.9135,-1.118,6.4471,4.7986
3360881.0,16.9126,16.1369,-9.8067,0.737,8.3222,5.7585
3360891.0,14.6812,16.5391,-11.9135,1.4649,10.5012,6.778
3360901.0,12.5839,13.1873,-7.4412,1.9204,13.1602,7.8167
3360911.0,8.9447,8.9256,-0.8428,2.7383,15.8479,8.6096
3360921.0,4.8363,4.4628,8.7628,2.9378,17.4357,9.1332
3360931.0,2.9401,0.1437,23.2525,3.1331,17.4357,9.4349
3360941.0,1.3408,-2.0207,35.0415,3.6647,17.4357,9.5073
3360951.0,-1.2067,-1.6472,42.2241,4.0355,17.3964,9.6445
3360961.0,-2.8635,-2.1261,43.5649,3.8578,16.3534,10.0266
3360971.0,-3.1891,-5.9089,45.6143,4.2931,16.0475,10.307
3360981.0,-3.1795,-9.0022,46.9647,4.4948,16.3183,10.3251
3360991.0,-3.6871,-11.9614,53.1321,4.6698,16.4226,10.0878
3361001.0,-5.2577,-11.2911,60.4105,5.2525,15.8367,9.8031
3361011.0,-8.6479,-9.7013,64.6818,5.5414,14.5825,9.793
3361021.0,-7.9296,-13.1873,71.1174,6.7786,13.5758,9.8941
3361031.0,-6.0525,-18.9238,73.7127,9.146,12.8095,9.6472
3361041.0,-3.4381,-21.6819,74.067,10.7987,11.9528,8.9155
3361051.0,-3.2561,-19.4984,74.7182,11.2829,10.6784,8.0211
3361061.0,-4.3383,-14.5759,73.7127,10.7343,8.881,7.3719
3361071.0,-4.5681,-11.4156,70.5619,9.3907,6.8909,6.9606
3361081.0,-4.4053,-9.8258,65.3234,7.6768,5.476,6.6094
3361091.0,-4.4724,-9.0788,61.0426,5.916,4.5857,6.2443
3361101.0,-4.6831,-9.0597,57.3076,4.1888,3.8206,5.8591
3361111.0,-4.3287,-7.8721,53.4099,2.4323,3.2326,5.4302
3361121.0,-5.0853,-5.9759,49.8377,0.8264,2.7968,5.0827
3361131.0,-4.8459,-5.0278,48.7268,-0.0426,2.8654,4.9146
3361141.0,-4.9895,-4.6639,48.3437,0.3773,3.181,4.8204
3361151.0,-5.3534,-3.0742,48.248,1.1999,3.6189,4.789
3361161.0,-6.1004,-1.3408,49.2344,2.3216,3.9334,4.8614
3361171.0,-6.1387,1.0726,48.4778,3.4986,4.0382,5.045
3361181.0,-5.8131,3.1316,46.3901,4.1702,4.1398,5.2982
3361191.0,-5.3247,4.4245,44.8195,4.5416,4.2606,5.5026
3361201.0,-4.7788,5.8323,43.9001,5.1104,4.5405,5.6691
3361211.0,-5.1906,8.3031,40.9696,5.5872,4.93,5.8394
3361221.0,-5.9376,9.8641,38.6424,5.1184,5.427,6.0959
3361231.0,-7.422,9.9982,38.7573,4.2644,5.7819,6.2678
3361241.0,-8.9639,10.659,39.7054,3.372,6.015,6.4348
3361251.0,-10.1897,11.8944,40.4907,2.6441,6.3438,6.6354
3361261.0,-12.0668,13.5033,42.6551,2.2503,6.7892,6.9457
3361271.0,-13.3405,15.1409,46.7444,2.3338,7.2836,7.432
3361281.0,-15.3516,13.465,52.5001,3.0724,7.6028,7.9386
3361291.0,-17.4681,12.8808,56.1009,3.8578,7.1974,8.3691
3361301.0,-19.4026,12.8042,57.2789,3.9451,6.3625,8.7437
3361311.0,-20.4178,11.8178,57.4991,3.9116,5.8873,9.113
3361321.0,-20.4561,9.7779,59.7018,4.1755,5.8591,9.3551
3361331.0,-20.2741,9.0884,62.527,4.2899,5.9448,9.3918
3361341.0,-21.4904,9.1746,66.5875,3.2459,4.9502,9.3513
3361351.0,-22.3523,8.0349,70.8013,1.6166,2.7037,9.2726
3361361.0,-22.381,5.9951,71.261,0.4954,0.6896,9.2087
3361371.0,-21.4712,0.5842,73.186,1.2451,-0.4661,9.1651
3361381.0,-20.4178,-3.304,72.4294,3.6939,-1.0248,8.9102
3361391.0,-19.0004,-3.7541,66.7408,5.2504,-1.5059,8.4659
3361401.0,-18.081,-3.1891,61.6172,4.756,-2.3046,7.9248
3361411.0,-16.1656,-3.62,56.8767,2.9325,-3.3805,7.1995
3361421.0,-13.9438,-4.6639,53.0938,0.4039,-4.3404,6.2449
3361431.0,-12.5456,-5.6982,51.0156,-2.0747,-4.996,5.1673
3361441.0,-12.469,-5.4396,52.1074,-3.6519,-5.4345,4.1095
3361451.0,-13.3788,-2.8252,54.1185,-3.9467,-5.6638,3.3741
3361461.0,-13.714,0.3543,56.5894,-3.4774,-5.7388,3.0086
3361471.0,-13.4841,2.3176,59.472,-2.692,-6.1108,2.8745
3361481.0,-15.342,3.7541,63.8198,-1.7544,-7.0856,3.0102
3361491.0,-13.8672,0.6895,65.5149,-0.6119,-8.5048,3.2368
3361501.0,-11.2336,-4.3096,62.4695,0.3634,-9.9058,3.0219
3361511.0,-10.1227,-6.5888,55.8519,-0.0963,-11.3324,2.4498
3361521.0,-9.4523,-7.4795,49.062,-1.8156,-12.7707,1.6421
3361531.0,-8.3127,-7.2784,41.774,-3.9712,-13.7583,0.746
3361541.0,-7.173,-6.3782,36.3153,-5.5435,-14.0121,-0.1394
3361551.0,-5.7844,-5.3534,32.8963,-6.2906,-13.571,-0.8897
3361561.0,-5.3056,-3.9265,32.8963,-6.1619,-12.7372,-1.4149
3361571.0,-5.1236,-1.4844,33.8636,-5.1663,-12.1242,-1.6964
3361581.0,-4.2138,0.814,33.787,-3.7972,-11.7975,-1.6724
3361591.0,-2.4229,1.8387,31.3353,-2.5382,-11.3563,-1.5
3361601.0,-0.9098,2.5666,27.8398,-1.6692,-10.7944,-1.3425
3361611.0,1.7238,1.8196,24.1431,-1.6905,-10.1165,-1.2686
3361621.0,3.62,0.6895,21.4137,-2.3317,-9.4386,-1.376
3361631.0,4.9512,-0.0862,20.4944,-3.5609,-8.7969,-1.641
3361641.0,5.9759,-0.814,21.0786,-4.7736,-8.1823,-1.9204
3361651.0,7.0677,-3.0837,26.0681,-4.9151,-7.2527,-2.1785
3361661.0,8.5521,-5.9855,32.7718,-3.3917,-6.3731,-2.5451
3361671.0,9.0788,-6.608,36.5547,-1.8267,-6.1581,-2.9729
3361681.0,8.7436,-5.7365,39.4373,-0.8226,-6.8233,-3.3709
3361691.0,8.6,-5.1332,37.656,-0.5257,-7.979,-3.7525
3361701.0,9.4427,-4.5969,31.7088,-1.0844,-8.8458,-4.2143
3361711.0,10.6686,-3.9648,25.4456,-2.0391,-8.7533,-4.7486
3361721.0,11.7795,-2.9592,21.7681,-2.4972,-7.7816,-5.2637
3361731.0,11.8944,-1.0343,19.5654,-3.3816,-6.6695,-5.7303
3361741.0,12.0189,-0.0575,22.9939,-4.7555,-5.9416,-6.1007
3361751.0,11.1378,0.1053,29.9084,-4.7587,-5.9267,-6.3683
3361761.0,10.7356,1.4653,31.862,-3.7801,-5.9549,-6.4391
3361771.0,12.3349,1.4174,33.4901,-1.9938,-5.5388,-6.4029
3361781.0,11.9519,2.7677,33.1741,-0.132,-5.3025,-6.3353
3361791.0,12.1051,5.0182,30.9235,0.7178,-5.4834,-6.2087
3361801.0,13.4458,6.3207,27.2747,0.5337,-5.7495,-6.0586
3361811.0,14.4131,5.8419,23.4057,-0.3475,-5.824,-6.0443
3361821.0,15.342,5.3343,20.6572,-1.5596,-5.7064,-6.14
3361831.0,15.7347,4.9512,18.7801,-2.9761,-5.4573,-6.3343
3361841.0,16.2901,3.4189,18.8759,-4.1287,-5.2051,-6.6269
3361851.0,16.0795,2.7007,19.3739,-4.8534,-4.9838,-6.9925
3361861.0,16.1656,2.5283,21.0786,-4.606,-4.5794,-7.2995
3361871.0,15.9071,3.1125,21.9022,-2.9963,-4.077,-7.4863
3361881.0,16.587,5.0087,17.8607,-1.4489,-3.2975,-7.6071
3361891.0,17.8033,5.6982,15.7922,-0.5321,-2.428,-7.6896
3361901.0,18.2151,7.0868,12.4498,-0.2363,-1.4947,-7.8636
3361911.0,18.6556,8.3989,11.2049,-0.8322,-0.4768,-8.045
3361921.0,17.9278,9.6822,12.4115,-1.6352,0.5034,-8.2328
3361931.0,16.9031,11.2049,15.4761,-2.3812,1.1531,-8.2962
3361941.0,16.1561,12.0668,19.824,-2.6781,1.6549,-8.2233
3361951.0,15.2559,12.1625,23.7601,-2.1966,2.0811,-8.0312
3361961.0,15.5815,11.8274,27.5429,-0.9333,2.4142,-7.8705
3361971.0,15.8975,12.2487,28.4814,0.3799,2.7154,-7.722
3361981.0,16.4625,13.1585,29.4583,1.3893,2.9846,-7.5901
3361991.0,16.8456,14.6812,28.6921,1.8129,3.0948,-7.5491
3362001.0,16.5775,17.3149,28.5102,1.1536,2.9793,-7.4911
3362011.0,15.84,19.4792,30.0233,-0.1634,2.5047,-7.3506
3362021.0,15.5144,21.1743,30.9427,-1.6703,1.7129,-7.0931
3362031.0,14.5951,21.8255,31.4598,-2.8777,0.8381,-6.7211
3362041.0,14.3269,20.6667,30.9522,-3.1139,0.4757,-6.2885
3362051.0,15.093,18.2725,29.0848,-2.162,0.7822,-5.9267
3362061.0,16.4146,16.5966,25.5797,-1.011,1.6538,-5.7351
3362071.0,16.587,15.0356,25.436,-0.174,2.6952,-5.7665
3362081.0,16.7307,15.2846,26.3841,0.0559,3.2102,-5.9304
3362091.0,15.8305,16.3955,28.0409,-0.7178,2.8622,-6.1118
3362101.0,15.5527,16.9414,29.0752,-1.8172,1.931,-6.3252
3362111.0,15.6485,17.6884,27.3801,-2.4062,1.6309,-6.4731
3362121.0,14.8824,18.7897,24.8231,-2.0939,2.3626,-6.6035
3362131.0,13.6374,21.4616,22.8311,-1.9406,3.5774,-6.6503
3362141.0,11.8944,23.942,25.0242,-2.171,4.5517,-6.5737
3362151.0,11.4156,25.3115,30.2148,-2.2588,4.7864,-6.372
3362161.0,11.3485,26.1447,34.0839,-2.3402,4.2154,-6.1704
3362171.0,11.3198,26.8438,34.7159,-2.6201,3.1671,-5.9809
3362181.0,11.0516,27.6004,32.111,-2.7111,2.2604,-5.8516
3362191.0,10.6781,29.6785,26.5373,-2.4142,2.4185,-5.6601
3362201.0,10.3142,31.9578,19.891,-1.9997,3.8264,-5.3648
3362211.0,8.6383,34.7542,18.2534,-1.7682,5.8618,-4.8875
3362221.0,5.8802,37.0048,22.1033,-1.4771,7.6651,-4.2968
3362231.0,4.4628,38.4221,29.1518,-1.301,8.6122,-3.5385
3362241.0,3.802,36.1237,37.6177,-1.5298,8.127,-2.8665
3362251.0,3.8499,34.2562,42.6072,-1.8384,6.3242,-2.4557
3362261.0,4.3574,34.5723,41.4771,-1.3425,4.9008,-2.0955
3362271.0,4.3574,37.0814,33.2124,-0.2506,5.0274,-1.6011
3362281.0,4.3191,40.5386,26.2021,0.48,6.5498,-0.9573
3362291.0,2.9784,43.2967,24.5262,0.6811,8.5197,-0.1687
3362301.0,0.6704,44.331,30.2244,0.2214,9.7978,0.7886
3362311.0,-1.6089,41.4676,40.2609,-0.5539,9.2955,1.7283
3362321.0,-2.7102,36.3248,46.4954,-1.4319,6.81,2.4695
3362331.0,-1.7334,32.3888,42.8371,-2.0651,4.3984,2.8867
3362341.0,-0.8428,31.0767,33.9881,-0.9833,4.2617,3.2821
3362351.0,-1.5036,32.2451,22.9843,0.7487,6.495,3.6982
3362361.0,-3.553,32.9538,19.5271,1.9262,9.453,4.1489
3362371.0,-5.6982,33.7774,23.1663,2.2418,11.8635,4.5937
3362381.0,-7.7285,34.3041,30.732,1.201,12.6824,4.9896
3362391.0,-9.0884,33.5571,41.2473,-0.7524,11.5341,5.3892
3362401.0,-10.477,31.1629,48.1426,-2.585,8.9235,5.8144
3362411.0,-9.4427,29.3338,46.9072,-3.6806,6.487,6.1188
3362421.0,-9.9599,29.5828,39.8682,-3.389,5.5707,6.52
3362431.0,-11.8082,30.2148,31.7854,-2.3237,6.5647,7.1569
3362441.0,-12.8233,28.6921,28.8358,-0.4778,8.7995,7.855
3362451.0,-13.1585,25.5318,30.8277,1.5841,11.1552,8.3637
3362461.0,-13.465,23.3387,34.5914,2.4158,12.42,8.575
3362471.0,-13.8481,22.1799,41.4676,1.815,12.0752,8.5638
3362481.0,-13.8672,22.314,46.007,0.588,10.4571,8.5564
3362491.0,-13.7906,20.7721,46.2177,-0.7982,8.5468,8.5064
3362501.0,-14.4227,20.0921,42.8275,-1.5117,7.0202,8.3989
3362511.0,-15.2654,21.6244,35.1756,-1.8427,6.7397,8.4303
3362521.0,-16.7498,22.563,30.5692,-1.4963,7.6385,8.6032
3362531.0,-17.6501,22.6013,28.5389,-0.9253,9.3093,8.8331
3362541.0,-19.3547,21.816,31.3928,-0.3688,10.6295,9.0566
3362551.0,-20.82,22.1607,34.5244,-0.2315,10.9461,9.172
3362561.0,-22.812,23.9133,36.9856,-0.8285,10.6029,9.3689
3362571.0,-24.4496,25.187,38.336,-0.9541,10.2687,9.7031
3362581.0,-25.2828,26.6906,35.3288,-0.8987,10.5135,10.075
3362591.0,-27.3897,27.8206,34.3999,-0.978,11.3771,10.4906
3362601.0,-29.5923,29.1135,35.3671,-1.2797,12.511,10.9498
3362611.0,-31.4885,28.5868,41.6016,-1.8816,13.3544,11.4723
3362621.0,-33.7008,25.9531,51.3221,-2.593,13.2267,11.9188
3362631.0,-34.3041,21.7968,60.717,-2.6739,11.8028,12.2663
3362641.0,-34.3233,16.9605,66.2045,-2.0023,9.7446,12.3913
3362651.0,-31.546,13.0723,64.9403,-1.118,8.2658,12.2992
3362661.0,-30.052,10.3717,62.0098,-0.2953,7.5427,11.856
3362671.0,-29.0273,10.1035,57.9205,-0.415,6.9749,11.2366
3362681.0,-29.0177,10.5919,55.6796,-1.9332,6.2449,10.6061
3362691.0,-28.989,9.1363,57.2885,-3.6333,5.3717,10.0309
3362701.0,-27.3801,7.5465,58.3802,-4.9646,4.4953,9.3732
3362711.0,-27.562,6.9911,61.6938,-6.1406,3.7482,8.7266
3362721.0,-27.9164,5.8419,68.0336,-6.0794,2.8516,8.2339
3362731.0,-29.3433,4.1659,72.8987,-5.0742,1.8917,7.8854
3362741.0,-26.7097,-0.182,77.6679,-3.3736,0.9887,7.4746
3362751.0,-23.7888,-2.8635,78.4508,-1.2781,0.0803,6.6998
3362761.0,-24.7465,0.7278,78.4508,-1.442,-2.105,5.7814
3362771.0,-25.7041,5.0661,78.4508,-3.5194,-5.526,5.1344
3362781.0,-24.689,6.8091,77.5434,-5.6446,-8.8868,4.7645
3362791.0,-23.2142,5.679,71.2802,-7.308,-11.2164,4.4341
3362801.0,-21.3563,3.735,65.3809,-7.9508,-12.5818,4.0313
3362811.0,-21.1552,1.7526,60.3435,-8.0828,-13.439,3.6306
3362821.0,-19.9676,-1.0056,56.2637,-7.6502,-14.2473,3.1783
3362831.0,-19.2494,-2.9401,51.8967,-6.993,-14.7565,2.6973
3362841.0,-15.8688,-7.5369,49.0811,-5.5217,-14.9593,2.1465
3362851.0,-12.22,-9.6726,43.45,-3.9211,-14.8284,1.2531
3362861.0,-10.5824,-7.5753,38.6711,-3.049,-14.6666,0.2852
3362871.0,-8.9926,-2.9784,34.0072,-2.5456,-14.6166,-0.3725
3362881.0,-9.4523,0.6512,29.8413,-2.5345,-14.5916,-0.7726
3362891.0,-8.102,4.1851,24.4017,-2.958,-14.3718,-0.9488
3362901.0,-5.1427,4.9225,20.9062,-3.5487,-13.7721,-1.0121
3362911.0,-3.3615,4.3958,20.1783,-3.2363,-12.9144,-1.11
3362921.0,-1.5897,5.1715,19.0483,-2.5754,-12.138,-1.1456
3362931.0,0.3735,5.5833,17.8991,-1.9454,-11.6048,-1.0951
3362941.0,1.5802,5.8514,16.3668,-1.3968,-11.2643,-0.9929
3362951.0,3.2082,4.2042,14.0492,-0.8024,-10.9865,-0.8594
3362961.0,6.541,0.814,9.979,-0.2097,-10.3395,-0.9509
3362971.0,8.849,-1.7142,4.8267,0.141,-9.2779,-1.3079
3362981.0,10.6207,-3.0454,2.0782,0.1389,-8.0801,-1.8161
3362991.0,11.6454,-4.0701,0.1437,0.0596,-6.934,-2.3716
3363001.0,13.5703,-4.9512,-2.5953,-0.3203,-5.7383,-3.0687
3363011.0,14.777,-6.0334,-5.0087,-0.9833,-4.4298,-3.9068
3363021.0,16.0028,-4.8937,-5.679,-1.4234,-2.891,-4.797
3363031.0,15.2559,-2.8826,-3.4955,-1.0068,-1.1802,-5.493
3363041.0,14.5855,-0.1053,-2.988,-0.0718,0.5396,-5.965
3363051.0,13.7906,2.8156,-2.49,0.6811,2.2817,-6.2422
3363061.0,12.6701,4.9895,-1.1205,1.334,3.9557,-6.3715
3363071.0,11.1953,5.4971,1.3886,1.8134,5.5553,-6.4173
3363081.0,10.2568,4.8459,4.9225,2.1907,6.9366,-6.6349
3363091.0,8.849,7.0677,8.6191,2.3769,8.0817,-6.9329
3363101.0,6.6176,10.8314,12.5839,2.1002,8.9677,-7.0798
3363111.0,4.0127,13.9151,18.2151,1.6331,9.3024,-7.0122
3363121.0,2.9113,15.6389,23.4728,1.4293,9.4173,-6.7903
3363131.0,0.8428,14.1354,28.8166,1.8906,9.4562,-6.5327
3363141.0,0.5938,10.2472,32.3026,2.8362,9.586,-6.5476
3363151.0,0.1532,7.9487,35.281,3.7094,9.5972,-6.8925
3363161.0,-1.1492,9.1075,37.0814,3.9121,9.3168,-7.3676
3363171.0,-3.7828,11.2432,39.0734,3.6391,8.7852,-7.7577
3363181.0,-4.9512,13.1873,40.893,3.5652,8.1397,-8.0179
3363191.0,-5.9472,15.4282,40.2034,3.6072,7.7087,-8.1935
3363201.0,-6.924,17.1042,39.9832,3.463,7.5768,-8.3212
3363211.0,-7.9104,18.2821,39.9544,3.2054,7.3868,-8.409
3363221.0,-9.4332,19.7474,40.0694,2.4807,6.9191,-8.4829
3363231.0,-11.157,20.2166,40.2609,1.6554,6.3912,-8.4766
3363241.0,-11.473,20.4369,39.7437,1.2159,6.031,-8.4723
3363251.0,-12.2104,21.6915,38.0295,0.7918,6.0299,-8.4303
3363261.0,-12.651,22.3906,37.4549,0.431,6.3529,-8.3116
3363271.0,-13.465,23.0897,37.7518,0.24,6.7568,-8.1222
3363281.0,-15.3133,21.5957,40.9408,0.1761,7.0329,-7.8726
3363291.0,-16.0412,19.2685,44.5609,0.6476,6.7796,-7.8146
3363301.0,-16.2518,17.8991,44.5226,1.2169,6.4444,-7.8779
3363311.0,-16.2997,16.5583,44.6375,1.8837,6.5072,-7.9918
3363321.0,-15.9645,15.3229,46.1411,2.8026,6.877,-8.1945
3363331.0,-16.453,15.773,47.0317,3.4486,7.1229,-8.4824
3363341.0,-17.8607,18.1193,49.4738,3.3422,6.8994,-8.6979
3363351.0,-19.7378,19.7378,54.1856,2.9655,6.0629,-8.7708
3363361.0,-20.7912,21.1456,57.9876,2.7638,4.7949,-8.7884
3363371.0,-21.6244,22.5725,59.8359,2.5488,3.2342,-8.8049
3363381.0,-21.5574,24.3251,61.1958,2.1849,1.3005,-8.8756
3363391.0,-22.0075,28.2803,58.6962,1.6442,-0.5875,-8.8187
3363401.0,-21.4425,31.3162,54.9709,0.9892,-1.8411,-8.5691
3363411.0,-21.8638,33.6146,52.5001,0.9078,-2.5196,-8.0737
3363421.0,-22.8981,33.2794,51.3891,1.1116,-2.7686,-7.3996
3363431.0,-25.1391,28.5485,52.2127,1.8055,-3.2289,-6.8925
3363441.0,-25.2253,24.5166,51.0923,2.5829,-4.0041,-6.8307
3363451.0,-25.2253,24.3825,46.9264,2.5392,-4.7358,-7.0744
3363461.0,-25.1391,26.5948,45.1259,2.1455,-5.1684,-7.3373
3363471.0,-25.4073,30.2914,43.4787,1.4601,-5.468,-7.4693
3363481.0,-25.5318,33.5667,43.2584,0.2363,-5.8069,-7.3698
3363491.0,-24.8901,34.7542,46.1506,-0.7333,-6.3337,-7.1282
3363501.0,-25.2349,36.0663,48.6885,-1.383,-7.1074,-6.7296
3363511.0,-25.3977,35.8364,52.0883,-1.4133,-7.9992,-6.1438
3363521.0,-26.5278,34.0839,52.9214,-0.7327,-9.0709,-5.5398
3363531.0,-27.5812,31.6513,50.2208,-0.1639,-10.2448,-4.9859
3363541.0,-25.8957,27.495,45.5856,0.3895,-11.0679,-4.6602
3363551.0,-23.8367,25.5413,38.0965,0.5167,-11.3734,-4.6517
3363561.0,-22.6779,25.9244,31.3162,-0.3278,-11.1882,-4.7337
3363571.0,-20.638,27.0928,26.7672,-1.6166,-10.6199,-4.7725
3363581.0,-18.6652,28.7975,25.5701,-3.24,-9.8185,-4.7278
3363591.0,-17.4681,29.305,27.3992,-4.9109,-9.2173,-4.5559
3363601.0,-16.1561,28.6251,31.4311,-6.3093,-8.9049,-4.3186
3363611.0,-16.5391,28.242,37.8763,-6.7945,-8.8714,-3.9605
3363621.0,-16.8073,25.0338,44.5322,-5.8905,-9.1891,-3.4598
3363631.0,-15.4761,21.6627,45.4036,-4.5075,-9.7962,-3.1554
3363641.0,-14.6908,20.1496,43.1339,-3.9637,-10.5545,-3.0107
3363651.0,-14.5855,19.6133,39.0255,-3.8913,-11.2563,-2.892
3363661.0,-12.9574,18.8088,33.289,-4.217,-11.3553,-2.8527
3363671.0,-11.0133,18.0714,29.0081,-4.8204,-10.7524,-2.9373
3363681.0,-9.9599,19.4409,28.424,-5.6925,-9.9186,-3.0554
3363691.0,-9.1746,22.5438,29.7934,-6.81,-9.3104,-2.975
3363701.0,-8.2839,24.8327,33.7678,-7.7055,-9.2987,-2.6079
3363711.0,-7.2784,26.0298,37.7039,-8.0003,-9.8196,-2.0673
3363721.0,-6.0047,27.0641,37.9242,-7.4171,-10.6438,-1.342
3363731.0,-4.6926,28.0505,33.5092,-5.9698,-11.0706,-0.3336
3363741.0,-2.0686,26.4511,26.5852,-3.7503,-10.3203,0.8365
3363751.0,0.4022,24.3538,15.8017,-1.9507,-8.6591,1.8688
3363761.0,2.9784,22.0745,7.4891,-1.4202,-6.4205,2.7122
3363771.0,5.2481,20.5614,3.6392,-1.6863,-4.0531,3.3544
3363781.0,5.9951,19.326,1.4653,-3.0815,-1.9305,3.903
3363791.0,6.3207,15.1792,5.4588,-4.6943,-0.3342,4.3154
3363801.0,6.5314,12.0668,9.1842,-5.4919,0.8429,4.4942
3363811.0,6.0813,13.6757,9.8354,-6.3529,1.9954,4.7433
3363821.0,2.6528,13.532,16.271,-6.2092,3.8041,5.4765
3363831.0,3.3998,6.177,29.6019,-2.7021,6.1507,6.3279
3363841.0,4.2042,1.0247,35.5587,1.4101,7.6693,6.6429
3363851.0,4.3191,0.4214,39.4373,2.5919,7.855,6.6147
3363861.0,2.0877,-1.7238,47.75,2.8771,6.9818,6.3939
3363871.0,1.8675,1.1492,48.9566,2.5281,5.7309,5.9969
3363881.0,0.8715,5.8419,48.4395,0.5933,4.7331,5.6548
3363891.0,-1.7334,10.1131,51.3125,-1.2233,3.786,5.6383
3363901.0,-3.4189,13.8768,51.8297,-2.6212,3.0086,5.8814
3363911.0,-7.9487,14.0875,56.5319,-3.1756,3.1267,6.6663
3363921.0,-4.8746,2.9975,75.4652,0.4869,4.2202,7.415
3363931.0,-4.4819,-0.5938,78.4508,5.4983,3.4076,7.6092
3363941.0,-5.4684,-0.9673,78.4508,5.6207,0.34,7.5634
3363951.0,-3.2657,-3.869,78.4508,6.6589,-3.3417,7.5321
3363961.0,-0.182,-5.0087,71.1174,8.4744,-5.2227,7.4464
3363971.0,2.3463,-8.6574,56.7617,9.4147,-5.3844,7.1282
3363981.0,4.5298,-12.0189,45.7293,9.8813,-4.665,6.4306
3363991.0,6.857,-13.8576,35.348,8.898,-3.704,5.468
3364001.0,9.3948,-15.7922,25.7712,5.6212,-2.8963,4.0925
3364011.0,12.7084,-18.2725,21.9213,0.4135,-2.129,2.3605
3364021.0,14.4227,-21.4999,27.1694,-4.2143,-1.5527,0.3991
3364031.0,14.8249,-22.2852,34.2945,-6.893,-1.3047,-1.5447
3364041.0,14.6621,-19.2302,39.7342,-8.3797,-1.2914,-3.1836
3364051.0,13.0053,-15.8305,46.2177,-8.0003,-1.5325,-4.358
3364061.0,12.6605,-10.5345,47.2711,-6.1257,-1.7799,-5.1461
3364071.0,12.1625,-5.2385,45.1738,-3.9669,-1.7879,-5.5659
3364081.0,11.4347,-0.3543,41.027,-1.9087,-1.4175,-5.7596
3364091.0,10.5441,4.9991,36.7845,-0.6455,-0.8136,-5.7782
3364101.0,10.2759,9.6438,34.103,-0.5199,-0.1378,-5.6654
3364111.0,8.3318,12.7084,35.0894,-0.878,0.3241,-5.4153
3364121.0,7.5848,14.4801,36.2195,-1.5341,0.5114,-5.1892
3364131.0,6.4452,15.6102,38.1636,-2.4967,0.4927,-5.0231
3364141.0,6.0621,17.1616,40.778,-3.3608,0.4715,-4.896
3364151.0,4.3287,19.642,45.8346,-3.1682,0.4922,-4.6086
3364161.0,3.1125,24.124,48.5353,-2.1024,0.0756,-4.0425
3364171.0,1.1588,27.6099,48.315,-1.3691,-0.539,-3.1065
3364181.0,1.4078,29.1422,46.4954,-0.6864,-1.0052,-2.0071
3364191.0,1.7047,28.3952,42.8945,-0.4315,-0.9791,-0.9301
3364201.0,0.6129,25.1391,41.9751,-0.381,-0.7811,-0.0325
3364211.0,0.0287,20.7625,43.0477,-0.2107,-0.6417,0.5523
3364221.0,0.1915,18.148,44.5322,-0.0841,-0.5444,0.8147
3364231.0,-1.9058,18.4928,47.4818,0.3352,-0.4401,0.9796
3364241.0,-3.3232,20.5806,52.8065,0.9748,-0.2011,1.2217
3364251.0,-4.9129,24.4017,56.1392,0.9525,-0.9291,1.6267
3364261.0,-6.0238,26.681,57.7769,-1.16,-2.9027,2.1668
3364271.0,-4.6639,26.1543,58.8591,-3.2102,-5.3382,2.759
3364281.0,-3.5434,24.8422,55.4784,-4.1494,-6.9244,3.4119
3364291.0,-3.4381,23.2908,51.0923,-3.994,-7.5917,4.1037
3364301.0,-3.2753,21.7681,46.6486,-3.2374,-7.8417,4.8247
3364311.0,-3.0454,20.2071,41.0749,-2.6313,-8.0264,5.593
3364321.0,-1.743,18.3204,35.2714,-2.3094,-8.0753,6.3167
3364331.0,0.1053,16.1752,28.9603,-2.1657,-7.5709,6.9941
3364341.0,2.059,14.0779,23.0322,-1.9646,-6.5663,7.681
3364351.0,4.0893,12.8521,19.6325,-1.706,-5.1296,8.3409
3364361.0,4.4819,11.2432,17.8991,-1.3633,-3.6673,9.0997
3364371.0,4.1372,8.6,15.6772,-1.4899,-2.6387,9.8686
3364381.0,5.3534,5.0182,12.536,-2.701,-1.8204,10.5827
3364391.0,6.4452,-2.7294,12.4594,-3.4683,-1.0903,11.0754
3364401.0,8.3606,-11.9902,11.1474,-3.3635,0.165,11.1499
3364411.0,10.7643,-21.3754,10.0556,-2.7696,2.1114,10.6822
3364421.0,12.6797,-30.3489,10.9271,-2.2264,4.0675,9.4833
3364431.0,12.5743,-34.6393,13.1585,-2.1354,5.5074,7.9162
3364441.0,14.5472,-36.8899,15.8496,-2.6292,6.6567,6.1842
3364451.0,16.1465,-39.8204,21.3754,-2.7627,7.8843,4.3447
3364461.0,18.2438,-42.9711,31.2395,-1.5506,9.4572,2.3237
3364471.0,18.2247,-42.7221,43.1914,0.821,10.821,0.0788
3364481.0,14.71,-34.9649,54.1568,2.2524,10.712,-1.9683
3364491.0,12.1147,-25.9531,64.8063,1.7874,8.575,-3.6024
3364501.0,12.038,-16.0699,70.131,0.5571,5.7442,-4.7922
3364511.0,11.3772,-8.8969,73.4445,-0.7301,3.3204,-5.6287
3364521.0,11.2911,-3.3136,77.2274,-0.9754,1.1584,-6.2449
3364531.0,6.8091,5.679,75.7908,-1.0488,-1.1196,-6.3518
3364541.0,0.9864,11.4826,75.4078,-0.8429,-3.0416,-6.0315
3364551.0,-2.624,17.9182,75.8866,1.0456,-4.5123,-5.1993
3364561.0,-3.9169,25.2828,70.7822,1.9353,-5.849,-3.9664
3364571.0,-6.0047,27.8302,68.886,2.0077,-7.391,-2.5515
3364581.0,-6.9911,27.3418,66.2523,2.7686,-8.7405,-1.1323
3364591.0,-6.1866,24.4975,62.4408,3.3518,-9.5855,0.1644
3364601.0,-4.798,21.5861,58.4473,3.9126,-10.4523,1.0733
3364611.0,-3.9456,22.0171,49.7707,2.6446,-11.5319,1.7549
3364621.0,-4.0031,21.9979,43.5649,0.2107,-12.6909,2.4264
3364631.0,-3.1795,21.4042,37.9529,-1.6825,-13.2012,3.1421
3364641.0,-1.8771,20.0443,33.0208,-2.6606,-12.9266,3.9169
3364651.0,-1.2354,18.1959,31.9674,-2.4355,-11.8704,4.8513
3364661.0,0.7853,15.7347,32.0057,-1.3611,-10.7881,5.8325
3364671.0,-0.4118,14.3077,33.0879,-0.787,-10.4544,6.8632
3364681.0,-0.5363,13.1202,33.4039,-0.3336,-10.9887,7.9551
3364691.0,0.3352,9.6438,31.4215,0.4938,-11.4963,9.1204
3364701.0,0.4405,2.8252,25.254,1.3638,-11.7735,10.1405
3364711.0,3.7924,-5.7844,17.6309,1.74,-11.6687,10.8168
3364721.0,6.3877,-17.9948,7.355,0.7897,-11.5708,10.8455
3364731.0,10.4483,-30.4542,-4.9321,-2.1561,-11.8065,9.8505
3364741.0,17.9469,-40.5769,-15.2654,-5.5563,-11.5468,7.9519
3364751.0,24.9859,-46.7252,-23.0897,-6.8158,-9.776,5.5537
3364761.0,33.1549,-45.9304,-30.9714,-6.4455,-6.1635,3.0437
3364771.0,29.5253,-42.5881,-34.2562,-4.7938,-0.5726,0.9456
3364781.0,23.1471,-37.9816,-23.7026,-2.4014,2.3775,-0.8242
3364791.0,20.3411,-28.7591,-19.7665,-0.8258,3.7525,-2.0976
3364801.0,16.4434,-19.7186,-19.4122,-0.4874,4.2681,-2.7409
3364811.0,14.2886,-14.4322,-22.7258,0.1501,5.4212,-2.9665
3364821.0,14.1641,-8.5617,-27.8685,2.1716,8.509,-3.008
3364831.0,12.6988,-1.7142,-27.5812,3.9845,13.4614,-2.875
3364841.0,6.5601,5.5545,-21.0594,4.0946,16.0842,-2.5089
3364851.0,2.5379,11.6933,-9.0501,2.9937,17.4357,-1.9098
3364861.0,-1.0247,14.3365,4.9416,2.6473,17.4357,-1.1217
3364871.0,-4.1659,16.0412,15.4378,2.9303,17.4357,-0.3576
3364881.0,-6.7804,18.4162,18.0714,2.7085,16.9233,0.6013
3364891.0,-8.916,17.8416,23.2333,3.7514,17.0595,1.8917
3364901.0,-8.2648,13.3309,23.2525,6.0624,17.4357,2.9378
3364911.0,-11.3964,11.2815,22.4193,6.702,17.4357,3.5343
3364921.0,-14.3365,12.8808,26.432,5.8963,17.4357,3.8999
3364931.0,-18.1193,16.3668,35.0798,4.4362,17.4357,4.4139
3364941.0,-22.0171,18.9142,49.378,2.9447,17.4357,5.1769
3364951.0,-23.942,20.8104,58.4089,1.011,17.4357,6.2683
3364961.0,-27.5429,19.0578,61.0426,-1.1568,15.5483,7.6151
3364971.0,-30.1765,13.0915,58.1887,-2.2003,13.4507,9.2002
3364981.0,-30.2627,0.8428,54.7506,-0.4326,13.6902,10.6428
3364991.0,-29.6881,-11.2911,48.0373,3.347,16.2023,11.4564
3365001.0,-30.8756,-21.7777,47.9319,6.3848,17.4357,11.5468
3365011.0,-33.538,-30.6649,55.1528,8.9416,17.4357,10.9472
3365021.0,-35.099,-36.9377,64.0114,10.2522,17.4357,9.7499
3365031.0,-35.5587,-41.4867,78.4508,11.4479,17.4357,8.0205
3365041.0,-38.6616,-40.2034,78.4508,12.4701,17.4357,5.9634
3365051.0,-42.3678,-36.7654,78.4508,11.8342,17.4357,3.8881
3365061.0,-43.7085,-37.3112,78.4508,10.8828,17.4357,1.8193
3365071.0,-41.391,-41.2856,78.4508,11.4798,17.4214,-0.6417
3365081.0,-39.3798,-35.7023,78.4508,11.3659,13.2922,-3.5668
3365091.0,-41.2473,-22.9939,78.4508,8.1216,8.2589,-6.3305
3365101.0,-44.3693,-11.1282,78.4508,3.09,2.2753,-8.5814
3365111.0,-47.7883,-3.3519,78.4508,-2.2955,-4.0281,-10.3682
3365121.0,-51.437,0.9864,78.4508,-6.1741,-9.8042,-11.69
3365131.0,-55.6604,5.8993,78.4508,-7.3852,-14.5543,-12.4147
3365141.0,-56.5127,9.912,78.4508,-6.9685,-17.4363,-12.593
3365151.0,-56.8479,12.1817,78.4508,-5.4409,-17.4363,-12.4605
3365161.0,-57.2597,17.7554,78.4508,-4.4543,-17.4363,-12.0061
3365171.0,-56.2829,21.9117,78.4508,-3.008,-17.4363,-11.1265
3365181.0,-55.737,26.8917,71.4526,-1.4058,-17.4363,-9.7962
3365191.0,-55.1337,28.6921,59.9412,-0.9477,-17.4363,-8.1083
3365201.0,-51.6477,24.373,46.7731,-0.2831,-17.4363,-6.5099
3365211.0,-45.4803,19.5271,27.3131,-0.6582,-17.4363,-5.2871
3365221.0,-39.4181,12.9766,9.8067,-2.1598,-17.4363,-4.4224
3365231.0,-28.7783,2.7198,-4.8554,-4.5277,-17.4363,-4.226
3365241.0,-18.2534,-8.3318,-14.3844,-6.5668,-17.4363,-4.8784
3365251.0,-10.6686,-14.3556,-18.0906,-7.1165,-17.4363,-6.1502
3365261.0,-3.2082,-15.5815,-18.828,-6.2401,-16.5817,-7.4916
3365271.0,-1.8483,-9.9886,-17.9374,-3.8493,-13.9983,-8.3302
3365281.0,1.3982,-4.8842,-23.4249,-2.3046,-11.7405,-8.5122
3365291.0,7.5848,-4.7788,-32.8868,-1.3436,-9.7265,-8.467
3365301.0,15.3804,-6.5218,-39.5331,-0.0101,-4.1441,-8.5856
3365311.0,13.9247,-4.5586,-40.6631,-0.2065,-0.6082,-8.8246
3365321.0,15.2175,-4.9799,-36.4398,-2.8159,2.6004,-9.0076
3365331.0,15.3995,-8.9926,-20.7625,-2.8181,6.0373,-9.3498
3365341.0,12.9,-7.5465,-12.3062,-3.0868,8.2845,-9.8457
3365351.0,12.7659,-8.6,-0.8332,-4.864,9.9739,-10.2309
3365361.0,10.8314,-11.3198,13.1394,-5.4488,11.0328,-10.7726
3365371.0,6.1196,-13.1585,32.0153,-4.4022,11.9087,-11.3963
3365381.0,5.2002,-12.1817,47.9128,-1.2281,11.6027,-11.9215
3365391.0,1.8962,-5.7557,56.168,1.6213,10.531,-12.262
3365401.0,-0.7566,3.4764,62.3163,3.7626,8.6713,-12.2593
3365411.0,-2.1356,14.1737,60.7265,4.3266,6.3907,-11.8246
3365421.0,-2.308,22.4289,60.0466,2.9915,4.0962,-11.044
3365431.0,-3.1125,24.7465,60.1136,1.8954,1.8661,-10.0287
3365441.0,-2.9688,23.8846,54.0898,0.6114,-0.1596,-8.9688
3365451.0,-2.375,16.4625,49.9047,-0.423,-1.2489,-8.2126
3365461.0,-0.5459,9.0022,44.1108,0.3842,-1.2457,-7.9194
3365471.0,0.4884,4.3479,36.8803,1.06,-0.1101,-8.0381
3365481.0,-0.1915,-0.3639,35.9513,1.4271,1.2271,-8.4755
3365491.0,-0.6033,-4.1659,38.6711,1.665,2.0007,-9.2726
3365501.0,-1.8292,-5.4684,42.6551,1.5245,1.9151,-10.34
3365511.0,-2.7677,-1.6376,45.1451,0.7348,1.127,-11.4878
3365521.0,-4.4149,5.2577,47.386,-0.0484,0.2347,-12.3386
3365531.0,-5.8419,13.5991,47.8745,-0.5023,-0.5156,-12.7319
3365541.0,-7.173,21.4808,49.1769,-0.6806,-0.9094,-12.561
3365551.0,-8.3701,27.7153,51.4753,-0.0527,-1.3143,-11.9241
3365561.0,-8.7245,34.7159,51.1497,0.713,-1.9784,-10.928
3365571.0,-5.7844,39.3798,47.6063,0.6619,-2.9809,-9.5961
3365581.0,-7.2975,40.462,43.5074,-0.3374,-4.0238,-8.293
3365591.0,-5.1811,40.529,39.0255,-1.7757,-4.698,-7.1825
3365601.0,-3.735,40.1077,35.3767,-2.7915,-4.7539,-6.1416
3365611.0,-2.6719,40.7685,31.862,-3.0091,-4.093,-5.0865
3365621.0,-1.9058,42.5306,30.3106,-2.7159,-2.8612,-3.8818
3365631.0,-1.6855,44.513,31.4885,-2.0039,-1.5884,-2.4961
3365641.0,-2.5857,46.3996,33.3369,-1.2244,-0.8407,-0.903
3365651.0,-2.4229,44.6183,34.8117,-0.8471,-0.5736,0.7583
3365661.0,-1.1588,39.8587,36.2099,-0.4268,-0.6726,2.105
3365671.0,-0.2682,37.1867,34.3712,-0.1963,-0.8652,3.1347
3365681.0,-0.4214,36.2578,32.5803,-0.0708,-0.796,4.1313
3365691.0,-0.0862,35.9034,29.736,0.4752,-0.248,5.1711
3365701.0,-2.1931,36.4302,26.5948,1.2515,0.8195,6.3513
3365711.0,-3.2944,36.3248,24.5645,1.7533,2.1833,7.5603
3365721.0,-4.1276,34.8404,24.3059,1.8246,3.6003,8.7495
3365731.0,-4.3958,31.7854,26.7001,1.4415,4.7246,9.7536
3365741.0,-4.8937,28.4718,30.7224,0.4544,5.1705,10.4789
3365751.0,-5.9664,25.3307,35.6066,-0.9243,4.6507,11.0158
3365761.0,-6.359,23.5877,38.2593,-1.9598,3.5598,11.5224
3365771.0,-8.0349,22.7353,37.8092,-1.9725,2.9319,12.1721
3365781.0,-9.3182,21.2509,35.9322,-0.8461,3.2725,13.0117
3365791.0,-10.0365,18.512,32.9825,0.7093,4.4309,13.778
3365801.0,-10.3238,16.1273,31.4502,1.9082,5.8751,14.3745
3365811.0,-11.3772,14.5759,32.5899,2.2578,7.0085,14.7906
3365821.0,-12.1147,13.283,36.0663,1.756,7.5198,15.1423
3365831.0,-12.5839,10.5919,41.2473,1.0802,7.2011,15.353
3365841.0,-13.5991,7.9966,44.1682,0.6566,6.454,15.46
3365851.0,-14.0492,6.2058,43.8618,0.5215,5.9426,15.4307
3365861.0,-14.6429,5.4779,43.2297,0.7998,6.0209,15.402
3365871.0,-15.1601,5.4013,42.0901,1.2696,6.4668,15.3818
3365881.0,-16.4817,5.0661,43.7181,1.5288,6.9473,15.3648
3365891.0,-17.4394,4.7597,47.07,1.7693,7.0074,15.3296
3365901.0,-18.3013,5.3917,50.3549,1.9119,6.6668,15.3318
3365911.0,-19.0578,5.6599,53.1034,2.1641,6.0416,15.4212
3365921.0,-20.1304,4.9129,53.247,2.4605,5.2253,15.451
3365931.0,-19.9676,4.7597,51.8871,2.6068,4.4368,15.4408
3365941.0,-19.7857,4.7118,48.6023,2.3147,3.8099,15.3381
3365951.0,-19.8431,4.2521,46.4092,1.8528,3.2799,15.1434
3365961.0,-21.3467,3.8882,43.3542,1.3595,2.7952,14.9875
3365971.0,-22.6875,2.5379,40.529,1.1201,2.5946,14.8518
3365981.0,-22.8598,1.1684,37.7901,1.7294,3.1985,14.78
3365991.0,-23.0897,0.5363,35.5204,2.9107,4.8481,14.7374
3366001.0,-23.5973,0.316,36.8707,4.3069,6.8866,14.673
3366011.0,-25.8957,2.0016,42.0996,5.7181,8.2983,14.7044
3366021.0,-27.2269,4.4724,46.7444,6.6674,8.8762,14.9279
3366031.0,-27.1598,5.4588,49.4163,6.9457,8.815,15.2317
3366041.0,-26.8629,3.4285,51.9829,6.7174,8.5234,15.4536
3366051.0,-27.7249,-0.1245,55.1528,6.7073,8.012,15.3727
3366061.0,-28.0026,-4.0893,55.4689,6.7988,7.7061,15.087
3366071.0,-26.2309,-8.0732,57.1831,7.2224,7.7343,14.4708
3366081.0,-24.756,-10.4866,57.049,7.0239,7.5885,13.5683
3366091.0,-23.6356,-11.8752,59.3666,5.7915,6.7243,12.4935
3366101.0,-22.0841,-12.0764,61.0234,4.5538,5.4877,11.3606
3366111.0,-19.8623,-12.2679,62.7951,3.7024,4.1845,10.324
3366121.0,-17.4777,-13.5895,61.8853,3.2879,2.9197,9.2673
3366131.0,-15.8496,-15.1792,58.8974,2.6994,1.7725,8.0572
3366141.0,-14.71,-16.5487,56.0818,2.4312,1.0424,6.7929
3366151.0,-11.9519,-16.9318,53.362,2.6249,0.9716,5.3983
3366161.0,-10.8888,-15.8496,49.8664,2.2732,1.1222,3.9541
3366171.0,-10.5345,-13.1394,49.7324,1.0887,0.9903,2.5749
3366181.0,-10.4291,-11.0516,51.9254,-0.1288,0.3352,1.3697
3366191.0,-10.1418,-9.0214,53.1992,-1.0802,-0.6933,0.3863
3366201.0,-10.0652,-8.4276,52.7586,-1.9284,-1.6634,-0.505
3366211.0,-9.8545,-8.351,52.8448,-2.0736,-2.2796,-1.2989
3366221.0,-10.0844,-7.9296,50.7858,-1.5995,-2.3977,-2.0013
3366231.0,-9.7109,-8.1211,49.8952,-0.9067,-2.1753,-2.6249
3366241.0,-9.6247,-7.6902,49.4738,-0.4023,-2.0444,-3.3369
3366251.0,-9.5864,-6.6846,49.3684,-0.5039,-2.3035,-4.0265
3366261.0,-9.1554,-5.1236,49.5312,-1.0355,-2.826,-4.6879
3366271.0,-9.5193,-4.1563,50.1537,-1.4904,-3.5247,-5.2802
3366281.0,-9.4236,-3.8307,49.2822,-1.9326,-4.2377,-5.8719
3366291.0,-8.7245,-3.4572,48.0468,-2.353,-4.8172,-6.5019
3366301.0,-8.6383,-3.1795,45.6143,-2.8585,-5.1163,-7.1303
3366311.0,-8.1403,-3.1987,44.3789,-3.2081,-5.3541,-7.813
3366321.0,-8.3031,-2.8635,42.4731,-3.8424,-5.6117,-8.5016
3366331.0,-8.5138,-2.4995,41.2569,-4.4101,-5.8112,-9.2018
3366341.0,-8.2839,-1.81,39.7725,-4.6938,-5.8548,-9.8627
3366351.0,-8.6191,-0.9864,37.6847,-4.7411,-5.6383,-10.4778
3366361.0,-8.3127,0.182,36.6026,-4.6182,-5.2402,-11.06
3366371.0,-9.1267,2.1452,35.8939,-4.4868,-4.7821,-11.5564
3366381.0,-10.6111,4.2138,36.1333,-4.3128,-4.3841,-11.9177
3366391.0,-11.3677,6.3303,36.8899,-3.9557,-4.0052,-12.1279
3366401.0,-11.0133,8.6957,37.1293,-3.5098,-3.5705,-12.1715
3366411.0,-11.5209,10.41,37.0718,-3.2023,-3.148,-12.1034
3366421.0,-11.6933,11.6071,38.336,-3.0432,-2.9096,-11.9284
3366431.0,-11.1474,12.2392,40.0406,-2.8138,-2.8154,-11.724
3366441.0,-11.8274,12.8042,41.7357,-2.544,-2.9064,-11.4739
3366451.0,-11.5305,12.967,42.6168,-2.1497,-3.1347,-11.1674
3366461.0,-11.1474,13.216,42.0326,-1.6283,-3.3481,-10.8423
3366471.0,-10.6207,13.9151,40.2513,-1.4724,-3.4412,-10.4778
3366481.0,-10.3908,14.8824,38.5562,-1.5091,-3.3896,-10.0782
3366491.0,-10.3717,15.3612,38.3838,-1.5202,-3.1905,-9.578
3366501.0,-10.1706,14.2024,38.6999,-1.218,-2.9234,-9.0613
3366511.0,-10.0078,11.7699,39.0638,-0.8157,-2.71,-8.6591
3366521.0,-9.3757,8.8681,40.2705,-0.365,-2.684,-8.5186
3366531.0,-8.9543,7.3646,40.2034,0.0367,-2.8622,-8.5431
3366541.0,-8.6574,6.5122,38.6903,0.1548,-2.9889,-8.7102
3366551.0,-8.4276,6.5505,37.3017,0.257,-2.8846,-8.9166
3366561.0,-8.1786,6.8761,35.7885,0.2379,-2.5552,-9.1406
3366571.0,-8.667,7.7093,35.3863,0.0016,-2.1418,-9.3742
3366581.0,-9.1937,9.0118,36.1812,-0.224,-1.7831,-9.5387
3366591.0,-9.5098,10.41,38.0487,-0.381,-1.4553,-9.6137
3366601.0,-9.7875,11.6741,38.8148,-0.5172,-1.2308,-9.5748
3366611.0,-9.8162,12.6414,40.4141,-0.8631,-1.086,-9.5525
3366621.0,-9.6726,13.5895,42.3391,-1.2329,-1.1526,-9.5062
3366631.0,-9.7492,14.8153,44.2065,-1.706,-1.4218,-9.3987
3366641.0,-9.979,15.1122,46.9455,-1.9848,-1.8113,-9.2683
3366651.0,-9.9311,16.4242,48.2958,-1.7123,-2.3126,-9.0198
3366661.0,-10.1227,16.8169,48.2001,-1.3558,-2.6201,-8.6718
3366671.0,-9.3661,16.9605,47.3669,-0.6545,-2.7877,-8.2999
3366681.0,-8.5042,16.8169,45.825,-0.1825,-2.9075,-7.9263
3366691.0,-7.8721,16.6636,44.6758,-0.0649,-3.0501,-7.6715
3366701.0,-7.6231,17.4681,43.6415,-0.1862,-3.2422,-7.4256
3366711.0,-6.8378,17.9757,42.2624,-0.3645,-3.3991,-7.1527
3366721.0,-6.043,18.5215,41.209,-0.4007,-3.455,-6.8094
