time_ms,ax,ay,az,gx,gy,gz
3343611.0,9.0501,4.4149,38.7573,-0.6667,0.4395,-0.0436
3343621.0,8.8873,4.0031,37.8763,-0.8562,0.5013,-0.0325
3343631.0,8.6574,3.5626,38.0774,-0.8413,0.6774,-0.0803
3343641.0,9.0692,3.6009,37.158,-0.9759,0.8705,-0.1676
3343651.0,9.1554,3.1412,37.1197,-1.1648,1.0461,-0.2533
3343661.0,8.2169,3.8116,36.909,-1.3899,1.2728,-0.3267
3343671.0,8.0349,4.6926,37.6943,-1.4293,1.5437,-0.3453
3343681.0,7.6806,6.1196,37.3783,-1.4144,1.7953,-0.2469
3343691.0,7.9104,6.7421,39.15,-1.3686,2.0353,-0.0692
3343701.0,7.5848,7.4316,39.2745,-1.4266,2.0492,0.099
3343711.0,7.4124,7.0581,40.9983,-1.6847,2.0114,0.3459
3343721.0,7.5848,6.4835,41.9177,-1.4904,1.9066,0.6204
3343731.0,8.0158,5.1906,42.1858,-1.3808,1.9374,0.8567
3343741.0,8.9639,3.2082,41.8315,-1.1079,1.9401,0.9578
3343751.0,9.1171,1.9537,43.1435,-0.8764,2.0736,0.9402
3343761.0,8.849,1.6376,45.3174,-0.4656,2.3589,0.7822
3343771.0,7.2401,2.624,49.56,0.3267,2.585,0.7439
3343781.0,6.1579,4.6543,52.6246,0.8636,2.1503,0.8046
3343791.0,6.1483,6.8474,54.0515,1.1366,1.2004,1.1047
3343801.0,8.2648,8.0349,51.6286,1.5123,0.555,1.5144
3343811.0,10.228,10.3908,43.4787,1.8613,0.3108,2.0039
3343821.0,11.8369,11.9135,35.032,-0.282,1.6442,2.676
3343831.0,9.4906,7.9966,38.3647,-1.0397,3.0001,3.289
3343841.0,9.3374,4.6448,42.7604,-1.7522,5.0247,3.8339
3343851.0,7.9104,-2.2793,55.7753,-0.6577,6.23,4.0717
3343861.0,6.0908,-2.7964,57.5662,0.5108,6.4173,4.1361
3343871.0,11.0229,-5.1811,62.9867,-0.3081,6.868,3.9344
3343881.0,6.7708,-10.4962,73.5499,0.9881,6.8941,3.5742
3343891.0,5.1811,-9.3661,72.9274,0.3113,5.6968,3.0612
3343901.0,3.0358,-12.9861,78.4508,-1.0674,3.2725,2.5275
3343911.0,2.2027,-13.8959,73.3488,-2.0146,1.8321,1.8198
3343921.0,-0.7853,-16.9509,72.2762,-3.1544,1.4064,0.9456
3343931.0,-0.067,-18.0523,73.818,-4.1452,1.0658,-0.2395
3343941.0,-1.4365,-17.0659,78.4508,-5.5856,-0.2943,-1.499
3343951.0,-3.3806,-14.9111,78.4508,-6.2704,-2.5052,-2.4733
3343961.0,-4.616,-11.6262,78.4508,-6.5125,-5.1391,-3.1043
3343971.0,-5.6024,-10.8697,78.4508,-6.0932,-7.4932,-3.5678
3343981.0,-5.43,-8.6287,76.2218,-5.6595,-9.3907,-3.9509
3343991.0,-6.2824,-9.0405,73.5786,-5.112,-9.9989,-4.251
3344001.0,-6.1675,-9.0884,72.1325,-2.7532,-10.6619,-4.5943
3344011.0,-7.2018,-6.3111,68.5316,-1.9827,-12.1061,-4.9231
3344021.0,-8.0541,-3.6105,63.8486,-1.682,-14.0494,-5.0716
3344031.0,-8.4851,-0.1628,54.5399,-1.4383,-15.4366,-4.9635
3344041.0,-7.5657,2.375,44.7141,-1.1855,-15.8474,-4.5735
3344051.0,-6.1866,1.9632,36.1812,-1.0797,-15.328,-4.118
3344061.0,-3.5147,-0.2873,30.7032,-1.0977,-14.3378,-3.7972
3344071.0,-1.9728,-4.0318,28.6347,-0.9253,-13.5769,-3.8945
3344081.0,-0.0192,-5.5641,27.3418,-1.6629,-13.3326,-4.3537
3344091.0,1.3695,-5.8993,27.6099,-2.6425,-13.6843,-5.0051
3344101.0,2.0973,-3.8211,26.25,-3.4901,-14.2643,-5.6484
3344111.0,2.739,-1.5227,23.0993,-4.3506,-14.7885,-6.1688
3344121.0,4.2713,1.561,17.583,-5.2285,-14.9566,-6.4519
3344131.0,3.9456,4.0318,14.528,-5.502,-14.4634,-6.5455
3344141.0,5.6982,6.5793,9.7971,-5.6196,-13.637,-6.5029
3344151.0,7.4699,8.1307,7.8913,-5.5515,-12.6563,-6.3875
3344161.0,9.4044,9.5098,6.5793,-5.2594,-11.7379,-6.2145
3344171.0,10.161,11.2527,5.612,-4.7975,-10.9796,-5.941
3344181.0,10.9846,13.2064,2.4421,-4.2564,-10.3358,-5.5952
3344191.0,13.0053,15.0643,-2.7964,-4.2516,-9.5951,-5.1205
3344201.0,15.3612,15.8783,-7.9966,-4.176,-8.4255,-4.5831
3344211.0,18.4354,17.2383,-14.6812,-4.2117,-6.5572,-4.0419
3344221.0,21.5957,16.7115,-16.5679,-4.1899,-3.8866,-3.4784
3344231.0,19.575,17.3244,-16.702,-3.8355,-1.4841,-2.858
3344241.0,19.9676,17.8224,-14.0588,-3.8589,0.6987,-2.2141
3344251.0,20.8583,16.8073,-9.0405,-3.9057,2.3663,-1.5665
3344261.0,20.4465,15.3708,-3.5434,-3.704,3.6992,-1.0775
3344271.0,20.4656,14.6046,0.9098,-3.1091,4.4203,-0.6492
3344281.0,21.7106,13.4746,3.3232,-2.8888,5.037,-0.3379
3344291.0,21.9213,11.7507,5.8802,-2.3551,5.4158,-0.1905
3344301.0,22.1703,12.2104,4.4149,-2.1588,5.8937,-0.1527
3344311.0,22.3714,14.1162,3.9744,-2.3078,6.8142,-0.0788
3344321.0,20.5997,16.9414,5.5067,-2.6797,7.8183,0.1703
3344331.0,18.2151,19.824,8.9735,-3.0804,8.4047,0.7247
3344341.0,16.5487,22.8503,11.2911,-3.3454,8.89,1.6453
3344351.0,16.3955,22.7832,15.1218,-2.9256,9.7057,2.8058
3344361.0,15.6581,22.065,18.646,-1.5091,10.5741,4.0382
3344371.0,15.093,20.5901,19.8815,-0.1889,11.4947,5.1918
3344381.0,12.8521,18.2342,22.9652,1.1408,12.5185,6.2188
3344391.0,11.3964,16.2997,24.9188,2.0923,13.4827,7.0446
3344401.0,10.0078,13.1298,31.7088,2.883,14.0909,7.6119
3344411.0,8.6574,11.7699,35.099,3.5987,14.1984,7.9572
3344421.0,6.6942,10.4387,39.0925,3.6013,13.9829,8.2504
3344431.0,4.5011,9.9695,42.1475,3.7259,13.7221,8.5404
3344441.0,2.4229,8.8777,45.2504,4.0786,13.7195,8.8698
3344451.0,1.0151,7.9583,48.2767,4.4256,13.6152,9.1263
3344461.0,-0.249,7.2401,51.5807,3.9978,13.3018,9.2061
3344471.0,-1.2354,7.1922,57.4608,3.2571,12.4227,9.2173
3344481.0,-2.1739,7.9296,63.0058,2.3871,10.6327,9.2721
3344491.0,-2.4612,8.1786,68.1007,2.146,8.1839,9.5525
3344501.0,-4.2234,9.1171,65.8597,2.768,5.767,10.2038
3344511.0,-6.6846,7.9775,59.606,4.3075,4.6049,11.1499
3344521.0,-7.9487,4.2521,50.4602,6.4641,4.9816,12.055
3344531.0,-7.4891,-0.2682,42.9711,8.1131,6.3843,12.5807
3344541.0,-7.7764,-3.9456,38.2785,8.6229,8.0684,12.6068
3344551.0,-8.8681,-6.8761,38.3934,7.8444,9.4817,12.1997
3344561.0,-9.8258,-8.8298,41.8794,6.2321,9.9649,11.4947
3344571.0,-9.3661,-10.4579,46.1698,4.2973,9.5424,10.588
3344581.0,-8.849,-10.6494,48.133,2.5568,9.2928,9.6509
3344591.0,-10.6973,-9.596,51.2168,1.3936,9.5684,8.8799
3344601.0,-13.2735,-8.8969,57.7577,1.1898,9.9404,8.4228
3344611.0,-13.8481,-9.1459,66.4439,1.9225,10.0984,8.1429
3344621.0,-12.0476,-11.0325,76.6145,3.2821,9.8962,7.8029
3344631.0,-9.7875,-10.8984,78.4508,4.6432,8.5377,7.2516
3344641.0,-10.5728,-7.9871,78.4508,4.8156,5.9213,6.7099
3344651.0,-12.3541,-3.62,78.4508,4.5256,3.0852,6.4508
3344661.0,-13.3884,-0.2011,78.4508,4.2824,1.3649,6.5519
3344671.0,-14.4706,1.1684,73.004,4.1233,0.6965,6.8525
3344681.0,-14.9973,0.1532,68.3497,3.7083,0.6274,7.1569
3344691.0,-14.4706,-3.0742,66.9802,3.1379,0.7615,7.2995
3344701.0,-13.6948,-7.9296,68.704,2.6627,0.5523,7.0994
3344711.0,-11.9614,-11.971,70.3991,2.2769,-0.0255,6.4636
3344721.0,-10.1227,-13.9917,71.3664,2.0018,-0.7205,5.5281
3344731.0,-9.2225,-12.8042,71.2323,1.4527,-1.5064,4.482
3344741.0,-9.098,-10.1131,71.2036,0.7583,-2.5478,3.5141
3344751.0,-9.5193,-6.0334,70.4949,-0.183,-3.8466,2.7829
3344761.0,-9.912,-2.3367,67.9762,-1.4426,-5.1743,2.311
3344771.0,-10.5441,-0.2682,66.214,-2.4967,-6.4162,2.0438
3344781.0,-10.2089,0.7183,64.3466,-2.9229,-7.4725,1.9406
3344791.0,-9.5385,0.5459,61.2916,-3.1113,-8.2648,1.9592
3344801.0,-7.4508,-0.8045,59.5199,-2.7148,-8.8996,1.9816
3344811.0,-6.4165,-1.1971,56.5319,-2.0843,-9.3806,1.9731
3344821.0,-5.3917,-1.1684,52.864,-1.4819,-9.8169,2.0417
3344831.0,-4.2713,-2.2793,50.1633,-0.8354,-10.2033,2.1114
3344841.0,-3.0071,-3.055,44.8195,-0.4432,-10.5592,2.1082
3344851.0,-1.8866,-4.1851,41.027,-0.6029,-10.596,2.0614
3344861.0,-0.2394,-6.2537,38.2019,-0.4124,-10.53,1.8959
3344871.0,1.6089,-6.8474,33.9306,-0.6135,-10.4369,1.6299
3344881.0,3.6583,-7.2305,30.4255,-1.1605,-10.2075,1.3271
3344891.0,5.3726,-7.1539,28.3569,-1.7608,-9.8936,1.0185
3344901.0,6.675,-7.2496,27.0162,-2.2891,-9.5919,0.7189
3344911.0,8.418,-7.5753,26.2309,-2.4812,-9.2066,0.4816
3344921.0,10.5728,-7.9871,25.618,-2.4451,-8.7634,0.2602
3344931.0,11.8082,-8.4563,24.5932,-2.2264,-8.4627,-0.0096
3344941.0,13.4746,-8.8202,23.693,-2.1503,-8.2015,-0.2645
3344951.0,15.093,-9.1171,21.5382,-2.0556,-7.9822,-0.5438
3344961.0,16.6062,-8.4467,18.6939,-2.0449,-7.6316,-0.845
3344971.0,18.0619,-7.2018,15.7347,-2.1061,-7.0845,-1.0546
3344981.0,18.7035,-5.7078,13.5608,-2.2109,-6.2396,-1.1988
3344991.0,19.1153,-4.798,12.8138,-2.1838,-5.3823,-1.1754
3345001.0,18.9908,-4.4724,12.22,-2.0561,-4.5975,-1.0759
3345011.0,20.4273,-5.2194,12.5839,-1.8879,-3.8317,-0.9349
3345021.0,21.5574,-7.9583,13.0149,-1.69,-3.148,-0.9498
3345031.0,22.3714,-10.7452,14.0971,-1.3335,-2.5946,-1.1829
3345041.0,22.3427,-13.0149,14.4418,-0.9019,-2.1806,-1.624
3345051.0,23.1184,-14.5855,13.9343,-0.4347,-1.7538,-2.2258
3345061.0,23.3004,-15.1984,12.6605,0.1522,-1.1722,-3.0006
3345071.0,23.1663,-14.3748,10.2472,0.6854,-0.3246,-3.8227
3345081.0,23.2142,-12.3732,8.3701,0.8812,0.6923,-4.6677
3345091.0,21.5957,-9.9216,7.9392,0.8205,1.7389,-5.4084
3345101.0,20.1688,-6.7325,7.0677,0.4241,2.5653,-5.9666
3345111.0,17.4681,-4.2329,6.6942,-0.2756,3.4273,-6.2954
3345121.0,16.4434,-2.806,7.4603,-0.8897,4.4676,-6.4721
3345131.0,15.6389,-2.4804,8.9256,-1.3287,5.6941,-6.6913
3345141.0,13.8672,-1.494,11.6646,-1.5777,6.8041,-6.9111
3345151.0,12.0859,0.5842,14.4322,-1.7331,7.804,-7.0212
3345161.0,10.4483,3.4093,17.1521,-1.6655,8.7517,-6.9781
3345171.0,8.2744,6.2153,20.4656,-1.582,9.6743,-6.6892
3345181.0,6.2824,7.0773,24.5454,-1.4016,10.306,-6.2108
3345191.0,5.2672,6.4452,28.1175,-1.3228,10.7753,-5.7239
3345201.0,4.5586,5.114,32.1876,-1.3766,11.0355,-5.4084
3345211.0,3.8786,3.5338,35.8651,-1.732,11.1504,-5.1961
3345221.0,1.8771,2.1739,41.1132,-1.9374,10.8753,-5.1088
3345231.0,1.245,1.6472,44.5992,-1.9124,10.3927,-5.1285
3345241.0,-0.3448,1.743,47.6255,-1.5979,9.868,-5.2163
3345251.0,-0.9481,3.5434,48.3533,-1.1621,9.3599,-5.2227
3345261.0,-2.9401,5.4779,47.6446,-0.6822,9.2486,-5.0141
3345271.0,-3.1316,4.9129,49.876,-0.1506,9.6392,-4.7071
3345281.0,-4.5298,3.3232,53.4673,0.1788,9.619,-4.4969
3345291.0,-4.9991,0.9768,58.6962,0.1038,8.8959,-4.4607
3345301.0,-4.8076,-0.2298,61.7034,0.2139,7.8343,-4.598
3345311.0,-5.2577,-1.245,64.3944,0.7572,6.8643,-4.8305
3345321.0,-5.6024,-0.7087,62.8334,1.5484,5.9538,-5.1147
3345331.0,-6.2537,2.8252,60.104,1.7086,5.4754,-5.3903
3345341.0,-8.6766,6.9336,58.3898,1.119,5.22,-5.4158
3345351.0,-10.0173,7.7859,61.5884,0.2081,4.8949,-5.2126
3345361.0,-9.9886,5.612,66.3002,-0.2261,4.1388,-5.079
3345371.0,-9.7588,3.0742,69.8245,-0.1139,3.024,-5.1211
3345381.0,-8.9352,1.8292,70.629,0.5172,1.8539,-5.3419
3345391.0,-9.0405,2.2314,68.953,1.2728,0.9424,-5.5888
3345401.0,-8.4372,3.055,66.2715,1.8448,0.2714,-5.8495
3345411.0,-8.0062,5.0374,62.9579,1.7182,-0.2618,-6.1395
3345421.0,-8.1499,6.6942,61.2054,0.7141,-0.828,-6.3901
3345431.0,-8.0541,8.1116,61.282,-0.5678,-1.5325,-6.5455
3345441.0,-8.2456,8.6287,62.4791,-1.5937,-2.2407,-6.586
3345451.0,-8.0349,7.2784,64.021,-1.6607,-2.8197,-6.5418
3345461.0,-7.5753,5.8323,64.5477,-0.8865,-3.2459,-6.5535
3345471.0,-7.2784,4.3,64.2987,0.2687,-3.6641,-6.6679
3345481.0,-6.8187,4.5203,61.9332,1.1244,-4.0244,-6.8531
3345491.0,-6.8378,5.8323,58.4856,1.2164,-4.4149,-7.075
3345501.0,-6.9719,7.9009,55.5742,0.4161,-4.7805,-7.3447
3345511.0,-7.1826,10.2951,54.3196,-0.9759,-5.0726,-7.5017
3345521.0,-7.4699,11.406,56.3691,-2.3578,-5.319,-7.5459
3345531.0,-8.2456,10.5824,60.9564,-3.0272,-5.9703,-7.5358
3345541.0,-7.9679,9.3661,64.4998,-3.0059,-6.985,-7.564
3345551.0,-7.6423,8.6766,65.1606,-2.6121,-8.1254,-7.6544
3345561.0,-7.9392,9.1937,62.4791,-2.4642,-9.4019,-7.7715
3345571.0,-8.3127,10.3238,58.7058,-2.5116,-10.3884,-7.8077
3345581.0,-7.5561,12.287,53.247,-2.5967,-10.8743,-7.6986
3345591.0,-7.0964,12.8808,49.4355,-2.8085,-10.8923,-7.6284
3345601.0,-7.0677,14.2982,48.0564,-2.8351,-10.9589,-7.4836
3345611.0,-6.4835,16.2518,45.8346,-3.2624,-11.0945,-7.2027
3345621.0,-5.4684,17.018,44.829,-3.5444,-11.3021,-6.8685
3345631.0,-4.4341,17.8512,43.0669,-3.8525,-11.6831,-6.5258
3345641.0,-4.1563,19.0674,40.9887,-4.3633,-12.1779,-6.1342
3345651.0,-4.2234,19.2685,37.9146,-4.6773,-12.436,-5.6133
3345661.0,-2.4325,18.4641,35.2426,-4.664,-12.3365,-5.1306
3345671.0,0.3256,17.2957,32.7431,-4.35,-11.9225,-4.7507
3345681.0,2.0494,17.2383,31.613,-4.043,-11.5703,-4.4362
3345691.0,4.0414,18.9717,30.4734,-3.9419,-11.458,-4.085
3345701.0,5.5929,21.7968,27.8302,-4.1468,-11.6107,-3.5519
3345711.0,6.7708,23.6739,25.2923,-4.425,-11.69,-2.859
3345721.0,8.4372,24.3921,21.8638,-4.5985,-11.5612,-2.0529
3345731.0,9.9311,23.1088,18.3013,-4.8348,-11.2292,-1.2361
3345741.0,12.3445,20.8487,15.7634,-4.9502,-10.7471,-0.5215
3345751.0,15.5432,17.3723,13.3213,-4.6682,-9.8888,0.0122
3345761.0,18.1768,14.777,11.7986,-4.2106,-9.0959,0.3762
3345771.0,19.0387,13.7619,10.3525,-3.9249,-8.3531,0.6987
3345781.0,21.5191,13.216,7.9775,-3.6242,-7.5145,1.0078
3345791.0,23.1854,12.9478,5.5545,-3.2219,-6.3965,1.3574
3345801.0,24.3442,13.149,3.3423,-3.0251,-5.128,1.7682
3345811.0,25.7329,12.8808,1.8292,-3.1278,-3.9509,2.1731
3345821.0,26.681,12.7084,0.8428,-3.2943,-2.8016,2.568
3345831.0,26.8629,12.7659,0.5363,-3.5024,-1.5772,2.9862
3345841.0,26.4799,12.4211,1.0056,-3.5832,-0.4273,3.4194
3345851.0,25.3977,12.2775,1.8387,-3.4816,0.5917,3.8802
3345861.0,24.3538,12.0189,1.81,-3.2613,1.6182,4.3681
3345871.0,21.634,10.908,2.1069,-2.7239,2.8021,4.9306
3345881.0,19.7186,8.4467,3.237,-1.8039,4.3032,5.4558
3345891.0,19.077,4.1755,6.3782,-0.0974,6.0996,5.7585
3345901.0,17.5543,0.1245,8.8873,1.6453,7.6491,5.6149
3345911.0,16.9701,-0.3543,10.5058,2.6526,8.5846,5.1599
3345921.0,16.204,2.1165,11.5879,2.7276,9.3428,4.5953
3345931.0,15.1314,7.6231,11.7795,2.2413,10.1346,4.4224
3345941.0,10.0269,13.7619,15.2942,1.4713,10.9301,4.7613
3345951.0,5.861,18.2151,20.7817,1.1643,11.7192,5.7282
3345961.0,2.3176,18.5503,28.8166,1.7123,12.3445,6.9707
3345971.0,1.3408,16.7115,36.6792,3.0953,12.6728,8.1317
3345981.0,1.3791,15.591,40.6057,4.1547,12.4158,9.1039
3345991.0,1.9537,15.4378,43.4691,4.1324,11.9193,10.0367
3346001.0,0.1053,15.1505,45.2696,3.6998,11.1589,11.0467
3346011.0,-3.3136,15.5336,45.5569,2.8936,10.6476,12.3791
3346021.0,-6.4643,11.2336,48.1139,2.5446,10.5598,13.9265
3346031.0,-8.1499,3.6966,49.8377,3.2363,10.9445,15.1737
3346041.0,-9.0405,-5.2194,51.2455,3.969,11.5793,15.8383
3346051.0,-9.0118,-13.5512,54.1185,4.3862,12.0641,15.841
3346061.0,-8.3222,-20.4273,58.7729,4.7613,12.0806,15.2339
3346071.0,-6.3111,-24.9763,62.096,5.253,11.6128,14.1026
3346081.0,-4.2042,-25.5509,62.6515,5.2727,10.7636,12.6856
3346091.0,-3.1029,-20.9349,60.535,4.3761,10.0708,11.3845
3346101.0,-6.924,-14.1928,59.041,3.0341,9.5057,10.5858
3346111.0,-10.2759,-10.6303,61.3778,2.0263,9.3274,10.3528
3346121.0,-11.3485,-12.038,68.0241,2.6574,9.0087,10.2496
3346131.0,-10.8505,-13.149,73.0136,4.1446,8.31,10.0383
3346141.0,-9.2799,-14.6908,77.5338,6.6051,7.0079,9.6254
3346151.0,-8.5234,-13.283,74.1341,8.9751,5.4281,8.998
3346161.0,-8.1786,-9.6343,63.9922,9.4993,4.3122,8.2403
3346171.0,-8.0732,-3.122,52.366,7.481,3.8466,7.6199
3346181.0,-11.2049,1.2258,48.9279,4.3399,3.8626,7.3075
3346191.0,-14.2024,3.553,50.0771,1.4665,3.9499,7.3687
3346201.0,-14.959,2.3559,55.1624,-1.0488,3.8275,7.6566
3346211.0,-14.7291,-1.6472,63.7911,-2.2955,3.0032,7.8545
3346221.0,-13.8576,-5.545,69.9586,-2.5504,1.5756,7.8987
3346231.0,-13.4937,-9.1746,74.0574,-1.4963,0.0841,7.8577
3346241.0,-12.7563,-10.8888,72.1708,0.3421,-0.9706,7.8103
3346251.0,-12.038,-12.0285,70.6864,2.767,-1.2052,7.821
3346261.0,-11.7986,-11.1378,66.3002,5.0987,-1.0722,7.7949
3346271.0,-11.7986,-10.1227,62.527,5.8032,-0.8854,7.7672
3346281.0,-11.722,-9.9311,60.7074,5.2966,-0.8929,7.6081
3346291.0,-11.1953,-10.8122,62.2684,3.8211,-1.1706,7.2889
3346301.0,-10.0173,-12.6797,65.4575,2.3647,-1.9922,6.8105
3346311.0,-9.1171,-15.2367,68.2443,1.0413,-3.1134,6.1565
3346321.0,-6.9049,-17.9278,70.4949,0.0702,-4.4745,5.3089
3346331.0,-5.7652,-19.6708,71.2131,-0.3283,-5.9341,4.3282
3346341.0,-5.0374,-19.077,70.9354,-0.2767,-6.9739,3.314
3346351.0,-5.6216,-15.6772,69.518,-0.0447,-8.0179,2.5142
3346361.0,-6.7325,-12.8233,67.1909,-0.4906,-9.5365,1.9225
3346371.0,-6.5027,-10.7835,62.7568,-1.1472,-11.1749,1.4846
3346381.0,-5.1427,-10.2855,57.3938,-1.6277,-12.1088,1.0919
3346391.0,-3.6009,-9.9503,52.2702,-1.6384,-12.5898,0.7035
3346401.0,-2.6815,-8.7532,46.7827,-1.7932,-12.8335,0.3124
3346411.0,-1.6472,-7.7476,43.0861,-1.9411,-12.7989,-0.0101
3346421.0,-0.316,-6.4643,40.3375,-1.9007,-12.6643,-0.265
3346431.0,1.0439,-5.3247,37.225,-2.1726,-12.6568,-0.4528
3346441.0,2.0399,-4.4628,33.6529,-2.7585,-12.8095,-0.6476
3346451.0,3.371,-4.2904,31.3162,-3.2092,-12.8117,-0.8072
3346461.0,5.3534,-4.1755,28.3569,-3.4768,-12.7654,-1.0084
3346471.0,7.3071,-3.6583,26.6139,-3.2448,-12.593,-1.184
3346481.0,9.5002,-2.7198,22.7353,-2.7202,-12.3615,-1.35
3346491.0,11.3294,-0.7087,18.4641,-2.2205,-11.9177,-1.4431
3346501.0,12.5073,1.6855,13.3692,-1.9869,-11.2228,-1.2781
3346511.0,10.1897,3.0263,10.228,-1.8246,-10.3107,-0.878
3346521.0,11.0708,1.561,8.1499,-1.234,-9.2726,-0.3368
3346531.0,13.4458,-1.4461,4.8171,-0.5013,-7.9881,0.0388
3346541.0,16.8456,-3.8403,1.7047,0.0043,-6.4865,0.1634
3346551.0,18.8376,-8.0254,-0.7278,-0.0181,-4.9098,-0.1357
3346561.0,21.4425,-10.3813,-1.2546,0.0841,-3.381,-0.7412
3346571.0,22.2661,-10.9463,-1.0726,-0.074,-1.7735,-1.4889
3346581.0,22.6396,-10.5632,0.2298,-0.2506,-0.3576,-2.1928
3346591.0,21.7298,-9.845,2.2218,-0.5332,1.0089,-2.8394
3346601.0,21.6723,-9.7779,5.4492,-0.6816,2.1109,-3.4577
3346611.0,21.0402,-9.1267,7.5753,-0.9184,3.0538,-4.0973
3346621.0,20.1783,-7.6614,11.0708,-1.1797,3.7583,-4.7363
3346631.0,19.2494,-5.7748,14.4993,-1.4181,4.1915,-5.2355
3346641.0,18.014,-3.6679,17.2478,-1.6038,4.3319,-5.5824
3346651.0,16.9605,-1.7526,18.3396,-1.624,4.3224,-5.7676
3346661.0,16.5775,0.4884,17.1425,-1.6464,4.5496,-5.7532
3346671.0,15.7922,1.5514,16.7881,-1.5431,5.1253,-5.6143
3346681.0,15.0835,2.0303,17.9565,-1.1941,5.8596,-5.4025
3346691.0,13.7619,1.7334,18.6748,-0.8067,6.5205,-5.2158
3346701.0,12.967,0.7853,20.4178,-0.4044,7.1245,-5.1381
3346711.0,12.3158,0.1149,21.7489,0.0415,7.547,-5.1689
3346721.0,11.224,0.6033,22.1895,0.3134,7.8987,-5.2083
3346731.0,9.596,1.6568,21.8064,0.4273,8.426,-5.2296
3346741.0,7.9104,2.5474,21.6532,0.6529,9.2141,-5.1461
3346751.0,5.8706,4.1276,21.385,0.5465,10.2352,-4.9981
3346761.0,3.2082,4.4628,23.8175,-0.0208,11.3111,-4.7661
3346771.0,0.996,2.6911,29.9084,-0.3741,12.0997,-4.6076
3346781.0,-0.1341,1.1109,35.4533,-0.4017,12.3317,-4.632
3346791.0,-0.9481,0.68,39.9257,-0.4417,12.3126,-4.7837
3346801.0,-1.2833,0.2682,45.2121,-0.1394,12.1242,-4.9566
3346811.0,-1.6759,1.3791,48.4012,0.455,11.9938,-5.1748
3346821.0,-2.5953,3.7541,51.4275,0.8833,11.7804,-5.2828
3346831.0,-5.5737,5.9185,56.0147,0.7966,11.3542,-5.2073
3346841.0,-7.6423,6.8378,60.7361,0.7875,10.4342,-4.9854
3346851.0,-7.8721,6.5793,64.6339,0.879,9.28,-4.7874
3346861.0,-7.2688,5.2864,67.1047,1.1893,7.954,-4.7033
3346871.0,-6.4069,4.5681,67.8613,1.7373,6.6961,-4.7502
3346881.0,-5.7844,5.0949,66.3194,2.2349,5.6622,-4.8364
3346891.0,-5.4492,5.928,64.088,2.4759,4.9268,-4.9609
3346901.0,-5.6599,7.8147,61.5789,2.0838,4.3128,-5.0407
3346911.0,-6.3877,8.8202,60.3339,0.8067,3.5013,-5.0987
3346921.0,-8.3606,9.232,60.8989,-0.8503,2.4083,-5.1072
3346931.0,-7.3837,8.2169,60.8127,-1.8667,1.3744,-5.103
3346941.0,-6.7421,6.6942,60.2668,-2.17,0.9674,-5.1519
3346951.0,-6.9623,5.1523,61.5501,-1.6458,0.7689,-5.2871
3346961.0,-6.5697,5.4109,61.2054,-0.5726,0.4906,-5.41
3346971.0,-6.6367,6.5697,59.7688,0.563,0.2815,-5.4313
3346981.0,-6.292,8.2265,57.9588,1.5272,0.2139,-5.4031
3346991.0,-5.9568,9.912,55.6604,1.7198,0.241,-5.3951
3347001.0,-7.3167,12.3828,55.3252,0.8317,-0.0458,-5.3201
3347011.0,-8.8394,13.5895,57.4896,-0.4129,-0.8812,-5.1349
3347021.0,-9.098,13.4363,58.9931,-1.1382,-1.7416,-4.8481
3347031.0,-9.2703,11.6358,59.5677,-1.2728,-2.2689,-4.5889
3347041.0,-8.8394,9.8545,59.97,-0.6055,-2.6127,-4.4463
3347051.0,-8.2839,8.667,58.6771,0.2661,-2.7473,-4.3564
3347061.0,-7.9487,7.6806,57.5758,1.0099,-2.8346,-4.3931
3347071.0,-7.0677,8.1116,56.3595,1.292,-2.9937,-4.4926
3347081.0,-6.7325,9.7971,55.5455,0.879,-3.1661,-4.6177
3347091.0,-7.288,11.9614,55.7657,-0.1208,-3.488,-4.6767
3347101.0,-7.7285,13.8289,58.0067,-1.3489,-4.1255,-4.5911
3347111.0,-7.7285,13.9534,60.5925,-2.2934,-5.145,-4.4054
3347121.0,-7.355,13.0436,61.3203,-2.8532,-6.2576,-4.2495
3347131.0,-7.2592,12.0955,61.1383,-2.9202,-7.0973,-4.0621
3347141.0,-7.1156,10.2089,60.0945,-2.2333,-7.7438,-3.8903
3347151.0,-5.6982,8.5042,57.2023,-1.607,-8.1248,-3.8509
3347161.0,-4.5298,7.6902,53.927,-1.5277,-8.5835,-3.9632
3347171.0,-3.8211,8.3893,50.69,-2.1247,-9.2024,-4.1335
3347181.0,-3.1603,9.4715,48.1426,-2.8271,-9.7334,-4.2628
3347191.0,-2.1069,10.1993,46.0453,-3.4305,-9.9862,-4.3144
3347201.0,-1.4269,11.0133,43.2393,-4.1808,-10.2506,-4.3452
3347211.0,-1.0056,11.8274,41.5825,-4.8571,-10.5678,-4.2862
3347221.0,-0.0479,11.9614,39.2362,-5.2456,-10.5736,-4.1217
3347231.0,0.9385,11.1953,37.8763,-4.9896,-10.3187,-3.877
3347241.0,3.055,10.0173,35.7885,-4.5586,-9.9436,-3.7104
3347251.0,4.8554,9.5098,34.0743,-4.2516,-9.6163,-3.6232
3347261.0,5.5354,10.0556,32.4271,-4.0824,-9.3561,-3.504
3347271.0,6.7516,10.6111,31.4023,-3.8051,-9.105,-3.3528
3347281.0,8.0349,11.8274,28.6825,-3.5162,-8.7825,-3.0905
3347291.0,8.916,12.4594,26.8629,-3.364,-8.4159,-2.717
3347301.0,9.4619,12.6127,25.6754,-3.1783,-7.9125,-2.2551
3347311.0,10.7069,12.0668,23.8941,-2.8042,-7.2016,-1.7522
3347321.0,12.0764,10.7452,23.1567,-2.3365,-6.2869,-1.3058
3347331.0,12.7946,9.4906,23.0897,-1.9832,-5.5255,-0.9562
3347341.0,13.6565,8.3701,23.9803,-1.8033,-4.9359,-0.7146
3347351.0,14.6812,7.6423,24.6794,-1.6682,-4.4671,-0.5348
3347361.0,15.955,7.2113,25.0912,-1.6868,-4.0201,-0.4289
3347371.0,16.52,7.0773,25.3498,-1.9289,-3.7993,-0.3847
3347381.0,17.334,7.5753,25.9819,-2.312,-3.7471,-0.3288
3347391.0,17.8033,8.3606,26.8725,-2.494,-3.745,-0.1772
3347401.0,17.765,9.3565,26.8151,-2.5531,-3.7125,0.0495
3347411.0,17.6788,9.596,26.7097,-2.3754,-3.7184,0.357
3347421.0,17.8033,10.3238,25.0721,-2.2301,-3.6423,0.6971
3347431.0,18.1289,9.9503,24.0091,-1.9364,-3.4364,1.1036
3347441.0,18.3779,8.8681,22.4097,-1.5096,-3.0389,1.4165
3347451.0,18.3492,7.9487,20.2549,-1.3255,-2.692,1.6389
3347461.0,19.1345,7.1922,18.6556,-1.4346,-2.2391,1.8017
3347471.0,20.0826,6.5697,18.5982,-1.4223,-1.6293,1.9082
3347481.0,19.9964,6.359,19.0483,-1.351,-1.0866,2.0087
3347491.0,19.3643,7.2975,18.6556,-1.4575,-0.6747,2.1817
3347501.0,19.077,7.8913,18.8567,-1.6911,-0.3549,2.4243
3347511.0,18.8855,8.5042,19.393,-1.8156,0.0436,2.7659
3347521.0,18.3204,8.3989,19.6133,-1.8454,0.5603,3.1533
3347531.0,17.6884,7.9296,19.9964,-1.8384,0.9216,3.5742
3347541.0,17.9374,6.4643,20.7817,-1.6905,1.2994,3.8983
3347551.0,17.9661,5.114,21.2509,-1.201,1.8017,4.2133
3347561.0,18.1385,4.5011,20.7338,-0.7258,2.4328,4.4458
3347572.0,17.7554,4.2138,21.1647,-0.1548,3.2326,4.6735
3347581.0,17.5639,4.5011,21.452,0.2969,4.0105,4.8965
3347591.0,16.4817,4.4628,23.5781,0.6577,4.656,5.1125
3347601.0,15.7155,5.0087,24.4975,0.6024,4.913,5.3334
3347611.0,14.8536,4.5969,26.0298,0.1591,4.9252,5.5265
3347621.0,14.0683,5.8419,25.369,-0.4448,4.9082,5.7819
3347631.0,11.5209,6.7038,24.9763,-1.2989,5.2557,6.1879
3347641.0,9.979,7.0773,26.1543,-1.5623,5.9064,6.8685
3347651.0,8.5521,6.3494,28.5772,-1.367,6.8243,7.7428
3347661.0,7.288,3.7062,32.4175,-0.9764,7.4943,8.5553
3347671.0,6.79,1.0534,35.0894,-0.7609,7.7513,9.1545
3347681.0,6.4931,-1.7526,37.8092,-0.6178,7.6848,9.4924
3347691.0,7.1347,-3.5338,37.4836,-0.8998,7.3011,9.578
3347701.0,7.4029,-4.1755,35.8173,-1.8863,6.8914,9.5418
3347711.0,4.2808,-2.6911,31.9961,-3.662,6.6652,9.5881
3347721.0,-0.7949,-1.4078,30.3297,-5.8809,7.001,10.0622
3347731.0,-2.9209,-4.4436,35.1948,-6.8632,7.7646,10.8147
3347741.0,-3.2082,-9.5577,39.8299,-6.9914,8.3143,11.3803
3347751.0,-3.1699,-14.7674,46.2464,-6.6248,8.1631,11.5064
3347761.0,-2.2122,-18.0044,50.872,-5.5718,7.7885,11.367
3347771.0,-1.6281,-19.259,53.4482,-3.9616,7.2761,11.0243
3347781.0,-3.3519,-17.4585,51.7339,-2.7218,6.6903,10.6603
3347791.0,-6.6942,-14.461,48.6885,-2.4254,6.554,10.5779
3347801.0,-11.1378,-13.8864,49.2056,-2.5196,6.9244,10.8546
3347811.0,-12.1242,-17.5639,54.3292,-2.3945,7.3479,11.2132
3347821.0,-10.9367,-23.5015,62.6227,-1.6107,6.8866,11.2095
3347831.0,-8.3701,-28.1941,71.5004,-0.0543,5.8362,10.7849
3347841.0,-5.7078,-30.3681,74.9672,2.6292,4.4181,10.1085
3347851.0,-4.8363,-28.8453,72.6975,4.888,3.2081,9.304
3347861.0,-6.292,-24.1719,66.6258,6.0326,2.3546,8.6617
3347871.0,-9.0788,-18.2342,61.4161,5.6989,1.7544,8.401
3347881.0,-12.2679,-15.208,58.8878,4.632,1.0898,8.4446
3347891.0,-13.8289,-14.9207,58.3802,3.5753,0.6412,8.6718
3347901.0,-13.0245,-16.4146,59.7018,3.1405,0.2687,8.8693
3347911.0,-11.6071,-18.9046,62.1631,3.5236,-0.05,8.8708
3347921.0,-10.9654,-20.1592,61.4735,4.3692,-0.4608,8.7453
3347931.0,-11.0995,-19.5941,59.0889,4.6512,-0.7928,8.6037
3347941.0,-12.0859,-19.2494,56.8192,4.3644,-1.0296,8.4824
3347951.0,-12.7084,-19.7665,55.6029,3.5194,-1.1573,8.3063
3347961.0,-13.1968,-21.069,55.8328,2.3594,-1.4037,8.0849
3347971.0,-13.0245,-24.1814,61.4544,2.0396,-1.5516,7.713
3347981.0,-11.1378,-26.5182,67.8708,3.4837,-1.9071,7.2862
3347991.0,-9.5002,-27.6674,70.3512,5.2839,-2.743,6.7365
3348001.0,-8.7149,-27.3992,69.5468,6.3529,-4.1233,6.0953
3348011.0,-7.6902,-26.2213,65.2276,6.5194,-5.5829,5.4041
3348021.0,-8.0062,-24.8039,59.3283,5.9708,-6.8148,4.722
3348031.0,-7.4412,-24.3251,53.3045,4.7443,-7.6459,3.9414
3348041.0,-7.0102,-23.0705,47.6255,3.1469,-8.1791,3.0815
3348051.0,-6.7038,-22.314,44.4938,1.3526,-8.3653,2.2141
3348061.0,-5.4875,-21.7394,43.2297,0.0351,-8.3861,1.3776
3348071.0,-4.051,-21.8543,43.3446,-0.8711,-8.3813,0.5662
3348081.0,-2.7294,-21.6532,42.8658,-1.5431,-8.5856,-0.2363
3348091.0,-1.5419,-20.4369,41.3526,-2.1364,-8.7815,-1.0052
3348101.0,-0.996,-19.0578,40.2609,-2.4291,-8.8565,-1.6448
3348111.0,-0.1915,-17.5351,38.7956,-2.345,-8.7314,-2.137
3348121.0,0.4884,-16.3476,37.9625,-2.13,-8.5521,-2.511
3348131.0,0.4788,-15.3899,37.0048,-1.8305,-8.4297,-2.7915
3348141.0,1.8387,-14.5089,36.0471,-1.433,-8.318,-2.9905
3348151.0,3.0742,-13.8098,34.6776,-1.0126,-8.2052,-3.156
3348161.0,4.1755,-12.9287,33.4709,-0.7567,-8.1073,-3.2794
3348171.0,5.1427,-12.1242,31.479,-0.6071,-8.111,-3.3587
3348181.0,6.2058,-11.2719,29.2859,-0.5161,-8.037,-3.4103
3348191.0,7.4603,-10.5441,26.8246,-0.3602,-7.7577,-3.4082
3348201.0,8.4372,-10.6781,24.6124,-0.1325,-7.2037,-3.3853
3348211.0,10.5249,-11.4443,23.8462,0.1086,-6.6472,-3.4635
3348221.0,12.3828,-12.0093,22.8886,0.1697,-6.3087,-3.6849
3348231.0,13.4458,-11.9997,22.0841,-0.0372,-6.0985,-3.9903
3348241.0,13.7619,-11.0612,20.1592,-0.3278,-5.9756,-4.3128
3348251.0,14.9877,-9.6822,17.6501,-0.7822,-5.6947,-4.5538
3348261.0,15.4091,-8.1977,15.4187,-1.2201,-5.1705,-4.7177
3348271.0,15.6581,-6.5601,12.7946,-1.698,-4.5639,-4.7518
3348281.0,15.6581,-5.2385,12.0859,-2.1412,-3.7141,-4.7039
3348291.0,15.6389,-4.1468,11.473,-2.279,-2.8388,-4.5277
3348301.0,15.342,-4.4532,11.5592,-2.2801,-1.9161,-4.2899
3348311.0,16.2423,-6.1675,12.2775,-2.1141,-1.0866,-4.1936
3348321.0,17.6405,-7.8913,12.4498,-1.8943,-0.4135,-4.3261
3348331.0,18.2055,-9.7875,12.3445,-1.6879,0.2591,-4.698
3348341.0,18.6939,-9.8067,11.1378,-1.3058,1.0839,-5.2003
3348351.0,19.1057,-8.3989,9.979,-1.0248,2.2732,-5.667
3348361.0,17.6309,-6.0142,10.5632,-0.7019,3.5763,-5.9889
3348371.0,15.9741,-3.1795,11.655,-0.7317,4.5549,-6.1246
3348381.0,14.1354,-0.6512,14.1066,-1.085,5.2594,-5.9905
3348391.0,12.4307,0.5555,15.524,-1.6453,5.7527,-5.6755
3348401.0,11.0612,0.3256,17.8129,-2.0992,6.1752,-5.294
3348411.0,10.0365,-0.9002,19.508,-2.246,6.6583,-4.9449
3348421.0,9.979,-2.4325,20.5901,-2.0305,7.49,-4.657
3348431.0,10.1897,-3.9744,23.3483,-1.193,8.6745,-4.4687
3348441.0,9.2416,-3.9073,25.9723,-0.1926,9.71,-4.3718
3348451.0,7.5753,-2.7485,29.9084,0.4789,10.5821,-4.2532
3348461.0,5.2002,-1.5706,35.4821,1.1499,11.1967,-4.0494
3348471.0,3.3327,-1.0247,42.6551,1.5373,11.1616,-3.8073
3348481.0,1.3695,-1.8387,49.5887,1.649,10.1006,-3.5976
3348491.0,1.3216,-3.4668,53.9749,1.781,8.517,-3.5577
3348501.0,2.241,-5.114,55.3539,2.2184,7.0106,-3.6945
3348511.0,2.7581,-5.2672,52.3564,2.7244,6.089,-3.9674
3348521.0,2.8156,-4.0797,49.9909,3.2549,5.7293,-4.2425
3348531.0,2.0399,-1.3695,46.3613,3.1953,5.584,-4.4314
3348541.0,-0.2298,1.3599,44.4651,2.0827,5.4116,-4.3931
3348551.0,-1.0726,1.3312,45.26,0.6428,4.9199,-4.1739
3348561.0,0.0575,-0.3065,45.6239,-0.7897,4.5091,-4.0558
3348571.0,0.4597,-3.2082,46.1219,-1.5288,4.4575,-4.0669
3348581.0,0.9864,-5.6982,47.1179,-1.6394,4.681,-4.2149
3348591.0,-0.2107,-7.2018,49.062,-1.1605,4.9779,-4.4048
3348601.0,-0.9673,-8.4467,50.7858,-0.0761,5.2951,-4.582
3348611.0,-0.6704,-9.6726,51.6956,1.1605,5.7149,-4.8853
3348621.0,-0.6225,-9.2512,51.37,1.7081,6.1225,-5.3791
3348631.0,-1.5036,-7.7285,52.3947,1.0967,6.3891,-5.8495
3348641.0,-2.3367,-6.0621,56.8288,-0.0644,6.1161,-6.2576
3348651.0,-3.6392,-5.0087,61.8279,-1.144,5.352,-6.5077
3348661.0,-4.6831,-4.9512,66.7791,-1.7368,4.4979,-6.6546
3348671.0,-4.5203,-5.9951,70.3704,-1.4702,3.6375,-6.8169
3348681.0,-4.3766,-6.5697,72.5635,-0.7854,2.8149,-7.0994
3348691.0,-4.5203,-5.2481,73.5116,-0.3241,2.0566,-7.4884
3348701.0,-6.1387,-3.2082,74.565,-0.2783,1.0477,-7.8173
3348711.0,-7.671,-0.067,74.9289,-0.8583,-0.323,-8.0157
3348721.0,-8.4851,2.1548,74.7087,-1.5527,-1.7038,-8.0301
3348731.0,-8.4372,3.3902,73.9138,-1.9092,-2.7691,-7.9471
3348741.0,-7.5082,3.7158,73.004,-1.8161,-3.5976,-7.8258
3348751.0,-6.7995,4.5298,71.4142,-1.4191,-4.3559,-7.7731
3348761.0,-7.1635,5.9951,69.3169,-1.2856,-5.0572,-7.6784
3348771.0,-7.4124,7.6423,66.4247,-1.3297,-5.7335,-7.5608
3348781.0,-7.5369,9.3278,63.523,-1.8012,-6.3822,-7.3879
3348791.0,-7.2401,10.6015,61.598,-2.3301,-6.827,-7.1915
3348801.0,-7.0198,11.1474,61.1862,-2.3738,-7.1394,-6.893
3348811.0,-6.4835,12.1147,60.8989,-1.9965,-7.4741,-6.5317
3348821.0,-5.8131,12.651,60.4967,-1.2494,-7.689,-6.1118
3348831.0,-4.7022,12.967,59.7976,-0.2512,-8.0408,-5.6111
3348841.0,-4.0414,14.0588,57.049,0.4347,-8.484,-5.1152
3348851.0,-3.0933,15.275,53.6205,0.473,-8.9714,-4.5863
3348861.0,-2.4517,15.8592,50.6326,-0.0059,-9.4892,-4.0504
3348871.0,-2.375,15.9167,47.8457,-0.6486,-10.0436,-3.5316
3348881.0,-1.6472,15.026,44.6183,-1.1696,-10.4789,-3.0288
3348891.0,0.1341,13.6469,40.7014,-1.4128,-10.5465,-2.5674
3348901.0,1.8483,12.469,37.656,-1.4074,-10.3267,-2.1716
3348911.0,3.9169,11.473,35.3863,-1.2914,-9.8962,-1.8374
3348921.0,5.1906,10.9942,33.3656,-1.1148,-9.4636,-1.4766
3348931.0,6.4165,10.2472,31.613,-0.9812,-9.0997,-1.1244
3348941.0,7.7668,8.9256,29.8988,-0.7881,-8.6878,-0.7944
3348951.0,8.8873,7.7476,28.2612,-0.5678,-8.2807,-0.5385
3348961.0,9.6151,7.039,26.5086,-0.4704,-7.9035,-0.3113
3348971.0,10.6303,5.8897,26.0106,-0.0681,-7.1569,-0.0516
3348981.0,11.7795,4.2904,26.8055,0.9759,-6.3513,0.207
3348991.0,13.1585,2.9784,26.5661,1.6448,-5.5638,0.364
3349001.0,14.4227,1.4844,28.06,2.2508,-5.07,0.3602
3349011.0,15.3612,2.0494,28.3473,2.2476,-4.8944,0.248
3349021.0,15.457,2.6432,29.3721,1.6751,-5.2328,0.133
3349031.0,16.1656,3.6966,28.673,0.8743,-5.8447,0.0506
3349041.0,16.4242,4.9321,27.179,0.0686,-6.2741,0.1027
3349051.0,17.1329,5.1811,26.3554,-0.0915,-6.2757,0.2671
3349061.0,17.4968,5.1811,24.6124,0.1522,-5.8575,0.5039
3349071.0,17.9948,3.9169,25.1774,0.7785,-4.9832,0.796
3349081.0,19.7282,1.2833,27.6099,2.0029,-4.3766,0.8961
3349091.0,20.8104,1.245,27.9068,2.337,-4.2984,0.7492
3349101.0,21.0977,2.3176,27.8398,1.9252,-4.698,0.5603
3349111.0,21.0786,4.2138,26.8151,1.3569,-5.1812,0.4624
3349121.0,20.7817,5.2289,26.2021,0.8264,-5.6143,0.4204
3349131.0,20.5422,6.0908,23.4728,0.0543,-6.1826,0.4135
3349141.0,21.4137,6.7708,20.2358,-0.8663,-6.6493,0.3799
3349151.0,22.4097,7.7093,16.1944,-1.6533,-6.579,0.3368
3349161.0,22.4768,9.1075,13.6757,-2.3631,-6.2672,0.3895
3349171.0,21.6819,10.5345,11.5784,-3.2331,-5.8809,0.5481
3349181.0,21.4329,12.3828,10.908,-3.7035,-5.5138,0.8844
3349191.0,20.5327,13.4746,9.9982,-3.8211,-5.0354,1.4096
3349201.0,20.6667,13.8098,8.8681,-3.4683,-4.5075,2.0832
3349211.0,22.3906,12.9478,6.0908,-3.0298,-3.6806,2.7484
3349221.0,22.8981,12.2775,2.7294,-2.5589,-2.7122,3.3656
3349231.0,23.7122,12.2009,-0.2298,-2.3738,-1.3026,3.9935
3349241.0,24.2293,11.722,-0.996,-2.047,0.4193,4.6592
3349251.0,23.693,11.2911,-0.1149,-1.6049,2.2594,5.3578
3349261.0,22.0171,10.4483,2.2505,-1.2281,3.8573,6.1007
3349271.0,20.1496,9.1554,5.2768,-0.8056,5.0317,6.852
3349281.0,19.144,7.0677,8.3797,-0.1703,5.9501,7.4874
3349291.0,18.2725,4.7022,10.477,0.7152,6.6706,8.0056
3349301.0,17.334,3.3423,9.5002,1.2946,7.4437,8.468
3349311.0,16.6541,2.2889,7.7859,1.7139,8.7548,8.9187
3349321.0,14.8345,1.3024,8.9639,2.2977,10.6178,9.4828
3349331.0,12.8808,-0.6129,11.971,2.9655,12.5706,10.0718
3349341.0,10.3717,-3.3136,18.0044,3.6881,14.3011,10.5709
3349351.0,8.4372,-6.9049,25.618,4.5778,15.4313,10.8551
3349361.0,7.7189,-11.0516,33.6816,5.4712,15.8527,10.821
3349371.0,8.3031,-14.9494,40.462,6.3204,15.4829,10.3725
3349381.0,10.4866,-17.5064,43.3542,6.7514,14.8555,9.5748
3349391.0,10.343,-17.7937,44.5322,6.8781,14.4543,8.6474
3349401.0,9.0118,-16.4625,46.0166,6.8217,14.5325,7.813
3349411.0,6.6655,-15.4953,52.6054,6.8621,14.6198,7.1234
3349421.0,5.0566,-13.5512,58.7824,6.5652,13.5476,6.5455
3349431.0,5.1811,-12.6893,63.092,5.5835,11.5974,5.9953
3349441.0,6.6559,-13.4363,64.7392,4.9625,9.6605,5.3296
3349451.0,6.9719,-13.3405,62.7855,4.2159,7.7108,4.5081
3349461.0,6.1675,-10.9846,58.0354,3.1283,5.8085,3.6721
3349471.0,4.7022,-5.6312,50.8528,2.3636,5.0364,3.1623
3349481.0,2.7964,0.3831,43.4787,1.5511,5.6223,3.1278
3349491.0,-0.6608,2.7102,44.6662,0.8328,6.5583,3.3661
3349501.0,-2.557,4.8076,45.9782,0.6215,6.6525,3.7535
3349511.0,-2.4995,5.5258,47.6255,0.3661,6.7435,4.2495
3349521.0,-4.1084,4.4819,50.0101,1.0302,6.877,4.7608
3349531.0,-4.8937,3.9361,49.876,1.7618,7.1218,5.2099
3349541.0,-5.3056,3.9169,50.3644,2.6765,7.5741,5.6457
3349551.0,-6.5888,4.3766,50.3261,3.1788,8.1317,6.0703
3349561.0,-8.2648,4.616,52.5958,3.2959,8.3361,6.4402
3349571.0,-9.414,5.1427,54.1377,2.999,8.119,6.8419
3349581.0,-11.0038,4.1563,56.733,2.5169,7.7002,7.2506
3349591.0,-11.0804,1.2258,59.9508,2.6877,7.166,7.6167
3349601.0,-10.0365,-2.4517,61.0426,3.3193,6.5684,7.7092
3349611.0,-9.9599,-3.5243,60.104,3.8014,6.1906,7.5161
3349621.0,-10.8601,-2.1931,58.7346,3.7312,5.9325,7.2814
3349631.0,-12.9861,-0.4693,59.357,2.9878,5.5063,7.208
3349641.0,-14.1162,-0.3735,59.9125,2.2769,4.9002,7.1766
3349651.0,-14.4035,-0.5076,60.0083,1.4681,4.4868,7.1777
3349661.0,-14.3365,-2.0686,62.0481,1.1339,4.407,7.1734
3349671.0,-14.1354,-3.869,65.5915,1.351,4.358,7.0718
3349681.0,-13.781,-5.1619,68.953,1.6703,3.8568,6.8951
3349691.0,-13.0532,-6.0525,71.8548,1.7789,3.0165,6.5743
3349701.0,-12.3828,-6.0813,73.7797,1.6533,1.8172,6.0959
3349711.0,-12.038,-5.0853,73.1668,0.8093,0.3459,5.5579
3349721.0,-12.8138,-4.5011,73.4062,-0.5433,-1.4958,4.9832
3349731.0,-13.1394,-3.3327,71.5579,-2.0364,-3.3848,4.4825
3349741.0,-13.4363,-2.6049,68.2252,-3.2124,-4.8635,4.1106
3349751.0,-13.2639,-2.0111,64.7201,-3.8238,-5.6941,3.8897
3349761.0,-12.4977,-2.6815,62.4599,-4.0898,-5.9974,3.7471
3349771.0,-11.3964,-3.8499,62.0769,-4.0903,-6.2827,3.6232
3349781.0,-10.3717,-5.7557,62.9867,-3.8014,-6.7929,3.447
3349791.0,-8.8585,-7.1826,61.9428,-3.4614,-7.7007,3.1858
3349801.0,-7.853,-8.0062,59.4049,-3.5215,-8.7628,2.8197
3349811.0,-7.0868,-8.4946,55.6987,-3.4986,-9.7047,2.4206
3349821.0,-5.7461,-8.0445,51.1689,-3.3709,-10.1916,2.0768
3349831.0,-4.7788,-7.853,47.5393,-3.1831,-10.4214,1.8007
3349841.0,-4.1946,-7.5753,44.829,-2.9772,-10.5481,1.5878
3349851.0,-2.8443,-8.0254,42.6072,-2.6329,-10.6806,1.4218
3349861.0,-1.494,-8.8681,39.3607,-2.3136,-10.8907,1.2393
3349871.0,0.2682,-9.5481,36.2865,-2.2317,-11.0073,0.9903
3349881.0,1.9154,-10.2376,33.0113,-2.0784,-11.0201,0.696
3349891.0,3.1412,-10.2855,29.2571,-1.997,-10.8317,0.3879
3349901.0,4.1084,-9.8354,26.4128,-2.0119,-10.4326,0.1277
3349911.0,5.2481,-9.3853,24.3921,-1.9076,-9.9638,-0.0756
3349921.0,6.7421,-9.0501,22.381,-1.7985,-9.4397,-0.2155
3349931.0,8.3797,-9.2033,21.1839,-1.8193,-8.9485,-0.3751
3349941.0,9.8354,-9.1842,20.3411,-2.0252,-8.5415,-0.5571
3349951.0,10.4866,-8.9926,18.9238,-2.4025,-8.2759,-0.7311
3349961.0,12.1817,-9.4715,18.2247,-2.6265,-7.8487,-0.8977
3349971.0,13.3596,-10.5536,17.1138,-2.6808,-7.25,-1.1291
3349981.0,13.7906,-11.722,16.52,-2.652,-6.6296,-1.4527
3349991.0,15.1792,-12.469,15.6581,-2.7691,-6.0129,-1.8704
3350001.0,16.4625,-13.0245,15.6102,-2.9655,-5.5026,-2.3652
3350011.0,16.5296,-12.8521,15.8113,-3.0192,-5.0423,-2.8899
3350021.0,17.0754,-11.5879,14.9207,-2.9569,-4.483,-3.2996
3350031.0,17.3915,-10.4004,13.9534,-2.7963,-3.6939,-3.5923
3350041.0,17.8033,-9.8354,13.4458,-2.5696,-2.6765,-3.8094
3350051.0,18.3204,-9.0214,13.4458,-2.3269,-1.6049,-4.0233
3350061.0,18.1193,-8.1499,13.9151,-2.3807,-0.5587,-4.2292
3350071.0,17.832,-6.7325,16.2997,-2.5547,0.1889,-4.4027
3350081.0,17.4298,-5.4779,19.9868,-2.8218,0.4257,-4.4958
3350091.0,16.8073,-4.3,22.2948,-3.0639,0.1543,-4.4974
3350101.0,17.4872,-3.2848,21.7585,-3.2528,-0.141,-4.458
3350111.0,18.4066,-2.7198,19.4409,-3.3151,0.1128,-4.3644
3350121.0,17.8799,-2.5953,18.0044,-3.2783,0.8072,-4.2409
3350131.0,17.4106,-2.2601,16.5296,-3.2432,1.7496,-4.1233
3350141.0,16.9031,-2.5091,16.1944,-3.2895,2.9117,-3.9839
3350151.0,16.7977,-2.7485,18.9717,-3.2044,4.2223,-3.8626
3350161.0,16.0603,-3.237,23.8367,-2.7234,5.0583,-3.7801
3350171.0,14.8632,-2.8826,28.06,-2.5185,5.1753,-3.6801
3350181.0,13.5799,-2.7581,29.9754,-2.3871,4.6214,-3.5236
3350191.0,13.5416,-2.9497,28.6538,-1.9693,4.7002,-3.3651
3350201.0,13.8672,-3.2274,27.3131,-1.0743,5.7064,-3.198
3350211.0,13.6182,-3.4764,26.9396,-0.3022,6.9792,-3.1341
3350221.0,12.1625,-2.9784,29.3816,-0.0963,7.8742,-3.1576
3350231.0,11.5209,-2.1356,33.5763,-0.3411,8.1919,-3.1554
3350241.0,10.094,-1.9058,40.1556,-0.4566,7.8066,-3.0942
3350251.0,9.9024,-1.6759,41.8985,-0.647,6.6482,-3.0283
3350261.0,9.4427,-2.3655,40.5195,-1.0323,5.7106,-2.975
3350271.0,9.2991,-2.7677,36.8228,-0.7833,5.8378,-2.9053
3350281.0,8.7053,-2.5474,34.6585,-0.2485,7.125,-2.8096
3350291.0,7.3933,-2.2505,35.9992,0.2719,8.4053,-2.6749
3350301.0,5.5929,-1.7142,40.3471,0.3379,9.1965,-2.5265
3350311.0,5.7078,-1.81,46.2751,0.3517,9.354,-2.37
3350321.0,5.545,-1.8771,52.7299,0.3698,8.9193,-2.2594
3350331.0,5.9664,-2.806,57.6141,0.1697,7.6832,-2.2466
3350341.0,6.2824,-3.8882,59.7976,-0.0628,5.9623,-2.3972
3350351.0,6.2058,-3.7062,58.3611,-0.0729,4.5879,-2.5653
3350361.0,5.5833,-2.1356,54.8943,0.3342,4.0643,-2.6292
3350371.0,4.7692,-0.3543,52.1361,0.7535,4.1489,-2.5754
3350381.0,4.1946,0.5746,52.3181,1.0919,4.4261,-2.4467
3350391.0,3.9648,1.6376,54.0515,1.0105,4.1244,-2.2891
3350401.0,3.6583,1.2546,57.1161,0.6598,3.1884,-2.1593
3350411.0,3.6009,0.814,56.6755,0.4555,1.873,-2.1178
3350421.0,4.6831,0.7853,53.1992,0.1937,1.0828,-2.1205
3350431.0,5.2672,1.063,49.378,0.2293,1.1371,-2.1162
3350441.0,4.7118,2.3846,47.5967,0.464,1.6001,-2.0758
3350451.0,4.5681,3.6871,46.9072,0.5257,1.881,-1.9342
3350461.0,4.118,4.9416,48.0756,0.4087,1.9358,-1.6772
3350471.0,3.7828,5.5545,48.8226,0.2022,1.6825,-1.3548
3350481.0,3.5817,5.0087,49.4067,0.0378,1.2271,-1.0052
3350491.0,4.0223,3.5721,48.8609,0.0468,0.771,-0.7535
3350501.0,4.1084,2.2697,47.1275,0.1426,0.6481,-0.6396
3350511.0,4.4053,1.6664,46.0549,0.5252,0.9195,-0.588
3350521.0,4.5107,1.9441,45.0397,0.8934,1.3617,-0.5593
3350531.0,4.1276,2.5474,46.2751,0.9796,1.5277,-0.4709
3350541.0,3.9456,3.1603,47.4722,0.8423,1.2872,-0.3384
3350551.0,4.367,3.122,48.4299,0.6077,0.9184,-0.1974
3350561.0,3.9265,2.6145,48.5353,0.4395,0.4752,-0.0495
3350571.0,3.6488,2.2889,47.4531,0.1937,0.0229,0.0351
3350581.0,3.7828,1.6376,46.1027,0.0591,-0.1527,0.1288
3350591.0,3.5721,1.1684,44.9631,0.1133,0.0319,0.2458
3350601.0,3.7158,0.4693,44.944,0.3038,0.2671,0.3336
3350611.0,4.1372,0.0958,45.2696,0.3257,0.241,0.3783
3350621.0,4.5298,-0.6321,45.3845,0.1522,0.0351,0.4055
3350631.0,5.0374,-1.1875,44.7141,0.0319,-0.1937,0.3821
3350641.0,4.6064,-1.2929,43.6319,-0.1027,-0.3906,0.3443
3350651.0,4.8171,-1.6089,42.0709,-0.2895,-0.3959,0.2756
3350661.0,4.8746,-1.9249,40.5578,-0.3911,-0.1761,0.2283
3350671.0,4.3479,-1.9058,40.2034,-0.4454,0.1602,0.1735
3350681.0,4.5011,-1.8675,40.7972,-0.4576,0.4842,0.1618
3350691.0,4.8554,-1.4748,41.7357,-0.5821,0.6369,0.1474
3350701.0,4.8459,-1.7813,42.9041,-0.6747,0.6678,0.1868
3350711.0,5.3151,-2.3655,43.4212,-0.6572,0.5098,0.1777
3350721.0,5.3056,-2.6719,44.082,-0.7146,0.2347,0.1362
3350731.0,5.4684,-3.122,43.2106,-0.7583,0.008,0.0388
3350741.0,5.5641,-3.1699,42.7987,-0.7008,-0.0474,-0.067
3350751.0,5.4013,-2.9209,41.8602,-0.704,-0.0984,-0.1681
3350761.0,5.7078,-2.5091,41.9464,-0.7998,-0.0889,-0.2889
3350771.0,5.545,-2.2505,41.8411,-0.8578,-0.182,-0.3938
3350781.0,5.4779,-1.5514,41.8794,-1.002,-0.4012,-0.4502
3350791.0,5.6503,-0.9673,41.4484,-1.0568,-0.6082,-0.489
3350801.0,5.9568,-0.8428,40.4524,-0.9839,-0.679,-0.4741
3350811.0,6.292,-0.8619,39.1308,-0.9099,-0.6103,-0.4826
3350821.0,6.2537,-0.8236,38.336,-0.837,-0.4624,-0.4768
3350831.0,6.4069,-0.4693,37.6273,-0.6093,-0.257,-0.4699
