time_ms,ax,ay,az,gx,gy,gz
3593601.0,8.6766,-0.8428,38.3838,0.3448,0.58,0.2219
3593611.0,8.9447,-0.9577,37.6464,0.6577,0.8769,0.3246
3593621.0,8.734,-0.747,37.1484,0.7785,1.2404,0.4475
3593631.0,8.9926,-0.2682,37.4836,0.8317,1.566,0.564
3593641.0,9.73,-0.4693,39.6288,1.0562,1.9225,0.6806
3593651.0,9.1842,0.6129,39.715,1.5341,2.2492,0.8615
3593661.0,8.4276,1.5706,42.0613,2.4876,2.9617,1.1919
3593671.0,6.9336,2.5666,43.2489,3.7423,3.8541,1.6964
3593681.0,6.1387,1.4269,47.2998,5.1913,4.8273,2.2051
3593691.0,5.7652,-0.3831,51.4466,6.6642,5.5313,2.6004
3593701.0,6.2632,-2.6432,55.2486,7.8311,5.9511,2.7516
3593711.0,5.7652,-4.8171,61.5501,9.0156,5.9309,2.594
3593721.0,5.4779,-4.4819,65.0169,10.1878,5.4893,2.2812
3593731.0,4.5107,-2.6145,67.8996,11.285,4.7566,1.9922
3593741.0,2.7964,-0.4022,68.2826,12.2583,3.8951,1.7171
3593751.0,1.7621,3.1412,63.5996,11.972,2.9644,1.5149
3593761.0,0.9481,6.5122,60.1615,10.4103,2.2742,1.3963
3593771.0,-0.2011,8.6574,59.9029,8.0748,1.3755,1.3122
3593781.0,0.1053,9.3565,60.9851,5.7394,0.3113,1.1909
3593791.0,0.0096,9.5098,62.8813,3.388,-0.9668,1.0009
3593801.0,0.1915,9.1171,63.8007,1.1111,-2.5818,0.7348
3593811.0,0.747,9.0405,64.27,-0.8333,-4.1606,0.373
3593821.0,0.7087,10.2089,62.1247,-2.4898,-5.9139,0.1011
3593831.0,-0.1437,10.1323,59.0506,-3.7775,-7.3107,-0.1112
3593841.0,-0.5746,9.4715,56.0339,-4.4719,-8.1823,-0.3432
3593851.0,0.0287,9.098,52.8257,-4.9657,-8.765,-0.5805
3593861.0,0.3543,8.7245,49.5695,-5.1642,-9.2497,-0.8588
3593871.0,0.996,10.0556,44.9152,-5.7665,-9.6302,-1.0999
3593881.0,2.0207,11.2432,41.8411,-6.2933,-9.5823,-1.2233
3593891.0,2.1356,12.1817,40.5003,-6.7344,-9.5727,-1.2122
3593901.0,2.9592,12.0955,39.6576,-6.8355,-9.4317,-1.0759
3593911.0,4.1946,10.1418,41.4101,-6.3247,-9.1188,-0.9472
3593921.0,4.5298,8.3989,42.3486,-5.4531,-9.0379,-0.8924
3593931.0,6.3494,5.6024,44.082,-4.291,-8.9384,-0.9291
3593941.0,6.7995,5.1906,43.6224,-3.3007,-9.1694,-1.0839
3593951.0,7.4508,6.9719,41.5442,-2.6584,-9.628,-1.1776
3593961.0,8.0541,10.2185,37.8092,-2.3418,-9.8122,-1.069
3593971.0,7.7189,11.9519,35.1756,-2.0375,-9.975,-0.7716
3593981.0,8.1307,12.1913,31.1917,-1.8826,-9.7834,-0.2889
3593991.0,9.5577,9.7109,28.0888,-1.7368,-9.4349,0.1176
3594001.0,11.4443,6.4452,26.681,-1.699,-8.9092,0.3028
3594011.0,12.3637,3.8499,25.1104,-1.7272,-8.4851,0.2959
3594021.0,13.5799,2.8347,24.3347,-1.9151,-8.0988,0.1719
3594031.0,15.0835,3.2082,24.5837,-2.0146,-7.7582,0.008
3594041.0,15.7538,4.5873,24.7082,-1.7789,-7.5975,-0.05
3594051.0,16.1848,4.9416,22.9652,-1.4904,-7.2942,0.0889
3594061.0,17.3244,3.7828,20.6189,-0.9142,-6.8451,0.2107
3594071.0,18.4545,2.49,18.014,-0.7375,-6.2587,0.2352
3594081.0,19.4505,1.9154,15.5432,-0.7918,-5.5808,0.1841
3594091.0,20.571,1.6376,15.3229,-1.1765,-4.8954,0.0968
3594101.0,20.2837,2.2793,16.4242,-1.2271,-4.3341,0.0399
3594111.0,21.2797,2.7773,16.2901,-1.0977,-4.0323,0.0367
3594121.0,21.8734,2.6432,14.3844,-0.9935,-3.5412,0.0506
3594131.0,21.7394,2.4134,11.3964,-1.0935,-3.2065,0.0372
3594141.0,23.0801,1.0247,8.4372,-1.2973,-2.518,-0.041
3594151.0,23.4919,-0.2777,6.9911,-1.2989,-1.4622,-0.2538
3594161.0,23.7984,-0.9864,7.0198,-1.0584,-0.5444,-0.5428
3594171.0,23.2812,0.0862,6.4452,-0.6747,0.5241,-0.8014
3594181.0,23.7218,1.9249,6.675,-0.4097,1.3814,-0.9562
3594191.0,22.7736,3.7637,7.2305,-0.223,2.054,-0.9418
3594201.0,21.9405,5.2481,5.9376,-0.0255,2.56,-0.8897
3594211.0,21.318,6.7804,3.984,-0.3278,3.2863,-0.6971
3594221.0,20.3794,7.7476,2.6336,-0.6635,4.0047,-0.4358
3594231.0,20.4465,7.9392,0.2203,-0.7072,5.3222,-0.1101
3594241.0,19.326,7.9679,1.1971,-0.6651,7.0649,0.1623
3594251.0,18.4354,7.5848,6.4643,-0.141,8.8544,0.4262
3594261.0,16.6062,6.5697,16.1848,1.2654,10.1873,0.6933
3594271.0,16.6445,5.4396,21.6149,2.8356,10.6667,0.8381
3594281.0,16.022,5.047,24.7848,3.4603,10.5305,0.7976
3594291.0,15.1026,5.7078,24.8997,2.9612,9.4791,0.6582
3594301.0,14.3556,8.2935,19.5271,1.3521,8.4595,0.4762
3594311.0,11.8369,11.6933,14.6525,-0.5465,8.2148,0.448
3594321.0,8.6095,16.9893,11.5975,-1.9693,8.6633,0.6768
3594331.0,4.367,21.6244,10.9367,-2.8984,9.5014,1.3117
3594341.0,0.8811,23.9995,14.0204,-2.5243,10.9285,2.254
3594351.0,-2.1069,23.2046,18.2438,-0.9152,12.1343,3.2576
3594361.0,-3.9265,18.7801,22.199,1.0887,13.1405,4.0499
3594371.0,-4.8937,15.7826,22.5917,3.4071,14.6544,4.4517
3594381.0,-7.7381,14.1737,23.8175,5.3264,16.4795,4.6475
3594391.0,-11.6071,15.4378,27.2077,6.3912,17.4357,4.7741
3594401.0,-14.4418,17.4298,35.3959,6.6929,17.4357,4.963
3594411.0,-18.8376,19.891,46.572,6.429,17.4357,5.2812
3594421.0,-18.9812,20.7051,61.3394,5.9857,17.4357,5.6494
3594431.0,-22.6204,21.0402,74.5459,5.5074,17.4357,6.1289
3594441.0,-20.7625,18.2438,78.4508,6.0219,17.2282,6.5061
3594451.0,-20.3028,15.6102,78.4508,6.5168,15.4403,6.6658
3594461.0,-19.1249,12.6605,78.4508,6.3039,13.4518,6.5679
3594471.0,-17.4202,12.1051,78.4508,5.6574,12.0774,6.3955
3594481.0,-16.2806,11.7507,78.4508,4.5772,10.6891,6.1592
3594491.0,-15.5719,12.3924,78.4508,3.3821,9.2502,6.0166
3594501.0,-16.0507,13.2639,78.4508,2.2147,7.8205,5.9692
3594511.0,-15.0547,11.7699,78.4508,1.3675,6.7498,5.9384
3594521.0,-14.9877,11.4826,78.2329,0.7178,5.5276,5.7819
3594531.0,-14.8153,11.3485,77.8977,-0.1336,4.4213,5.6931
3594541.0,-14.6046,11.157,77.8882,-0.4603,3.3555,5.6149
3594551.0,-13.4267,11.4634,76.7964,-0.9716,2.2397,5.5872
3594561.0,-12.9287,11.789,76.3846,-1.0163,1.1871,5.6255
3594571.0,-12.5648,11.8561,74.565,-1.0573,0.0165,5.7612
3594581.0,-11.5209,10.9367,71.0312,-1.102,-0.9466,5.9059
3594591.0,-11.6933,9.7683,67.8804,-1.4314,-1.8097,6.032
3594601.0,-11.406,7.0485,64.7584,-1.7262,-2.4828,6.0491
3594611.0,-10.2376,3.9361,62.7472,-1.9608,-3.0357,5.8953
3594621.0,-9.73,0.5076,61.6268,-1.989,-3.5801,5.543
3594631.0,-8.734,-1.743,61.4735,-1.6336,-3.8615,4.9939
3594641.0,-8.1882,-1.2833,60.7936,-1.0967,-4.2463,4.4128
3594651.0,-7.0868,0.498,59.0506,-1.1036,-4.7933,3.9978
3594661.0,-6.7995,3.2274,58.294,-1.0738,-5.3041,3.7594
3594671.0,-6.541,5.6024,56.4936,-1.5921,-6.1374,3.7594
3594681.0,-6.6942,5.9951,55.2869,-2.1694,-6.9622,3.8482
3594691.0,-6.5888,4.2808,53.4577,-2.6712,-7.6901,3.8983
3594701.0,-5.0949,1.1684,51.3796,-2.817,-8.1094,3.7604
3594711.0,-4.4053,-1.3791,49.062,-2.9617,-8.4297,3.3981
3594721.0,-3.9935,-2.9401,49.062,-2.842,-8.7256,2.9617
3594731.0,-2.6049,-3.4572,47.5872,-2.1982,-9.0028,2.5158
3594741.0,-1.2929,-2.5379,43.8043,-1.8486,-9.0933,2.1034
3594751.0,-0.8332,-1.7334,42.0901,-1.7618,-9.2337,1.7522
3594761.0,0.1915,0.0766,38.2402,-2.0454,-9.3934,1.5761
3594771.0,0.7278,-0.3352,35.6066,-2.4142,-9.354,1.4069
3594781.0,2.0111,-0.6895,33.6242,-2.817,-9.0486,1.1669
3594791.0,3.4477,-1.1109,33.0687,-3.0873,-8.7543,0.9083
3594801.0,4.0701,-1.312,32.7623,-3.33,-8.6713,0.6173
3594811.0,5.0949,-1.3886,32.8676,-3.3395,-8.6447,0.3735
3594821.0,6.4835,-1.0343,32.4462,-2.7968,-8.3483,0.1618
3594831.0,7.5082,-0.6129,31.115,-2.0039,-7.9992,0.0239
3594841.0,8.2169,-0.7757,29.6689,-1.2404,-7.6316,-0.0819
3594851.0,9.9024,-0.1149,26.7289,-0.5555,-7.2043,-0.1394
3594861.0,10.975,-0.2107,24.5741,-0.4103,-6.6785,-0.1809
3594871.0,11.5305,-0.1532,22.1128,-0.4624,-6.0932,-0.2368
3594881.0,12.6222,-0.8619,20.6284,-0.9285,-5.5829,-0.2772
3594891.0,13.9343,-2.3846,19.9676,-1.3021,-5.0104,-0.4188
3594901.0,15.026,-3.2178,19.2781,-1.6501,-4.5256,-0.6146
3594911.0,15.7922,-4.2521,18.9238,-1.9864,-3.8126,-0.8546
3594921.0,16.5391,-4.9129,19.3356,-2.1646,-3.1373,-1.1467
3594931.0,17.1138,-6.0525,21.0307,-2.0928,-2.4642,-1.4665
3594941.0,17.8224,-6.9528,22.7353,-1.9459,-1.9348,-1.8565
3594951.0,17.9661,-7.1922,24.2772,-1.8597,-1.6905,-2.3211
3594961.0,18.0236,-7.4124,25.7999,-1.5676,-1.5043,-2.8213
3594971.0,18.0906,-6.3015,27.2077,-1.11,-1.3739,-3.2954
3594981.0,18.1959,-5.6024,27.1886,-0.679,-1.4117,-3.7189
3594991.0,17.9278,-4.0223,25.867,-0.3842,-1.3494,-4.0813
3595001.0,17.4394,-2.0494,23.0322,-0.4273,-1.2568,-4.3623
3595011.0,17.7841,-0.3639,21.7106,-0.7295,-0.879,-4.557
3595021.0,17.6692,1.6664,20.3794,-1.3425,-0.6204,-4.6262
3595031.0,16.9126,2.4134,20.7434,-2.1332,-0.6455,-4.6049
3595041.0,16.8935,2.2697,20.2837,-2.9272,-0.6758,-4.5708
3595051.0,16.3955,1.3886,21.0881,-3.0756,-0.6348,-4.639
3595061.0,16.0699,0.747,21.2988,-2.4376,-0.3847,-4.7241
3595071.0,15.7155,0.2107,19.8336,-1.2803,0.0521,-4.871
3595081.0,14.9494,0.6129,16.52,-0.2512,0.7279,-5.0072
3595091.0,14.71,0.929,12.3062,0.489,1.8667,-5.1386
3595101.0,13.7044,2.1356,9.6055,0.803,3.2384,-5.2216
3595111.0,12.3637,3.2944,9.6055,0.9051,4.7278,-5.2413
3595121.0,10.9942,4.0893,12.2966,0.8168,6.1161,-5.178
3595131.0,10.2376,3.802,16.5391,0.5715,6.8132,-5.1024
3595141.0,9.0692,2.7677,19.8815,0.0628,6.8648,-5.1322
3595151.0,8.6287,1.7047,19.9198,-0.5688,6.8451,-5.2903
3595161.0,8.1499,1.5227,19.2015,-1.044,7.2766,-5.5388
3595171.0,7.3741,2.6719,18.6173,-1.5293,7.9886,-5.7468
3595181.0,5.1523,4.4915,19.6325,-1.6517,8.8176,-5.8735
3595191.0,1.2258,6.9145,20.5422,-1.8379,9.5722,-5.7761
3595201.0,-0.6895,7.9009,24.9955,-1.2898,10.7513,-5.4765
3595211.0,-2.0207,5.612,33.4614,0.1815,11.4399,-5.2424
3595221.0,-0.8906,2.4229,37.0335,2.1375,11.5915,-5.3781
3595231.0,-1.7334,1.1205,37.656,3.9392,12.121,-5.8708
3595241.0,-3.6488,2.1356,40.1172,5.4754,12.6919,-6.4939
3595251.0,-5.7461,6.3782,43.2584,6.9026,13.1054,-6.9685
3595261.0,-8.1594,11.5592,46.3613,7.9178,13.2714,-7.1856
3595271.0,-10.3717,16.5966,50.8433,8.4771,13.2166,-7.0968
3595281.0,-11.9327,20.4752,55.6412,8.3398,12.5541,-6.7605
3595291.0,-11.789,22.065,59.4241,7.6023,11.375,-6.3103
3595301.0,-12.8712,21.5191,62.7855,6.3343,10.0495,-5.916
3595311.0,-12.9574,19.642,66.0225,5.1727,8.8932,-5.7042
3595321.0,-12.9574,18.2247,69.6617,4.0063,7.5794,-5.6856
3595331.0,-12.5552,17.3053,73.9521,3.0463,6.0012,-5.8224
3595341.0,-12.3637,17.3436,75.6472,2.1976,4.1446,-5.9549
3595351.0,-12.0093,17.2574,74.9385,1.2153,2.2604,-6.1023
3595361.0,-12.6893,16.7498,73.4733,0.4071,0.5582,-6.2582
3595371.0,-13.1777,16.8456,68.6849,-0.2379,-0.7237,-6.4332
3595381.0,-14.212,16.7881,65.3138,-0.6886,-1.5628,-6.6014
3595391.0,-14.4993,17.0946,61.4161,-1.0621,-1.9965,-6.7749
3595401.0,-14.9398,18.5024,58.5622,-1.4261,-2.1726,-6.8728
3595411.0,-15.2367,19.642,57.978,-1.79,-2.3386,-6.8648
3595421.0,-15.1505,21.0786,57.3938,-2.1726,-2.5201,-6.7445
3595431.0,-14.4131,21.385,59.2325,-2.1013,-2.7085,-6.5769
3595441.0,-14.1162,22.4385,60.0945,-1.7278,-2.9367,-6.3204
3595451.0,-13.4746,22.9652,61.3299,-1.3415,-3.4066,-5.9804
3595461.0,-12.8808,22.448,61.3394,-1.2031,-4.0739,-5.5941
3595471.0,-12.9478,19.9102,61.1479,-1.2978,-5.1046,-5.3403
3595481.0,-12.0955,18.3683,57.8726,-1.9619,-6.1831,-5.2786
3595491.0,-11.8274,17.0659,55.5551,-2.8771,-7.1096,-5.352
3595501.0,-12.1434,16.9988,52.8448,-3.7131,-7.739,-5.4989
3595511.0,-11.5592,17.4681,51.1593,-4.0856,-8.0136,-5.6319
3595521.0,-12.0285,19.1823,50.1825,-4.2777,-8.2238,-5.6409
3595531.0,-12.1147,19.8719,49.311,-4.1138,-8.4244,-5.5148
3595541.0,-10.8793,20.322,48.6885,-3.5641,-8.3536,-5.3318
3595551.0,-10.1323,20.0921,47.0796,-3.173,-8.3148,-5.1487
3595561.0,-9.8737,20.2358,46.4092,-3.1331,-8.5255,-4.987
3595571.0,-8.5808,20.5422,45.9782,-3.1804,-8.8208,-4.8124
3595581.0,-8.169,21.95,44.829,-3.2235,-9.1529,-4.5794
3595591.0,-7.5274,22.697,43.7277,-3.0863,-9.3636,-4.2202
3595601.0,-6.5505,23.7505,41.3335,-2.7734,-9.3662,-3.7418
3595611.0,-5.9664,23.5494,39.2553,-2.5823,-9.3492,-3.2044
3595621.0,-4.5681,22.5246,37.1197,-2.3498,-9.1082,-2.7021
3595631.0,-2.8922,21.7489,34.4765,-2.2354,-8.7314,-2.2503
3595641.0,-1.992,20.1975,34.7351,-2.2711,-8.3355,-1.8667
3595651.0,-0.5459,18.7131,34.8021,-2.1151,-8.0833,-1.5399
3595661.0,0.5938,17.3436,35.1565,-1.9976,-8.0631,-1.2888
3595671.0,1.494,16.5583,33.289,-1.9294,-8.0525,-1.1132
3595681.0,3.0933,16.8169,31.2683,-1.9582,-7.8907,-0.944
3595691.0,3.4955,17.0084,29.0943,-2.0524,-7.6672,-0.7003
3595701.0,4.6639,17.5543,27.6865,-2.1269,-7.3517,-0.4342
3595711.0,5.6695,17.765,25.5892,-2.2498,-6.885,-0.0788
3595721.0,6.5984,17.6405,24.7465,-2.3152,-6.3891,0.2996
3595731.0,7.288,17.4872,23.4632,-2.3168,-5.7904,0.6859
3595741.0,7.8913,16.9126,22.9748,-2.1199,-5.0939,1.0999
3595751.0,7.9009,16.0795,22.9077,-1.7501,-4.4022,1.5197
3595761.0,8.1211,14.2024,22.8407,-1.2239,-3.6992,1.8959
3595771.0,9.3182,12.9766,21.9979,-0.7093,-2.9596,2.204
3595781.0,10.6111,12.2679,21.452,-0.24,-2.1167,2.4355
3595791.0,12.1434,11.2144,22.3331,0.2033,-1.4128,2.5765
3595801.0,13.1011,11.0804,22.6396,0.2395,-1.0131,2.7473
3595811.0,13.283,10.9654,22.7736,0.1272,-0.7343,2.8798
3595821.0,13.1968,10.8314,23.195,-0.2559,-0.5454,3.0336
3595831.0,13.1873,10.9559,22.946,-0.5651,-0.3618,3.1501
3595841.0,12.8712,10.9654,22.9365,-0.9301,-0.091,3.3401
3595851.0,12.3541,10.908,22.5438,-1.3228,0.1942,3.5236
3595861.0,11.8657,9.9695,23.7313,-1.4835,0.5428,3.7338
3595871.0,12.1625,8.8969,24.5645,-1.3739,0.9402,3.9126
3595881.0,12.2009,7.2305,26.2213,-0.961,1.2457,4.0201
3595891.0,12.469,6.3877,25.9531,-0.5108,1.4857,4.0403
3595901.0,13.0149,5.6024,25.9053,-0.1304,1.6964,3.993
3595911.0,12.5073,5.6024,24.0282,-0.033,1.8587,3.944
3595921.0,12.2104,6.1483,22.5821,-0.0223,2.2003,3.8887
3595931.0,11.7029,7.1443,20.2166,-0.2011,2.6834,3.8967
3595941.0,10.8026,8.2456,19.2111,-0.6337,3.3103,4.0063
3595951.0,9.2799,8.667,20.073,-0.9727,4.0057,4.1835
3595961.0,8.3222,9.2225,21.6532,-1.035,4.7081,4.4298
3595971.0,7.604,9.0501,23.7792,-0.8652,5.3004,4.7262
3595981.0,6.7995,7.8721,26.5852,-0.7013,5.4158,4.9337
3595991.0,6.3111,6.8187,27.2556,-0.497,5.4627,5.0753
3596001.0,5.3343,6.6559,26.4894,-0.0458,5.9538,5.187
3596011.0,4.118,7.3071,25.9531,0.3549,6.8009,5.3637
3596021.0,2.3942,7.6998,27.9164,0.9642,7.6928,5.6069
3596031.0,1.6855,7.7668,30.1095,1.4718,8.3472,5.8495
3596041.0,0.814,7.5274,33.289,1.8353,8.6921,6.0437
3596051.0,-0.747,7.288,35.7598,1.7826,8.3265,6.1533
3596061.0,-2.7294,7.1826,35.1277,1.5554,8.0024,6.2241
3596071.0,-4.3862,8.5904,32.2164,1.2276,8.3563,6.3172
3596081.0,-6.3494,10.0461,33.2603,1.1275,9.5466,6.5987
3596091.0,-9.0597,11.5496,36.2961,1.4181,10.6023,6.9914
3596101.0,-11.1857,12.5265,40.8163,1.4606,11.3095,7.448
3596111.0,-11.7986,13.714,44.0629,0.8508,11.5857,7.9173
3596121.0,-12.5552,14.1162,50.3836,-0.1165,11.2068,8.3946
3596131.0,-13.7906,13.9534,55.7753,-1.0126,10.3581,8.8905
3596141.0,-15.4953,12.4307,60.2573,-1.3553,9.4705,9.3774
3596151.0,-15.1697,9.6151,62.9483,-1.0339,8.7884,9.727
3596161.0,-16.836,8.3606,62.6802,-0.9802,8.1339,9.9766
3596171.0,-16.8743,7.4029,65.0265,-0.912,7.6108,10.182
3596181.0,-17.1042,6.9336,68.7327,-0.5156,7.0079,10.4358
3596191.0,-17.1904,5.7365,72.324,0.8014,6.1613,10.6673
3596201.0,-16.769,4.3862,71.9697,2.2705,5.4052,10.8764
3596211.0,-16.6253,2.806,69.3265,3.3922,4.7757,11.0206
3596221.0,-17.1904,1.1013,65.6586,3.9903,4.3564,11.0818
3596231.0,-16.9509,-0.7087,62.4504,4.0515,4.3266,11.0435
3596241.0,-16.6828,-2.6719,62.1535,3.654,4.4133,10.9174
3596251.0,-15.4665,-5.7748,65.2468,3.2821,4.1196,10.5954
3596261.0,-14.279,-8.1403,68.771,3.0969,3.5481,10.0532
3596271.0,-12.3349,-9.0884,71.8069,3.4486,2.5893,9.3726
3596281.0,-11.1282,-8.3318,71.3281,3.5811,1.4591,8.7213
3596291.0,-10.5824,-7.604,68.7136,3.2283,0.1783,8.1248
3596301.0,-9.9886,-7.1635,64.0784,2.2274,-0.8998,7.5576
3596311.0,-9.0788,-6.3782,58.725,0.7971,-1.6118,6.9324
3596321.0,-8.4946,-5.5545,56.8767,-1.0781,-2.1455,6.3391
3596331.0,-8.3701,-4.9704,57.0873,-3.0048,-3.1506,5.8107
3596341.0,-7.1347,-5.4013,56.4361,-4.4463,-4.0717,5.3238
3596351.0,-6.3207,-6.4356,55.9573,-5.2972,-4.8151,4.8401
3596361.0,-5.4396,-7.5082,55.6029,-5.2009,-5.369,4.2995
3596371.0,-4.4724,-8.5521,53.6397,-4.772,-5.8053,3.7306
3596381.0,-3.5243,-7.9775,49.7228,-4.4181,-6.0507,3.1214
3596391.0,-3.3806,-6.9911,48.3054,-4.1329,-6.2002,2.6185
3596401.0,-3.3232,-5.5929,46.3901,-3.6285,-6.3641,2.2184
3596411.0,-2.6911,-3.984,43.5457,-3.0245,-6.1789,1.9832
3596421.0,-2.1931,-3.7733,42.3582,-2.427,-5.9421,1.8326
3596431.0,-1.8579,-3.802,40.6727,-1.8831,-5.7628,1.7033
3596441.0,-0.5459,-4.1659,39.2458,-1.4708,-5.4169,1.5309
3596451.0,-0.4405,-4.7309,38.1061,-1.2749,-5.0865,1.3574
3596461.0,0.9577,-5.6599,37.7997,-1.1861,-4.6741,1.0813
3596471.0,1.8292,-5.7269,38.4221,-1.4761,-4.5671,0.7567
3596481.0,2.6719,-5.2481,39.6959,-1.8954,-4.7369,0.4119
3596491.0,3.0358,-4.8267,40.2034,-2.2854,-4.9566,0.0841
3596501.0,3.5434,-4.1946,40.1268,-2.4695,-5.1221,-0.1532
3596511.0,3.6871,-4.2904,39.7629,-2.4408,-5.0934,-0.3475
3596521.0,4.4053,-4.8363,40.2417,-2.2003,-4.8848,-0.5853
3596531.0,5.0661,-4.1659,40.3184,-1.931,-4.806,-0.8503
3596541.0,5.6024,-3.4285,42.023,-1.6575,-4.9093,-1.0052
3596551.0,6.1579,-2.9113,42.454,-1.2441,-5.1024,-1.1095
3596561.0,6.5218,-2.5953,42.0805,-0.7317,-5.3642,-1.1542
3596571.0,6.7708,-2.2697,40.2034,-0.4411,-5.6638,-1.1584
3596581.0,7.0006,-2.806,37.7901,-0.2517,-5.8687,-1.1573
3596591.0,8.0924,-4.1084,35.0798,-0.0686,-5.7149,-1.1792
3596601.0,8.8011,-5.6982,33.1453,0.058,-5.4749,-1.2952
3596611.0,9.845,-7.6423,31.6035,-0.0665,-5.1849,-1.5511
3596621.0,11.1857,-9.0022,31.2587,-0.0463,-4.8151,-1.9422
3596631.0,11.9135,-9.2416,31.3928,0.2086,-4.5959,-2.3636
3596641.0,12.3637,-8.9639,31.1342,0.4486,-4.4373,-2.7516
3596651.0,12.1338,-8.351,29.5732,0.6949,-4.375,-3.1251
3596661.0,12.3158,-7.9009,27.0449,0.8125,-4.3314,-3.4805
3596671.0,12.651,-6.5314,22.812,0.7013,-3.9664,-3.8647
3596681.0,12.9,-4.9991,19.393,0.2091,-3.3906,-4.1617
3596691.0,12.4498,-3.1795,16.9797,-0.4182,-2.7053,-4.3639
3596701.0,13.0245,-2.8539,16.6253,-0.9754,-1.7922,-4.5043
3596711.0,13.1873,-2.9113,18.3109,-1.1153,-0.9754,-4.6879
3596721.0,13.7619,-2.873,19.393,-1.1887,-0.4262,-4.9173
3596731.0,13.8193,-2.1835,21.0402,-0.9067,0.0341,-5.1519
3596741.0,12.8233,-1.1013,21.6915,-0.621,0.1793,-5.3163
3596751.0,12.9287,-0.4022,20.7625,-0.224,0.4204,-5.4542
3596761.0,12.153,0.6225,19.077,0.1368,0.9578,-5.5611
3596771.0,11.7029,1.0056,17.9757,0.5263,1.5607,-5.6851
3596781.0,11.1666,2.0494,15.3133,0.7003,2.4483,-5.7803
3596791.0,10.6494,3.3806,13.9726,0.5241,3.4151,-5.825
3596801.0,8.9735,4.4436,15.4187,0.2655,4.3772,-5.7968
3596811.0,8.0158,4.9512,17.3244,-0.0096,5.3137,-5.6494
3596821.0,7.3358,3.8403,20.6955,-0.1554,6.0028,-5.5132
3596831.0,6.4739,2.0207,23.4344,-0.3374,6.5407,-5.5318
3596841.0,5.4205,0.8236,25.7808,-0.3852,7.109,-5.6936
3596851.0,4.865,-0.3831,29.4583,-0.2176,7.5555,-5.9682
3596861.0,4.3479,0.0287,32.2068,0.1213,7.9019,-6.3593
3596871.0,3.1316,2.1548,34.3137,0.2001,8.0519,-6.6658
3596881.0,1.9537,5.047,37.3879,-0.0878,7.8785,-6.785
3596891.0,0.0479,7.2592,40.4429,-0.1272,7.3373,-6.678
3596901.0,-1.81,9.2033,41.142,-0.0952,6.91,-6.3779
3596911.0,-3.2178,10.1418,39.8587,-0.1612,6.8371,-5.9756
3596921.0,-4.0893,9.3948,42.3295,0.008,7.0952,-5.5047
3596931.0,-4.9416,7.4316,45.7293,0.7886,7.2527,-5.1455
3596941.0,-5.2385,5.6407,47.7021,1.5548,7.0218,-4.9625
3596951.0,-4.8363,4.5586,47.8936,1.8198,6.5822,-4.9327
3596961.0,-5.4396,3.3519,48.4395,2.0087,5.9006,-4.9923
3596971.0,-5.8993,3.7828,44.9056,2.1418,5.7591,-5.1402
3596981.0,-7.0773,4.0031,43.2584,2.0657,6.2278,-5.2227
3596991.0,-9.347,3.4955,44.446,1.9529,6.7887,-5.3131
3597001.0,-10.3717,1.1588,48.7364,1.8874,7.1479,-5.5462
3597011.0,-10.7739,-0.3639,52.3468,1.5825,7.1016,-6.0432
3597021.0,-10.5249,-0.6895,57.0778,1.077,6.6184,-6.7195
3597031.0,-10.6686,1.5514,61.2437,0.7375,5.8586,-7.3868
3597041.0,-10.7931,4.9991,63.0441,0.4566,4.9753,-7.8758
3597051.0,-12.0572,9.6917,64.7679,-0.1203,3.9903,-8.0849
3597061.0,-12.967,13.6374,65.8214,-0.8487,2.8904,-7.9907
3597071.0,-13.5991,16.5679,66.2907,-1.5341,1.9337,-7.6321
3597081.0,-14.2599,16.8169,68.8477,-1.9965,0.9418,-7.1803
3597091.0,-13.9534,15.7538,69.8437,-1.9284,-0.2011,-6.8249
3597101.0,-13.216,14.8345,68.6466,-1.7453,-1.2047,-6.6046
3597111.0,-13.0723,14.8441,66.9515,-1.3867,-2.0768,-6.4508
3597121.0,-12.7755,15.8209,63.5517,-0.895,-2.7505,-6.231
3597131.0,-12.1434,16.4913,59.8072,-0.5364,-3.0996,-5.8953
3597141.0,-11.4539,16.2806,56.1584,-0.5438,-3.2943,-5.5265
3597151.0,-11.0421,14.8153,54.0228,-0.7615,-3.5923,-5.1897
3597161.0,-10.4674,13.0532,51.5711,-1.1781,-3.8019,-5.0072
3597171.0,-10.2089,10.5153,52.3085,-1.3798,-3.9488,-4.9635
3597181.0,-9.7013,8.849,51.6764,-1.1733,-4.1824,-5.0466
3597191.0,-9.1554,7.9871,50.6422,-0.8822,-4.3176,-5.2083
3597201.0,-9.481,8.9064,48.7651,-0.5513,-4.4532,-5.402
3597211.0,-8.6191,9.9886,47.1658,-0.3054,-4.425,-5.51
3597221.0,-8.4659,11.3581,46.074,-0.3235,-4.3271,-5.5372
3597231.0,-7.8817,12.469,45.7963,-0.5954,-4.4203,-5.4866
3597241.0,-7.4603,13.9726,45.6814,-1.143,-4.623,-5.3743
3597251.0,-7.1539,15.0547,46.5912,-1.5458,-4.8678,-5.1338
3597261.0,-6.4548,15.2271,46.9551,-1.6985,-5.0524,-4.8316
3597271.0,-6.6272,15.026,47.3286,-1.6213,-5.3424,-4.5496
3597281.0,-6.11,14.6238,46.3613,-1.2425,-5.4164,-4.2537
3597291.0,-5.3247,13.9726,45.6526,-0.7561,-5.3568,-4.0132
3597301.0,-5.1715,13.6374,44.0054,-0.6018,-5.4754,-3.819
3597311.0,-4.2042,13.8193,42.3678,-0.8535,-5.5393,-3.6072
3597321.0,-3.8116,14.1928,40.8642,-1.284,-5.6622,-3.4045
3597331.0,-3.2657,14.4801,38.834,-1.8964,-5.5941,-3.1804
3597341.0,-2.5379,14.9781,38.4892,-2.3312,-5.3158,-2.9138
3597351.0,-2.1835,14.9685,38.5466,-2.7005,-5.1306,-2.6015
3597361.0,-1.5514,14.6621,39.5714,-2.7484,-4.8656,-2.2876
3597371.0,-0.7949,13.1394,41.1515,-2.3748,-4.598,-1.9747
3597381.0,-0.4118,11.9327,41.9751,-2.0502,-4.4096,-1.7443
3597391.0,0.6512,9.7492,44.6183,-1.5123,-4.3293,-1.6091
3597401.0,1.0534,8.8298,45.1451,-1.2366,-4.7188,-1.6272
3597411.0,2.4804,9.347,43.6415,-1.4873,-5.1152,-1.6692
3597421.0,2.8252,10.659,42.0805,-1.8118,-5.4669,-1.6474
3597431.0,2.873,12.2296,41.0366,-2.2077,-5.7064,-1.4873
3597441.0,3.1603,13.5608,39.8874,-2.5999,-5.849,-1.2451
3597451.0,3.371,14.5567,38.7669,-2.9655,-6.0719,-0.9232
3597461.0,3.7733,14.71,38.0965,-3.124,-6.2098,-0.5321
3597471.0,4.2042,14.5663,36.842,-2.8936,-6.2199,-0.141
3597481.0,5.2672,14.3844,35.4916,-2.4653,-6.0597,0.2927
3597491.0,5.6312,13.1298,34.5052,-1.8198,-5.8437,0.7035
3597501.0,6.675,11.7029,33.0591,-1.1935,-5.6186,1.0382
3597511.0,7.4986,10.6973,30.866,-0.7657,-5.3775,1.292
3597521.0,8.4276,10.7643,28.3473,-0.5715,-5.2179,1.5011
3597531.0,9.232,10.7548,26.4224,-0.3491,-4.9337,1.7107
3597541.0,9.6343,11.0325,24.191,-0.1256,-4.5687,1.9848
3597551.0,10.0269,10.6973,22.1512,0.1485,-4.0877,2.2806
3597561.0,10.6973,10.3142,20.0155,0.3533,-3.5364,2.5658
3597571.0,10.7739,9.73,17.7075,0.4603,-2.867,2.8308
3597581.0,10.8697,8.9447,15.5144,0.4401,-2.0683,3.0517
3597591.0,11.2527,7.7764,14.8919,0.2501,-1.1659,3.2432
3597601.0,11.6933,7.3263,14.3077,-0.1266,-0.3028,3.3496
3597611.0,12.0285,6.4452,15.4665,-0.3081,0.563,3.4385
3597621.0,11.9997,6.0621,17.5351,-0.241,1.4277,3.5162
3597631.0,11.8848,5.9664,19.891,0.1405,2.1487,3.6093
3597641.0,11.5784,5.861,21.8447,0.6013,2.7521,3.7243
3597651.0,10.8601,5.545,23.3099,1.1957,3.2283,3.7998
3597661.0,10.7739,5.9568,22.9939,1.4825,3.6636,3.8818
3597671.0,10.5058,6.2441,23.8558,1.5681,4.1457,3.9254
3597681.0,9.0405,6.9049,24.4017,1.1834,4.209,4.0361
3597691.0,8.9543,7.7572,24.6794,0.7753,4.4378,4.1595
3597701.0,7.4795,8.6574,24.2197,0.3501,4.897,4.3926
3597711.0,6.292,9.4906,25.1487,0.1336,5.4568,4.7044
3597721.0,5.2098,9.6726,26.5948,0.0314,6.0427,5.0572
3597731.0,4.2904,8.9064,28.9603,0.0229,6.5993,5.4297
3597741.0,3.984,7.5657,31.862,0.1101,6.9249,5.6484
3597751.0,2.0782,5.8131,34.5148,0.0335,6.5503,5.7559
3597761.0,1.561,4.8363,33.7966,-0.216,6.2316,5.7319
3597771.0,0.7183,4.7597,31.8908,-0.1777,6.7185,5.6888
3597781.0,-1.3408,5.9664,32.2834,0.009,7.4767,5.7644
3597791.0,-2.8635,7.3933,33.9211,0.3097,8.5675,5.9804
3597801.0,-4.2329,8.6957,38.3838,0.7785,9.3694,6.297
3597811.0,-5.114,9.8833,42.8849,1.0711,9.7116,6.6801
3597821.0,-6.1004,10.6015,47.6638,1.2143,9.4615,7.1133
3597831.0,-6.2249,9.8545,51.37,1.1472,8.7304,7.5565
3597841.0,-7.2018,8.1116,52.0116,1.1893,7.6928,7.9104
3597851.0,-8.1403,6.2441,50.8528,1.3798,7.2149,8.1498
3597861.0,-8.8777,5.047,48.9854,1.7773,7.5033,8.2797
3597871.0,-9.912,4.5777,50.3932,2.1843,7.8902,8.4053
3597881.0,-10.6207,5.0374,52.5862,2.452,8.0072,8.5415
3597891.0,-10.6398,5.8035,57.1927,3.2512,7.7784,8.683
3597901.0,-11.0612,7.2496,59.4145,4.2761,7.308,8.9326
3597911.0,-12.6031,6.6655,59.7688,5.5159,6.6573,9.2194
3597921.0,-12.6701,6.5888,55.4976,6.3987,6.4136,9.4056
3597931.0,-13.7619,7.0006,51.6286,6.3289,6.662,9.5807
3597941.0,-14.7962,7.0677,50.2399,5.5084,6.9004,9.6461
3597951.0,-15.7155,6.5505,52.9406,4.2936,6.9483,9.7424
3597961.0,-15.6677,6.3398,57.3172,3.6833,6.6035,9.7632
3597971.0,-16.0507,5.9951,60.1423,3.3427,6.0358,9.8106
3597981.0,-16.0028,4.8937,61.8374,3.4119,5.5313,9.8441
3597991.0,-15.6581,3.3327,62.412,3.3582,4.8731,9.7488
3598001.0,-15.2271,1.6855,61.9045,2.9889,4.2718,9.5408
3598011.0,-14.7196,0.9577,59.7784,2.0077,3.637,9.1731
3598021.0,-14.3269,1.0822,59.0697,0.4933,2.9383,8.7527
3598031.0,-14.1449,1.5706,61.3682,-0.6455,2.1545,8.401
3598041.0,-13.4746,1.9632,62.4982,-1.2079,1.2515,8.127
3598051.0,-13.1585,1.4078,63.0633,-1.1377,0.4358,7.9402
3598061.0,-12.8425,-0.1724,61.9045,-0.6689,-0.2065,7.6991
3598071.0,-11.6933,-1.4557,59.9987,-0.133,-0.6008,7.3442
3598081.0,-10.975,-1.8771,57.0969,0.075,-0.8711,6.9249
3598091.0,-10.3813,-1.8866,56.4553,-0.1772,-1.1675,6.4944
3598101.0,-9.6438,-1.9345,56.1392,-0.7822,-1.7326,6.089
3598111.0,-8.734,-1.7142,56.6851,-1.2276,-2.3775,5.6755
3598121.0,-8.3989,-1.6281,56.168,-1.6315,-3.2129,5.3153
3598131.0,-7.5274,-1.9824,54.4346,-1.7911,-3.8871,4.963
3598141.0,-6.5601,-2.3463,51.9733,-1.9507,-4.2803,4.6001
3598151.0,-5.8897,-3.4668,49.9239,-2.1018,-4.6629,4.1659
3598161.0,-4.9608,-4.3,47.6638,-2.3248,-4.8108,3.6854
3598171.0,-4.6448,-4.6926,47.4148,-2.3807,-4.9614,3.1517
3598181.0,-3.5434,-4.9512,47.3382,-2.1412,-4.9976,2.5823
3598191.0,-3.1603,-4.0893,47.0987,-1.615,-5.0529,2.0673
3598201.0,-2.9305,-3.1029,46.4379,-1.0983,-5.1333,1.6767
3598211.0,-1.9728,-2.5857,44.8961,-0.5672,-5.1971,1.3255
3598221.0,-1.3886,-2.1931,42.8275,-0.3416,-5.1051,1.0264
3598231.0,-0.431,-2.2027,40.8834,-0.4342,-4.8875,0.6497
3598241.0,0.3448,-1.2354,40.778,-1.16,-4.6241,0.2554
3598251.0,0.4693,-0.4501,43.766,-2.137,-4.9646,-0.1277
3598261.0,0.8811,1.4269,45.1451,-2.8761,-5.65,-0.4342
3598271.0,0.9577,2.7294,45.4132,-3.3576,-6.1757,-0.5779
3598281.0,1.6281,3.6488,44.015,-3.5816,-6.5274,-0.6146
3598291.0,1.8579,3.3615,42.9807,-3.6455,-6.8281,-0.6311
3598301.0,2.4804,2.2601,41.4771,-3.4422,-6.9212,-0.6917
3598311.0,3.9552,1.3216,39.6288,-3.3252,-6.8078,-0.8189
3598321.0,5.0949,0.1245,39.1117,-3.1634,-6.7765,-0.9605
3598331.0,5.5737,-1.2833,38.3455,-3.1272,-6.8733,-1.1994
3598341.0,6.9815,-2.6145,37.9337,-2.9426,-6.7754,-1.533
3598351.0,7.4412,-2.806,38.1732,-2.3966,-6.8105,-1.898
3598361.0,7.4124,-2.5091,36.1333,-1.7443,-6.9137,-2.2354
3598371.0,7.8243,-1.2641,32.8006,-1.2489,-6.7568,-2.4674
3598381.0,8.5425,-0.4693,29.8892,-0.9945,-6.3524,-2.5478
3598391.0,9.6247,-0.7183,27.8877,-0.9333,-5.8474,-2.6095
3598401.0,10.4962,-1.6664,26.7959,-0.9823,-5.3749,-2.6904
3598411.0,11.3198,-3.1603,26.7863,-0.9892,-5.0247,-2.9091
3598421.0,12.0955,-4.1084,25.8478,-0.9727,-4.7299,-3.2038
3598431.0,12.2679,-4.7309,25.3881,-0.7497,-4.4256,-3.5854
3598441.0,12.6031,-4.1755,23.0226,-0.4784,-4.0265,-3.9626
3598451.0,13.2639,-3.055,20.3124,-0.4214,-3.48,-4.2968
3598461.0,13.1585,-1.6185,18.7418,-0.6625,-2.9325,-4.5277
3598471.0,13.4171,-0.4405,16.7977,-1.1611,-2.4397,-4.6757
3598481.0,12.9383,0.6704,14.9398,-1.7209,-1.6692,-4.7347
3598491.0,12.4498,1.1875,14.4993,-2.4185,-0.7098,-4.665
3598501.0,13.3692,0.2394,16.52,-2.7361,0.2905,-4.6555
3598511.0,13.8002,-1.6759,22.2086,-2.2125,1.2914,-4.7768
3598521.0,13.532,-2.4708,25.6946,-1.3739,1.5772,-5.0444
3598531.0,13.7236,-2.0973,26.4607,-0.4597,1.6187,-5.3711
3598541.0,13.0149,-0.7278,26.2596,0.2533,1.6868,-5.6643
3598551.0,12.2966,1.2929,23.5685,0.7769,1.8001,-5.8394
3598561.0,11.2049,3.8403,19.4601,0.6891,2.2194,-5.8596
3598571.0,10.2663,5.4875,17.8512,0.1485,3.1427,-5.7303
3598581.0,9.5098,6.0525,19.0483,-0.5396,4.0073,-5.5318
3598591.0,8.2552,4.8267,23.0993,-0.945,4.6214,-5.3924
3598601.0,7.9583,3.6296,26.3649,-0.9355,4.9651,-5.3695
3598611.0,7.6231,2.5187,29.1614,-0.7668,5.078,-5.4302
3598621.0,6.2537,1.8387,30.3968,-0.2224,5.0497,-5.6133
3598631.0,5.7365,2.5666,27.3992,0.2868,5.4307,-5.8309
3598641.0,4.2808,4.1851,26.0776,0.5353,6.3348,-5.9597
3598651.0,3.0263,5.2864,26.8246,0.5529,7.3511,-5.9825
3598661.0,1.7717,6.4835,30.7894,0.1676,8.2206,-5.9868
3598671.0,0.1532,7.2496,37.4357,-0.4262,8.3659,-5.916
3598681.0,-0.8906,7.4986,43.5745,-0.8248,7.7039,-5.8016
3598691.0,-0.2969,6.9528,46.5145,-1.0078,6.9042,-5.6936
3598701.0,-0.4884,6.6463,47.0413,-0.9551,6.5258,-5.6713
3598711.0,-1.7334,6.5505,47.9319,-0.9062,6.1166,-5.6409
3598721.0,-2.1739,6.3015,48.1426,-0.6859,5.8868,-5.6595
3598731.0,-3.1699,6.4643,48.3246,-0.6822,5.6909,-5.6824
3598741.0,-3.6488,6.5027,50.374,-0.5268,5.3669,-5.7303
3598751.0,-4.2042,6.6463,51.4275,-0.2671,5.0913,-5.8006
3598761.0,-4.3479,6.5122,52.0883,0.1139,4.8023,-5.8809
3598771.0,-4.7884,6.5601,52.8736,0.3368,4.4022,-5.9144
3598781.0,-5.3343,7.0677,52.8257,0.605,4.1436,-5.9511
3598791.0,-5.9568,7.4891,52.8448,0.6997,3.885,-5.9075
3598801.0,-6.359,7.288,53.0842,0.8253,3.5167,-5.89
3598811.0,-6.924,7.1251,52.9502,0.9344,3.0873,-5.8857
3598821.0,-7.3263,7.0868,51.9829,1.1036,2.6994,-5.9416
3598831.0,-7.2592,9.0501,48.631,0.9817,2.775,-6.0209
3598841.0,-8.5042,10.908,48.9088,0.6699,2.924,-5.9288
3598851.0,-8.6574,12.1434,50.3261,0.3773,3.0825,-5.725
3598861.0,-8.7245,11.3485,53.6301,0.0968,3.0416,-5.4978
3598871.0,-8.3701,9.5672,57.9971,0.0537,2.6159,-5.3781
3598881.0,-8.7053,8.4946,60.9851,0.0851,1.8682,-5.3818
3598891.0,-7.6327,8.1882,62.3259,0.2426,1.0951,-5.4286
3598901.0,-8.2265,8.3222,62.9962,0.4156,0.1341,-5.4664
3598911.0,-8.5712,8.7724,61.5023,0.6146,-0.6401,-5.4786
3598921.0,-8.4946,8.7915,60.6212,0.8088,-1.1829,-5.4781
3598931.0,-8.3797,8.667,58.6292,0.8062,-1.8177,-5.502
3598941.0,-8.2073,9.5577,57.3555,0.2309,-2.3722,-5.5414
3598951.0,-8.2744,10.2568,57.0299,-0.5076,-3.0128,-5.5334
3598961.0,-8.5234,9.7588,57.1831,-1.0781,-3.7088,-5.5191
3598971.0,-8.4755,9.1267,56.2159,-1.6049,-4.2729,-5.501
3598981.0,-8.6957,8.2648,55.2103,-1.9763,-4.7768,-5.5675
3598991.0,-8.7532,7.7285,54.607,-2.0593,-5.3201,-5.6989
3599001.0,-8.4084,8.0158,52.2511,-2.1503,-5.609,-5.8511
3599011.0,-8.6191,7.9104,50.7475,-2.1077,-5.7963,-6.0129
3599021.0,-8.5138,9.0022,48.5353,-2.1024,-5.9033,-6.1714
3599031.0,-8.4851,10.2568,47.5967,-2.0364,-5.8218,-6.2454
3599041.0,-8.3989,12.0285,46.0549,-1.9571,-5.7394,-6.2481
3599051.0,-8.0445,12.9957,46.323,-1.8725,-5.5797,-6.1156
3599061.0,-7.671,14.0109,46.5145,-1.6852,-5.5159,-5.9517
3599071.0,-7.5848,14.7483,46.4954,-1.7767,-5.6766,-5.7505
3599081.0,-6.9336,14.8345,47.2041,-1.823,-5.741,-5.5393
3599091.0,-6.4356,15.3037,47.1466,-1.8544,-5.9096,-5.344
3599101.0,-5.8897,15.5719,47.2998,-1.7065,-6.0012,-5.1381
3599111.0,-5.861,15.9262,47.4627,-1.5708,-6.1528,-4.8938
3599121.0,-5.1811,15.6293,48.3533,-0.9509,-6.1651,-4.6602
3599131.0,-4.1755,17.2861,47.8074,-0.8077,-6.3651,-4.3921
3599141.0,-4.0701,18.9908,47.2328,-0.8657,-6.8722,-4.0387
3599151.0,-3.3519,20.3794,45.7005,-1.1111,-7.1878,-3.5604
3599161.0,-3.0358,20.9349,44.0342,-1.3462,-7.3384,-3.0607
3599171.0,-2.5857,20.5518,43.2967,-1.4601,-7.2905,-2.5217
3599181.0,-1.5514,19.4218,43.0286,-1.4468,-7.2357,-1.9699
3599191.0,-0.0862,17.5064,43.2106,-1.3462,-7.3272,-1.6091
3599201.0,0.9864,17.0276,41.8698,-1.7107,-7.6124,-1.3042
3599211.0,1.9345,16.3955,41.0175,-2.2546,-8.0051,-1.0291
3599221.0,2.8156,15.955,39.8012,-2.5637,-8.2908,-0.7503
3599231.0,4.0031,15.1601,38.336,-2.4067,-8.2706,-0.5167
3599241.0,4.865,15.1409,35.8843,-2.4631,-8.3318,-0.2496
3599251.0,5.794,14.6812,33.6721,-2.6403,-8.3499,0.0144
3599261.0,6.3398,14.6525,30.8852,-2.8133,-8.2653,0.2746
3599271.0,7.3741,14.1066,29.4966,-2.6552,-7.8614,0.5811
3599281.0,8.0445,13.1202,28.7591,-1.8964,-7.217,0.8961
3599291.0,9.5002,12.287,27.562,-1.0099,-6.4822,1.2116
3599301.0,11.224,11.9519,25.9915,-0.4305,-5.9091,1.4841
3599311.0,11.904,11.5592,25.1295,-0.2075,-5.5228,1.7496
3599321.0,12.7084,11.0804,23.377,-0.1878,-5.2461,1.996
3599331.0,12.5935,10.6111,21.883,-0.1586,-4.9715,2.1902
3599341.0,14.2694,9.9503,19.7474,-0.0937,-4.5889,2.3908
3599351.0,15.2654,9.5672,17.2191,-0.2469,-4.1159,2.5392
3599361.0,15.7155,9.347,15.5432,-0.3459,-3.5375,2.6558
3599371.0,15.3133,9.73,13.9438,-0.5938,-2.801,2.8005
3599381.0,15.6102,10.1227,13.2735,-0.6933,-1.9465,3.0224
3599391.0,15.524,10.2185,13.8002,-0.7056,-1.1861,3.3167
3599401.0,15.6868,10.2568,13.7044,-0.7588,-0.6103,3.6423
3599411.0,15.8209,10.5728,13.1202,-1.0025,-0.1341,3.9461
3599421.0,15.6581,10.2089,12.5169,-1.2968,0.3336,4.2484
3599431.0,15.0547,9.9503,11.4539,-1.3963,1.0722,4.5884
3599441.0,14.5472,9.3853,11.3485,-1.2813,2.0396,4.9284
3599451.0,13.3884,8.9256,11.8082,-1.1345,3.1065,5.3142
3599461.0,12.9861,8.0732,13.0053,-0.7779,4.2048,5.6766
3599471.0,12.8329,6.924,15.3708,-0.4448,5.194,5.9692
3599481.0,11.6741,6.1483,18.1385,-0.2112,5.7665,6.2002
3599491.0,10.7356,5.3726,19.6612,-0.0239,6.0714,6.3806
3599501.0,10.3046,5.7269,18.8567,0.1628,6.6126,6.57
3599511.0,8.0924,6.4739,19.0483,0.4188,7.5225,6.8488
3599521.0,5.2672,7.5369,19.9006,0.7019,8.5218,7.2979
3599531.0,3.8882,6.9145,23.9707,1.2733,9.8755,7.8699
3599541.0,2.8443,5.2768,29.0848,2.3317,10.8434,8.2765
3599551.0,1.9537,3.2274,33.6242,2.9474,11.1893,8.5548
3599561.0,1.5897,1.9728,35.4438,3.1554,11.0376,8.625
3599571.0,0.3831,0.3065,37.7709,3.0676,10.7849,8.5191
3599581.0,-1.2641,0.8428,37.2921,2.9671,10.8035,8.4143
3599591.0,-2.5857,1.0822,38.9106,2.9639,11.3265,8.4297
3599601.0,-4.2234,1.3791,41.2665,2.8292,11.7352,8.492
3599611.0,-4.6926,1.0534,45.3653,2.3094,11.7118,8.5074
3599621.0,-5.43,-0.0958,51.2359,1.7336,11.0275,8.4526
3599631.0,-5.6503,-1.6376,55.2199,1.292,9.8882,8.2738
3599641.0,-5.9759,-1.7238,54.0994,1.0658,8.9368,7.9854
3599651.0,-7.2496,-0.7278,53.2087,0.6029,8.526,7.7896
3599661.0,-8.5617,0.2298,52.4809,0.0745,8.4042,7.7374
3599671.0,-9.7971,0.9768,54.2143,-0.5773,8.2339,7.7609
3599681.0,-9.6055,0.6895,57.7098,-0.9823,7.8817,7.8189
3599691.0,-8.9352,0.3639,61.8949,-0.8125,7.1521,7.7731
3599701.0,-9.0309,0.1532,63.8007,-0.2107,5.9304,7.7162
3599711.0,-10.8314,0.8619,60.9468,0.39,4.739,7.6417
3599721.0,-11.6454,3.1125,53.5727,0.7891,4.4751,7.6582
3599731.0,-13.5703,5.5258,48.8992,0.7152,5.1716,7.8928
3599741.0,-14.8441,5.2289,50.3644,0.1527,5.974,8.3116
3599751.0,-14.9015,3.8595,55.3348,-0.0702,6.1597,8.5755
3599761.0,-14.8824,2.9688,61.0043,0.0,5.6255,8.7671
3599771.0,-14.1545,2.1931,65.0744,0.7865,5.0194,8.9368
3599781.0,-14.4131,1.4653,66.396,1.5671,4.3724,9.1523
3599791.0,-13.9534,-0.1628,66.0512,2.3764,3.5965,9.2332
3599801.0,-14.2599,-0.9577,62.9962,2.4094,3.0384,9.1885
3599811.0,-14.2407,-1.81,61.4065,1.6932,2.5201,9.0576
3599821.0,-14.4418,-2.6815,61.3299,0.7056,2.0199,8.8788
3599831.0,-15.0739,-3.3615,64.4328,0.299,1.5,8.724
3599841.0,-13.9343,-4.3479,66.9515,0.7444,0.8205,8.5819
3599851.0,-13.5991,-5.7652,68.0241,1.6464,0.2528,8.36
3599861.0,-12.6222,-6.7804,66.5109,2.3711,-0.1995,8.0562
3599871.0,-12.3924,-7.1539,66.3002,2.6568,-0.7226,7.73
3599881.0,-12.22,-7.9487,66.1183,2.7553,-1.2414,7.3346
3599891.0,-11.9806,-7.3837,65.9746,2.4514,-1.7645,6.8813
3599901.0,-11.6167,-6.7133,69.2116,1.939,-2.6648,6.4987
3599911.0,-11.1857,-5.9568,71.0503,1.7884,-3.9499,6.131
3599921.0,-10.6494,-5.3534,70.7247,1.8587,-5.3951,5.8979
3599931.0,-10.2568,-5.5833,66.9419,1.9082,-6.6706,5.651
3599941.0,-9.6247,-5.6312,62.1822,1.7581,-7.6991,5.3898
3599951.0,-9.5098,-6.359,57.2118,1.4665,-8.3637,5.0913
3599961.0,-7.7764,-6.857,53.0076,1.2904,-8.3701,4.6853
3599971.0,-6.7995,-6.4739,52.5767,1.0765,-8.3175,4.2356
3599981.0,-6.79,-5.5833,53.1896,0.647,-9.0789,3.8637
3599991.0,-6.2153,-5.3822,51.0635,0.4422,-10.0165,3.5391
3600001.0,-4.798,-5.7652,45.4611,0.315,-10.3863,3.2225
3600011.0,-2.873,-6.6367,40.6152,0.2543,-10.1591,2.8133
3600021.0,-2.0016,-7.2496,38.8723,0.0841,-9.8499,2.3945
3600031.0,-0.182,-7.4986,37.1197,0.2357,-9.6025,1.922
3600041.0,0.9002,-7.8434,35.2426,0.2017,-9.3774,1.4862
3600051.0,2.5091,-9.2129,34.0647,0.282,-9.0566,1.0286
3600061.0,3.8978,-9.9407,32.4558,0.3523,-8.8751,0.4454
3600071.0,5.6216,-10.7739,30.0424,0.3656,-8.6835,-0.2102
3600081.0,6.6176,-10.4962,27.4567,0.265,-8.2318,-0.9498
3600091.0,7.0198,-9.098,25.5126,0.1117,-7.855,-1.6378
3600101.0,7.7668,-6.5027,22.381,-0.2613,-7.2942,-2.1274
3600111.0,9.0788,-4.616,21.567,-0.8242,-6.5014,-2.4222
3600121.0,9.4332,-3.1125,21.7585,-1.4644,-6.0922,-2.6196
3600131.0,10.7069,-2.4325,20.9445,-2.188,-5.6606,-2.7532
3600141.0,11.4539,-2.6624,20.3316,-3.1911,-5.1296,-2.8888
3600151.0,12.3828,-3.371,21.2509,-4.0228,-4.8305,-3.0847
3600161.0,13.6086,-4.0223,21.7106,-4.7379,-4.4117,-3.38
3600171.0,13.6086,-4.4724,23.8654,-4.8204,-4.084,-3.7344
3600181.0,13.9726,-3.8211,24.2389,-4.4793,-3.8653,-4.0632
3600191.0,14.0492,-2.739,23.8846,-3.7429,-3.4832,-4.3436
3600201.0,13.6565,-0.8523,21.9309,-3.0559,-3.0788,-4.4894
3600211.0,14.528,0.431,19.7282,-2.4844,-2.3589,-4.4942
3600221.0,14.3365,1.5323,17.6501,-2.3408,-1.5873,-4.3952
3600231.0,14.9111,0.3065,18.0044,-2.2556,-0.7253,-4.3234
3600241.0,15.208,-1.312,18.6556,-2.1588,0.0303,-4.3963
3600251.0,15.3516,-3.055,20.5518,-2.1418,0.4087,-4.648
3600261.0,15.4282,-3.9552,21.1935,-2.2876,0.6577,-5.062
3600271.0,14.5855,-4.051,22.9939,-2.3413,0.5763,-5.5308
3600281.0,14.2024,-3.0167,21.5765,-2.369,0.522,-5.9442
3600291.0,13.8098,-0.5459,18.7705,-2.6696,0.9179,-6.2592
3600301.0,12.6893,1.3599,16.8935,-3.3369,1.4191,-6.3758
3600311.0,11.7699,2.241,17.2957,-3.7354,2.1556,-6.3848
3600321.0,10.6686,3.2848,16.9701,-4.0627,3.0091,-6.3119
3600331.0,9.9216,2.5857,19.757,-3.8014,3.8802,-6.2177
3600341.0,8.4659,2.0111,21.4329,-3.1357,4.6805,-6.1784
3600351.0,8.0349,2.2505,21.6627,-2.3264,5.5659,-6.23
3600361.0,6.7229,3.1891,22.4289,-1.7262,6.512,-6.2401
3600371.0,5.4492,5.5354,22.9269,-1.6384,7.3096,-6.1858
3600381.0,4.0893,8.1499,23.3866,-2.1769,7.9045,-5.9299
3600391.0,2.873,10.161,25.7999,-3.1544,8.3419,-5.4776
3600401.0,1.8579,10.1323,30.1957,-4.0515,8.4595,-4.9162
3600411.0,1.1109,8.3031,34.9649,-4.7965,8.3143,-4.3873
3600421.0,0.3926,5.3247,38.8244,-4.8635,7.9902,-4.0318
3600431.0,0.68,2.6911,41.9464,-4.0898,7.9386,-3.9382
3600441.0,0.2969,2.2218,43.335,-2.8159,8.0737,-3.9259
3600451.0,-0.4405,3.6392,43.2584,-1.6607,8.1615,-3.9243
3600461.0,-1.3982,7.1635,41.6112,-1.2036,8.2717,-3.7711
3600471.0,-3.0933,11.0612,40.3854,-1.7693,8.1993,-3.2794
3600481.0,-4.6448,11.5975,41.64,-2.7968,8.3047,-2.411
3600491.0,-5.43,5.7844,46.888,-3.0714,8.1466,-1.7432
3600501.0,-5.2385,-0.814,50.7954,-2.8654,7.8103,-1.5357
3600511.0,-3.3806,-6.9528,53.5152,-1.8746,7.7843,-1.9262
3600521.0,-3.1987,-11.0325,57.7577,-0.2043,7.5885,-2.7234
3600531.0,-3.122,-10.9176,58.7537,1.6043,7.1606,-3.6828
3600541.0,-3.8116,-7.5465,57.0873,2.6669,6.4982,-4.4368
3600551.0,-5.6312,-2.4804,52.8257,2.7069,5.7904,-4.8066
3600561.0,-6.9049,0.6129,48.8321,1.8039,5.4733,-4.7917
3600571.0,-9.0788,-0.1915,48.7938,0.9935,5.6191,-4.6666
3600581.0,-9.2512,-5.1523,51.5998,0.7322,5.8894,-4.8188
3600591.0,-10.1897,-9.0214,54.3963,0.4108,5.8852,-5.4456
3600601.0,-9.1554,-11.1953,58.7346,0.0399,5.5574,-6.3965
3600611.0,-9.4715,-9.098,62.0769,-0.0192,4.9359,-7.3501
3600621.0,-10.228,-5.1427,64.9116,-0.1479,4.1638,-8.0062
3600631.0,-10.7452,-0.3256,65.7831,-0.4826,3.3385,-8.3089
3600641.0,-11.6933,3.7062,66.2332,-1.11,2.3929,-8.2962
3600651.0,-12.6127,6.6942,67.5931,-1.9459,1.3771,-8.0498
3600661.0,-13.2639,7.6614,69.5947,-2.4637,0.331,-7.6869
3600671.0,-13.3309,7.3454,70.7726,-2.4131,-0.7982,-7.3634
3600681.0,-12.7659,5.9664,70.9258,-1.8778,-1.8337,-7.1601
3600691.0,-12.3158,5.4779,68.8955,-1.1286,-2.6962,-7.0516
3600701.0,-11.8178,5.296,67.2579,-0.049,-3.4045,-6.9372
3600711.0,-11.1953,5.5067,65.8884,1.3798,-3.8695,-6.8222
3600721.0,-11.1474,6.4739,62.9675,2.5786,-4.4532,-6.6567
3600731.0,-11.0133,7.1826,57.9397,3.2975,-5.0317,-6.4529
3600741.0,-10.8888,9.2129,52.0883,3.0942,-5.211,-6.2576
3600751.0,-11.1666,10.8314,49.0045,2.0236,-5.5063,-5.9953
3600761.0,-10.7739,11.3006,47.7978,1.0488,-5.7154,-5.7702
3600771.0,-9.979,11.2527,47.3956,0.3464,-5.6835,-5.5106
3600781.0,-9.3278,10.6398,47.5872,0.29,-5.5962,-5.2695
3600791.0,-8.5042,10.1418,48.2671,0.5997,-5.3461,-5.0588
3600801.0,-7.2113,9.6343,50.7188,1.441,-4.9598,-4.905
3600811.0,-6.7708,9.6917,52.1553,2.2971,-4.9481,-4.7209
3600821.0,-6.2153,10.4291,52.2223,2.6563,-5.0753,-4.5442
3600831.0,-5.9951,11.1857,52.4426,1.9316,-5.675,-4.3245
3600841.0,-5.43,11.8752,52.2223,0.6683,-6.6014,-4.117
3600851.0,-4.5969,12.1338,51.6477,-0.6369,-7.3277,-3.9217
3600861.0,-4.6543,11.4156,52.9789,-1.4388,-7.8226,-3.6812
3600871.0,-3.8403,9.7683,53.86,-1.2494,-8.2094,-3.537
3600881.0,-2.806,8.9064,53.5822,-1.1605,-8.7176,-3.5157
3600891.0,-2.5187,9.481,52.2127,-1.1893,-9.5307,-3.5034
3600901.0,-1.7142,11.2049,48.1522,-1.3899,-10.2629,-3.4289
3600911.0,-1.1492,12.5456,44.1012,-1.6911,-10.4725,-3.1969
3600921.0,-1.2929,13.6469,40.8259,-2.0258,-10.6215,-2.8489
3600931.0,-0.747,13.3309,37.4836,-1.8821,-10.4283,-2.4387
3600941.0,1.0056,12.0285,35.3576,-1.3808,-9.6946,-2.0093
3600951.0,2.988,11.2815,33.1262,-0.8812,-9.0204,-1.699
3600961.0,4.3862,10.6781,31.3257,-0.8971,-8.5899,-1.4569
3600971.0,5.6503,10.726,30.0041,-1.1456,-8.236,-1.284
3600981.0,6.7229,10.8601,28.558,-1.5458,-7.978,-1.0818
3600991.0,7.1156,11.0995,27.6195,-1.8363,-7.7534,-0.87
3601001.0,8.9352,11.224,26.1734,-2.1018,-7.4661,-0.6167
3601011.0,10.4387,11.1378,25.5797,-2.3253,-7.2862,-0.3986
3601021.0,11.2432,10.7931,24.1336,-2.5946,-7.2394,-0.2357
3601031.0,12.2392,10.9559,21.318,-3.0176,-7.0361,-0.1437
3601041.0,12.785,11.6167,20.1688,-3.5231,-6.7892,-0.0106
3601051.0,12.7563,12.6127,18.3492,-3.8397,-6.6248,0.1256
3601061.0,12.5839,13.4363,16.3668,-4.1803,-6.313,0.3693
3601071.0,12.5073,13.963,15.093,-4.2659,-5.7245,0.7269
3601081.0,12.6893,13.9343,14.4897,-3.8541,-4.9258,1.2122
3601091.0,13.5608,13.6853,13.1298,-3.2571,-3.8562,1.7507
3601101.0,14.0779,12.8138,13.8098,-2.4413,-2.7069,2.2551
3601111.0,14.7962,12.2104,14.1833,-1.8177,-1.6809,2.742
3601121.0,14.9685,11.6933,14.5184,-1.3819,-0.7748,3.1905
3601131.0,15.1218,11.8178,15.2942,-1.1068,-0.0495,3.6226
3601141.0,15.208,11.8657,16.4434,-0.878,0.5076,4.1058
3601151.0,14.9302,11.8944,15.9933,-0.8455,0.9578,4.6044
3601161.0,14.0588,12.3541,15.0643,-1.0573,1.5298,5.1801
3601171.0,13.149,12.0764,15.4378,-1.1829,2.4083,5.8048
3601181.0,12.1338,11.473,16.9893,-0.8386,3.4603,6.4923
3601191.0,11.0421,9.5481,20.2358,-0.1437,4.532,7.1777
3601201.0,10.6973,7.288,22.7258,0.9179,5.5441,7.7923
3601211.0,10.1706,5.2768,24.8231,1.8863,6.255,8.2467
3601221.0,10.161,4.1468,25.7425,2.2977,6.7738,8.5532
3601231.0,9.9311,2.4229,27.4759,2.5632,6.9286,8.6772
3601241.0,9.3374,1.5036,27.677,2.0513,6.653,8.6825
3601251.0,7.3933,1.9249,25.7425,1.2521,6.5333,8.667
3601261.0,4.7214,2.2027,26.3841,0.4762,6.7275,8.8097
3601271.0,3.5434,1.8771,28.6155,0.5252,7.5592,9.1183
3601281.0,2.5091,0.2777,31.728,1.3611,8.2227,9.3678
3601291.0,1.245,-1.3791,35.0032,2.1093,8.6564,9.4423
3601301.0,1.5036,-3.1412,37.1867,2.2971,8.5846,9.3077
3601311.0,0.9098,-3.4572,36.9952,2.1987,7.8364,8.9751
3601321.0,-1.1779,-1.561,34.0455,1.682,7.4363,8.7671
3601331.0,-4.0127,2.4612,29.9179,0.8062,8.0567,8.9922
3601341.0,-7.3071,3.1029,34.2084,0.4746,9.3615,9.6621
3601351.0,-8.5521,0.8715,40.5961,1.3329,10.5475,10.3214
3601361.0,-9.7205,-1.8387,48.0468,2.3003,11.2898,10.754
3601371.0,-9.5672,-5.3534,55.7945,3.4566,11.2685,10.8998
3601381.0,-7.9487,-7.7955,61.1096,4.6682,10.6263,10.7088
3601391.0,-8.169,-8.6862,62.7664,5.5239,9.6398,10.3416
3601401.0,-9.9982,-7.671,62.2301,5.7771,8.782,9.9893
3601411.0,-11.5401,-5.2768,59.9029,5.4036,8.1961,9.8175
3601421.0,-13.2447,-3.7158,58.476,4.1622,7.6566,9.8946
3601431.0,-13.2735,-4.7214,60.5158,2.958,7.4581,10.0468
3601441.0,-13.0723,-7.3837,63.772,1.9693,6.6828,10.0436
3601451.0,-11.5975,-10.7069,67.1526,1.5474,5.6329,9.7717
3601461.0,-11.3677,-12.9957,69.202,1.6123,4.4421,9.3178
3601471.0,-10.6111,-14.1162,67.3537,2.0188,3.4449,8.7219
3601481.0,-10.8984,-13.3884,64.2508,2.0912,2.7925,8.1637
3601491.0,-11.157,-11.9327,60.2477,1.6442,2.3333,7.763
3601501.0,-10.8984,-11.0325,58.7154,1.0275,2.1386,7.4459
3601511.0,-10.7452,-10.6973,58.9069,0.4305,1.8635,7.1952
3601521.0,-10.161,-10.3334,59.9221,0.2815,1.4644,6.9574
3601531.0,-9.232,-10.2089,60.8702,0.5247,0.9083,6.7419
3601541.0,-9.4619,-10.5632,60.3243,0.9929,0.2884,6.5359
3601551.0,-8.849,-11.1953,59.5773,1.7964,0.1112,6.2688
3601561.0,-8.5712,-10.8888,58.6292,2.4706,-0.0516,5.9703
3601571.0,-7.92,-10.6973,58.3132,2.8415,-0.4055,5.6973
3601581.0,-7.5561,-10.0652,57.1448,2.9,-0.8205,5.4206
3601591.0,-6.9623,-9.8641,57.231,2.9889,-1.2851,5.2019
3601601.0,-6.7708,-10.0269,57.164,3.2544,-1.5995,4.9753
3601611.0,-6.359,-11.4826,57.6524,3.8227,-1.8496,4.6746
3601621.0,-5.7365,-11.3294,55.5838,4.2856,-2.0838,4.2377
3601631.0,-4.3191,-10.3813,55.3252,4.1058,-2.054,3.8089
3601641.0,-4.4053,-9.3087,56.3882,3.3544,-2.6132,3.4156
3601651.0,-3.8882,-8.2744,57.0203,2.4706,-3.4018,3.0309
3601661.0,-3.2657,-8.0828,57.1735,1.5559,-4.1904,2.6776
3601671.0,-2.5857,-8.8011,56.7234,0.8982,-4.9577,2.2572
3601681.0,-1.4365,-9.7683,56.0243,0.5108,-5.4345,1.7123
3601691.0,-1.8387,-10.0173,55.8328,0.2735,-5.8649,1.1206
3601701.0,-1.0343,-9.7492,55.5263,0.4544,-6.2177,0.5263
3601711.0,-0.5555,-8.8394,54.923,0.6013,-6.3758,-0.0027
3601721.0,-0.8523,-7.6998,54.4729,0.7343,-6.8302,-0.48
3601731.0,-0.68,-6.3303,54.0611,0.8189,-7.2383,-0.9035
3601741.0,-0.7183,-5.2768,53.0076,0.7774,-7.598,-1.218
3601751.0,-0.0575,-4.9033,52.6054,0.9051,-7.9253,-1.5011
3601761.0,-0.3256,-4.5681,52.0499,0.8955,-8.4558,-1.814
3601771.0,0.067,-3.7733,50.4027,0.7966,-9.1875,-2.1657
3601781.0,0.5746,-2.1261,46.7252,0.3986,-9.7105,-2.4403
3601791.0,0.1245,-0.565,43.7085,-0.009,-10.0867,-2.634
3601801.0,0.0862,1.5036,38.7382,-0.6518,-10.0431,-2.7292
3601811.0,0.6225,3.0167,36.7845,-1.4309,-9.8201,-2.6728
3601821.0,1.4365,4.0223,36.1812,-1.9736,-9.6727,-2.5557
3601831.0,2.5474,4.5203,35.1852,-2.303,-9.3742,-2.3322
3601841.0,4.1084,3.4189,35.3576,-2.2322,-8.9778,-2.112
3601851.0,5.5545,1.5706,35.1469,-2.0587,-8.8442,-2.0242
3601861.0,6.8187,-0.1724,34.8787,-1.7783,-8.8634,-2.0609
3601871.0,7.7381,-1.3982,33.3847,-1.3686,-8.9278,-2.2099
3601881.0,8.6766,-1.4844,29.985,-0.9041,-8.823,-2.3844
3601891.0,9.5289,-1.6855,26.432,-0.4581,-8.5473,-2.5611
3601901.0,10.8888,-1.6568,21.7681,-0.2666,-8.1365,-2.7303
3601911.0,11.5113,-1.4174,17.5064,-0.4055,-7.5991,-2.8787
3601921.0,11.9997,-1.5036,13.8289,-0.8179,-6.7509,-2.9617
3601931.0,12.8233,-3.0263,12.3637,-0.9663,-5.592,-3.0948
3601941.0,13.9151,-4.6831,11.7124,-1.1009,-4.4783,-3.3518
3601951.0,15.5432,-6.7133,12.3924,-0.9477,-3.289,-3.7876
3601961.0,17.0371,-6.9145,11.6837,-1.2207,-2.3456,-4.4282
3601971.0,17.0563,-6.2441,11.9423,-2.0183,-1.6288,-5.0529
3601981.0,16.3189,-4.0031,13.0915,-3.066,-1.1004,-5.5686
3601991.0,15.1888,-1.5419,15.4953,-4.0834,-0.6779,-5.8916
3602001.0,15.0069,0.1628,17.0754,-4.5384,-0.4438,-6.0028
3602011.0,15.1026,1.4557,16.5296,-4.8023,0.1096,-5.9937
3602021.0,14.5663,1.3312,17.1616,-4.9423,0.8184,-5.9682
3602031.0,14.6621,1.063,18.761,-4.7683,1.6059,-6.0469
3602041.0,14.7387,0.6321,20.887,-4.2846,2.2833,-6.2087
3602051.0,14.5089,0.9481,22.5534,-4.1026,2.6957,-6.3832
3602061.0,14.2024,2.2889,23.8941,-4.1127,2.8175,-6.5359
3602071.0,12.8521,3.7254,24.8039,-4.2558,2.6473,-6.6083
3602081.0,12.9191,5.6216,23.0418,-4.3984,2.8287,-6.5774
3602091.0,12.0572,7.5753,21.5478,-4.7076,3.2145,-6.3689
3602101.0,11.7507,8.5712,21.0881,-5.054,3.8855,-6.0842
3602111.0,9.7205,9.7588,21.6915,-5.1977,4.4751,-5.6542
3602121.0,8.8011,8.8011,24.2102,-5.153,5.2477,-5.1865
3602131.0,8.6191,7.9583,26.8629,-4.4022,6.1124,-4.8007
3602141.0,8.2361,5.9664,30.7607,-3.272,6.7876,-4.515
3602151.0,7.0677,5.4396,31.7663,-2.2455,7.282,-4.3804
3602161.0,6.9049,5.2194,33.1262,-1.2765,7.8423,-4.25
3602171.0,6.1579,6.2728,34.5914,-0.2714,8.3685,-4.1042
3602181.0,6.3686,7.5848,35.3576,0.422,8.9608,-3.8695
3602191.0,4.7597,9.1363,36.8516,0.472,9.2423,-3.5199
3602201.0,2.9113,8.8681,40.213,0.3235,9.4024,-3.099
3602211.0,2.2122,7.4029,44.2736,0.315,9.3082,-2.7776
3602221.0,2.5379,4.8746,48.0564,0.6077,9.0044,-2.6382
3602231.0,2.7294,2.5762,49.8281,0.6359,8.4159,-2.7675
3602241.0,2.7964,1.5131,50.4793,0.1873,7.7949,-3.0394
3602251.0,1.4269,1.3024,51.5519,-0.4576,6.9547,-3.3486
3602261.0,1.4365,2.0303,50.5177,-0.9903,6.3045,-3.6476
3602271.0,0.565,4.1851,48.8704,-1.648,6.0001,-3.7924
3602281.0,-1.0918,5.5929,48.8226,-2.2455,5.9884,-3.7163
3602291.0,-0.8428,4.8076,51.8009,-2.2056,6.2683,-3.5375
3602301.0,-1.4174,3.4285,56.1871,-1.955,6.2241,-3.4742
3602311.0,-0.9385,0.431,60.8606,-1.6873,5.5579,-3.529
3602321.0,-0.4597,-1.4748,63.2548,-1.0344,4.7278,-3.7945
3602331.0,-0.3543,-3.0071,64.6722,-0.323,3.7823,-4.2564
3602341.0,-0.7087,-2.5474,62.4504,0.298,2.8963,-4.8151
3602351.0,-1.5227,-0.0862,59.3762,0.4613,2.3344,-5.2743
3602361.0,-2.5953,3.4477,57.164,-0.1155,1.9066,-5.5446
3602371.0,-3.4764,5.8802,56.3595,-1.4021,1.3292,-5.6143
3602381.0,-3.553,6.4069,57.8726,-2.8755,0.5353,-5.6127
3602391.0,-3.3423,5.8419,58.9452,-4.0659,-0.3964,-5.6526
3602401.0,-3.1508,4.8171,60.2668,-4.615,-1.1329,-5.7761
3602411.0,-3.2657,4.8267,60.0562,-4.6347,-1.7299,-5.8985
3602421.0,-3.3423,5.3151,59.5199,-4.1909,-2.237,-5.9746
3602431.0,-3.4572,5.8131,58.0546,-3.5279,-2.6999,-5.9868
3602441.0,-3.4668,7.173,55.8041,-3.0416,-3.098,-5.9442
3602451.0,-2.9018,8.6862,53.0651,-2.692,-3.4545,-5.8187
3602461.0,-3.4668,10.161,51.1114,-2.2833,-3.5832,-5.6111
3602471.0,-3.4381,11.6071,48.6789,-1.9954,-3.687,-5.2551
3602481.0,-3.2465,12.8233,45.5664,-1.6586,-3.6354,-4.8039
3602491.0,-2.2027,13.6374,43.1052,-1.5431,-3.3874,-4.2681
3602501.0,-1.6281,13.9055,41.4484,-1.5862,-3.1161,-3.6556
3602511.0,-0.6608,13.2639,40.3375,-1.773,-2.9234,-3.0836
3602521.0,0.0287,12.3541,39.8012,-1.9369,-2.734,-2.5776
3602531.0,1.1013,11.2336,39.8395,-2.0587,-2.4222,-2.0864
3602541.0,1.6089,9.5002,40.9408,-1.9119,-2.2929,-1.6868
3602551.0,2.557,8.0158,40.7876,-1.583,-2.2045,-1.3638
3602561.0,3.3423,6.79,40.4237,-1.3164,-2.0646,-1.0828
3602571.0,3.7254,5.5929,39.9736,-1.0451,-2.0343,-0.9115
3602581.0,4.3096,4.798,39.0063,-0.8179,-1.9145,-0.796
3602591.0,4.549,4.4245,37.4932,-0.622,-1.6687,-0.6811
3602601.0,4.549,3.7158,37.0814,-0.4715,-1.5006,-0.5475
3602611.0,4.5203,3.735,35.6353,-0.1607,-1.0967,-0.4667
3602621.0,5.0087,3.8978,35.1086,-0.1804,-0.5587,-0.3427
3602631.0,4.9704,3.6105,35.8747,-0.4262,-0.2325,-0.2251
3602641.0,4.9512,3.1699,36.5738,-0.746,-0.1181,-0.1171
3602651.0,5.1811,2.7677,37.0814,-1.019,0.1155,-0.0234
3602661.0,5.4588,2.308,38.6328,-1.4122,0.1793,0.0654
3602671.0,5.545,1.8962,40.4333,-1.6304,0.0585,0.1038
3602681.0,5.6695,1.4653,41.4101,-1.5277,0.0229,0.1469
3602691.0,5.7748,1.1396,42.8371,-1.3303,-0.1176,0.1852
3602701.0,5.8227,1.0726,42.7892,-0.8987,-0.3533,0.241
3602711.0,5.4971,1.0918,42.4923,-0.3666,-0.4198,0.332
3602721.0,5.5737,1.2833,40.8259,0.125,-0.3783,0.4576
3602731.0,5.5545,1.312,39.3798,0.3863,-0.2373,0.6071
3602741.0,5.861,0.9577,37.7901,0.5023,-0.0293,0.7402
3602751.0,5.6312,0.9385,36.3057,0.2352,0.2629,0.845
3602761.0,5.9664,0.5076,36.7175,-0.2645,0.4252,0.9131
3602771.0,6.0717,0.0287,37.6081,-0.5449,0.5699,0.97
3602781.0,6.0142,-0.249,38.6424,-0.6933,0.7524,1.0206
3602791.0,5.9185,-0.3926,39.7342,-0.7801,0.8226,1.0823
3602801.0,6.11,-0.9385,40.711,-0.7811,0.9179,1.1478
3602811.0,5.7365,-1.245,42.2912,-0.4635,1.0052,1.1983
3602821.0,5.2864,-2.1356,43.4691,0.0521,0.9903,1.2356
3602831.0,5.9855,-2.6528,43.1244,0.4954,1.0451,1.2217
3602841.0,5.9376,-3.0933,42.8945,0.7333,0.9418,1.152
3602851.0,6.2632,-3.2082,42.2241,0.8775,0.8817,1.0605
3602861.0,5.7844,-3.1508,40.9313,0.7168,0.8285,0.9695
3602871.0,5.5737,-2.7102,40.8355,0.5821,0.8338,0.8977
3602881.0,5.6982,-2.1356,39.7821,0.2613,0.9791,0.8844
3602891.0,5.4684,-2.5762,40.9696,0.0452,1.1105,0.9057
3602901.0,5.0374,-3.1987,42.0996,-0.0899,1.0147,0.8695
3602911.0,5.1811,-3.7637,43.1818,-0.1336,0.9333,0.7716
3602921.0,5.2672,-3.8595,43.8809,-0.1208,0.8317,0.6268
3602931.0,5.1906,-3.735,44.2065,-0.0351,0.6848,0.4933
3602941.0,5.0661,-3.5913,44.0725,0.0745,0.6013,0.3991
3602951.0,4.9416,-3.0358,43.9575,0.1368,0.4938,0.3294
3602961.0,4.7309,-2.7198,43.3159,0.0702,0.3656,0.273
3602971.0,4.4724,-2.4804,42.3103,0.0447,0.364,0.2671
3602981.0,4.7118,-2.5091,42.3295,-0.0899,0.4353,0.2416
3602991.0,4.9225,-2.5187,42.521,-0.3496,0.3751,0.1868
3603001.0,4.798,-2.2697,42.3295,-0.5917,0.2927,0.1463
3603011.0,5.0087,-2.4134,42.9137,-0.6737,0.2373,0.0952
3603021.0,4.8937,-2.4421,42.9424,-0.6657,0.1905,0.0575
3603031.0,4.9321,-2.1931,43.2201,-0.6119,0.0873,0.0096
3603041.0,4.9799,-2.7294,43.1818,-0.3656,0.0388,-0.0575
