time_ms,ax,ay,az,gx,gy,gz
3326321.0,-7.4412,11.7699,33.7199,-1.2659,0.5736,0.4528
3326331.0,-6.5314,10.2185,32.2355,-1.4724,0.9706,0.4975
3326341.0,-6.4069,9.3948,30.2914,-1.889,1.6107,0.4401
3326351.0,-7.1156,8.3797,32.5994,-2.2242,2.1774,0.3209
3326361.0,-29.3912,16.8169,47.3094,-3.7572,-0.1016,0.3267
3326371.0,2.9305,-3.304,67.6601,-0.4049,-0.4076,0.0819
3326381.0,-4.5107,0.9098,57.9397,-2.0891,1.1797,0.0867
3326391.0,-8.8681,12.9287,35.3767,-0.8296,0.5103,0.2597
3326401.0,-9.3278,9.4044,39.4277,-0.2559,0.2192,0.6955
3326411.0,-8.2361,8.9256,40.644,-1.0802,0.2682,1.0499
3326421.0,-4.6352,7.7955,38.2306,-0.4832,0.3943,1.2898
3326431.0,-6.0334,3.5243,41.4197,-0.4507,1.0536,1.4042
3326441.0,-5.861,1.4078,41.6878,0.1804,1.6852,1.2047
3326451.0,-6.3973,0.4501,43.9001,0.6327,2.0699,0.8477
3326461.0,-6.043,0.9864,46.6582,0.8461,2.6872,0.4704
3326471.0,-10.0556,4.0797,49.9909,0.9807,2.817,0.1761
3326481.0,-9.5672,7.3263,53.5727,0.8402,3.2273,0.0835
3326491.0,-11.5688,9.9599,59.9508,0.3773,3.0958,0.1846
3326501.0,-12.6988,11.6262,66.2811,0.1213,2.7175,0.4161
3326511.0,-14.9111,13.4075,71.3951,-0.1841,2.0651,0.7615
3326521.0,-15.2846,13.3309,77.4859,0.0074,1.0621,1.1552
3326531.0,-16.6158,13.7906,77.9456,-0.7019,0.0825,1.5224
3326541.0,-16.5679,11.7986,78.4508,-1.6128,-1.3106,1.6251
3326551.0,-17.0946,9.6247,78.4508,-3.1698,-2.7329,1.5314
3326561.0,-18.0427,7.2018,78.4508,-4.2356,-4.1936,1.3287
3326571.0,-18.1002,5.0278,78.4508,-4.7225,-5.8367,0.9775
3326581.0,-18.4545,3.6296,78.4508,-4.6613,-7.4102,0.6183
3326591.0,-18.6077,4.367,78.4508,-4.1345,-8.7165,0.2528
3326601.0,-20.0634,6.5314,78.4508,-3.8323,-9.8127,0.0208
3326611.0,-21.2509,10.1323,78.4508,-3.7844,-10.7428,-0.0511
3326621.0,-22.6013,12.153,78.4508,-4.2409,-11.9076,0.0357
3326631.0,-24.2772,12.2392,78.4508,-4.2675,-13.4795,0.1639
3326641.0,-24.7177,11.1282,77.4764,-3.5194,-14.8651,0.3597
3326651.0,-25.1966,9.4715,73.8276,-2.3296,-16.3688,0.4688
3326661.0,-25.5222,9.1363,66.6258,-1.5256,-17.4363,0.4895
3326671.0,-25.7137,9.1363,57.1065,-1.8182,-17.4363,0.3645
3326681.0,-25.5797,9.9311,44.6567,-3.0346,-17.4363,0.0921
3326691.0,-26.6139,11.1953,35.9513,-4.8289,-17.4363,-0.2192
3326701.0,-26.4224,12.0572,27.0832,-6.0198,-17.4363,-0.4422
3326711.0,-23.3961,12.6605,14.9398,-6.8196,-17.4363,-0.5997
3326721.0,-20.4273,13.3884,2.6049,-7.4639,-17.4363,-0.6816
3326731.0,-14.5184,14.1928,-7.2113,-8.0232,-17.4363,-0.6827
3326741.0,-10.5058,14.4322,-12.3253,-7.8907,-17.4363,-0.5571
3326751.0,-4.7405,14.3652,-13.5991,-7.1005,-16.057,-0.3203
3326761.0,-1.3024,13.4841,-11.4443,-4.8922,-14.0701,0.0819
3326771.0,3.1508,11.3389,-13.9151,-2.2487,-11.955,0.646
3326781.0,7.5369,8.1211,-17.1521,0.1165,-9.3391,1.119
3326791.0,13.3596,2.3272,-17.6022,2.0705,-6.0799,1.3957
3326801.0,16.3859,-2.5187,-13.0436,3.0825,-3.529,1.2568
3326811.0,18.3779,-5.2864,-4.6639,3.5077,-2.1886,0.8216
3326821.0,20.7721,-4.1755,0.5459,3.5375,-1.2212,0.4374
3326831.0,21.1169,-2.8156,5.8706,3.8674,-1.2606,0.1953
3326841.0,21.1456,-0.8906,5.4875,2.8761,-1.1701,0.0995
3326851.0,22.1416,-1.1492,5.6216,1.9145,-1.176,0.0128
3326861.0,23.9516,-3.055,6.8187,1.2318,-0.4613,-0.0458
3326871.0,25.3019,-5.679,12.0285,1.6123,0.3225,-0.2772
3326881.0,25.2732,-6.541,17.3628,2.6185,0.8157,-0.5364
3326891.0,24.689,-5.9664,18.33,3.7434,0.63,-0.7721
3326901.0,25.8957,-4.8937,14.5089,4.0845,0.8274,-0.9966
3326911.0,26.0298,-3.5721,10.4483,4.3963,1.2153,-1.3266
3326921.0,24.3059,-0.3352,6.675,3.4225,1.3755,-1.6368
3326931.0,20.887,5.0374,0.7757,1.4404,0.7348,-1.8087
3326941.0,17.334,10.2663,-9.0405,-1.3127,-0.1032,-1.7044
3326951.0,12.8904,16.4913,-26.2692,-4.7496,-0.4055,-1.3223
3326961.0,10.5249,19.326,-38.221,-5.8575,0.9365,-0.6721
3326971.0,4.7501,25.4073,-56.3595,-5.3791,3.6295,0.2474
3326981.0,-1.312,31.6035,-74.1341,-3.778,7.5815,1.3085
3326991.0,-11.5017,38.7573,-78.4532,-3.1027,13.0352,2.8383
3327001.0,-26.2883,42.3582,-78.4532,-3.1645,17.4357,4.433
3327011.0,-41.2569,41.276,-78.4532,-4.0621,17.4357,6.1688
3327021.0,-55.9477,34.5435,-77.2082,-4.0973,17.4357,7.639
3327031.0,-72.3624,24.1527,-51.4179,-2.1753,17.4357,8.9459
3327041.0,-78.4532,5.8323,-21.9117,2.6068,17.4357,9.5621
3327051.0,-78.4532,-14.3748,13.8193,8.3201,17.4357,8.8214
3327061.0,-78.4532,-28.2133,55.2965,15.0652,17.4357,6.7286
3327071.0,-78.4532,-27.0066,78.4508,17.4357,17.4357,3.8514
3327081.0,-78.4532,-11.4634,78.4508,17.4357,17.4357,1.1973
3327091.0,-78.4532,1.2641,78.4508,16.7924,17.4357,-0.6417
3327101.0,-78.4532,13.7906,78.4508,12.2987,17.4357,-1.7794
3327111.0,-78.4532,18.2534,78.4508,8.8293,17.4357,-2.1694
3327121.0,-70.7343,30.6649,78.4508,6.6072,14.1409,-1.8347
3327131.0,-64.155,32.7431,78.4508,3.9472,4.482,-0.9115
3327141.0,-58.1408,28.558,78.4508,2.8734,-3.0283,-0.1394
3327151.0,-49.7036,19.0674,78.4508,1.3771,-7.9577,-0.0287
3327161.0,-46.1506,14.959,78.4508,-1.8001,-10.1202,-0.4411
3327171.0,-40.9408,9.5672,78.4508,-3.3747,-9.6062,-1.2505
3327181.0,-43.0861,12.5169,78.4508,-4.0547,-10.1309,-1.9688
3327191.0,-45.9016,17.4011,78.4508,-4.4426,-13.2523,-2.1545
3327201.0,-48.1426,22.314,78.4508,-4.6251,-17.4357,-1.9465
3327211.0,-49.1673,24.2868,78.4508,-4.3745,-17.4363,-1.4548
3327221.0,-50.623,22.7736,78.4508,-4.3442,-17.4363,-0.9051
3327231.0,-49.5504,18.2247,78.4508,-4.0441,-17.4363,-0.6534
3327241.0,-50.0867,15.208,65.8118,-4.0089,-17.4363,-0.4395
3327251.0,-48.1809,8.4659,45.1834,-5.021,-17.4363,-0.5811
3327261.0,-44.5896,3.8499,24.4687,-6.0336,-17.4363,-1.1648
3327271.0,-41.6591,4.6831,6.5122,-7.2085,-17.4363,-1.881
3327281.0,-36.7749,8.8394,-5.2194,-7.5331,-17.4363,-2.3583
3327291.0,-31.7854,13.6757,-14.4322,-7.4033,-17.4363,-2.3977
3327301.0,-23.875,15.1792,-17.1425,-5.9634,-17.4363,-2.1907
3327311.0,-17.9948,17.4106,-18.9046,-4.4038,-17.4363,-1.789
3327321.0,-11.8944,14.9973,-12.4403,-2.535,-17.4363,-1.2467
3327331.0,-7.4508,12.5073,-13.6661,-1.201,-17.4363,-0.7732
3327341.0,-2.4995,7.8817,-22.4002,-1.3122,-17.051,-0.5614
3327351.0,5.3247,4.6064,-33.3943,-2.0784,-14.1425,-0.6678
3327361.0,10.3621,1.6568,-31.0384,-2.8862,-10.7114,-1.0275
3327371.0,11.4826,0.814,-22.8981,-2.9836,-8.3536,-1.4505
3327381.0,15.1984,2.2601,-15.3037,-3.09,-6.4556,-1.7315
3327391.0,18.6748,3.5147,-8.9447,-2.1912,-4.6193,-1.8273
3327401.0,20.1017,5.9951,-1.8579,-0.6364,-2.6356,-1.7049
3327411.0,20.8296,8.2073,6.3782,0.6577,-1.3015,-1.4175
3327421.0,20.7434,10.1227,15.1792,1.6128,-0.745,-0.9519
3327431.0,19.6325,11.2719,18.2438,2.4514,-0.919,-0.2799
3327441.0,21.6149,5.9568,21.5382,2.8234,-0.4885,0.2054
3327451.0,22.4768,3.0837,23.4536,2.5281,-0.7168,0.2352
3327461.0,22.3906,2.3559,26.5469,1.4814,-1.4442,0.2325
3327471.0,23.0897,3.3519,24.6315,0.7641,-1.9981,0.2687
3327481.0,24.4304,4.1276,21.6819,0.1022,-1.8491,0.3592
3327491.0,23.1471,4.1084,21.8734,0.3592,-1.4596,0.5396
3327501.0,24.1336,2.7677,18.7322,0.6843,-0.9509,0.6992
3327511.0,23.9324,0.9864,18.0714,1.3814,-0.4023,0.6651
3327521.0,22.2278,2.3463,16.089,1.9544,-0.4895,0.6215
3327531.0,21.8926,5.3534,9.8928,2.1966,-0.5651,0.646
3327541.0,18.7322,12.7372,-4.7884,0.6731,-1.0626,0.928
3327551.0,14.5376,17.018,-23.2046,-3.1363,-2.0965,1.5213
3327561.0,11.0612,19.2685,-49.5312,-7.7726,-1.8102,2.2641
3327571.0,3.984,17.5734,-71.0312,-10.5204,0.116,3.0602
3327581.0,0.6608,18.397,-78.4532,-9.5684,4.8146,3.8062
3327591.0,-9.2416,21.1935,-78.4532,-4.706,11.5378,4.5559
3327601.0,-22.9269,25.9723,-78.4532,2.246,17.4357,5.1721
3327611.0,-43.8426,31.2204,-78.4532,8.4356,17.4357,5.6771
3327621.0,-70.9258,28.5197,-78.4532,10.5954,17.4357,5.7266
3327631.0,-78.4532,18.2917,-78.4532,8.5766,17.4357,4.9891
3327641.0,-78.4532,15.2846,-44.5226,4.6129,17.4357,3.8732
3327651.0,-78.4532,12.8712,32.2164,5.361,17.4357,3.563
3327661.0,-78.4532,16.6828,78.4508,11.135,17.4357,3.3981
3327671.0,-78.4532,32.7623,78.4508,15.3068,17.4357,3.852
3327681.0,-78.4532,14.8728,78.4508,15.4802,17.4357,4.0973
3327691.0,-78.4532,13.9343,78.4508,12.6967,17.4357,2.4679
3327701.0,-78.4532,-4.3479,78.4508,6.8509,17.4357,0.7737
3327711.0,-78.4532,-7.853,78.4508,3.5848,16.8754,-1.1685
3327721.0,-71.5196,-3.0742,78.4508,2.7968,4.4745,-2.6904
3327731.0,-66.961,15.8305,78.4508,-1.2451,-5.2951,-3.2693
3327741.0,-62.5653,18.5982,78.4508,-5.5388,-10.6045,-3.0442
3327751.0,-57.1735,15.5336,78.4508,-6.2262,-13.1724,-2.4903
3327761.0,-54.9326,3.5338,78.4508,-4.4921,-14.5879,-2.2013
3327771.0,-51.5328,-6.11,78.4508,-2.9176,-15.7585,-2.452
3327781.0,-49.2535,-13.5416,78.4508,-2.7526,-17.333,-3.5173
3327791.0,-51.8488,-13.8672,78.4508,-4.432,-17.4363,-4.955
3327801.0,-54.8559,-12.2104,78.4508,-4.4932,-17.4363,-6.4503
3327811.0,-61.5693,1.8771,78.4508,-5.1657,-17.4363,-7.4405
3327821.0,-70.3991,14.4418,78.4508,-6.5109,-17.4363,-7.465
3327831.0,-73.2913,22.1703,78.4508,-7.7204,-17.4363,-6.9505
3327841.0,-73.0136,24.0569,56.0818,-7.9689,-17.4363,-6.2933
3327851.0,-69.6808,24.5166,26.8629,-7.3777,-17.4363,-5.5787
3327861.0,-67.8134,25.0146,3.869,-7.3086,-17.4363,-4.9886
3327871.0,-58.0259,26.681,-18.263,-7.9184,-17.4363,-4.4564
3327881.0,-48.8226,26.1064,-30.4447,-8.4734,-17.4363,-3.9334
3327891.0,-38.0582,23.4536,-37.0527,-8.1663,-17.4363,-3.4656
3327901.0,-23.4919,17.765,-39.8108,-6.7429,-17.4363,-3.1905
3327911.0,-13.9726,14.7387,-38.834,-4.2234,-17.4363,-3.1506
3327921.0,-6.9911,15.2942,-33.9019,-2.2769,-15.9352,-2.9878
3327931.0,-1.2929,19.0004,-32.3792,-0.8663,-13.6849,-2.5297
3327941.0,3.9552,21.3371,-30.5979,-0.1836,-11.3569,-1.8065
3327951.0,7.6423,24.0282,-30.8086,-0.191,-9.2662,-0.8705
3327961.0,11.3964,20.2933,-28.0888,-1.0366,-7.3038,0.1963
3327971.0,16.4817,11.4156,-21.7298,-2.0391,-5.485,0.8306
3327981.0,20.7242,-0.3352,-11.0899,-1.8092,-3.7588,0.8503
3327991.0,22.4768,-8.4851,0.4405,-0.679,-2.7276,0.4358
3328001.0,25.685,-13.5129,12.287,1.7443,-1.8682,-0.4135
3328011.0,24.7656,-8.3893,16.5487,3.2283,-2.4137,-1.1206
3328021.0,25.0912,1.0056,14.0588,3.4758,-3.2054,-1.3042
3328031.0,25.3115,9.5193,10.9176,3.3821,-3.1107,-0.8455
3328041.0,25.3115,15.1314,5.7652,2.8984,-2.5893,0.0905
3328051.0,25.4743,14.2599,5.7652,2.1226,-1.7671,1.1494
3328061.0,26.93,11.473,7.604,2.4626,-0.6417,2.0162
3328071.0,26.5756,7.7572,14.2311,3.7801,0.7348,2.693
3328081.0,24.2868,4.7597,19.3164,5.6893,1.3271,3.1719
3328091.0,23.693,0.7757,18.7131,6.4673,1.0004,3.3262
3328101.0,24.5454,-5.114,12.0859,6.0581,0.5204,3.0054
3328111.0,26.4894,-7.8434,7.3454,5.0178,0.9083,2.1976
3328121.0,25.6084,-4.8554,4.1468,3.8355,0.6774,1.3324
3328131.0,22.1703,1.4078,0.1053,2.917,-0.0378,0.8636
3328141.0,16.5487,9.0597,-15.342,1.093,-1.9667,0.9206
3328151.0,13.2064,17.3532,-45.5377,-1.8597,-3.0139,1.4138
3328161.0,4.3,34.4574,-78.4532,-4.9194,-1.7698,2.6691
3328171.0,-5.4205,48.5831,-78.4532,-7.5097,1.748,5.1317
3328181.0,-17.9852,57.164,-78.4532,-4.1111,10.978,8.1764
3328191.0,-43.4691,53.4482,-78.4532,3.2007,17.4357,10.8051
3328201.0,-78.4532,42.7987,-78.4532,11.1621,17.4357,11.8363
3328211.0,-78.4532,21.2414,-78.4532,13.0687,17.4357,11.6309
3328221.0,-78.4532,-14.9781,-78.4532,12.7063,17.4357,8.5793
3328231.0,-78.4532,-32.0248,-9.4523,11.6245,17.4357,3.6338
3328241.0,-78.4532,-18.9142,78.4508,17.4357,17.4357,0.1612
3328251.0,-78.4532,4.6543,78.4508,17.4357,17.4357,-2.3785
3328261.0,-78.4532,53.2758,78.4508,17.4357,17.4357,-2.9202
3328271.0,-78.4532,66.9419,78.4508,15.2051,17.4357,-1.9034
3328281.0,-78.4532,56.1775,78.4508,6.9595,17.4357,-0.9551
3328291.0,-78.4532,51.1306,78.4508,3.6311,14.3527,0.6236
3328311.0,0.0,0.0,0.0,0.0,0.0,0.0
3328321.0,-69.9969,8.7436,78.4508,0.0,0.0,0.0
3328341.0,-7.6614,-27.7632,78.4508,0.0,0.0,0.0
3328351.0,-60.286,-1.0151,78.4508,-4.1483,-5.2972,-4.2457
3328361.0,-65.467,10.5536,78.4508,-8.542,-15.2546,-5.6707
3328371.0,-68.953,20.7721,78.4508,-8.5867,-17.4363,-6.1044
3328381.0,-77.7828,29.8126,78.4508,-8.0956,-17.4363,-5.609
3328391.0,-78.4532,33.9498,78.4508,-6.1927,-17.4363,-4.5001
3328401.0,-78.4532,32.8197,78.4508,-4.8752,-17.4363,-3.2991
3328411.0,-78.4532,30.9905,75.5706,-4.109,-17.4363,-2.3908
3328421.0,-78.4532,29.6306,38.9776,-5.0013,-17.4363,-1.6937
3328431.0,-78.4532,28.807,9.4427,-6.0384,-17.4363,-1.1829
3328441.0,-78.4532,27.246,-12.3924,-8.2887,-17.4363,-0.8301
3328451.0,-67.5165,23.6451,-22.2086,-9.1901,-17.4363,-0.7891
3328461.0,-58.7441,23.3099,-19.9964,-8.9693,-17.4363,-0.6279
3328471.0,-49.5791,21.1552,-18.3875,-7.5464,-17.4363,-0.1192
3328481.0,-39.2553,13.6661,-20.8104,-6.0608,-17.4363,0.2921
3328491.0,-30.8086,7.2688,-26.2692,-3.7163,-17.4363,0.2767
3328501.0,-21.8638,2.3942,-34.6106,-2.4706,-17.4363,-0.0282
3328511.0,-10.9559,2.2984,-45.2696,-2.2029,-17.4363,-0.5779
3328521.0,-4.2042,5.8897,-49.4738,-2.7409,-17.4363,-0.994
3328531.0,2.2027,11.3102,-48.7747,-3.8445,-15.3754,-0.9514
3328541.0,8.5042,12.536,-41.2856,-4.7502,-12.452,-0.5656
3328551.0,15.5049,11.7795,-32.4079,-4.8358,-10.0889,-0.0282
3328561.0,17.2861,8.8777,-20.1783,-3.9009,-8.1812,0.4401
3328571.0,20.0059,5.8227,-14.7291,-2.6196,-6.6445,0.7944
3328581.0,22.1128,3.4285,-8.1977,-0.8397,-5.5936,1.0669
3328591.0,23.9899,2.2505,-5.9472,0.3592,-4.9689,1.2153
3328601.0,25.7425,-0.3735,-5.9855,0.1873,-4.6533,1.3175
3328611.0,28.3569,-3.6009,-4.9608,-0.9445,-4.3176,1.0828
3328621.0,28.5197,-4.1084,-1.6759,-1.9113,-3.9249,0.8599
3328631.0,29.0081,-5.545,1.6376,-1.9411,-3.5593,0.7966
3328641.0,31.2491,-7.9296,4.4915,-0.9078,-2.8761,0.7412
3328651.0,31.3449,-9.8737,3.9456,0.7301,-2.3732,0.5736
3328661.0,29.9754,-9.0884,1.4269,1.8305,-2.1827,0.3166
3328671.0,28.9698,-5.3822,-2.4995,2.4584,-1.9869,0.158
3328681.0,26.6235,-1.9441,-6.11,2.8505,-2.0577,0.2081
3328691.0,24.2293,0.4022,-16.1656,2.4099,-2.5366,0.4145
3328701.0,22.9269,0.3065,-32.6569,0.9057,-2.784,0.6087
3328711.0,22.8407,-0.5842,-53.6493,-1.4042,-1.7373,0.5869
3328721.0,21.9213,-0.0766,-70.1118,-2.7404,0.77,0.3038
3328731.0,16.7498,7.1826,-78.4532,-2.1556,4.1686,0.1016
3328741.0,2.7677,20.9924,-78.4532,-0.6779,7.4123,0.2347
3328751.0,-13.0245,42.1571,-78.4532,-0.2182,11.0781,1.1818
3328761.0,-34.2467,62.4025,-78.4532,1.5149,17.4357,3.1762
3328771.0,-67.5835,78.4508,-78.4532,3.2124,17.4357,6.2188
3328781.0,-78.4532,78.4508,-78.4532,4.6347,17.4357,9.6435
3328791.0,-78.4532,67.459,-78.4532,5.5622,17.4357,12.436
3328801.0,-78.4532,34.2084,-78.4532,5.9182,17.4357,13.7902
3328811.0,-78.4532,-19.5941,-68.3401,5.5004,17.4357,12.1747
3328821.0,-78.4532,-56.0052,27.6482,6.5434,17.4357,7.2479
3328831.0,-78.4532,-50.6996,78.4508,14.5288,17.4357,2.4695
3328841.0,-78.4532,-22.697,78.4508,17.4357,17.4357,-0.8684
3328851.0,-78.4532,13.4075,78.4508,17.4357,17.4357,-2.8207
3328861.0,-78.4532,51.0156,78.4508,17.4357,17.4357,-3.1953
3328871.0,-78.4532,68.2156,78.4508,16.9909,17.4357,-2.4584
3328881.0,-78.4532,56.1009,78.4508,7.655,17.4357,-1.4282
3328891.0,-78.4532,45.5856,78.4508,0.7982,13.0607,-0.4326
3328901.0,-78.4532,27.7727,78.4508,-2.5893,-1.8964,0.5555
3328911.0,-78.4532,16.7786,78.4508,-3.3119,-13.4678,0.8157
3328951.0,-69.5659,-15.5527,78.4508,0.0,0.0,0.0
3328961.0,-70.629,-9.2225,78.4508,-4.4522,-17.4363,-5.038
3328971.0,-73.6073,6.8187,78.4508,-5.7197,-17.4363,-5.4946
3328981.0,-78.4532,17.2478,78.4508,-6.8052,-17.4363,-5.5574
3328991.0,-78.4532,23.5398,78.4508,-7.2059,-17.4363,-5.1902
3329001.0,-78.4532,24.9093,78.4508,-6.5445,-17.4363,-4.5708
3329011.0,-78.4532,24.0186,65.7735,-5.2344,-17.4363,-3.9419
3329021.0,-78.4532,20.4082,33.4326,-4.6304,-17.4363,-3.5002
3329031.0,-78.4532,16.702,7.9392,-4.2218,-17.4363,-3.3832
3329041.0,-75.6185,14.2982,-12.9095,-5.0455,-17.4363,-3.3874
3329051.0,-69.5372,13.2064,-22.7736,-6.081,-17.4363,-3.4907
3329061.0,-59.9221,15.7155,-27.0832,-6.6413,-17.4363,-3.3784
3329071.0,-49.1673,18.6939,-29.2667,-6.9063,-17.4363,-2.9798
3329081.0,-39.0446,18.579,-28.7591,-6.1342,-17.4363,-2.4536
3329091.0,-29.3721,17.1138,-29.9946,-4.5708,-17.4363,-1.8395
3329101.0,-19.5463,12.3445,-29.9658,-2.9873,-17.4363,-1.4234
3329111.0,-12.153,7.4124,-28.7208,-2.1359,-17.4363,-1.2952
3329121.0,-5.2002,3.8116,-27.8398,-2.1109,-17.2064,-1.4457
3329131.0,0.6512,2.0877,-24.507,-1.7911,-15.2333,-1.723
3329141.0,5.612,3.8403,-21.9405,-1.3622,-13.6806,-1.8784
3329151.0,8.4084,6.4356,-20.3794,-1.4293,-12.445,-1.7948
3329161.0,12.1721,9.1363,-19.144,-1.3739,-11.1962,-1.59
3329171.0,13.9055,12.1625,-18.4641,-1.7091,-10.0319,-1.1313
3329181.0,17.8607,10.8505,-13.9534,-1.3313,-8.5904,-0.5412
3329191.0,21.0881,7.6231,-8.5234,-0.3597,-7.1362,-0.0479
3329201.0,21.5957,4.6639,-4.7405,0.4033,-6.4678,0.2618
3329211.0,21.7489,4.4149,-1.4844,1.5596,-5.4414,0.5997
3329221.0,22.4002,4.6831,4.5586,3.3294,-4.4751,1.1302
3329231.0,23.0035,6.1004,6.608,4.2377,-4.1654,1.8188
3329241.0,24.1814,5.8419,7.2496,3.9642,-4.4713,2.5169
3329251.0,24.2964,4.6735,2.7198,2.394,-5.2051,3.024
3329261.0,24.2197,1.2737,-3.055,-0.4406,-5.6675,3.356
3329271.0,25.2157,-5.0182,-5.0853,-2.5616,-5.5526,3.3385
3329281.0,26.0776,-11.157,-7.6806,-3.7046,-5.4196,2.9208
3329291.0,26.7863,-17.4968,-11.3677,-2.826,-4.6847,2.2689
3329301.0,28.5485,-21.7681,-16.3093,0.1532,-2.3977,1.2856
3329311.0,29.9467,-21.6436,-19.4505,4.0579,0.5098,0.1713
3329321.0,28.3282,-18.1385,-22.7928,5.9373,1.8278,-0.9147
3329331.0,22.4097,-11.7699,-35.6353,4.0281,0.5305,-1.9247
3329341.0,19.642,-3.1795,-60.5925,-1.4415,-0.5263,-2.866
3329351.0,9.8258,9.347,-78.4532,-5.3536,0.9594,-3.3422
3329361.0,-2.5187,25.1104,-78.4532,-8.037,3.8871,-2.9947
3329371.0,-13.0532,37.8475,-78.4532,-6.5641,10.2315,-2.1066
3329381.0,-35.1756,56.5798,-78.4532,-1.6219,17.4357,-0.5843
3329391.0,-72.5826,76.6049,-78.4532,4.3011,17.4357,1.7411
3329401.0,-78.4532,78.4508,-78.4532,9.0321,17.4357,5.2264
3329411.0,-78.4532,78.4508,-78.4532,10.3459,17.4357,9.3886
3329421.0,-78.4532,59.9987,-78.4532,12.0577,17.4357,11.6474
3329431.0,-78.4532,17.8512,4.6543,17.4357,17.4357,10.4651
3329441.0,-78.4532,0.0383,78.4508,17.4357,17.4357,6.8685
3329451.0,-78.4532,16.5583,78.4508,17.4357,17.4357,3.5396
3329461.0,-78.4532,30.5692,78.4508,14.3133,17.4357,2.204
3329471.0,-78.4532,8.1499,78.4508,14.6672,17.4357,0.5332
3329481.0,-78.4532,14.4131,78.4508,13.2054,17.4357,-1.8778
3329491.0,-78.4532,12.3732,78.4508,8.7666,17.4357,-3.4252
3329501.0,-78.4532,23.2525,78.4508,7.5895,17.4357,-4.1537
3329511.0,-78.4532,34.8692,78.4508,4.7911,17.4357,-3.8259
3329521.0,-78.4532,-78.4532,78.4508,17.4357,-17.4363,-0.3714
3329531.0,-78.4532,78.4508,55.919,-0.571,2.7606,-0.8407
3329541.0,-78.4532,-31.8716,78.4508,-6.3891,-17.4363,-0.4273
3329551.0,-76.5378,54.2526,64.337,-10.0388,-17.4363,0.2602
3329561.0,-78.4532,-48.2096,78.4508,-10.1346,-17.4363,-1.7139
3329581.0,-78.4532,-44.4364,78.4508,0.0,0.0,0.0
3329591.0,-73.9808,-2.9592,37.2346,-6.6956,-17.4363,-7.3362
3329601.0,-78.0414,-11.9902,71.7782,-11.9108,-17.4363,-7.796
3329611.0,-78.4532,9.6151,43.9767,-1.5149,-17.4363,-8.1903
3329621.0,-77.1124,18.3109,32.5037,-10.1735,-17.4363,-7.4836
3329631.0,-71.3281,19.9581,18.3204,-7.6081,-17.4363,-7.3426
3329641.0,-66.5875,25.5509,-11.7603,-15.1833,-17.4363,-6.8121
3329651.0,-57.9588,16.0507,-13.4458,-12.1694,-17.4363,-6.8951
3329661.0,-50.9869,19.6133,-36.4781,-11.3787,-17.4363,-6.5365
3329671.0,-40.8068,9.7779,-33.1549,-6.0336,-17.4363,-6.3013
3329681.0,-28.1558,5.8993,-37.9337,-1.3212,-17.4363,-6.0996
3329691.0,-23.5589,0.8236,-19.1823,2.4562,-15.4371,-6.2539
3329701.0,-18.7993,11.2911,-12.0668,2.4004,-14.482,-6.0868
3329711.0,-15.1505,19.1345,-3.3902,0.2219,-15.5531,-5.4935
3329721.0,-12.1242,26.2021,-8.2648,-3.4396,-16.976,-4.6406
3329731.0,-7.5465,25.4456,-8.4276,-6.015,-17.1819,-3.7322
3329741.0,-2.1739,24.0091,-12.3158,-4.9508,-15.593,-2.7792
3329751.0,0.5171,18.2534,-11.3006,-2.3748,-12.7994,-1.8028
3329761.0,7.173,9.1267,-8.6191,1.3021,-10.2586,-1.1589
3329771.0,11.5592,2.3176,-6.9049,3.2603,-8.1456,-1.0382
3329781.0,14.9207,1.3695,-2.9688,3.9866,-6.8201,-1.2372
3329791.0,14.8057,7.0198,-1.4748,3.3092,-6.198,-1.2627
3329801.0,17.6405,11.0421,-1.5419,1.2611,-6.239,-1.0584
3329811.0,18.512,13.6086,-5.1427,-0.4315,-6.1571,-0.7024
3329821.0,20.6763,15.093,-7.8626,-1.6352,-4.7071,-0.1974
3329831.0,21.1169,13.5799,-5.047,-1.773,-3.09,0.456
3329841.0,22.6491,9.7492,0.1245,-1.1142,-1.7395,1.0174
3329851.0,22.4193,8.0158,5.5354,0.1878,-0.5853,1.4904
3329861.0,22.2757,5.3534,11.3198,2.1801,0.2054,2.0428
3329871.0,22.2373,2.2601,10.659,4.3367,0.6758,2.3631
3329881.0,21.9022,1.3791,7.9392,5.3919,1.061,2.4727
3329891.0,21.0402,3.0933,1.3216,5.1189,1.1685,2.4509
3329901.0,19.2111,4.3,-3.1508,4.0228,1.4777,2.4477
3329911.0,15.9837,7.2401,-9.7013,2.9059,1.4835,2.4972
3329921.0,13.3309,7.4029,-25.3019,0.2198,0.8163,2.6744
3329931.0,16.5583,3.6392,-46.639,-2.5084,1.9709,2.5983
3329941.0,14.4706,3.6679,-62.9196,-2.3817,6.9989,2.3248
3329951.0,6.5314,8.8873,-73.8276,-1.6613,12.7755,2.2248
3329961.0,-3.9552,14.4227,-69.8341,1.234,17.4357,2.3291
3329971.0,-19.8527,27.1502,-58.4951,5.1796,17.4357,2.8963
3329981.0,-36.3727,39.8874,-48.1043,7.3394,17.4357,4.0856
3329991.0,-51.188,51.3221,-43.1339,7.1399,17.4357,5.857
3330001.0,-69.8532,57.7481,-45.7005,3.7636,17.4357,8.2206
3330011.0,-78.4532,52.4043,-52.1553,-0.6614,17.4357,10.9934
3330021.0,-78.4532,36.5451,-42.3965,-0.3257,17.4357,13.4614
3330031.0,-78.4532,18.4258,-9.8928,3.1746,17.4357,14.8901
3330041.0,-78.4532,-4.4915,39.0351,8.6043,17.4357,14.9534
3330051.0,-78.4532,-22.8407,78.4508,14.9784,17.4357,13.0634
3330061.0,-78.4532,-23.4919,78.4508,16.9776,17.4357,9.8569
3330071.0,-78.4532,-19.0483,78.4508,11.1297,17.4357,6.6801
3330081.0,-78.4532,-36.9569,78.4508,2.2072,17.4357,3.579
3330091.0,-78.4532,-24.7848,78.4508,-0.9966,13.7227,1.574
3330101.0,-78.4532,-24.8901,78.4508,-7.0585,-0.5289,-0.1378
3330121.0,0.0,0.0,0.0,0.0,0.0,0.0
3330131.0,-78.4532,-20.1879,78.4508,0.0,0.0,0.0
3330141.0,-72.4773,-29.8796,78.4508,-2.1274,-16.0177,-2.262
3330151.0,-67.5069,-35.2331,78.4508,-1.1158,-17.4363,-3.5066
3330161.0,-65.0361,-34.0839,78.4508,-3.0873,-17.4363,-5.1141
3330171.0,-64.8829,-35.1086,78.4508,-4.7204,-17.4363,-7.017
3330181.0,-65.6011,-31.8237,78.4508,-6.1001,-17.4363,-9.0182
3330191.0,-70.6481,-24.622,69.1445,-7.0202,-17.4363,-10.9317
3330201.0,-69.5085,-11.4347,43.6894,-7.142,-17.4363,-12.1854
3330211.0,-66.8748,0.2777,26.6714,-5.9852,-17.4363,-12.6478
3330221.0,-62.9196,10.2185,13.0915,-3.6971,-17.4363,-12.3392
3330231.0,-56.551,17.7746,3.6679,-1.0121,-17.4363,-11.4005
3330241.0,-48.9949,25.3785,-5.5641,0.1266,-17.4363,-9.9851
3330251.0,-40.6248,29.3625,-10.161,-0.7205,-17.4363,-8.4201
3330261.0,-31.9674,27.3418,-10.5632,-1.6783,-17.4363,-7.0031
3330271.0,-23.4728,18.1768,-7.9871,-2.4573,-17.4363,-6.1214
3330281.0,-14.4993,5.4205,-1.5131,-2.6675,-17.4363,-6.0911
3330291.0,-9.4715,-1.9537,4.7214,-1.6644,-17.0643,-6.7312
3330301.0,-7.2401,-0.3639,5.4396,-0.4076,-16.7142,-7.3692
3330311.0,-7.1347,8.4372,0.7374,0.4778,-16.3806,-7.5581
3330321.0,-5.4492,19.144,-2.2984,0.7035,-15.1865,-7.0532
3330331.0,-2.0782,28.8166,-2.988,1.4058,-13.7929,-5.8921
3330341.0,0.0575,34.1605,-4.0701,1.3287,-13.0623,-4.3516
3330351.0,4.7597,36.095,-10.3142,0.3656,-12.2588,-2.6292
3330361.0,8.5234,32.5994,-13.1873,-0.4358,-10.4853,-1.1079
3330371.0,12.9861,24.2676,-12.6893,-0.7646,-8.2302,0.0894
3330381.0,16.1273,10.9463,-7.8434,-1.3042,-6.5599,0.5875
3330391.0,20.0443,-0.4022,1.0056,-0.9126,-5.0721,0.2826
3330401.0,19.0674,-3.6966,9.2895,0.3735,-4.3388,-0.3081
3330411.0,20.2837,-0.0766,15.2271,1.897,-4.043,-0.6896
3330421.0,19.9293,6.9815,14.0683,2.9644,-4.6464,-0.6375
3330431.0,18.1576,12.4977,7.3933,2.7984,-5.3701,-0.1958
3330441.0,20.2262,15.4378,-2.873,2.154,-5.4036,0.3597
3330451.0,20.5614,17.9852,-10.4004,1.9534,-4.2069,0.9695
3330461.0,19.326,20.3124,-18.761,1.8496,-2.9277,1.7475
3330471.0,20.0921,19.0004,-27.7153,0.8423,-1.5437,2.4743
3330481.0,20.1113,15.2942,-36.8037,-0.0388,0.2176,2.9101
3330491.0,18.2821,13.4937,-48.6981,-1.3888,2.3924,3.0878
3330501.0,16.1561,13.3022,-57.1927,-1.8826,4.9875,3.0506
3330511.0,8.849,18.7035,-66.4726,-1.3675,8.1259,3.1474
3330521.0,-1.2546,30.3872,-78.4532,-0.2288,10.9466,3.7775
3330531.0,-13.9726,44.446,-78.4532,0.0452,14.4719,5.1152
3330541.0,-32.1589,55.6604,-78.4532,-1.0275,17.4357,7.034
3330551.0,-57.8248,65.7544,-78.4532,-1.5814,17.4357,9.4886
3330561.0,-78.4532,69.4606,-78.4532,-0.9003,17.4357,12.6808
3330571.0,-78.4532,63.5038,-78.4532,0.7742,17.4357,15.7457
3330581.0,-78.4532,57.7673,-78.4532,3.0416,17.4357,17.4357
3330591.0,-78.4532,41.9273,-37.1484,9.2657,17.4357,17.4357
3330601.0,-78.4532,-0.3448,34.8308,17.4357,17.4357,17.4357
3330611.0,-78.4532,-44.3981,78.4508,17.4357,17.4357,16.6908
3330621.0,-78.4532,-46.9838,78.4508,17.4357,17.4357,9.9106
3330631.0,-78.4532,-22.8024,78.4508,17.4357,17.4357,3.3316
3330641.0,-78.4532,-9.0884,78.4508,3.4859,17.4357,-0.7412
3330651.0,-78.4532,12.3924,78.4508,-0.5635,12.2753,-1.2265
3330661.0,-78.4532,20.5231,78.4508,-0.887,-6.488,0.4571
3330671.0,-78.4532,19.2973,78.4508,0.1272,-16.6886,2.3333
3330711.0,-59.4145,-42.5976,78.4508,0.0,0.0,0.0
3330721.0,-54.3484,-43.4212,78.4508,-4.987,-4.7959,-3.2533
3330731.0,-53.4099,-33.9402,78.4508,-4.5187,-10.0702,-7.1936
3330741.0,-57.9014,-16.8073,78.4508,-6.3763,-16.0666,-9.1715
3330751.0,-64.6051,-2.6624,78.4508,-6.4151,-17.4363,-10.1905
3330761.0,-71.1269,10.6686,78.4508,-5.2865,-17.4363,-10.249
3330771.0,-77.6392,19.4601,78.4508,-3.7642,-17.4363,-9.6217
3330781.0,-77.0454,23.195,61.1479,-3.1176,-17.4363,-8.5957
3330791.0,-72.2953,20.1496,37.589,-2.6089,-17.4363,-7.6842
3330801.0,-66.4152,16.0412,23.2429,-2.2508,-17.4363,-6.9882
3330811.0,-61.1575,13.6086,14.0013,-2.5871,-17.4363,-6.5375
3330821.0,-53.5439,7.4986,8.0062,-4.0882,-17.4363,-6.2858
3330831.0,-45.7771,0.3831,5.7269,-5.4116,-17.4363,-6.7738
3330841.0,-41.3239,-0.6321,4.4245,-5.1705,-17.4363,-7.407
3330851.0,-35.9801,0.9098,0.1341,-3.886,-17.4363,-7.8678
3330861.0,-31.1629,4.3766,-1.9058,-2.3466,-17.4363,-8.145
3330871.0,-28.3665,12.4977,-4.1946,-0.8099,-17.4363,-7.8971
3330881.0,-21.4808,19.757,-7.8147,0.0341,-17.4363,-7.1143
3330891.0,-14.8919,25.1774,-12.0572,0.1378,-17.4363,-5.9788
3330901.0,-9.165,28.175,-12.2009,0.0181,-17.1883,-4.6688
3330911.0,-5.6982,28.8262,-12.1338,-0.622,-15.8037,-3.3188
3330921.0,-1.0151,24.373,-12.6222,-1.989,-15.0992,-2.1513
3330931.0,4.9033,18.2151,-12.2583,-1.7097,-13.3582,-1.4207
3330941.0,6.6272,14.9494,-11.8561,-0.2751,-11.0397,-0.8695
3330951.0,10.5249,11.6837,-8.1499,2.0162,-8.575,-0.3863
3330961.0,11.7029,12.7276,-5.5258,4.25,-6.3715,0.0623
3330971.0,15.1601,14.4131,-2.49,4.8587,-5.0322,0.6667
3330981.0,15.0164,15.2367,0.4788,4.7587,-4.0856,1.2691
3330991.0,16.3285,17.9469,3.4093,3.3363,-3.9531,1.9443
3331001.0,15.4282,17.1233,6.8474,1.6006,-4.4756,2.61
3331011.0,16.9893,14.9973,8.5234,0.241,-5.0535,3.0958
3331021.0,15.773,13.5129,9.2033,-0.1352,-6.2848,3.5338
3331031.0,16.7977,12.3253,-0.6416,-0.505,-7.2202,3.9563
3331041.0,16.9318,11.0995,-18.5982,-1.5405,-7.8779,4.3106
3331051.0,18.8472,8.2073,-46.4188,-5.3493,-8.3063,4.4655
3331061.0,18.9621,4.7214,-70.2267,-8.782,-7.1574,4.0786
3331071.0,12.8617,13.4937,-78.4532,-9.5775,-4.9907,3.7221
3331081.0,3.0358,31.0384,-78.4532,-6.7977,-0.132,3.7897
3331091.0,-16.8169,62.0864,-78.4532,-4.2127,7.0324,4.9497
3331101.0,-45.8346,78.4508,-78.4532,0.157,17.4357,7.8157
3331111.0,-78.4532,78.4508,-78.4532,3.405,17.4357,12.0135
3331121.0,-78.4532,78.4508,-78.4532,5.4941,17.4357,17.1686
3331131.0,-78.4532,78.4508,-78.4532,4.6634,17.4357,17.4357
3331141.0,-78.4532,8.2456,-24.5932,17.1734,17.4357,17.4357
3331151.0,-78.4532,-18.579,78.4508,17.4357,17.4357,17.4357
3331161.0,-78.4532,-29.2763,78.4508,17.4357,17.4357,13.745
3331171.0,-78.4532,-46.007,78.4508,12.8883,17.4357,8.2935
3331181.0,-78.4532,-59.788,78.4508,11.4958,17.4357,2.9192
3331191.0,-78.4532,-44.6183,78.4508,9.4482,17.4357,-1.4213
3331201.0,-78.4532,-16.4625,78.4508,8.2493,14.7326,-3.8333
3331211.0,-78.4532,20.8774,78.4508,3.7392,2.047,-3.4135
3331221.0,-78.4532,24.2964,78.4508,1.4633,-5.9203,-1.6687
3331251.0,21.6532,-27.4854,76.3463,0.0,0.0,0.0
3331281.0,-63.5325,-20.2358,71.1557,0.0,0.0,0.0
3331291.0,-60.6691,-13.4363,45.0014,-4.4676,-4.3713,0.2895
3331301.0,-54.2335,-9.9695,26.5756,-4.7507,-17.4363,-4.581
3331311.0,-49.4738,-3.7733,11.1666,-2.138,-17.4363,-4.7182
3331321.0,-44.331,-2.4421,8.8777,-1.5495,-17.4363,-4.7677
3331331.0,-38.3838,-4.7692,18.9812,-1.4947,-14.8965,-5.0801
3331341.0,-34.4095,-8.6,33.356,-1.4229,-13.3007,-5.7979
3331351.0,-35.0511,-9.5385,50.7667,-1.2654,-13.886,-6.7914
3331361.0,-36.3823,-7.0294,65.3521,-0.563,-16.0379,-7.6241
3331371.0,-41.2377,-1.4078,70.3991,0.0979,-17.4363,-8.2015
3331381.0,-44.082,5.8802,68.7423,0.1495,-17.4363,-8.5457
3331391.0,-49.311,16.4721,64.7009,-0.0772,-17.4363,-8.3994
3331401.0,-52.6629,28.0122,53.7642,-1.0743,-17.4363,-7.7029
3331411.0,-52.9214,36.7654,42.5593,-2.1742,-17.4363,-6.5578
3331421.0,-52.8065,43.517,26.3171,-2.3567,-17.4363,-4.9204
3331431.0,-49.1769,46.1411,6.4452,-1.6602,-17.4363,-2.9548
3331441.0,-37.5411,44.7045,-15.0547,-0.6077,-17.4363,-0.9418
3331451.0,-30.7894,41.7453,-27.3514,0.3576,-17.4363,0.9291
3331461.0,-21.883,38.585,-38.6807,-0.0032,-17.4363,2.7654
3331471.0,-10.5536,30.0903,-41.5633,-0.6561,-17.4363,4.3303
3331481.0,-3.7254,17.5734,-37.5794,-1.5405,-14.1058,5.2466
3331491.0,3.5434,1.4653,-23.4344,-1.8645,-10.9456,5.3392
3331501.0,9.2129,-10.7452,-8.9352,-2.1029,-9.7813,4.4564
3331511.0,10.2472,-16.8264,3.2944,-1.9938,-10.0516,3.1693
3331521.0,13.6278,-17.3532,9.4044,0.009,-10.1559,1.963
3331531.0,10.3334,-12.6414,8.8777,2.337,-10.9674,1.201
3331541.0,10.6686,-8.7819,2.7198,4.3271,-11.4979,0.8099
3331551.0,12.2966,-5.8514,-7.3646,5.6122,-11.5713,0.6492
3331561.0,17.4298,-5.0278,-19.3356,6.5716,-10.8737,0.5795
3331571.0,19.0578,-4.7692,-32.5611,5.0817,-10.191,0.4049
3331581.0,20.7529,-3.8882,-53.7929,0.033,-11.0552,-0.0899
3331591.0,24.3442,-0.565,-73.8851,-6.47,-10.6401,-0.854
3331601.0,15.9262,12.2296,-78.4532,-8.7655,-8.8687,-1.1557
3331611.0,11.7507,30.8182,-78.4532,-9.4817,-5.5787,-0.4624
3331621.0,2.0111,51.0827,-78.4532,-7.3735,-0.7333,1.077
3331631.0,-14.5759,76.5283,-78.4532,-5.6271,7.2474,3.9972
3331641.0,-37.9242,78.4508,-78.4532,-0.1825,17.4357,8.1717
3331651.0,-78.4532,78.4508,-78.4532,1.4718,17.4357,12.8479
3331661.0,-78.4532,66.1087,-78.4532,3.4502,17.4357,16.2002
3331671.0,-78.4532,24.7752,-78.4532,5.9974,17.4357,17.4357
3331681.0,-78.4532,-13.8481,-78.4532,12.3929,17.4357,15.9022
3331691.0,-78.4532,-33.7391,19.6708,17.4357,17.4357,11.7459
3331701.0,-78.4532,-25.4073,78.4508,17.4357,17.4357,5.8288
3331711.0,-78.4532,-2.2122,78.4508,17.4357,17.4357,0.4337
3331721.0,-78.4532,11.7029,78.4508,14.3388,17.4357,-3.4779
3331731.0,-78.4532,31.4981,78.4508,9.0566,17.4357,-4.9295
3331741.0,-78.4532,29.2667,78.4508,11.3122,17.4357,-4.5458
3331751.0,-78.4532,57.4417,78.4508,11.7937,17.4357,-3.0458
3331761.0,-78.4532,44.4747,78.4508,6.4907,13.8253,-0.9807
3331771.0,-78.4532,31.1725,78.4508,3.787,-4.4969,-0.041
3331781.0,-78.4532,10.2089,78.4508,-3.3087,-17.4363,-0.1772
3331791.0,-78.4532,-3.4285,78.4508,-4.6299,-17.4363,-1.1632
3331851.0,-73.5116,-3.2465,78.4508,0.0,0.0,0.0
3331861.0,-71.1557,-14.5472,78.4508,0.0,0.0,0.0
3331871.0,-75.6185,-10.4291,78.4508,-3.4811,-17.4363,-6.2651
3331881.0,-78.4532,1.6568,78.4508,-5.1003,-17.4363,-7.4544
3331891.0,-78.4532,11.0133,78.4508,-6.9616,-17.4363,-8.2015
3331901.0,-78.4532,20.0826,63.7145,-8.0966,-17.4363,-8.4563
3331911.0,-78.4532,26.3171,43.5362,-8.127,-17.4363,-8.2169
3331921.0,-78.4532,32.0057,21.2031,-6.5556,-17.4363,-7.3171
3331931.0,-78.4532,36.2003,-12.3062,-4.8337,-17.4363,-5.8857
3331941.0,-78.4532,34.7255,-33.6337,-2.2083,-17.4363,-4.3388
3331951.0,-72.8603,35.4055,-44.1299,-0.7019,-17.4363,-2.8122
3331961.0,-57.1257,34.3999,-43.8905,-0.3741,-17.4363,-1.1951
3331971.0,-50.8145,34.1988,-39.4086,-0.2097,-17.4363,0.4848
3331981.0,-42.3103,31.2108,-38.2785,-1.98,-17.4363,2.1327
3331991.0,-33.0879,20.8583,-47.4818,-3.6519,-17.4363,3.3683
3332001.0,-21.2031,8.1116,-65.7256,-7.6651,-17.4363,3.4784
3332011.0,-7.7189,-2.988,-75.494,-9.7371,-17.4363,2.3626
3332021.0,6.7995,-5.3917,-76.4804,-8.9773,-17.4363,0.9796
3332031.0,10.5632,-5.6024,-65.6873,-5.5584,-13.4209,-0.1357
3332041.0,14.4418,-5.1427,-56.5319,-2.5616,-10.7098,-1.002
3332051.0,19.7474,-4.4819,-50.8816,1.168,-8.3472,-1.7028
3332061.0,21.2222,-0.1915,-51.8488,4.3277,-6.3992,-2.1098
3332071.0,20.8391,3.8499,-54.3388,6.0624,-4.5714,-2.2742
3332081.0,19.8431,10.6686,-54.9804,7.3352,-3.1714,-2.0279
3332091.0,19.8623,17.9278,-61.0521,7.0702,-2.1641,-1.2904
3332101.0,18.761,24.7369,-71.4047,5.9911,-1.2239,-0.141
3332111.0,14.5663,28.9603,-78.4532,3.6359,-0.1612,1.1079
3332121.0,7.5848,35.2043,-78.4532,0.9674,1.0073,2.3897
3332131.0,-2.6624,39.6001,-78.4532,-2.0066,3.961,3.6971
3332141.0,-20.1975,48.0947,-78.4532,-2.983,7.7928,4.7661
3332151.0,-44.4747,56.9628,-78.4532,2.4791,17.0547,5.8383
3332161.0,-78.4532,78.4508,-78.4532,7.5693,17.4357,8.0519
3332171.0,-78.4532,78.4508,-78.4532,10.6603,17.4357,11.9779
3332181.0,-78.4532,78.4508,-78.4532,7.721,17.4357,16.6285
3332191.0,-78.4532,68.5604,-78.4532,8.6112,17.4357,17.4357
3332201.0,-78.4532,19.6803,-43.9192,17.4357,17.4357,17.4357
3332211.0,-78.4532,-70.8779,78.4508,17.4357,17.4357,15.9187
3332221.0,-78.4532,-38.4221,78.4508,17.4357,17.4357,4.6108
3332231.0,-78.4532,28.6921,78.4508,17.4357,17.4357,-3.0368
3332241.0,-78.4532,48.0181,78.4508,3.3241,17.4357,-6.6376
3332251.0,-78.4532,20.1209,78.4508,-10.2059,17.4357,-7.622
3332261.0,-78.4532,23.9803,78.4508,2.5004,15.0215,-5.22
3332271.0,-78.4532,44.8195,78.4508,9.155,3.6205,-2.2274
3332291.0,18.0427,-21.2701,78.4508,0.0,0.0,0.0
3332301.0,-78.4532,3.8116,78.4508,-0.4667,-3.5013,0.439
3332351.0,0.0,0.0,0.0,0.0,0.0,0.0
3332361.0,-61.5406,6.5314,40.2705,0.0,0.0,0.0
3332371.0,-57.5183,6.675,29.5349,0.0,0.0,0.0
3332381.0,-50.7858,-0.6991,21.7202,-5.6851,-17.4363,-4.9598
3332391.0,-45.011,-12.785,24.1719,-4.0712,-17.4363,-5.4669
3332401.0,-41.4293,-20.3699,32.7335,-3.0187,-15.5648,-6.7392
3332411.0,-41.956,-22.3427,44.4268,-2.8026,-15.6771,-8.3393
3332421.0,-41.7453,-19.0962,57.8343,-2.8777,-16.2773,-9.867
3332431.0,-45.9399,-10.5919,72.8987,-1.9608,-17.4363,-11.0126
3332441.0,-52.184,2.7869,78.4508,-3.0948,-17.4363,-11.4346
3332451.0,-57.9205,11.4347,78.4508,-4.5442,-17.4363,-11.268
3332461.0,-61.9045,19.0291,70.1214,-4.722,-17.4363,-10.6401
3332471.0,-67.0568,24.0665,52.7874,-3.8089,-17.4363,-9.5445
3332481.0,-63.906,28.4048,24.9188,-1.7145,-17.4363,-8.062
3332491.0,-54.9996,29.6594,-5.794,-0.4236,-17.4363,-6.4359
3332501.0,-46.2943,26.93,-22.314,1.3335,-17.4363,-5.0407
3332511.0,-39.217,28.5485,-32.5133,1.3106,-17.4363,-3.8472
3332521.0,-27.8206,28.5102,-34.5723,0.8445,-17.4363,-2.5658
3332531.0,-19.2207,27.8972,-33.2986,0.7157,-17.4363,-1.2372
3332541.0,-11.9902,24.124,-28.8932,0.2852,-17.4363,-0.0511
3332551.0,-6.7038,18.4258,-26.7768,-0.2315,-17.4363,0.8407
3332561.0,-0.4501,9.5289,-24.1623,-0.7939,-16.8451,1.1526
3332571.0,6.1962,1.8483,-25.9244,0.0303,-15.5723,0.7306
3332581.0,9.1937,-0.5459,-26.2883,1.3292,-13.7998,-0.0575
3332591.0,11.6454,2.2505,-28.2516,2.7877,-12.2492,-0.7492
3332601.0,11.0421,7.1347,-28.5389,3.712,-10.9791,-0.9823
3332611.0,13.3884,11.3102,-28.2516,4.3665,-10.1415,-0.8567
3332621.0,13.7714,14.3652,-29.1231,4.8949,-9.876,-0.4411
3332631.0,11.0325,17.3915,-41.8028,4.1574,-11.2329,0.1256
3332641.0,12.536,22.0075,-71.2131,0.9637,-11.6565,0.6103
3332651.0,11.8561,27.8302,-78.4532,-3.6524,-9.7573,1.1552
3332661.0,8.1499,33.2411,-78.4532,-6.1193,-4.4421,1.8709
3332671.0,3.6488,41.6783,-78.4532,-5.7787,4.3122,3.0442
3332681.0,-6.3494,46.3996,-78.4532,-3.4188,14.7071,4.6815
3332691.0,-27.1886,52.2989,-78.4532,-1.0445,17.4357,6.7568
3332701.0,-54.425,55.4114,-78.4532,1.1669,17.4357,9.2683
3332711.0,-78.4532,56.3499,-78.4532,3.6343,17.4357,11.9933
3332721.0,-78.4532,57.4034,-78.4532,6.0411,17.4357,14.9029
3332731.0,-78.4532,56.5989,-78.4532,10.7998,17.4357,17.4357
3332741.0,-78.4532,50.4889,-60.8606,14.0206,17.4357,17.4357
3332751.0,-78.4532,6.0238,-7.2975,16.1619,17.4357,17.4357
3332761.0,-78.4532,-46.4284,64.3849,17.4357,17.4357,17.1521
3332771.0,-78.4532,-78.4532,78.4508,17.4357,17.4357,9.586
3332781.0,-78.4532,-66.5875,78.4508,17.4357,17.4357,1.119
3332791.0,-78.4532,-28.4431,78.4508,17.3426,17.4357,-4.9486
3332801.0,-78.4532,10.228,78.4508,8.3797,17.4357,-8.6239
3332811.0,-78.4532,48.4012,78.4508,-1.3532,17.4357,-9.0544
3332821.0,-78.4532,73.0136,78.4508,-3.8706,14.5304,-6.2034
3332831.0,-78.4532,78.4508,78.4508,-3.4428,4.1893,-1.0844
3332841.0,-78.4532,76.0015,78.4508,1.0233,-4.3511,4.4878
3332851.0,-78.4532,53.9462,78.4508,4.623,-10.4166,8.7469
3332881.0,0.0,0.0,0.0,0.0,0.0,0.0
3332891.0,-47.6925,-6.426,40.4141,0.0,0.0,0.0
3332901.0,-43.5266,-4.5298,41.2952,-5.0944,-9.5855,6.0086
3332911.0,-39.9544,-1.7621,47.3956,-7.1755,-9.4322,4.2558
3332921.0,-35.7215,-0.1724,54.2813,-6.96,-10.6524,3.2587
3332931.0,-32.8963,1.5897,53.0938,-5.4994,-12.1082,2.6515
3332941.0,-28.8741,0.1532,47.5872,-4.0148,-13.58,2.1896
3332951.0,-26.1447,-0.68,36.095,-2.8883,-14.7092,1.6735
3332961.0,-23.3578,0.431,22.9939,-2.3525,-14.7289,1.2499
3332971.0,-20.4752,1.3599,9.8162,-2.3929,-13.8328,0.8806
3332981.0,-17.9565,1.7047,0.7087,-3.0772,-11.9603,0.5279
3332991.0,-16.4721,1.5323,-3.1508,-3.6886,-9.9047,0.1846
3333001.0,-14.6621,1.1684,-3.9361,-4.2489,-7.7609,-0.1399
3333011.0,-12.6988,0.5746,-0.9577,-4.0441,-5.5435,-0.4353
3333021.0,-10.9271,-0.0575,4.6064,-3.3214,-3.5417,-0.6715
3333031.0,-11.1953,-1.0247,9.4523,-1.8768,-2.2551,-0.945
3333041.0,-9.5864,-0.3352,10.4866,-0.4832,-0.8636,-1.1504
3333051.0,-9.8067,0.565,12.7946,0.7391,0.6045,-1.3319
3333061.0,-9.8737,2.9209,13.9151,1.1329,1.6495,-1.474
3333071.0,-10.908,4.7692,18.0044,0.7976,2.4057,-1.5176
3333081.0,-12.1051,6.3398,21.6819,0.0851,2.5414,-1.4803
3333091.0,-11.8369,6.1962,24.5454,-0.8881,2.5648,-1.4516
3333101.0,-12.8712,6.7612,26.6906,-1.5458,2.6872,-1.4628
3333111.0,-13.6086,7.4412,30.3489,-1.7054,2.8952,-1.3548
3333121.0,-14.2694,8.4467,33.2698,-1.2233,3.2512,-1.1281
3333131.0,-15.2271,9.7779,35.9705,-0.5843,3.5348,-0.7913
3333141.0,-15.3325,9.7588,38.8627,-0.2751,3.4891,-0.4305
3333151.0,-15.5815,8.7915,42.4827,0.0686,3.2065,-0.1846
3333161.0,-16.6062,8.7245,43.9192,0.2192,2.6286,0.0239
3333171.0,-16.6828,8.1211,44.4651,0.1735,1.989,0.183
3333181.0,-17.5543,7.1251,43.833,0.1229,1.4042,0.2708
3333191.0,-17.2861,5.9089,41.4197,-0.1165,1.0584,0.2634
3333201.0,-16.8169,4.2808,41.0079,-0.257,1.094,0.1527
