time_ms,ax,ay,az,gx,gy,gz
3622951.0,10.6303,5.3343,37.0622,-0.4193,1.0499,0.1809
3622961.0,10.9654,5.6503,36.4972,-0.2224,1.2302,0.4518
3622971.0,11.3964,5.2289,37.1101,0.1086,1.5096,0.6917
3622981.0,11.1378,5.114,37.7805,0.6497,1.7368,0.9285
3622991.0,11.2049,4.7597,39.1979,1.6416,1.939,1.1488
3623001.0,10.5536,5.2194,39.5714,2.5903,2.0247,1.4048
3623011.0,10.4387,5.2864,39.2553,3.9477,1.9614,1.665
3623021.0,8.2265,5.047,36.9282,4.7693,1.9678,2.0667
3623031.0,6.9719,3.3423,32.2547,5.4717,1.9491,2.3131
3623041.0,5.9759,0.7949,26.8055,4.7688,2.369,2.386
3623051.0,6.7325,-0.9481,21.701,3.5391,3.0341,2.1673
3623061.0,7.0102,-2.2984,20.3699,1.6229,4.1047,1.8172
3623071.0,6.3782,-1.9537,22.1512,0.0862,5.3722,1.4149
3623081.0,6.1292,-2.0207,29.6689,-0.539,6.6413,0.9892
3623091.0,4.1084,-1.1588,37.2059,0.207,7.5496,0.6119
3623101.0,2.1069,0.1437,41.3814,1.6511,8.3494,0.2868
3623111.0,1.7526,3.4285,44.0246,2.4706,9.4743,-0.0101
3623121.0,0.8236,7.9966,49.4163,2.2439,10.1671,-0.0569
3623131.0,0.2586,11.6837,58.9644,2.0662,10.8131,0.1336
3623141.0,-2.2793,14.9973,70.8301,1.8768,10.8684,0.5726
3623151.0,-2.9688,15.0547,78.4508,2.0422,10.0218,1.1366
3623161.0,-4.865,13.6469,78.4508,2.4355,8.6798,1.5639
3623171.0,-6.4452,12.3349,78.4508,2.0321,6.6216,1.8347
3623181.0,-7.1251,10.3717,78.4508,0.829,4.2095,1.9204
3623191.0,-6.7133,8.6191,78.4508,-1.7033,1.7943,1.765
3623201.0,-6.7612,7.9009,78.4508,-4.5187,-0.3187,1.4085
3623211.0,-6.8474,7.8338,78.4508,-6.9489,-2.1668,1.0882
3623221.0,-7.2496,8.1211,78.4508,-8.7953,-4.1436,0.7678
3623231.0,-7.5465,8.5042,78.4508,-10.3235,-6.3891,0.4715
3623241.0,-7.9583,9.3278,78.4508,-10.5449,-8.6005,0.2288
3623251.0,-10.343,10.41,78.4508,-9.9212,-10.8312,0.0766
3623261.0,-12.1242,10.7835,78.4508,-9.0917,-12.7899,-0.0341
3623271.0,-14.4035,11.5209,78.4508,-8.4324,-14.8209,-0.1261
3623281.0,-16.0028,11.7316,78.4508,-7.3293,-16.3337,-0.1772
3623291.0,-17.5256,12.3541,74.498,-5.4813,-17.3618,-0.1751
3623301.0,-17.1904,11.904,65.4862,-3.2885,-17.4363,-0.0697
3623311.0,-17.6117,10.8505,56.6851,-1.0307,-17.4363,0.0436
3623321.0,-17.9278,9.7683,46.821,0.3044,-17.4363,0.1474
3623331.0,-17.4872,10.2185,36.5738,0.2703,-17.4363,0.2623
3623341.0,-16.8743,10.3046,29.7934,-0.5108,-17.4363,0.447
3623351.0,-16.5966,10.9463,23.9707,-1.0706,-17.4363,0.6412
3623361.0,-15.0069,11.1187,20.5327,-0.6981,-17.4363,0.8998
3623371.0,-12.8617,11.224,16.5104,0.2921,-17.1675,1.2877
3623381.0,-9.7109,9.1937,12.4498,1.3665,-16.2736,1.723
3623391.0,-7.0006,6.79,8.8394,2.1572,-15.2323,2.1178
3623401.0,-3.8786,3.2082,8.6957,2.6409,-14.333,2.3535
3623411.0,-2.2793,0.8332,8.2935,2.8931,-13.8269,2.4498
3623421.0,-0.0287,-2.2505,6.857,2.1136,-14.2463,2.5435
3623431.0,2.9305,-6.9815,3.8882,1.2324,-14.8486,2.3264
3623441.0,5.9568,-10.4291,-0.5842,0.7231,-15.1008,1.7847
3623451.0,8.7149,-12.6031,-7.1539,0.5103,-15.1711,1.1222
3623461.0,9.8162,-12.7467,-14.0971,0.9679,-14.4953,0.3767
3623471.0,10.7739,-10.1418,-22.065,1.5117,-13.3933,-0.116
3623481.0,10.9176,-8.2169,-29.5828,2.0885,-12.0678,-0.3395
3623491.0,13.5416,-8.916,-39.5522,2.1162,-10.7465,-0.4597
3623501.0,15.208,-10.5536,-51.1401,1.8805,-9.2204,-0.745
3623511.0,15.7826,-9.5577,-68.1581,0.5816,-7.1734,-1.1084
3623521.0,15.4953,-7.6136,-78.4532,0.0559,-4.0409,-1.5474
3623531.0,14.6334,-0.6129,-78.4532,1.6155,0.1825,-2.0045
3623541.0,10.2472,8.3222,-78.4532,3.7519,4.6805,-2.1157
3623551.0,0.8906,13.9151,-78.4532,5.2988,8.36,-2.013
3623561.0,-7.9009,19.9198,-78.4532,5.1242,12.4466,-1.8177
3623571.0,-25.3211,31.2012,-78.4532,3.1288,17.1968,-1.1706
3623581.0,-43.0573,41.5059,-78.4532,0.4236,17.4357,0.3927
3623591.0,-65.0265,43.6224,-78.4532,-2.3892,17.4357,2.3652
3623601.0,-78.4532,33.7008,-78.4532,-2.8676,17.4357,3.8823
3623611.0,-78.4532,19.2111,-73.004,0.5816,17.4357,4.342
3623621.0,-78.4532,0.9577,-53.7163,3.5705,17.4357,3.4965
3623631.0,-78.4532,-12.6988,-16.1944,10.2927,17.4357,0.8721
3623641.0,-78.4532,-8.351,25.8765,17.4357,17.4357,-2.4695
3623651.0,-78.4532,7.2209,78.4508,17.4357,17.4357,-5.4882
3623661.0,-78.4532,35.8843,78.4508,17.4357,17.4357,-6.9781
3623671.0,-78.4532,59.721,78.4508,17.0633,17.4357,-6.1917
3623681.0,-78.4532,59.3379,78.4508,10.8237,17.4357,-3.9728
3623691.0,-78.4532,43.4212,78.4508,8.9767,17.4357,-3.1501
3623701.0,-77.0837,36.8899,78.4508,7.1521,16.1496,-2.9772
3623711.0,-78.4532,-78.4532,78.4508,-12.4147,-17.4363,0.364
3623721.0,-53.3237,-55.5934,78.4508,17.4357,-12.4094,-4.4852
3623731.0,-61.4352,34.8787,78.4508,-10.0266,-5.7016,-1.1499
3623741.0,-38.6137,21.2605,78.4508,5.9469,-17.4363,-3.215
3623751.0,-7.4412,31.977,57.0778,-10.8567,-1.5724,-0.522
3623761.0,-32.8772,23.6643,78.4508,2.3402,-4.0249,-2.212
3623771.0,-36.3727,37.1197,78.4508,-15.3328,-12.6696,0.4933
3623781.0,-22.6587,-1.3408,78.4508,-4.8896,-17.4363,-1.1526
3623791.0,-30.1191,15.955,78.4508,-9.1949,-17.4363,-1.2084
3623801.0,-36.8803,11.3389,78.4508,-7.2836,-17.4363,-2.2508
3623811.0,-36.0279,27.4184,35.281,-13.2954,-17.4363,-1.7719
3623821.0,-32.2451,23.5685,32.1876,-9.0842,-17.4363,-1.9795
3623831.0,-31.1821,38.0103,9.8545,-9.5291,-17.4363,-0.8583
3623841.0,-26.9204,31.6035,16.9222,-6.1645,-17.4363,0.2288
3623851.0,-26.0776,30.8565,0.8236,-6.9191,-17.4363,1.7049
3623861.0,-19.3356,15.3899,-0.996,-7.7364,-17.4363,2.262
3623871.0,-10.2663,7.4795,-10.9942,-8.8868,-16.6652,2.1215
3623881.0,-7.5561,-1.2067,-1.2067,-8.211,-14.1191,1.2797
3623891.0,-3.1412,-2.4995,2.059,-6.8536,-12.6904,0.4997
3623901.0,0.3735,-5.861,8.2169,-4.9109,-10.8679,-0.3954
3623911.0,2.059,-1.5323,9.4332,-4.0669,-9.8569,-1.0233
3623921.0,4.3862,-0.4214,19.8719,-2.9128,-9.3013,-1.3675
3623931.0,3.8786,5.0757,22.7641,-2.3291,-9.4599,-1.3095
3623941.0,4.6448,5.9759,26.5086,-1.8592,-10.4943,-1.0062
3623951.0,6.6272,6.7804,23.0801,-1.3276,-10.5252,-0.6204
3623961.0,9.0118,5.9855,22.3427,-0.6949,-10.2219,-0.3379
3623971.0,8.4946,8.0828,19.757,-1.0499,-10.2767,0.0697
3623981.0,8.5904,4.1851,18.8376,-1.7741,-10.4943,0.5656
3623991.0,13.398,-4.2329,16.8648,-2.1151,-10.0473,0.5013
3624001.0,16.0795,-7.6614,17.5064,-1.9848,-8.8442,-0.0309
3624011.0,16.204,-7.2018,23.5111,-2.2966,-8.7612,-0.5353
3624021.0,14.0875,-5.7844,29.171,-2.1561,-9.7297,-0.9541
3624031.0,13.7523,-3.5147,28.5963,-0.39,-10.9658,-1.2457
3624041.0,13.0532,0.6608,18.3013,1.2845,-11.4447,-1.3234
3624051.0,14.4227,3.6009,6.8283,2.6563,-11.044,-1.2143
3624061.0,13.0053,6.5697,-5.2385,3.0453,-10.8546,-0.8796
3624071.0,10.9654,8.8585,-25.0434,1.6166,-10.5827,-0.2863
3624081.0,9.7013,6.0717,-46.2943,-2.2141,-10.2405,0.3209
3624091.0,9.8258,1.3982,-64.4519,-5.3515,-7.6502,0.3219
3624101.0,14.7866,2.9305,-76.0111,-5.6234,-2.6845,-0.1937
3624111.0,8.2361,10.2951,-78.4532,-3.2432,2.071,-0.647
3624121.0,6.7804,22.2373,-78.4532,1.4239,8.1142,-0.8088
3624131.0,-3.5434,37.6752,-78.4532,6.3885,14.5836,-0.2591
3624141.0,-19.7665,54.5208,-78.4532,9.8244,17.4357,1.2393
3624151.0,-39.8108,62.9005,-78.4532,11.2872,17.4357,3.5465
3624161.0,-53.86,55.4976,-78.4532,10.6077,17.4357,5.7814
3624171.0,-74.1245,42.6934,-72.9178,7.9636,17.4357,7.2554
3624181.0,-78.4532,24.938,-33.605,6.1299,17.4357,7.9833
3624191.0,-78.4532,6.4931,17.1808,6.6589,17.4357,7.3192
3624201.0,-78.4532,-1.0151,73.6744,8.2366,17.4357,5.4983
3624211.0,-78.4532,4.8267,78.4508,11.0525,17.4357,3.9382
3624221.0,-78.4532,18.4162,78.4508,12.5217,17.4357,3.0985
3624231.0,-78.4532,27.1694,78.4508,10.5007,17.4357,3.339
3624241.0,-69.1733,12.0093,78.4508,9.752,17.4357,3.2448
3624251.0,-56.733,8.9735,78.4508,7.9381,17.4357,2.8404
3624261.0,-53.2279,-0.814,78.4508,6.7451,17.4357,2.1008
3624271.0,-40.462,2.624,78.4508,4.0297,14.5309,1.2026
3624281.0,-36.0567,5.6886,78.4508,2.3876,4.664,0.8514
3624291.0,-32.2068,8.4467,78.4508,0.8551,-4.2665,0.8663
3624301.0,-31.5652,5.5067,78.4508,-1.1738,-11.2755,0.9184
3624311.0,-27.7249,1.5036,78.4508,-2.5637,-14.9747,0.7157
3624321.0,-23.7984,-1.7142,78.4508,-3.3901,-14.8294,0.2794
3624331.0,-22.2757,-2.8539,78.3862,-4.5395,-13.4151,-0.2458
3624341.0,-19.7857,-4.118,68.8668,-6.2204,-12.1008,-0.7609
3624351.0,-18.5024,-5.5641,69.2595,-7.3783,-11.5729,-1.4069
3624361.0,-17.9469,-4.2234,71.4717,-8.0445,-11.9592,-2.1391
3624371.0,-18.2151,0.316,74.7278,-7.9263,-12.7553,-2.6627
3624381.0,-20.2933,5.9376,73.7989,-7.0547,-14.7837,-2.866
3624391.0,-20.2837,11.1666,64.835,-6.405,-16.2954,-2.7249
3624401.0,-20.0443,12.402,54.9613,-5.8916,-16.7855,-2.3998
3624411.0,-17.9374,9.2703,46.754,-5.7926,-16.7222,-2.2306
3624421.0,-15.0452,4.4245,41.6783,-6.3901,-16.4455,-2.4296
3624431.0,-13.4171,-0.3352,43.4117,-6.6078,-16.446,-3.057
3624441.0,-12.2775,1.8962,41.6112,-6.38,-16.9904,-3.7386
3624451.0,-13.8385,4.9129,40.7972,-6.032,-17.4363,-4.1031
3624461.0,-13.9534,9.8545,33.7487,-5.4483,-17.4363,-4.1925
3624471.0,-12.8138,13.4458,25.8095,-5.2823,-17.4363,-3.944
3624481.0,-11.7412,16.5104,20.7721,-4.7746,-17.2144,-3.5194
3624491.0,-8.983,19.3835,17.2957,-4.3186,-16.2215,-2.8484
3624501.0,-6.426,19.6612,16.836,-3.8663,-15.5254,-2.0263
3624511.0,-3.802,16.9605,13.283,-3.7487,-15.1434,-1.2137
3624521.0,0.7183,12.2583,9.596,-4.0036,-14.5102,-0.6556
3624531.0,6.2345,7.6136,8.0828,-3.7737,-13.2863,-0.4337
3624541.0,7.4891,6.3303,8.2456,-3.6077,-12.4727,-0.4225
3624551.0,7.4795,7.9009,8.2169,-3.2427,-11.9938,-0.2932
3624561.0,7.6136,11.8561,3.0933,-3.0591,-11.6346,0.1011
3624571.0,10.9846,11.8657,-0.2682,-2.461,-10.3698,0.7247
3624581.0,12.6893,8.9352,-5.7557,-1.8108,-8.8118,1.2334
3624591.0,16.1752,3.8978,-8.6383,-1.8033,-7.2048,1.5107
3624601.0,18.4449,-1.3982,-8.734,-1.4484,-5.2573,1.417
3624611.0,20.7146,-4.6831,-7.6136,-1.0541,-3.5763,1.0844
3624621.0,22.7353,-6.0908,-6.4548,-0.3203,-1.8885,0.6008
3624631.0,23.4249,-4.8363,-4.5107,0.2666,-0.4252,0.125
3624641.0,22.1607,-1.4269,-0.9768,0.8487,0.7295,-0.1836
3624651.0,21.0115,1.6472,1.5706,1.1701,1.1579,-0.2304
3624661.0,21.1647,3.5913,1.9154,1.533,1.4974,-0.1107
3624671.0,19.9676,5.6024,1.2067,1.8991,1.9842,0.1208
3624681.0,20.0634,6.11,-0.2298,2.4009,2.5334,0.456
3624691.0,20.2166,5.4013,-4.3191,2.7553,3.0107,0.7684
3624701.0,19.7665,4.1563,-9.6055,2.402,3.3975,0.9408
3624711.0,16.9126,4.2138,-15.275,1.7964,3.8152,0.9434
3624721.0,12.8138,6.4356,-20.4082,1.7342,4.5017,0.8689
3624731.0,5.6886,12.718,-33.0783,0.9477,4.383,1.0131
3624741.0,-3.7924,18.6748,-50.5081,-0.0676,4.5719,1.4404
3624751.0,-10.0078,25.2062,-73.6648,-0.1474,7.0196,2.0614
3624761.0,-24.0569,32.2643,-78.4532,1.8294,12.8287,2.8729
3624771.0,-41.2473,37.8188,-78.4532,3.8818,17.4357,4.2686
3624781.0,-55.6125,29.0081,-78.4532,5.8596,17.4357,5.509
3624791.0,-78.4532,20.8296,-73.2626,7.4187,17.4357,5.9267
3624801.0,-78.4532,12.3732,-20.0538,10.364,17.4357,5.5106
3624811.0,-78.4532,4.6064,44.4364,13.8312,17.4357,4.3314
3624821.0,-78.4532,5.8227,78.4508,15.6069,17.4357,2.5637
3624831.0,-78.4532,12.8521,78.4508,15.1998,17.4357,1.5761
3624841.0,-78.4532,19.0004,78.4508,13.2938,17.4357,0.8934
3624851.0,-77.1603,26.6235,78.4508,9.088,17.4357,0.92
3624861.0,-63.0728,17.7746,78.4508,6.4716,17.4357,1.2781
3624871.0,-56.4457,7.422,78.4508,6.1459,15.4744,1.0536
3624881.0,-51.1306,4.367,78.4508,6.6402,6.8584,0.5459
3624891.0,-42.1954,8.4851,78.4508,5.7899,1.8938,0.1341
3624901.0,-44.015,14.5376,78.4508,3.8099,-2.5839,0.1479
3624911.0,-41.3239,13.7044,78.4508,-0.0788,-7.175,0.3975
3624921.0,-35.7502,5.2289,78.4508,-3.082,-10.2027,0.1868
3624931.0,-32.2355,-4.4724,78.4508,-5.5744,-12.9793,-0.6055
3624941.0,-30.2148,-10.4387,78.4508,-7.4331,-15.8059,-1.9523
3624951.0,-32.6378,-8.3127,78.4508,-8.442,-17.4363,-3.2512
3624961.0,-35.3384,-0.0096,78.4508,-8.1137,-17.4363,-4.0031
3624971.0,-38.1827,8.0637,78.4508,-7.1633,-17.4363,-4.1037
3624981.0,-39.7437,14.6621,68.4263,-6.0331,-17.4363,-3.637
3624991.0,-39.4373,14.6238,51.0731,-5.7394,-17.4363,-2.9149
3625001.0,-35.5108,9.5672,33.4231,-5.7234,-17.4363,-2.4381
3625011.0,-29.3912,0.565,21.5287,-6.1416,-17.4363,-2.5078
3625021.0,-22.7449,-5.7078,15.7634,-6.6035,-17.4363,-3.3065
3625031.0,-21.2414,-3.553,17.4106,-6.6998,-17.4363,-4.2606
3625041.0,-20.2741,3.6966,17.5447,-5.7011,-17.4363,-4.7794
3625051.0,-16.6445,10.0844,11.7029,-4.5256,-17.4363,-4.6959
3625061.0,-12.4498,13.963,6.7516,-3.2038,-17.0787,-4.3069
3625071.0,-8.916,14.8919,3.6488,-2.6669,-15.3014,-3.6945
3625081.0,-4.4149,12.0764,4.798,-2.8819,-13.8961,-3.2794
3625091.0,-3.3423,13.4746,6.3398,-3.8365,-13.4146,-2.9681
3625101.0,-1.7142,13.4841,10.3621,-4.5315,-13.1842,-2.4999
3625111.0,-0.1245,15.093,8.4467,-4.8092,-13.0006,-2.0407
3625121.0,2.9784,14.0013,5.1811,-5.004,-12.469,-1.4702
3625131.0,7.6614,9.5577,1.8387,-4.1797,-10.7428,-1.1808
3625141.0,11.9135,4.7692,3.5626,-2.883,-8.1908,-1.1866
3625151.0,14.6238,1.9154,9.6343,-0.961,-6.4763,-1.4468
3625161.0,14.528,3.4955,14.0588,-0.1197,-5.8974,-1.6751
3625171.0,14.1737,7.2401,16.7211,-0.0575,-6.1246,-1.5942
3625181.0,14.6621,12.1338,13.8481,-0.1596,-6.048,-1.1818
3625191.0,14.1354,15.1409,10.7739,-0.4007,-5.5707,-0.4821
3625201.0,15.6102,16.2135,7.039,-0.5369,-4.5001,0.3257
3625211.0,17.3819,13.1394,6.5505,-0.6439,-2.7398,1.1829
3625221.0,19.7474,4.0223,11.8561,-0.6375,-0.9828,1.5421
3625231.0,20.9445,-1.7909,20.1496,-0.6178,-0.3134,1.3808
3625241.0,21.0402,-4.865,29.3242,-0.1187,-0.6141,1.0435
3625251.0,20.9157,-4.4724,32.2451,1.0621,-1.4351,0.6694
3625261.0,21.4042,-1.1492,27.8494,1.6102,-2.1178,0.5055
3625271.0,19.5271,2.0686,22.0075,1.093,-3.2257,0.6103
3625281.0,18.8663,5.1906,11.9997,-0.3081,-4.4203,0.9051
3625291.0,17.6213,6.4452,2.7198,-1.2478,-4.5506,1.3133
3625301.0,18.1289,5.047,-11.2336,-1.2223,-4.5783,1.7262
3625311.0,21.0498,2.3846,-29.5923,-0.4688,-1.7102,1.9012
3625321.0,16.8456,1.9345,-44.3406,-0.4161,1.9475,2.0513
3625331.0,14.8728,-0.3352,-52.9789,-0.0037,6.164,2.0758
3625341.0,10.0556,3.6009,-57.6236,1.8837,12.1407,1.963
3625351.0,-1.1971,10.9559,-53.362,2.5158,16.2076,2.2514
3625361.0,-6.4643,17.4777,-46.9264,3.3028,17.4357,2.7468
3625371.0,-16.0795,24.8135,-43.5266,2.7654,17.4357,3.5348
3625381.0,-25.6946,28.3761,-42.5114,1.2095,17.4357,4.6741
3625391.0,-35.3288,25.436,-48.2001,1.0445,17.4357,5.7702
3625401.0,-45.8633,15.9071,-54.7123,3.0128,17.4357,6.1959
3625411.0,-54.6357,2.9305,-56.7905,4.7475,17.4357,5.6665
3625421.0,-75.1875,-7.0581,-39.7246,7.8396,17.4357,4.0323
3625431.0,-78.4532,-3.1316,-17.3915,10.4225,17.4357,2.0587
3625441.0,-78.4532,8.6383,21.5574,12.6691,17.4357,0.6391
3625451.0,-78.4532,21.3563,66.4918,13.1262,17.4357,0.1559
3625461.0,-78.4532,34.3329,78.4508,11.6453,17.4357,0.3475
3625471.0,-78.4532,40.8834,78.4508,8.6633,17.4357,1.5421
3625481.0,-78.4532,35.4342,78.4508,6.4247,17.4357,2.7516
3625491.0,-78.4532,23.2046,78.4508,4.9412,17.4357,3.4002
3625501.0,-76.5283,14.7196,78.4508,3.6279,14.7778,3.5545
3625511.0,-64.4806,2.8443,78.4508,1.2052,0.1383,3.2629
3625521.0,-57.796,-5.7748,78.4508,0.0287,-11.9874,2.3594
3625531.0,-55.8711,-10.8026,78.4508,-2.6409,-17.4363,1.2068
3625541.0,-53.8025,-14.0492,78.4508,-5.1205,-17.4363,-0.0878
3625551.0,-49.6749,-14.7387,78.4508,-8.0227,-17.4363,-1.3079
3625561.0,-45.9495,-15.7538,78.4508,-9.7494,-17.4363,-2.5813
3625571.0,-43.201,-14.9207,72.3815,-9.7361,-17.4363,-3.654
3625581.0,-41.6974,-13.149,69.9298,-7.597,-17.4363,-4.5724
3625591.0,-40.5482,-7.853,64.8637,-5.2323,-17.4363,-5.1838
3625601.0,-39.6097,-3.2082,60.0657,-3.4795,-17.4363,-5.4281
3625611.0,-38.6616,1.0726,48.6981,-2.8085,-17.4363,-5.4206
3625621.0,-36.2961,3.0263,37.3495,-3.446,-17.4363,-5.3435
3625631.0,-33.6242,4.8363,24.871,-4.4857,-17.4363,-5.3589
3625641.0,-29.9467,5.1906,16.8169,-5.4307,-17.4363,-5.3935
3625651.0,-28.1175,7.2018,11.3102,-5.3871,-17.4363,-5.4132
3625661.0,-21.2031,4.8842,8.4755,-5.0854,-17.4363,-5.3504
3625671.0,-16.5391,0.3256,12.9574,-3.4928,-17.4363,-5.7234
3625681.0,-14.5567,1.6376,14.9111,-2.8064,-17.1367,-6.0427
3625691.0,-10.6877,4.1851,18.6939,-2.0864,-16.7887,-6.2938
3625701.0,-10.1993,11.8369,17.085,-1.9582,-16.8323,-6.1049
3625711.0,-7.8817,19.1057,11.3102,-2.9085,-17.3974,-5.4041
3625721.0,-4.7118,23.3961,0.9864,-5.4084,-17.4363,-4.3234
3625731.0,-1.6855,22.1224,-4.0606,-7.2415,-16.2028,-3.2406
3625741.0,2.3463,16.5487,-0.9768,-7.4826,-13.8009,-2.4307
3625751.0,8.1594,7.2688,8.0445,-5.038,-11.5484,-2.1258
3625761.0,11.4156,-1.1013,14.5951,-2.138,-9.8244,-2.3849
3625771.0,12.4786,-5.114,20.5039,-0.2719,-9.6307,-3.0139
3625781.0,13.0628,-1.2641,21.8064,0.944,-9.8712,-3.62
3625791.0,11.4347,7.8051,17.9661,1.1095,-10.6944,-3.6083
3625801.0,12.2392,15.5144,8.4084,0.7588,-10.8838,-3.0235
3625811.0,12.3541,20.2837,-0.2298,0.2091,-10.1681,-2.0806
3625821.0,13.4363,22.2469,-8.849,-0.7583,-9.147,-0.9237
3625831.0,16.204,19.7761,-15.4378,-1.3239,-7.4161,0.1479
3625841.0,19.1536,14.5089,-18.5599,-1.1414,-4.491,0.9748
3625851.0,21.6436,7.4316,-15.9262,-0.0889,-1.5234,1.2819
3625861.0,22.1512,2.0877,-10.8122,0.6167,0.8099,1.2723
3625871.0,22.1416,-0.3448,-6.675,1.0983,2.0018,1.0387
3625881.0,21.5478,1.0822,-6.1579,0.9477,2.842,0.8344
3625891.0,19.5271,3.7924,-7.6231,0.1958,3.2262,0.8429
3625901.0,19.3547,5.0853,-8.3606,0.1916,3.9754,0.9062
3625911.0,16.8456,6.7133,-8.6,1.0515,5.0274,1.0158
3625921.0,12.4594,7.288,-13.216,1.1467,4.557,1.3133
3625931.0,10.8314,3.7924,-24.1623,0.4278,4.1186,1.4968
3625941.0,5.5067,0.3352,-39.6863,-1.1009,4.3442,1.4532
3625951.0,1.6855,-4.1946,-54.9421,-2.0635,5.5138,0.9695
3625961.0,-8.4563,-0.0575,-73.5116,-2.7132,8.0046,0.2517
3625971.0,-20.14,8.5138,-78.4532,-2.9878,11.4112,-0.2187
3625981.0,-40.3854,22.1703,-78.4532,-2.6669,16.4104,-0.0873
3625991.0,-62.7281,34.9937,-78.4532,-0.4906,17.4357,0.8088
3626001.0,-78.4532,45.1068,-78.4532,4.0425,17.4357,2.2248
3626011.0,-78.4532,45.3079,-78.4532,7.606,17.4357,4.176
3626021.0,-78.4532,31.1342,-54.0611,11.6793,17.4357,5.3259
3626031.0,-78.4532,8.8681,20.5422,14.7869,17.4357,4.6012
3626041.0,-78.4532,2.6336,78.4508,17.4357,17.4357,2.5914
3626051.0,-78.4532,9.3565,78.4508,17.4357,17.4357,0.8902
3626061.0,-78.4532,22.9077,78.4508,16.3327,17.4357,0.0341
3626071.0,-78.4532,34.5627,78.4508,8.4707,17.4357,0.3757
3626081.0,-78.4532,27.8685,78.4508,2.9857,15.8692,1.3537
3626091.0,-62.8622,4.367,78.4508,2.7989,5.3536,1.566
3626101.0,-53.0364,-7.1443,78.4508,3.1176,-2.5148,0.5353
3626111.0,-45.825,-6.6942,78.4508,0.1974,-8.426,-0.5848
3626121.0,-41.0462,-2.1739,78.4508,-0.3352,-10.7194,-1.4543
3626141.0,-43.5553,15.9167,78.4508,0.0,0.0,0.0
3626151.0,-37.9337,15.7634,78.4508,-2.7766,-17.4363,-0.2277
3626161.0,-39.9927,18.6269,78.4508,-2.834,-17.4363,0.2533
3626171.0,-39.0638,16.3668,78.4508,-2.8266,-17.4363,1.1329
3626181.0,-35.6928,2.1356,78.4508,-2.0045,-17.4363,1.4037
3626191.0,-34.3041,-8.2648,73.6361,-1.7767,-17.4363,0.547
3626201.0,-33.6337,-5.928,67.4878,-2.7116,-17.4363,-0.5656
3626211.0,-34.6968,-4.1946,67.7368,-3.2831,-17.4363,-1.3787
3626221.0,-38.3743,1.2258,60.7744,-3.4316,-17.4363,-2.0843
3626231.0,-38.6807,7.5944,49.062,-4.739,-17.4363,-2.3658
3626241.0,-37.4166,12.9191,33.0687,-5.9102,-17.4363,-2.3253
3626251.0,-33.9689,15.706,19.8719,-7.2229,-17.4363,-2.0965
3626261.0,-30.7032,14.9973,15.1697,-6.0922,-17.4363,-1.8257
3626271.0,-25.2157,15.4282,6.2824,-4.7321,-17.4363,-1.4026
3626281.0,-19.8719,10.2568,2.8347,-3.2826,-17.4363,-1.0052
3626291.0,-13.5799,4.1659,0.68,-2.402,-17.4363,-1.0674
3626301.0,-9.6055,0.1245,4.2904,-2.5722,-15.9352,-1.5112
3626311.0,-8.3797,1.0151,8.7532,-3.3523,-15.7,-2.105
3626321.0,-6.2537,7.1251,9.2799,-4.9997,-16.1427,-2.4493
3626331.0,-5.2385,14.2503,6.9719,-6.3875,-16.3268,-2.3833
3626341.0,-2.9401,19.2207,5.1523,-7.0617,-15.5558,-1.8975
3626351.0,1.0247,18.7227,8.7436,-5.4403,-14.0951,-1.2893
3626361.0,5.6216,15.5623,10.5441,-2.4546,-12.5297,-0.77
3626371.0,6.4452,12.3828,8.9543,-0.6407,-11.9172,-0.4017
3626381.0,7.6519,8.8011,4.0893,-0.7072,-11.9975,-0.2107
3626391.0,11.4156,5.6886,0.0287,-1.2191,-11.3893,-0.2581
3626401.0,13.9917,6.4835,-2.8635,-1.3516,-10.0223,-0.4103
3626411.0,13.6853,10.8314,-7.8434,-2.4706,-8.8985,-0.2038
3626421.0,16.2135,15.1026,-8.9256,-3.8482,-7.2559,0.2889
3626431.0,17.1999,18.2821,-8.0254,-5.0593,-5.849,1.1403
3626441.0,18.5886,15.6293,-0.6704,-4.7315,-4.1808,2.0167
3626451.0,20.8487,11.1474,3.8499,-2.2764,-2.7712,2.7074
3626461.0,22.0171,4.5873,4.9512,0.1378,-1.4042,3.0474
3626471.0,23.195,-1.2163,3.2178,1.897,-0.0756,2.9798
3626481.0,22.9652,-5.0853,3.4955,2.4834,1.0382,2.6372
3626491.0,22.4959,-6.2153,2.3463,2.3785,1.7879,2.1556
3626501.0,20.5806,-5.8227,0.565,1.1052,2.2035,1.8055
3626511.0,19.4888,-4.6735,-0.7853,-0.1112,2.0795,1.5431
3626521.0,17.4489,-1.7047,-8.916,-1.9842,2.2013,1.4681
3626531.0,15.1505,-1.3503,-12.6031,-2.7398,2.7383,1.3936
3626541.0,10.9367,2.6528,-17.9278,-1.4532,3.8392,1.2941
3626551.0,4.8459,9.9599,-26.2692,1.2435,5.0631,1.3372
3626561.0,-0.0479,20.0251,-39.6671,4.5746,6.8658,1.607
3626571.0,-13.5512,33.2124,-62.1822,6.4364,8.1323,2.4679
3626581.0,-25.8765,46.6486,-78.4532,6.2816,10.878,4.0244
3626591.0,-45.0876,55.4497,-78.4532,6.3002,17.4357,6.2332
3626601.0,-72.4294,54.7506,-78.4532,7.0441,17.4357,8.9432
3626611.0,-78.4532,43.6319,-78.4532,7.8088,17.4357,11.0642
3626621.0,-78.4532,18.1193,-66.9036,10.5321,17.4357,11.5256
3626631.0,-78.4532,-0.4597,-8.6287,17.4357,17.4357,9.859
3626641.0,-78.4532,-12.9383,67.89,17.4357,17.4357,6.0693
3626651.0,-78.4532,6.177,78.4508,17.4357,17.4357,2.4195
3626661.0,-78.4532,41.6878,78.4508,16.9047,17.4357,1.2749
3626671.0,-78.4532,62.8047,78.4508,9.7526,17.4357,2.4286
3626681.0,-78.4532,57.9493,78.4508,1.2835,17.4357,4.8231
3626691.0,-78.4532,21.6723,78.4508,0.05,17.4357,6.064
3626701.0,-67.7846,-5.7174,78.4508,4.0632,17.4357,5.2887
3626711.0,-60.2477,-28.6825,78.4508,7.581,15.0178,3.5636
3626721.0,-50.3932,-27.5525,78.4508,7.4288,4.3942,0.4273
3626731.0,-49.2344,-12.038,78.4508,3.3369,-6.1741,-1.5133
3626741.0,-50.0101,1.8962,78.4508,-1.815,-14.913,-2.5706
3626751.0,-51.3221,7.1922,78.4508,-7.7433,-17.4363,-2.8436
3626761.0,-51.2168,8.6,78.4508,-11.2744,-17.4363,-2.8628
3626771.0,-48.1618,3.4093,78.4508,-11.0812,-17.4363,-2.9298
3626781.0,-46.9455,1.5131,78.4508,-7.8838,-17.4363,-3.0682
3626791.0,-43.3063,-4.0127,67.1143,-5.5212,-17.4363,-3.2501
3626801.0,-39.2266,-10.2472,59.29,-3.2906,-17.4363,-3.8642
3626811.0,-40.9983,-10.4483,55.1528,-2.162,-17.4363,-4.7938
3626821.0,-40.711,-1.3408,50.7667,-3.6705,-17.4363,-5.4142
3626831.0,-41.3526,4.9512,53.3715,-4.8103,-17.4363,-5.6803
3626841.0,-39.1404,12.6318,49.9335,-4.9263,-17.4363,-5.7016
3626851.0,-40.0215,18.895,42.8179,-5.7319,-17.4363,-5.4174
3626861.0,-38.9393,22.8503,30.5883,-7.6826,-17.4363,-4.7507
3626871.0,-33.1166,18.1193,22.3044,-8.865,-17.4363,-4.2154
3626881.0,-28.5102,10.659,15.6964,-7.3873,-17.4363,-4.2
3626891.0,-26.6523,7.1539,8.7532,-4.9423,-17.4363,-4.4564
3626901.0,-21.8064,11.3006,1.6281,-1.6613,-17.4363,-4.4894
3626911.0,-19.1632,19.1632,-4.2904,-1.2622,-17.4363,-3.8498
3626921.0,-15.9262,25.5222,-7.1826,-2.7122,-17.4363,-2.8734
3626931.0,-12.6701,31.1534,-15.3133,-6.1028,-17.4363,-1.5671
3626941.0,-7.5274,28.0984,-25.618,-11.3654,-17.4363,-0.2293
3626951.0,4.5107,13.4171,-22.1895,-13.0729,-16.8073,0.0761
3626961.0,9.73,5.7174,-16.5296,-9.0502,-12.9761,-0.6369
3626971.0,8.0637,4.9129,-8.8202,-4.2537,-10.1367,-1.1988
3626981.0,8.5904,4.8746,-8.7532,-0.4395,-8.1812,-1.384
3626991.0,15.5815,3.5338,-12.5648,1.6187,-6.4758,-1.4713
3627001.0,15.9071,8.1594,-10.8697,3.4332,-3.4672,-1.4468
3627011.0,15.2654,14.9111,-3.237,3.7849,-1.5218,-0.8487
3627021.0,14.0109,19.4122,6.4356,3.6604,-1.4234,0.116
3627031.0,14.0875,18.5599,7.3646,2.1066,-2.4051,1.3521
3627041.0,16.6445,7.0677,4.1084,0.4677,-2.7601,2.0657
3627051.0,20.0347,-4.118,2.0686,-0.572,-2.3259,1.8518
3627061.0,20.8679,-8.6,0.7278,-0.3964,-1.782,1.2324
3627071.0,22.9843,-9.0022,-1.6759,1.5053,0.1527,0.5199
3627081.0,21.9022,-4.5873,-2.4708,4.0217,2.6941,-0.009
3627091.0,20.5422,2.6815,0.8715,6.3146,5.0657,-0.1596
3627101.0,17.3532,10.8409,7.1635,7.4017,5.9905,0.1846
3627111.0,14.3748,19.4218,4.4915,6.3236,4.5581,1.1371
3627121.0,12.1625,19.326,-8.4851,2.328,2.2359,2.4238
3627131.0,9.3278,15.7443,-28.7879,-1.8055,1.085,3.3401
3627141.0,0.2873,15.6677,-54.8655,-7.5837,-0.1059,4.2947
3627151.0,-11.8752,20.7242,-76.1643,-7.8944,0.9466,4.987
3627161.0,-26.0489,31.7758,-78.4532,-3.2214,4.5299,6.0384
3627171.0,-40.9121,38.0391,-78.4532,7.3314,14.8816,6.5109
3627181.0,-76.2601,46.2177,-78.4532,10.7497,17.4357,7.6912
3627191.0,-78.4532,43.9097,-78.4532,14.9859,17.4357,8.0594
3627201.0,-78.4532,28.3665,-78.4532,12.1795,17.4357,8.509
3627211.0,-78.4532,1.8387,-47.5393,12.4238,17.4357,6.6301
3627221.0,-78.4532,-10.7069,51.9063,13.8732,17.4357,3.2262
3627231.0,-78.4532,-3.9935,78.4508,14.3718,17.4357,0.0468
3627241.0,-78.4532,30.4351,78.4508,13.1235,17.4357,-1.0797
3627251.0,-78.4532,56.302,78.4508,8.301,17.4357,0.6577
3627261.0,-78.4532,54.8464,78.4508,3.6428,17.4357,3.5375
3627271.0,-78.4532,32.7048,78.4508,2.6223,7.4719,5.5648
3627291.0,-56.1584,-34.4286,78.4508,0.0,0.0,0.0
3627301.0,-49.9239,-45.7293,78.4508,9.437,1.0488,0.1043
3627311.0,-43.9001,-37.7997,78.4508,0.4986,-3.33,-3.4688
3627321.0,-46.2368,-20.4082,78.4508,-5.0668,-8.6383,-5.9692
3627351.0,-50.8241,13.5799,78.4508,0.0,0.0,0.0
3627361.0,-48.4586,17.9278,78.4508,0.0,0.0,0.0
3627371.0,-43.3638,12.4307,65.2755,-4.606,-17.4363,-4.5943
3627381.0,-38.087,2.806,51.2742,-1.8927,-17.4363,-4.2095
3627391.0,-37.1963,-5.3439,43.7373,-0.0984,-17.4363,-4.516
3627401.0,-35.1181,-5.9568,33.7487,-1.9326,-17.4363,-5.2807
3627411.0,-33.0304,-0.68,33.3752,-4.366,-17.4363,-6.1193
3627421.0,-34.4382,12.5073,28.3952,-6.8903,-17.4363,-6.3763
3627431.0,-32.5994,19.2111,27.246,-9.3444,-17.4363,-6.0671
3627441.0,-29.7456,22.7258,26.2117,-8.591,-17.4363,-5.5537
3627451.0,-26.0106,21.4904,28.3186,-5.6117,-17.4363,-4.8832
3627461.0,-22.1703,16.3763,25.0242,-1.6373,-16.3955,-4.3005
3627471.0,-16.5104,6.043,22.9077,0.2405,-14.9423,-4.0462
3627481.0,-14.2503,-0.8045,27.8781,1.3393,-14.45,-4.5118
3627491.0,-16.7881,6.7516,27.1024,0.2671,-15.642,-4.9077
3627501.0,-16.2423,19.5941,23.0226,-2.7776,-17.4363,-4.4431
3627511.0,-15.3995,25.1008,18.3204,-5.129,-17.4363,-3.4449
3627521.0,-13.1968,26.2404,7.7764,-5.5255,-17.4363,-2.4057
3627531.0,-8.0254,19.0483,0.8619,-3.9786,-16.5024,-1.4239
3627541.0,0.2586,6.2345,-1.1205,-0.5608,-12.6919,-1.2797
3627551.0,1.4365,2.7294,-2.1069,0.3427,-9.9862,-1.5766
3627561.0,1.4844,5.2385,2.8443,-0.6061,-9.3141,-1.7549
3627571.0,2.7294,14.6717,4.1468,-2.6728,-9.3364,-1.383
3627581.0,3.2465,21.9117,7.8721,-3.0825,-8.8826,-0.4805
3627591.0,3.7733,27.8781,1.8962,-3.3422,-8.7788,0.8008
3627601.0,5.1523,26.8438,-3.7158,-3.4454,-8.0408,2.2854
3627611.0,10.6877,15.5623,-11.1761,-2.4828,-5.5249,3.4582
3627621.0,20.1879,-4.5777,-5.5929,-0.3586,-1.0467,3.4332
3627631.0,18.9142,-13.9055,5.3439,0.961,1.7789,2.3732
3627641.0,19.9102,-19.4313,20.571,-0.0984,2.0827,1.2313
3627651.0,19.144,-15.5432,32.36,0.0165,1.2675,-0.0048
3627661.0,18.1959,-3.8116,39.0734,0.6151,0.7641,-0.4278
3627671.0,16.5775,6.1004,39.2745,1.1861,-0.9094,-0.0644
3627681.0,14.5567,9.0022,31.4502,0.4699,-2.6095,0.8322
3627691.0,18.6652,3.9361,22.1128,0.0883,-2.8851,1.6043
3627701.0,21.5287,-3.0071,16.3285,0.7966,-0.6188,1.7655
3627711.0,20.7625,-2.9209,15.9645,0.8583,1.5463,1.8315
3627721.0,21.9883,-10.6973,26.1638,0.2469,2.983,1.9177
3627731.0,20.7817,-14.4801,36.162,0.3347,3.1437,1.4559
3627741.0,20.2071,-16.4051,46.8402,0.8498,2.95,1.0264
3627751.0,20.2549,-16.2231,50.4123,1.7075,1.6746,0.4778
3627761.0,19.2494,-13.0245,50.5368,2.0678,0.2559,0.125
3627771.0,18.828,-9.6438,44.9631,1.9262,-1.6778,-0.1208
3627781.0,17.5734,-5.4971,36.7462,1.2026,-3.3518,-0.1181
3627791.0,16.4338,-3.8116,25.4839,0.8817,-4.7065,0.0154
3627801.0,13.6469,-2.8156,9.3661,0.6907,-5.4978,0.0639
3627811.0,8.2552,2.0303,-14.959,-0.6689,-5.7607,0.1623
3627821.0,4.7884,7.0773,-38.5083,-2.925,-4.9987,0.4374
3627831.0,-2.0303,21.6627,-63.7145,-4.1436,-2.7175,0.8599
3627841.0,-17.1808,42.8849,-78.4532,-3.6067,0.049,1.9997
3627851.0,-27.7153,66.6642,-78.4532,-0.1692,2.9947,4.0095
3627861.0,-47.6829,78.4508,-78.4532,7.5917,9.7057,6.8589
3627871.0,-78.4532,78.4508,-78.4532,12.1795,17.4357,10.415
3627881.0,-78.4532,61.033,-78.4532,15.2482,17.4357,13.5109
3627891.0,-78.4532,5.0661,-78.4532,11.5229,17.4357,13.6647
3627901.0,-78.4532,-45.7676,-61.4831,4.9827,17.4357,9.3998
3627911.0,-78.4532,-44.7333,68.0049,16.0879,17.4357,2.7723
3627921.0,-78.4532,5.6695,78.4508,17.4357,17.4357,-1.1297
3627931.0,-78.4532,62.2588,78.4508,17.4357,17.4357,-0.9296
3627941.0,-78.4532,76.375,78.4508,11.2803,17.4357,2.518
3627951.0,-78.4532,52.1266,78.4508,8.7628,17.4357,5.8628
3627961.0,-78.4532,10.726,78.4508,11.7288,9.2997,7.2777
3627971.0,-68.5699,-20.9924,78.4508,13.6551,-9.5089,6.3667
3627981.0,-58.9452,-43.5457,78.4508,10.8705,-17.4363,3.6423
3627991.0,-56.9054,-38.9872,78.4508,2.0167,-17.4363,-0.1479
3628021.0,-45.825,12.6988,56.9916,0.0,0.0,0.0
3628031.0,-43.4021,17.3149,49.8952,-7.0132,-17.4363,-3.181
3628041.0,-37.3208,10.8409,35.0224,-1.8693,-17.4363,-1.6437
3628051.0,-28.4623,0.9481,19.4984,-0.0325,-17.4363,-1.59
3628061.0,-21.8638,-1.6855,8.7819,-0.8359,-16.015,-2.1056
3628071.0,-20.1209,-2.4134,8.3989,-2.8138,-15.5058,-2.7633
3628081.0,-17.085,-2.49,6.9528,-4.1654,-15.7617,-3.446
3628091.0,-16.7211,1.0343,-0.1628,-3.5896,-14.9125,-4.2266
3628101.0,-12.1721,10.8026,-8.7724,-3.1017,-11.6676,-4.4187
3628111.0,-14.0779,15.8305,-5.7461,-1.7012,-8.641,-3.9823
3628121.0,-10.6207,19.5367,-4.2904,-1.1111,-5.8112,-3.2395
3628131.0,-7.604,17.8512,6.6463,0.0782,-2.5999,-2.477
3628141.0,-6.1292,15.8209,17.5543,1.3436,-0.8226,-1.8225
3628151.0,-4.0989,9.0501,24.4017,1.5969,-0.4039,-1.358
3628161.0,-1.9824,3.7062,28.2516,1.0541,-0.1676,-1.4724
3628171.0,0.431,-1.0439,35.0607,-0.1511,-0.0979,-1.8704
3628181.0,0.498,-3.8786,43.5362,-0.6385,-0.4124,-2.552
3628191.0,-0.1341,-4.2234,50.8816,-2.3179,-1.0573,-3.3183
3628201.0,0.2586,-2.8539,63.9252,-3.7429,-2.2242,-4.2409
3628211.0,-2.5953,4.7118,75.4269,-5.3818,-4.7885,-4.9236
3628221.0,-7.1635,10.908,78.4508,-6.123,-8.4824,-5.0444
3628231.0,-7.7668,17.3149,78.4508,-4.7677,-11.3521,-4.7049
3628241.0,-9.3087,20.7146,78.4508,-2.163,-13.0964,-3.9158
3628251.0,-10.094,21.0115,76.0303,1.4372,-13.6694,-2.8069
3628261.0,-8.0445,16.6732,72.2283,4.9226,-12.9788,-1.641
3628271.0,-7.92,14.0109,72.4677,7.4235,-12.8505,-0.9562
3628281.0,-14.4131,15.1792,71.9122,6.0948,-15.2275,-0.2277
3628291.0,-14.279,14.2694,68.8285,3.6466,-17.4363,0.3352
3628301.0,-14.3077,16.3476,55.1433,0.4922,-17.4363,0.7811
3628311.0,-12.785,15.4282,42.0039,-2.7702,-17.4363,1.2191
3628321.0,-8.9639,15.1122,29.171,-5.0732,-17.4363,1.4431
3628331.0,-4.3766,15.1505,20.3316,-6.8887,-17.4363,1.6426
3628341.0,2.0016,13.0532,20.9732,-6.7541,-17.4363,1.8949
3628351.0,3.1891,11.0421,25.5509,-5.5026,-15.2493,2.1077
3628361.0,-0.067,9.0597,28.3282,-6.3034,-15.5148,2.2721
3628371.0,3.4572,5.6695,29.7551,-6.9217,-16.5636,2.0981
3628381.0,6.0525,5.8706,22.9939,-6.927,-17.076,1.8049
3628391.0,7.9966,4.9895,17.6788,-6.322,-16.9153,1.4755
3628401.0,11.0899,5.6982,8.4851,-5.0865,-16.2683,1.2281
3628411.0,13.5512,5.4684,-0.8523,-4.2303,-15.3094,1.16
3628421.0,17.9086,5.3534,-11.8944,-3.4082,-13.4225,1.2116
3628431.0,18.9717,3.1125,-15.5527,-2.2056,-10.7535,1.268
3628441.0,16.769,2.873,-25.503,-2.105,-9.834,1.292
3628451.0,11.0995,1.0247,-34.7063,-3.0676,-9.6541,1.3063
3628461.0,8.0637,0.8428,-47.5488,-1.8544,-8.4946,0.9759
3628471.0,1.3791,6.5601,-67.2771,1.1717,-7.0606,0.5731
3628481.0,-2.6815,20.1975,-78.4532,5.5994,-4.3016,0.4842
3628491.0,-18.1672,37.2155,-78.4532,11.7235,1.2733,0.2405
3628501.0,-27.4088,66.8653,-78.4532,16.2858,17.4357,1.8752
3628511.0,-78.4532,78.4508,-78.4532,13.9621,17.4357,5.5606
3628521.0,-78.4532,78.4508,-78.4532,12.0465,17.4357,10.1868
3628531.0,-78.4532,78.4508,-78.4532,13.4869,17.4357,14.7709
3628541.0,-78.4532,57.1161,-78.4532,17.4357,17.4357,17.1654
3628551.0,-78.4532,2.5762,-1.561,17.4357,17.4357,14.7337
3628561.0,-78.4532,-39.5618,78.4508,12.5733,17.4357,7.7907
3628571.0,-78.4532,-74.6991,78.4508,4.5847,17.4357,0.348
3628581.0,-78.4532,-43.5553,78.4508,6.7232,17.4357,-5.8373
3628591.0,-78.4532,2.1356,78.4508,-1.434,17.4357,-7.7039
3628601.0,-78.4532,35.4821,78.4508,-4.9087,9.8733,-5.8825
3628611.0,-78.4532,35.032,78.4508,-6.6583,-14.0621,-2.146
3628621.0,-78.4532,24.0952,78.4508,0.4853,-17.4363,0.6864
3628631.0,-78.4532,9.2608,78.4508,3.5417,-17.4363,3.2938
3628641.0,-66.8557,-17.9278,78.4508,7.9758,-17.4363,3.5785
3628651.0,-48.9662,-28.7783,44.7237,7.1543,-17.4363,2.5531
3628661.0,-33.356,-35.2235,7.6902,4.5863,-17.4363,0.6614
3628671.0,-23.6068,-31.8333,-10.4196,1.8709,-17.4363,-1.483
3628681.0,-18.4737,-24.9667,-6.7038,-2.2492,-12.5738,-3.1485
3628691.0,-14.2311,-17.8129,4.8459,-4.8481,-10.2517,-4.5331
3628701.0,-10.0365,-9.5002,12.9478,-8.7591,-9.5078,-5.4073
3628711.0,-8.2265,-5.7269,27.8494,-11.8491,-10.307,-6.1603
3628721.0,-8.8873,-2.3559,43.584,-12.6872,-12.5302,-6.8861
3628731.0,-10.0844,1.0822,51.8297,-9.428,-15.1519,-7.4911
3628741.0,-10.5441,7.2688,42.5498,-5.3568,-16.4785,-7.5491
3628751.0,-10.8793,8.6095,34.0647,-1.2638,-16.5918,-7.3038
3628761.0,-9.5385,9.6055,23.4153,2.1391,-15.8548,-6.827
3628771.0,-9.9407,7.106,18.0906,4.6629,-14.8034,-6.2534
3628781.0,-10.8984,6.608,10.6207,5.8224,-13.8669,-5.7835
3628791.0,-10.8314,6.4931,5.6312,4.8151,-13.2767,-5.3967
3628801.0,-8.6479,6.4356,1.8675,3.0426,-12.8702,-5.1205
3628811.0,-6.8187,5.4684,-1.1875,0.9482,-12.162,-4.9029
3628821.0,-3.4764,3.3423,-4.7501,-0.8258,-10.9067,-4.8369
3628831.0,0.0479,-0.2107,-5.1523,-1.9172,-8.8581,-5.004
3628841.0,6.0525,-3.4668,-4.367,-1.5453,-5.9671,-5.5659
3628851.0,9.0214,-3.2657,-0.2394,-0.7497,-2.4892,-6.2832
3628861.0,7.4603,-2.059,10.7548,0.2171,-0.0106,-7.0601
3628871.0,4.5107,2.3176,20.8296,0.8226,0.6173,-7.6725
3628881.0,2.8252,8.7149,26.6139,1.0477,-0.0937,-7.8455
3628891.0,3.7445,14.7196,25.1487,0.6029,-0.9131,-7.4251
3628901.0,4.6639,17.9757,22.4959,-0.0064,-1.0052,-6.6482
3628911.0,6.2153,19.4888,19.1153,-0.4512,-0.0404,-5.6893
3628921.0,7.9296,18.7993,19.1823,-0.6423,1.6277,-4.6134
3628931.0,8.5425,15.026,22.3714,-0.9786,3.653,-3.7775
3628941.0,7.1443,11.5017,31.7663,-1.2276,5.087,-3.4742
3628951.0,5.6407,12.1625,41.5442,-1.8917,5.0045,-3.5162
3628961.0,3.9073,15.1601,49.5695,-3.2235,3.3608,-3.3826
3628971.0,3.6871,16.8839,55.4401,-4.027,1.2414,-2.9836
3628981.0,5.1715,18.6173,54.1951,-3.4646,-0.3906,-2.4381
3628991.0,6.0142,20.2645,47.8649,-2.3897,-0.5305,-1.5937
3629001.0,5.9664,17.2574,45.9878,-0.2762,1.0084,-0.5561
3629011.0,6.3303,12.3541,46.3901,2.3243,2.8175,0.249
3629021.0,7.5561,6.2249,49.2248,2.8468,3.7381,0.5827
3629031.0,8.9352,0.4214,56.7138,3.3411,3.6577,0.0506
3629041.0,8.4084,1.0151,62.3642,2.9192,2.7223,-0.8881
3629051.0,7.3741,5.612,63.3314,1.2132,0.3017,-1.5351
3629061.0,7.6998,8.9064,65.6203,-0.9264,-2.2221,-1.7251
3629071.0,7.1347,11.5784,62.3833,-1.3276,-4.258,-1.6378
3629081.0,10.5441,13.2543,53.8791,-1.9571,-4.9843,-1.3691
3629091.0,9.2225,15.2367,49.5695,-1.1776,-4.341,-0.8493
3629101.0,5.9951,14.8728,48.7555,-0.7375,-3.5444,0.0064
3629111.0,5.6216,10.5249,48.3341,-0.1963,-3.9892,0.563
3629121.0,7.5753,7.4124,43.268,-0.7226,-4.1643,0.7987
3629131.0,8.9064,3.9935,41.1324,-0.9833,-3.8951,0.7716
3629141.0,10.3142,2.6049,37.9816,-1.2622,-3.5673,0.5459
3629151.0,11.5592,3.5626,35.7311,-1.9688,-3.2943,0.3629
3629161.0,11.6262,4.8842,33.4326,-2.8809,-2.9644,0.332
3629171.0,10.8697,4.8746,33.5859,-3.6205,-2.2391,0.5374
3629181.0,10.6781,3.0167,37.7613,-2.8968,-1.1675,0.7827
3629191.0,10.1706,0.6321,40.9025,-1.4729,-0.1128,0.9759
3629201.0,9.2129,-2.9688,45.9495,-0.1219,0.1671,0.9408
3629211.0,8.4755,-5.5162,48.248,0.8626,-0.5007,0.5906
3629221.0,9.1842,-6.5888,47.7978,1.5931,-1.5224,0.0474
3629231.0,9.9982,-5.2672,43.45,2.1237,-2.1215,-0.5518
3629241.0,9.0884,-1.7334,38.1253,2.3163,-2.337,-0.9365
3629251.0,8.2552,2.3463,32.9442,2.154,-2.0529,-0.9158
3629261.0,7.2592,5.7557,28.4623,1.5224,-1.4803,-0.5289
3629271.0,6.7038,7.7093,25.7712,0.2474,-0.5843,0.1575
3629281.0,7.0006,5.7748,25.4935,-1.1802,0.2629,0.8221
3629291.0,8.0254,2.8252,28.1462,-2.6936,1.152,1.2441
3629301.0,9.3757,-0.4597,31.7088,-3.8887,1.8347,1.3335
3629311.0,9.0501,-2.8922,36.2003,-4.8326,1.9411,1.1722
3629321.0,9.5193,-3.9935,38.7286,-5.4632,1.7709,0.9594
3629331.0,9.1746,-5.4013,43.2776,-5.1934,1.6325,0.629
3629341.0,8.6191,-4.6831,45.1642,-4.0201,1.4867,0.3352
3629351.0,7.1635,-3.9169,46.6199,-2.2689,1.4793,0.1697
3629361.0,5.9185,-2.8252,45.4228,-0.5018,1.6884,0.0814
3629371.0,6.4069,-2.5666,43.9671,0.7098,1.9587,-0.0037
3629381.0,7.5369,-2.3176,42.9137,1.284,2.0768,-0.1644
3629391.0,8.6383,-1.1109,41.1898,0.9786,2.0007,-0.3475
3629401.0,8.0445,-0.6512,41.6687,0.4943,1.9262,-0.4864
3629411.0,6.9528,0.6704,41.8411,0.1628,2.0657,-0.4906
3629421.0,5.1044,0.8045,43.268,-0.1426,1.9885,-0.3565
3629431.0,5.2768,0.2873,42.9137,-0.522,1.632,-0.265
3629441.0,5.7748,0.0575,42.5114,-1.0781,1.408,-0.2485
3629451.0,5.1236,0.1437,41.8602,-1.8156,1.2872,-0.2299
3629461.0,5.114,-0.8332,44.0916,-2.2689,1.1946,-0.2517
3629471.0,6.2728,-0.9194,45.0972,-2.212,0.961,-0.3198
3629481.0,6.3973,-0.9002,45.8059,-1.8486,0.7263,-0.3714
3629491.0,7.1635,0.1628,44.8769,-1.2036,0.6348,-0.365
3629501.0,6.7708,1.7047,43.766,-0.7827,0.6864,-0.1634
3629511.0,6.7229,1.3791,42.7413,-0.3645,0.5486,-0.0059
3629521.0,7.2784,1.7526,39.9066,-0.2586,0.5683,0.1224
3629531.0,7.5274,1.2641,38.7573,-0.4065,0.8072,0.2905
3629541.0,6.9528,0.5746,38.5275,-0.4784,1.1595,0.4145
3629551.0,7.2496,-1.0726,38.3168,-0.3986,1.4761,0.4459
3629561.0,6.924,-2.9688,37.3783,0.1623,1.9614,0.3363
3629571.0,7.9392,-4.7118,34.2754,1.1446,3.2815,0.0708
3629581.0,9.5385,-5.1619,34.8308,1.8938,5.5185,-0.3501
