time_ms,ax,ay,az,gx,gy,gz
4939271.0,0.6225,7.5848,40.7014,-0.1086,0.7088,0.1431
4939281.0,0.5842,7.4316,40.1172,0.1144,0.9115,0.2017
4939291.0,1.4461,7.5369,38.8914,0.29,1.2026,0.2852
4939301.0,1.7621,7.2018,40.0981,0.4938,1.4575,0.3331
4939311.0,2.3942,7.6423,39.6384,0.5805,1.7432,0.3358
4939321.0,2.9784,8.1211,39.3607,0.5263,1.872,0.3209
4939331.0,2.1548,8.2552,40.5003,0.5917,2.0736,0.3597
4939341.0,1.4269,9.3278,37.6464,0.2458,2.229,0.4097
4939351.0,2.7677,7.6136,38.5275,-0.1293,2.8223,0.3315
4939361.0,1.2833,7.5561,40.893,0.0154,3.414,0.2283
4939371.0,0.182,7.3358,43.4883,0.2756,3.6657,0.1745
4939381.0,-0.3256,7.4029,44.829,0.4576,4.1893,0.1341
4939391.0,-1.0918,6.11,49.8952,0.597,4.2425,0.0192
4939401.0,-1.2067,5.9951,51.1785,0.8147,4.2872,-0.1543
4939411.0,-2.6145,5.2864,55.4306,0.9722,4.0584,-0.4081
4939421.0,-3.7158,6.7325,57.2501,0.9371,3.5816,-0.679
4939431.0,-5.047,7.6519,59.0985,0.9743,2.9447,-0.8924
4939441.0,-6.3303,9.6726,59.0123,0.7668,2.1747,-1.0169
4939451.0,-7.6423,11.0133,58.974,0.3406,1.4681,-1.0584
4939461.0,-8.8107,11.0899,58.9644,-0.0064,0.6699,-1.0243
4939471.0,-8.3989,10.7835,58.2174,-0.3618,-0.0511,-1.0312
4939481.0,-8.4467,9.9216,57.6907,-1.0126,-0.7609,-1.1297
4939491.0,-8.8873,9.5481,57.9301,-1.4324,-1.5261,-1.2372
4939501.0,-9.0788,9.7492,56.3308,-1.8134,-2.2748,-1.3489
4939511.0,-8.7819,9.6534,54.1185,-2.0635,-2.8346,-1.3846
4939521.0,-8.6957,9.7492,52.7778,-2.3386,-3.3363,-1.4154
4939531.0,-9.1937,9.9311,51.4562,-2.4185,-3.7594,-1.4112
4939541.0,-9.73,9.8928,49.4163,-2.4626,-4.0004,-1.3159
4939551.0,-9.1363,9.1746,48.8609,-2.3174,-4.1968,-1.2095
4939561.0,-8.8777,8.6957,48.7651,-2.2067,-4.5666,-1.102
4939571.0,-8.3031,8.0445,47.8745,-2.162,-4.954,-1.0387
4939581.0,-8.1977,7.4508,46.6869,-1.9034,-5.344,-0.969
4939591.0,-7.8913,7.6423,44.9631,-1.6841,-5.7271,-0.8924
4939601.0,-7.4412,7.4124,43.1722,-1.5383,-5.9868,-0.7662
4939611.0,-6.3398,7.4795,40.7876,-1.3537,-6.1927,-0.6204
4939621.0,-5.296,7.039,38.336,-1.3729,-6.3023,-0.5183
4939631.0,-4.8842,6.7708,36.5068,-1.6533,-6.4162,-0.4736
4939641.0,-4.1084,5.7748,35.5683,-1.8076,-6.4716,-0.406
4939651.0,-2.6528,5.3247,35.1565,-1.5804,-6.1704,-0.3001
4939661.0,-1.7142,4.5777,35.7598,-1.0403,-6.1251,-0.1607
4939671.0,-0.7757,4.5011,33.9402,-0.5789,-5.9613,-0.0351
4939681.0,-0.3352,4.5203,32.3696,-0.3225,-5.9192,0.1548
4939691.0,1.3216,3.869,30.7607,-0.2432,-5.8405,0.2623
4939701.0,2.1644,3.371,28.1941,-0.339,-5.584,0.3379
4939711.0,3.304,1.7621,27.4759,-0.4895,-5.2754,0.3272
4939721.0,5.2385,0.1628,26.8246,-0.489,-4.8683,0.2214
4939731.0,6.7804,-0.8715,26.8438,-0.5332,-4.5325,-0.0133
4939741.0,7.6998,-1.7142,26.2117,-0.6779,-4.2526,-0.2841
4939751.0,7.9966,-1.3024,26.1447,-0.6737,-4.0031,-0.5374
4939761.0,8.5329,-0.498,25.6275,-0.7976,-3.795,-0.7492
4939771.0,9.481,0.68,24.3347,-0.977,-3.645,-0.895
4939781.0,10.1706,2.3942,22.3906,-1.3303,-3.298,-0.9812
4939791.0,9.6534,2.9401,22.4002,-1.3095,-2.8681,-0.9035
4939801.0,10.7452,3.5338,20.3028,-1.1217,-2.2578,-0.7242
4939811.0,11.4539,3.2178,19.1728,-1.0004,-1.4681,-0.5603
4939821.0,12.3541,2.3846,18.7705,-0.9402,-0.8019,-0.4645
4939831.0,14.0588,1.8962,17.8799,-1.0366,-0.0122,-0.4693
4939841.0,14.3748,1.2067,18.8376,-1.0451,0.7301,-0.5396
4939851.0,14.212,1.8771,19.3835,-1.1584,1.3244,-0.6039
4939861.0,12.7563,2.3655,20.6572,-1.3904,1.6911,-0.6151
4939871.0,12.1147,2.9784,20.5614,-1.8768,1.7549,-0.5529
4939881.0,12.2679,2.0303,19.7378,-2.228,1.8906,-0.4853
4939891.0,12.8521,-0.0287,17.0754,-2.5382,2.4036,-0.5731
4939901.0,14.3652,-1.81,15.6198,-2.3067,3.6838,-0.7758
4939911.0,14.2599,-2.5379,16.3285,-1.5304,5.4893,-1.0445
4939921.0,12.2679,-1.1205,19.1057,-0.7226,7.0787,-1.2632
4939931.0,9.3948,0.8523,24.3825,-0.0596,8.1323,-1.3345
4939941.0,7.1826,3.1795,28.5676,0.0968,8.3355,-1.2829
4939951.0,5.1906,3.7637,30.8086,-0.3294,7.7241,-1.1813
4939961.0,5.9855,2.4708,28.491,-0.8838,7.4421,-1.2127
4939971.0,4.5586,1.7238,25.9915,-0.6763,8.5239,-1.3143
4939981.0,2.7294,0.1724,27.8972,-0.1394,9.9436,-1.4479
4939991.0,1.1875,0.6225,31.3162,0.8775,11.557,-1.6937
4940001.0,-1.7909,3.3136,37.9912,1.8087,12.6446,-1.8837
4940011.0,-4.7884,8.1499,44.0629,2.3317,12.9926,-1.8033
4940021.0,-8.1882,12.2104,49.8569,2.2051,12.4488,-1.4851
4940031.0,-8.5329,14.9207,52.7299,1.4771,11.1648,-1.0217
4940041.0,-9.9311,15.6006,52.6054,0.7008,10.0112,-0.489
4940051.0,-10.2568,12.6318,50.8145,0.3837,9.9872,-0.017
4940061.0,-10.0461,8.7149,52.7107,1.0908,10.9179,0.1862
4940071.0,-11.2719,6.5218,57.8822,2.1348,11.3814,0.1463
4940081.0,-11.6071,8.2552,59.3858,2.1891,11.5005,0.0293
4940091.0,-15.3229,8.0924,66.7599,2.0752,10.903,-0.0213
4940101.0,-16.5583,11.3294,67.8421,1.3053,9.5583,-0.0261
4940111.0,-18.9238,11.5017,69.9107,0.4241,8.1977,0.2469
4940121.0,-19.8144,8.6574,69.5085,-0.5385,7.0101,0.4645
4940131.0,-19.0962,3.3136,70.7439,-0.8657,6.2278,0.3597
4940141.0,-19.7378,-1.1875,72.1612,-1.0041,5.5451,-0.0718
4940151.0,-20.3507,-3.9265,75.8387,-0.7428,4.5458,-0.7343
4940161.0,-20.322,-4.3,77.5626,-0.4571,3.2305,-1.5421
4940171.0,-18.9908,-3.5338,75.6089,-0.5183,1.3175,-2.5121
4940181.0,-25.1774,-2.7198,71.7877,0.2166,0.6252,-3.1443
4940191.0,-24.0186,5.4205,65.6873,-2.3131,-0.8226,-3.7482
4940201.0,-19.077,7.92,66.214,-2.4589,-2.4397,-3.8674
4940211.0,-22.4289,10.9846,62.2684,-3.2911,-2.7297,-3.8067
4940221.0,-23.6356,12.5169,62.096,-2.7579,-3.0352,-3.3342
4940231.0,-23.2621,13.0149,65.6682,-1.9635,-3.4566,-2.701
4940241.0,-22.1607,13.398,65.4287,-1.1451,-4.6219,-2.0476
4940251.0,-20.7338,12.2966,63.657,-0.4464,-5.542,-1.5107
4940261.0,-19.7282,12.1338,59.6444,-0.0963,-6.2832,-1.0935
4940271.0,-18.9621,11.9231,55.8711,-0.125,-7.0143,-0.762
4940281.0,-17.8033,11.7412,51.8584,-0.5694,-7.6656,-0.514
4940291.0,-16.6253,10.9654,50.0771,-1.1068,-8.1887,-0.3288
4940301.0,-15.5049,10.4962,47.817,-1.2377,-8.5691,-0.0745
4940311.0,-15.4091,10.1706,46.888,-0.9088,-8.7437,0.2671
4940321.0,-15.1505,9.347,45.5856,-0.2677,-8.7969,0.737
4940331.0,-13.8768,7.4891,43.6607,0.5694,-8.9602,1.2148
4940341.0,-12.1625,4.9895,41.0845,0.9104,-9.1688,1.491
4940351.0,-10.094,3.1891,37.1293,0.7168,-9.4344,1.5144
4940361.0,-8.1307,1.992,34.2179,0.0819,-9.6461,1.3244
4940371.0,-6.4931,1.9728,31.7758,-0.6151,-9.4961,1.0717
4940381.0,-5.7652,2.375,32.2738,-0.8338,-9.4258,0.9371
4940391.0,-4.6448,2.7581,32.4654,-0.6407,-9.337,0.9684
4940401.0,-3.5721,3.0933,31.6418,-0.0639,-9.2492,1.1781
4940411.0,-2.3272,2.8922,30.6937,0.447,-9.2151,1.3979
4940421.0,-0.8619,2.1452,28.309,0.7487,-9.2561,1.599
4940431.0,1.1013,0.747,24.3059,0.6753,-9.2705,1.6692
4940441.0,3.5721,-0.7661,20.9732,0.2442,-8.981,1.5527
4940451.0,5.928,-2.1069,18.6939,-0.1399,-8.5213,1.2994
4940461.0,7.9296,-2.9688,16.9222,-0.3586,-7.746,0.9573
4940471.0,8.8298,-2.7869,15.3037,-0.3586,-6.7089,0.5875
4940481.0,9.7492,-2.0973,15.3516,-0.2911,-5.5308,0.3251
4940491.0,9.663,-0.996,16.9797,-0.2315,-4.6161,0.1687
4940501.0,10.2951,-0.5363,19.2685,0.0309,-3.8009,0.1203
4940511.0,10.6781,-0.4214,20.5614,0.107,-3.4098,0.0596
4940521.0,12.0764,-0.1724,21.318,-0.066,-3.1405,-0.0644
4940531.0,12.5265,0.2873,20.14,-0.4289,-2.8718,-0.2416
4940541.0,13.034,0.5363,20.8008,-0.688,-2.3732,-0.4353
4940551.0,13.2543,1.2833,20.4848,-0.5683,-1.8901,-0.5348
4940561.0,12.718,2.7869,20.9445,-0.4337,-1.3335,-0.5055
4940571.0,11.7507,4.2425,21.5191,-0.3714,-0.7466,-0.3411
4940581.0,11.3389,5.2002,23.1088,-0.4645,-0.365,-0.067
4940591.0,11.9997,5.1715,24.1336,-0.9243,-0.389,0.2336
4940601.0,12.9095,3.5626,24.3155,-1.591,-0.6534,0.3475
4940611.0,13.8193,1.6855,22.6396,-2.1322,-0.8306,0.3363
4940621.0,14.1833,-0.2969,20.9349,-2.3072,-0.3592,0.1591
4940631.0,14.4131,-1.1779,20.0059,-1.9417,0.5007,-0.0511
4940641.0,14.8919,-0.2777,18.1576,-1.3164,1.5256,-0.1799
4940651.0,13.3022,0.996,17.334,-0.7907,2.941,-0.1905
4940661.0,11.3581,2.2027,18.4258,-0.4693,4.2298,-0.0495
4940671.0,10.5153,2.0973,21.3467,-0.588,5.1743,0.1203
4940681.0,10.2568,0.1915,24.4783,-0.8977,5.3834,0.1634
4940691.0,10.6494,-2.4229,27.0449,-1.0749,5.6601,0.0724
4940701.0,10.9271,-4.9225,29.2284,-0.613,6.1342,-0.2661
4940711.0,10.2089,-4.9991,29.7456,0.0676,6.7961,-0.7306
4940721.0,8.6479,-3.1987,30.4542,0.3342,7.2633,-1.1712
4940731.0,7.0964,-0.6321,31.7567,0.6481,7.713,-1.4681
4940741.0,4.9129,3.0742,32.7718,0.5305,8.0892,-1.5687
4940751.0,2.873,5.7652,34.4765,0.0266,8.1658,-1.4564
4940761.0,2.0973,6.7995,36.7366,-0.5204,8.4526,-1.2393
4940771.0,1.0918,6.6463,41.1611,-0.7503,8.6431,-0.9828
4940781.0,0.2873,6.4452,44.1108,-0.5789,8.7027,-0.713
4940791.0,-1.1109,6.6272,46.9359,-0.1181,8.6835,-0.4278
4940801.0,-3.1603,7.604,47.75,0.2921,8.6106,-0.1064
4940811.0,-4.9512,7.8626,47.7595,0.2246,8.3872,0.2384
4940821.0,-5.9568,6.4643,47.2328,-0.2081,8.0152,0.5741
4940831.0,-6.3398,2.9688,47.5201,-0.7056,8.003,0.7508
4940841.0,-6.0334,-0.7853,48.5544,-0.9748,8.2706,0.6534
4940851.0,-6.8378,-4.0318,51.7914,-0.9014,8.5186,0.3257
4940861.0,-8.7532,-5.7174,55.9477,-0.3507,8.7144,-0.1107
4940871.0,-10.6111,-5.4205,60.0562,0.3469,8.6309,-0.5837
4940881.0,-11.6262,-3.4572,63.3123,1.0834,8.0727,-0.9589
4940891.0,-12.3541,-0.4405,63.8486,1.4676,7.3926,-1.2217
4940901.0,-1.8962,-1.8962,63.2357,1.3697,6.0948,-1.6996
4940911.0,-18.7705,-0.7087,59.8646,1.8235,6.7866,-1.8869
4940921.0,-17.2383,6.3303,56.2254,1.1946,7.0329,-2.054
4940931.0,-17.0084,4.6735,68.0815,0.9812,5.7032,-1.8736
4940941.0,-17.4298,6.0142,68.0815,0.9977,5.2807,-1.7262
4940951.0,-17.832,5.7844,73.0327,1.5793,3.9222,-1.566
4940961.0,-17.7937,8.0062,74.3543,1.7028,2.369,-1.4117
4940971.0,-17.8895,10.3046,70.8492,1.7209,0.7295,-1.1228
4940981.0,-17.2287,11.1953,67.2962,0.9402,-0.8934,-0.8455
4940991.0,-15.9837,11.3006,61.6363,-0.0766,-2.0971,-0.6832
4941001.0,-14.7004,11.1187,57.0012,-1.0259,-2.9958,-0.5507
4941011.0,-14.2311,11.2623,52.4713,-1.9156,-3.5534,-0.4597
4941021.0,-14.3556,11.3102,48.3725,-2.8766,-3.9621,-0.2895
4941031.0,-14.6621,9.2703,47.4339,-3.389,-3.9084,-0.0074
4941041.0,-13.5895,6.5505,48.3246,-3.2746,-3.9994,0.2192
4941051.0,-11.2049,3.9744,49.7707,-2.7462,-4.1569,0.3092
4941061.0,-10.4674,3.2657,48.7938,-1.7842,-4.3277,0.3613
4941071.0,-9.7779,3.1987,46.4571,-1.1781,-4.5011,0.4039
4941081.0,-8.3414,3.6392,43.6798,-0.969,-4.4697,0.4108
4941091.0,-8.1211,3.2274,42.703,-1.2324,-4.54,0.4124
4941101.0,-7.9009,2.7773,42.8371,-1.4878,-4.5538,0.3448
4941111.0,-7.5465,2.7677,44.7428,-1.4,-4.5746,0.3475
4941121.0,-7.6614,3.0742,46.1889,-1.0131,-4.8257,0.473
4941131.0,-7.0006,2.8347,47.4052,-0.7524,-5.4297,0.6061
4941141.0,-6.2249,2.2314,45.2983,-0.588,-6.0666,0.6843
4941151.0,-4.9799,1.9345,42.6934,-0.6646,-6.579,0.6753
4941161.0,-3.8307,2.0399,39.0829,-0.7311,-6.6328,0.6407
4941171.0,-3.371,2.2793,37.7135,-0.5289,-6.3955,0.6774
4941181.0,-3.3232,2.9497,36.8516,-0.2517,-6.1917,0.8397
4941191.0,-2.8156,3.1891,36.4781,0.1282,-6.0586,1.0866
4941201.0,-1.9249,3.1316,34.6968,0.1932,-6.0299,1.2952
4941211.0,-0.7853,2.3655,33.4518,0.0388,-5.9655,1.417
4941221.0,0.0,0.9577,32.293,-0.2043,-5.9698,1.4511
4941231.0,1.5131,-0.1149,31.4407,-0.2256,-5.7963,1.3537
4941241.0,2.1739,-0.5555,30.5117,-0.2309,-5.5398,1.2159
4941251.0,2.5857,-0.3543,29.7168,0.066,-5.252,1.1153
4941261.0,3.4668,0.9385,28.4718,0.1713,-4.8348,1.0706
4941271.0,3.8403,1.4078,28.6538,0.4214,-4.209,1.1414
4941281.0,4.5011,1.6951,29.0081,0.5295,-3.77,1.2318
4941291.0,4.9033,1.4078,28.9986,0.2325,-3.703,1.267
4941301.0,6.292,0.7087,29.0752,-0.2799,-3.521,1.1712
4941311.0,7.0485,0.2586,30.3872,-0.5699,-3.6471,1.0185
4941321.0,8.3127,-0.2011,29.7168,-0.6465,-3.5731,0.8833
4941331.0,8.7245,0.0766,28.1941,-0.5821,-3.207,0.8051
4941341.0,8.849,0.3735,28.4718,-0.3602,-2.9522,0.8067
4941351.0,9.5577,1.3791,27.6578,-0.2171,-2.6622,0.8753
4941361.0,10.3621,1.5323,26.7001,-0.3735,-2.5009,0.9732
4941371.0,11.0516,1.4365,24.9476,-0.7407,-2.3509,1.0302
4941381.0,11.3964,0.498,23.0226,-1.3058,-2.0582,1.0233
4941391.0,11.7124,-0.5746,21.6723,-1.7501,-1.5314,0.9397
4941401.0,11.7124,-1.8962,21.6915,-1.9725,-0.9482,0.8157
4941411.0,11.4251,-2.739,22.2661,-1.7911,-0.2214,0.7066
4941421.0,10.5345,-2.8252,23.7409,-1.1914,0.4571,0.6524
4941431.0,9.596,-2.4229,24.2868,-0.3767,0.9908,0.6838
4941441.0,9.5481,-2.6719,23.2238,0.1974,1.2702,0.7066
4941451.0,9.912,-3.2561,19.6995,0.24,1.7703,0.5444
4941461.0,10.6398,-4.0223,16.9509,-0.0681,2.6478,0.191
4941471.0,11.2432,-3.7924,16.8839,-0.3592,4.0068,-0.2575
4941481.0,9.5481,-1.8866,20.0826,-0.4012,5.2312,-0.5635
4941491.0,7.7285,0.7661,24.4687,-0.0883,6.2374,-0.5922
4941501.0,5.5833,3.3232,29.3816,0.4017,6.8318,-0.323
4941511.0,4.6543,4.4436,31.795,0.7524,6.9728,0.1032
4941521.0,4.4628,4.0606,31.9674,0.9913,7.3006,0.4417
4941531.0,2.6624,2.988,31.8716,1.0318,7.9173,0.6369
4941541.0,1.4844,1.3503,34.8404,1.1222,8.6862,0.7082
4941551.0,0.7087,0.2969,39.1021,1.4058,9.1704,0.6646
4941561.0,1.1492,0.9194,42.6551,1.2813,9.197,0.5433
4941571.0,-0.1628,0.6033,48.1809,1.044,8.4776,0.4353
4941581.0,-1.0439,0.8236,47.8553,0.4438,7.3745,0.3203
4941591.0,-0.4501,-0.6608,45.576,-0.132,6.744,0.1426
4941601.0,-1.0247,-2.0973,42.8371,-0.589,7.0351,-0.141
4941611.0,-2.2889,-3.371,43.3446,-0.646,7.6651,-0.4597
4941621.0,-3.8307,-3.3519,46.8402,-0.2677,8.2355,-0.7593
4941631.0,-5.3917,-2.4134,51.2838,0.3368,8.501,-0.9743
4941641.0,-7.6231,-1.0822,54.3101,0.8386,8.268,-1.0946
4941651.0,-7.8147,0.3065,55.5838,1.1111,7.8864,-1.1903
4941661.0,-8.8107,1.6376,55.9764,0.8583,7.4427,-1.2074
4941671.0,-9.8258,2.1069,56.3978,0.6439,7.1606,-1.2584
4941681.0,-10.4962,2.1261,57.9493,0.3672,6.9723,-1.2813
4941691.0,-11.8657,1.5227,59.8933,0.1862,6.7355,-1.342
4941701.0,-13.8193,1.1684,63.8773,0.5188,6.4231,-1.3808
4941711.0,-14.2503,1.743,66.2236,0.762,5.7814,-1.4011
4941721.0,-14.3556,1.7813,68.953,1.035,4.9306,-1.4516
4941731.0,-16.1465,2.0494,69.9681,1.0057,3.8871,-1.5724
4941741.0,-16.0507,2.4038,70.2363,0.8886,2.8622,-1.7193
4941751.0,-16.4913,2.8539,70.7534,0.6955,1.7996,-1.9002
4941761.0,-17.018,3.9361,69.6425,0.3794,0.6343,-2.0561
4941771.0,-17.2383,5.0757,68.455,-0.1761,-0.4587,-2.1742
4941781.0,-17.2287,6.3973,66.7312,-0.7173,-1.5538,-2.2641
4941791.0,-16.836,7.5465,65.9267,-1.3324,-2.5967,-2.3009
4941801.0,-16.8169,8.0637,64.8063,-1.5378,-3.6242,-2.1998
4941811.0,-16.7594,8.6766,63.2069,-1.2712,-4.3357,-2.0236
4941821.0,-16.3668,9.347,60.9947,-0.6502,-4.9502,-1.6756
4941831.0,-15.3133,9.6917,57.978,-0.2182,-5.493,-1.2824
4941841.0,-13.9438,9.7396,54.0036,-0.0452,-5.9112,-0.9317
4941851.0,-12.9478,9.4619,50.8816,-0.1713,-6.1768,-0.6321
4941861.0,-11.9519,8.9926,47.9798,-0.6087,-6.4242,-0.3959
4941871.0,-11.0038,7.6327,46.7731,-0.9972,-6.6679,-0.2203
4941881.0,-10.2951,6.359,47.2137,-0.8338,-6.7264,-0.0819
4941891.0,-10.1227,6.0142,45.9112,-0.5364,-7.0877,0.1101
4941901.0,-8.7819,5.8035,43.3542,-0.2975,-7.2405,0.2841
4941911.0,-8.1977,5.1427,41.4101,-0.2421,-7.2804,0.423
4941921.0,-6.5984,4.8842,39.3703,-0.2841,-7.2468,0.4842
4941931.0,-5.6024,4.4053,38.7382,-0.2602,-7.042,0.5832
4941941.0,-5.0949,4.0797,38.0008,-0.1155,-7.0047,0.679
4941951.0,-3.8786,4.0127,36.8228,-0.0484,-7.0478,0.8157
4941961.0,-2.7869,3.2753,35.1852,-0.0649,-6.9409,0.9003
4941971.0,-2.1261,2.5762,33.5188,-0.2831,-6.8355,0.8945
4941981.0,-0.6704,1.7621,32.6378,-0.5885,-6.6056,0.8072
4941991.0,0.3639,1.3695,33.0783,-0.7412,-6.4742,0.729
4942001.0,1.1971,1.0343,32.9059,-0.8626,-6.3917,0.6337
4942011.0,1.9824,0.9673,32.4079,-0.7982,-6.1736,0.5859
4942021.0,3.2178,1.3982,32.2738,-0.8407,-5.949,0.5529
4942031.0,4.0318,1.4269,32.2643,-0.6917,-5.8133,0.5667
4942041.0,4.1276,1.3791,31.7758,-0.5039,-5.7069,0.6476
4942051.0,4.8842,0.7853,30.866,-0.2932,-5.5414,0.6848
4942061.0,6.1675,0.4597,30.0616,-0.2027,-5.3844,0.6699
4942071.0,7.0006,0.2011,28.4335,-0.1804,-5.1338,0.6024
4942081.0,7.4891,0.2394,27.4663,-0.3038,-4.8337,0.4901
4942091.0,8.4372,0.6225,27.1311,-0.5161,-4.4256,0.3911
4942101.0,9.3087,1.2833,26.3841,-0.7098,-4.1058,0.3214
4942111.0,9.2991,1.561,26.4607,-0.8955,-3.728,0.2873
4942121.0,9.5289,1.7238,27.495,-0.8642,-3.4252,0.34
4942131.0,10.2855,1.5514,27.428,-0.6077,-3.1863,0.4374
4942141.0,10.4387,1.3982,26.8821,-0.5518,-2.8883,0.4927
4942151.0,10.6207,1.2067,26.1926,-0.6412,-2.7963,0.5491
4942161.0,11.4634,0.7566,25.005,-0.944,-2.668,0.505
4942171.0,12.7276,0.7661,23.3387,-1.2739,-2.4089,0.4534
4942181.0,13.0245,0.8236,22.0075,-1.8156,-2.0689,0.3682
4942191.0,12.8712,0.929,20.8296,-2.2147,-1.5676,0.339
4942201.0,12.5935,1.3695,20.3411,-2.6265,-0.9972,0.3682
4942211.0,12.4403,1.0726,22.0937,-2.2397,-0.2996,0.5539
4942221.0,12.7276,0.6512,22.9843,-1.6575,0.3911,0.7673
4942231.0,13.3884,-0.0383,22.1033,-0.9519,1.1579,0.9402
4942241.0,13.4267,-0.6225,20.6859,-0.704,1.9039,1.0179
4942251.0,13.7331,-0.8045,20.7721,-0.6779,2.8745,1.035
4942261.0,13.4363,-0.8619,21.9596,-0.5161,3.994,1.0573
4942271.0,12.5552,-0.5076,24.6603,-0.306,4.9737,1.1004
4942281.0,11.0133,0.2107,28.2516,-0.0043,5.8053,1.218
4942291.0,8.4084,0.3926,32.7814,0.3879,6.255,1.4032
4942301.0,7.4029,-1.0534,35.9896,0.9158,6.2417,1.6224
4942311.0,6.9336,-2.1739,36.3631,1.3244,6.239,1.6857
4942321.0,7.8338,-3.5626,37.2059,1.5623,6.3651,1.508
4942331.0,8.169,-4.3191,37.3591,1.2318,6.3838,1.1217
4942341.0,7.7859,-3.802,38.2402,0.8471,6.4088,0.6923
4942351.0,6.1004,-2.5091,40.96,0.473,6.3268,0.373
4942361.0,4.8554,-0.4501,42.1475,0.0788,5.9378,0.2065
4942371.0,2.8922,-0.1628,43.6032,-0.4608,5.1455,0.2001
4942381.0,3.8307,-1.1109,41.774,-0.8785,4.3527,0.1756
4942391.0,4.7022,-2.49,38.3838,-0.9163,4.5027,0.0335
4942401.0,4.2329,-2.9209,36.9952,-0.7035,5.3004,-0.1815
4942411.0,3.0933,-2.0494,37.7135,-0.4299,6.0102,-0.3874
4942421.0,1.494,-0.5746,40.1172,-0.1767,6.5253,-0.4512
4942431.0,0.2203,1.8962,41.3431,0.1479,6.752,-0.2969
4942441.0,-1.1205,3.3232,41.9751,0.1591,7.0148,0.0037
4942451.0,-2.1739,2.624,42.8658,0.1086,7.3894,0.3368
4942461.0,-2.7581,1.0726,44.8482,0.1506,7.97,0.563
4942471.0,-3.735,-0.6225,49.2344,0.3161,8.3153,0.6806
4942481.0,-4.616,-1.2641,52.9406,0.5028,8.3244,0.6987
4942491.0,-6.1292,-0.9673,57.3268,0.746,8.1658,0.6412
4942501.0,-6.8666,0.182,60.1902,0.9211,7.6177,0.6055
4942511.0,-8.2456,2.4804,61.8374,0.9237,6.8057,0.647
4942521.0,-10.975,3.6488,61.4448,0.8024,6.1273,0.895
4942531.0,-11.0325,1.2833,64.3944,0.9903,5.7,1.1882
4942541.0,-9.3661,-1.5897,66.7216,1.3255,4.9763,1.2116
4942551.0,-8.3797,-4.4149,68.6178,1.4223,3.9137,0.9073
4942561.0,-8.5808,-5.7174,69.2595,1.4186,2.5925,0.4097
4942571.0,-8.9064,-4.7118,67.4111,1.525,1.5069,-0.1548
4942581.0,-9.2703,-2.308,63.9252,1.1068,0.5651,-0.6513
4942591.0,-9.0022,0.1053,61.531,0.4853,-0.2927,-1.0163
4942601.0,-9.165,2.6528,58.1599,-0.2565,-0.9722,-1.2771
4942611.0,-10.228,4.2425,56.4744,-0.8626,-1.4165,-1.3824
4942621.0,-11.0516,4.5681,56.8479,-0.8971,-1.5814,-1.2803
4942631.0,-10.8026,3.3423,57.9684,-0.4337,-1.88,-1.1706
4942641.0,-9.2129,2.3942,57.5279,-0.0708,-2.478,-1.1797
4942651.0,-8.5138,1.992,55.7179,-0.0559,-3.0336,-1.3127
4942661.0,-8.1786,2.3846,54.1377,-0.0601,-3.4731,-1.4543
4942671.0,-8.4755,3.1029,52.7491,-0.1038,-3.9004,-1.5628
4942681.0,-8.3222,3.9552,50.0771,-0.2677,-4.3186,-1.6144
4942691.0,-8.1594,4.6639,48.6789,-0.5358,-4.5586,-1.6565
4942701.0,-8.169,5.0566,46.1315,-0.9386,-4.8172,-1.6964
4942711.0,-8.2073,5.3056,45.8346,-1.1462,-4.7981,-1.6921
4942721.0,-7.9296,5.8514,45.5473,-1.0786,-4.7566,-1.6112
4942731.0,-7.4795,6.5697,46.1985,-0.6774,-4.6491,-1.4825
4942741.0,-7.0198,8.2648,46.6199,-0.1692,-4.5884,-1.1818
4942751.0,-6.5505,9.481,46.5241,0.207,-4.723,-0.7269
4942761.0,-5.861,10.4004,45.1834,0.2682,-4.9417,-0.2123
4942771.0,-5.5641,10.0844,44.2257,0.1043,-5.2935,0.2708
4942781.0,-4.4245,8.8681,42.8658,-0.2565,-5.5845,0.6641
4942791.0,-3.62,6.7516,42.0613,-0.5257,-5.8218,0.9413
4942801.0,-2.7773,4.4628,41.5633,-0.671,-6.1065,1.1036
4942811.0,-1.3695,2.2793,40.8355,-0.5321,-6.3699,1.1536
4942821.0,-0.2203,0.8045,38.9776,-0.3624,-6.4902,1.1153
4942831.0,1.2833,-0.1053,37.0144,-0.3193,-6.5594,1.0004
4942841.0,2.6145,-0.7661,34.9362,-0.4571,-6.4923,0.8157
4942851.0,3.6488,-1.0534,33.6529,-0.6965,-6.5333,0.6082
4942861.0,4.9512,-1.1013,32.2547,-0.9594,-6.5216,0.3975
4942871.0,5.794,-0.9768,30.6266,-1.202,-6.4285,0.1825
4942881.0,6.5027,-0.747,29.2284,-1.3069,-6.2257,-0.0154
4942891.0,7.2018,-0.9385,27.4854,-1.3069,-5.783,-0.1708
4942901.0,7.8147,-1.494,28.309,-0.8939,-5.1913,-0.323
4942911.0,8.1594,-1.4461,28.8645,-0.3081,-4.7347,-0.4491
4942921.0,8.6862,-1.1013,28.5102,0.2437,-4.2622,-0.4842
4942931.0,8.8202,-0.1628,27.8494,0.4906,-4.076,-0.5598
4942941.0,10.6686,1.1971,26.2979,0.133,-3.8988,-0.6321
4942951.0,11.5017,1.9632,25.7233,-0.3815,-3.7195,-0.7072
4942961.0,12.0764,2.8539,24.3921,-0.8881,-3.6141,-0.7184
4942971.0,12.6893,3.8403,22.5534,-1.2606,-3.1767,-0.6577
4942981.0,12.4403,3.9744,21.4616,-1.4665,-2.5408,-0.4986
4942991.0,12.3828,3.9265,21.1935,-1.3516,-1.7012,-0.2426
4943001.0,13.3596,3.2561,21.7489,-1.1675,-0.8077,-0.0128
4943011.0,14.0971,2.5187,22.6108,-0.8721,-0.0851,0.1644
4943021.0,13.8385,2.0782,24.0282,-0.6891,0.4879,0.3672
4943031.0,14.0396,1.0918,24.3155,-0.5587,0.8695,0.5231
4943041.0,14.2886,-0.2777,24.1623,-0.5199,1.2723,0.563
4943051.0,14.4993,-1.2163,22.946,-0.5699,1.9034,0.4704
4943061.0,14.1641,-1.9824,23.7026,-0.6162,2.7281,0.3139
4943071.0,13.3405,-1.7047,25.0529,-0.6566,3.463,0.1431
4943081.0,11.9135,-0.4214,27.2747,-0.6353,4.0153,0.0559
4943091.0,10.6877,0.3926,29.8222,-0.5747,4.3702,0.1213
4943101.0,9.845,0.6416,32.9059,-0.5422,4.3431,0.2629
4943111.0,9.7875,0.0383,33.4326,-0.6699,4.093,0.3661
4943121.0,9.6917,-0.9481,33.4997,-0.8051,3.8881,0.3661
4943131.0,9.7492,-1.6376,32.0536,-0.8503,3.9392,0.2629
4943141.0,8.983,-1.81,30.7799,-0.8881,4.3117,0.1692
4943151.0,7.5274,-1.3791,31.1534,-0.6513,4.88,0.1171
4943161.0,6.292,-0.1628,32.0057,-0.3677,5.2823,0.1878
4943171.0,5.0374,-0.0862,34.5148,-0.1421,5.5654,0.3512
4943181.0,4.5298,-1.0056,36.3057,0.0011,5.4808,0.4789
4943191.0,4.8363,-2.49,36.0375,0.0112,5.0865,0.4997
4943201.0,5.8897,-4.2904,33.0496,-0.0835,5.3041,0.3166
4943211.0,4.8554,-5.2002,32.4079,-0.108,5.9389,0.0032
4943221.0,3.3902,-5.0278,32.7335,-0.0218,6.6722,-0.3629
4943231.0,1.7047,-3.9935,36.3248,0.1389,7.183,-0.6513
4943241.0,-0.0192,-2.5666,39.217,0.5364,7.2303,-0.8019
4943251.0,-1.245,-1.6376,41.2377,0.8104,7.1101,-0.8929
4943261.0,-3.3806,-0.6512,40.9313,0.9397,6.6094,-0.9839
4943271.0,-3.2944,-0.182,39.2553,0.7987,6.578,-1.0727
4943281.0,-3.3232,0.6225,37.6656,0.4805,7.0292,-1.2313
4943291.0,-4.549,1.7526,39.0638,0.1644,7.3852,-1.3473
4943301.0,-5.9568,3.5051,41.6208,0.1213,7.7795,-1.3255
4943311.0,-7.4603,4.8937,45.8346,0.1788,8.028,-1.1206
4943321.0,-8.3989,6.3877,48.4491,0.3406,7.971,-0.7753
4943331.0,-9.4236,6.2537,51.9925,0.4975,7.7539,-0.3001
4943341.0,-9.6726,5.1332,54.5112,0.7359,7.44,0.0564
4943351.0,-9.5385,3.0167,56.7713,1.0275,7.1952,0.2565
4943361.0,-9.7683,1.4365,58.9261,1.5293,6.7653,0.332
4943371.0,-9.912,0.5555,59.2325,2.0114,6.3524,0.2607
4943381.0,-10.2951,0.6704,58.0546,1.9087,6.0373,0.0724
4943391.0,-11.2623,1.5706,59.6252,1.5804,5.7074,-0.1963
4943401.0,-12.038,2.7773,61.1096,1.0733,5.2051,-0.3693
4943411.0,-12.6414,4.2329,63.4368,0.6401,4.5756,-0.4464
4943421.0,-13.1681,4.5873,65.7544,0.3182,3.8764,-0.4305
4943431.0,-13.4363,3.8595,67.21,0.0192,2.9511,-0.4459
4943441.0,-13.6565,3.4189,68.3209,-0.357,2.0007,-0.506
4943451.0,-13.8959,2.8635,69.0488,-0.5917,1.0461,-0.5864
4943461.0,-14.1833,3.0454,69.0967,-0.6976,0.0048,-0.647
4943471.0,-14.2311,3.3423,68.771,-0.8024,-1.1212,-0.6518
4943481.0,-14.0875,3.6679,67.0855,-0.7529,-2.2035,-0.6103
4943491.0,-13.3692,3.7828,63.4655,-0.7104,-3.0841,-0.5523
4943501.0,-12.6222,3.4285,59.5677,-0.9195,-3.7791,-0.539
4943511.0,-12.038,3.0742,56.915,-1.1275,-4.283,-0.5672
4943521.0,-11.5784,2.49,54.2718,-1.3367,-4.7262,-0.6332
4943531.0,-11.1474,1.9154,52.3372,-1.5484,-5.1115,-0.6811
4943541.0,-10.3142,1.5514,50.5751,-1.6511,-5.4015,-0.7513
4943551.0,-9.7683,1.2833,49.0907,-1.458,-5.6303,-0.7875
4943561.0,-8.7053,1.1492,47.2424,-1.2702,-5.7585,-0.7966
4943571.0,-8.1403,1.3408,44.8003,-1.0541,-5.8729,-0.804
4943581.0,-6.9528,1.8579,42.9807,-1.0163,-5.9112,-0.7955
4943591.0,-6.1196,2.059,41.142,-1.0382,-5.8112,-0.7583
4943601.0,-5.6886,2.6815,40.3184,-0.9445,-5.6686,-0.6822
4943611.0,-5.1044,2.5857,39.1979,-0.8854,-5.5648,-0.5672
4943621.0,-4.2042,2.241,38.5466,-0.903,-5.3791,-0.4523
4943631.0,-3.553,1.8196,38.0487,-0.8881,-5.3046,-0.3741
4943641.0,-2.7294,1.4078,37.7613,-0.7215,-5.1668,-0.2905
4943651.0,-1.8387,1.3408,36.5834,-0.6407,-4.9545,-0.2102
4943661.0,-0.9002,1.3503,36.4876,-0.4842,-4.6959,-0.1474
4943671.0,-0.7566,1.312,36.4972,-0.431,-4.5224,-0.0793
4943681.0,0.1724,0.8332,35.913,-0.5364,-4.3958,-0.0569
4943691.0,0.3352,0.4022,35.9992,-0.6737,-4.2053,-0.0777
4943701.0,0.7278,-0.3448,36.6887,-0.5853,-4.0765,-0.0676
4943711.0,1.2929,-0.8906,37.9433,-0.406,-4.0467,-0.0788
4943721.0,2.0207,-0.8906,38.3551,-0.0931,-4.0786,-0.1357
4943731.0,2.7485,-0.6321,39.399,0.2426,-4.0813,-0.2267
4943741.0,2.8922,1.1779,35.6544,0.7646,-4.1755,-0.1745
4943751.0,2.6432,0.8906,35.5491,0.5066,-4.0813,-0.0303
4943761.0,3.9935,0.5171,34.2562,0.4922,-3.9637,0.0223
4943771.0,5.2577,0.2107,34.9362,0.0298,-3.9956,-0.0585
4943781.0,5.7557,0.5171,35.1756,-0.4039,-4.1734,-0.183
4943791.0,6.0142,0.3448,35.5587,-0.6955,-4.4713,-0.2277
4943801.0,5.4013,0.431,34.4095,-0.6981,-4.7555,-0.1777
4943811.0,6.3398,-0.2298,32.1398,-0.9003,-4.747,-0.1777
4943821.0,7.3837,-1.0439,30.1574,-0.9349,-4.6922,-0.216
4943831.0,8.2648,-1.5993,28.5868,-1.0461,-4.4272,-0.3725
4943841.0,9.2033,-0.8428,26.9204,-1.2574,-4.1499,-0.5454
4943851.0,9.1459,-0.1341,26.6427,-1.4606,-4.0111,-0.6417
4943861.0,9.912,0.7661,25.2636,-1.7906,-3.7913,-0.6572
4943871.0,10.2759,1.2546,24.1048,-1.8092,-3.4923,-0.589
4943881.0,10.4866,1.312,22.6108,-1.7544,-2.9713,-0.4656
4943891.0,11.1474,1.2929,20.1688,-1.6362,-2.1827,-0.2937
4943901.0,11.7507,0.1149,19.3835,-1.5474,-1.2382,-0.1346
4943911.0,12.5456,-0.7661,19.144,-1.408,-0.2001,-0.0984
4943921.0,12.7659,-1.4748,19.7474,-1.3335,0.8418,-0.132
4943931.0,12.5935,-1.1684,21.6532,-1.0477,1.8214,-0.1288
4943941.0,11.8944,-0.2586,23.1567,-0.6417,2.6004,-0.0463
4943951.0,10.9367,0.5938,24.4304,-0.2426,3.2767,0.1091
4943961.0,9.5481,1.2067,25.2923,-0.0878,3.7839,0.3262
4943971.0,9.3948,0.6991,26.432,-0.0697,4.2734,0.5385
4943981.0,9.2895,-0.9098,27.3897,-0.1261,4.7746,0.6008
4943991.0,9.1171,-2.1739,29.5061,-0.2767,5.145,0.4879
4944001.0,8.2839,-3.0358,31.5364,-0.3964,5.468,0.3182
4944011.0,7.0198,-3.5434,34.4478,-0.2458,5.692,0.1623
4944021.0,6.4548,-3.5243,37.3112,0.2144,5.7378,0.0149
4944031.0,5.2768,-2.9688,37.723,0.6726,5.8272,-0.0937
4944041.0,4.1755,-1.9154,37.723,0.9871,5.998,-0.1628
4944051.0,2.8443,-1.1875,38.336,1.0562,6.2129,-0.1852
4944061.0,2.1165,-0.6512,39.6576,1.0424,6.3534,-0.182
4944071.0,1.8292,0.0,41.6974,0.8125,6.3619,-0.1953
4944081.0,0.9768,0.68,44.3119,0.5704,6.0698,-0.2038
4944091.0,0.9098,1.2546,46.0166,0.3794,5.5153,-0.1123
4944101.0,0.9481,1.1684,45.9016,0.1266,5.0104,-0.017
4944111.0,0.814,0.9481,45.3845,0.0447,4.6693,0.0426
4944121.0,0.9194,0.4884,44.3885,0.0968,4.6916,0.0857
4944131.0,0.4214,-0.1437,44.4747,0.2969,4.8779,0.0782
4944141.0,0.1245,0.5459,44.9248,0.5167,4.8885,0.1027
4944151.0,-0.4214,1.5227,45.0301,0.6055,4.7683,0.2293
4944161.0,-1.7334,1.5993,44.9918,0.6449,4.5783,0.414
4944171.0,-1.6664,-0.0287,43.0861,0.7966,4.5783,0.5906
4944181.0,-1.1013,-2.1931,40.5099,0.9908,5.1248,0.5497
4944191.0,-1.1013,-3.6392,40.0215,1.0727,5.9198,0.3177
4944201.0,-1.9728,-3.735,42.205,1.0791,6.6227,-0.0053
4944211.0,-3.237,-3.1891,45.4228,1.0499,7.0867,-0.3113
4944221.0,-4.7788,-1.992,49.8569,1.202,7.1069,-0.5486
4944231.0,-7.0198,-0.0287,52.7491,1.251,6.902,-0.6337
4944241.0,-8.9543,0.4118,57.4896,1.6416,6.47,-0.5023
4944251.0,-9.2608,-0.2682,61.5789,2.171,5.5382,-0.4246
4944261.0,-8.4276,-0.9864,61.3969,2.618,4.5277,-0.4736
4944271.0,-7.8817,-1.4269,59.6252,2.6212,3.8834,-0.754
4944281.0,-8.351,-0.4214,57.5853,2.3104,3.2262,-1.0946
4944291.0,-8.983,0.5171,56.0243,1.5931,2.7281,-1.4644
4944301.0,-10.0173,2.0111,54.741,0.6534,2.3205,-1.765
4944311.0,-11.2911,3.0167,55.5646,-0.1187,2.1189,-1.9204
4944321.0,-11.9997,3.2082,57.5375,-0.4794,2.0215,-1.9177
4944331.0,-12.5935,2.4134,60.7936,-0.448,1.7368,-1.9289
4944341.0,-13.149,2.6432,63.9156,-0.1527,1.2324,-1.8869
4944351.0,-13.283,2.2027,67.8708,0.415,0.3517,-1.8619
4944361.0,-13.3692,3.237,67.4878,1.0802,-0.6646,-1.8342
4944371.0,-14.1258,3.9073,65.7256,1.3766,-1.7826,-1.7767
4944381.0,-13.5129,4.7788,61.8566,1.2404,-2.7973,-1.7996
4944391.0,-13.1106,5.5833,57.796,0.7253,-3.4816,-1.8805
4944401.0,-12.9095,5.8802,55.5072,0.0995,-3.8791,-1.9991
4944411.0,-12.6031,6.6367,54.5878,-0.5922,-4.3122,-2.0949
4944421.0,-12.4307,7.3933,55.0762,-0.9482,-4.7044,-2.1056
4944431.0,-12.3062,8.4467,54.8368,-1.0254,-5.1445,-1.9396
4944441.0,-12.3062,8.4467,55.4018,-0.7077,-5.6292,-1.6788
4944451.0,-11.8944,8.5617,54.4633,-0.2389,-6.1416,-1.3548
4944461.0,-10.8026,8.667,52.4234,0.3283,-6.6168,-1.0115
4944471.0,-9.9311,8.7436,49.2056,0.5417,-7.075,-0.7082
4944481.0,-8.4659,7.8817,45.7101,0.3805,-7.4693,-0.5018
4944491.0,-7.0773,7.2018,42.454,-0.0367,-7.7364,-0.4555
4944501.0,-5.9185,6.4356,39.8682,-0.4507,-7.7843,-0.4406
4944511.0,-4.9704,6.5218,38.4988,-0.7625,-7.6433,-0.4087
4944521.0,-4.0031,6.2249,39.1979,-0.7849,-7.5166,-0.3459
4944531.0,-3.237,6.2153,39.217,-0.5832,-7.5752,-0.1969
4944541.0,-2.7007,5.7078,38.6328,-0.2272,-7.7077,-0.0027
4944551.0,-1.6472,5.2289,35.9513,-0.1091,-7.9838,0.132
4944561.0,-0.3735,3.8978,33.6242,-0.0607,-7.8817,0.2203
4944571.0,0.9768,2.624,31.3162,-0.1298,-7.7055,0.1474
4944581.0,2.7677,1.8292,29.7456,-0.3815,-7.4884,-0.0271
4944591.0,3.4285,1.5036,28.9411,-0.6093,-7.1378,-0.2421
4944601.0,4.5969,2.0016,28.5197,-0.7769,-6.9042,-0.4113
4944611.0,5.2864,1.8771,28.9028,-0.5593,-6.5333,-0.5103
4944621.0,6.1292,3.0167,28.1654,-0.1511,-6.0922,-0.5193
4944631.0,5.8514,3.9935,27.7919,0.1719,-5.8511,-0.4417
4944641.0,7.0006,5.1906,26.7001,0.406,-5.4978,-0.2756
4944651.0,7.7381,5.7652,25.0529,0.3086,-5.2488,-0.1054
4944661.0,8.4372,6.1004,23.5685,-0.0138,-4.8933,0.0117
4944671.0,9.0118,6.1675,22.5725,-0.3049,-4.4772,0.1304
4944681.0,10.0556,6.3686,22.1607,-0.58,-3.9174,0.2879
4944691.0,10.8409,6.5793,22.9077,-0.6928,-3.2517,0.4459
4944701.0,11.1378,6.6176,24.8614,-0.7152,-2.8888,0.6694
4944711.0,11.5879,7.1251,25.5222,-0.5853,-2.7398,0.9578
4944721.0,11.5496,7.2018,25.0338,-0.6146,-2.5611,1.2978
4944731.0,11.6837,6.7708,24.1048,-0.3826,-2.2466,1.665
4944741.0,12.2487,5.9376,22.9652,-0.3496,-1.831,1.9816
4944751.0,12.5456,5.047,21.6723,-0.4917,-1.4596,2.204
4944761.0,13.0149,3.7445,21.385,-0.7301,-1.0765,2.3775
4944771.0,13.5129,2.3176,21.0307,-0.8461,-0.6242,2.4445
4944781.0,14.279,1.063,20.2645,-0.9147,-0.1043,2.4318
4944791.0,14.3652,0.3543,19.3547,-0.9993,0.5699,2.3573
4944801.0,14.6908,-0.0766,18.1193,-1.2063,1.2866,2.2429
4944811.0,14.279,-0.565,18.148,-1.3542,2.179,2.1285
4944821.0,13.3692,-1.4557,18.5407,-1.3356,3.1613,2.0875
4944831.0,12.4307,-2.988,20.3411,-0.9791,4.2617,2.014
4944841.0,12.1913,-4.7309,23.2812,-0.3086,5.4563,1.8959
4944851.0,12.153,-5.6599,26.8151,0.5316,6.4407,1.6623
4944861.0,11.7124,-5.7748,30.4734,0.9222,7.0196,1.3415
4944871.0,11.2623,-4.9321,32.9442,1.1946,7.3777,1.0126
4944881.0,9.8833,-4.5011,35.6736,1.2707,7.3948,0.696
4944891.0,8.7053,-2.9975,37.3974,1.375,7.2005,0.4124
4944901.0,7.0006,-1.6664,37.6752,1.2877,7.0994,0.2261
4944911.0,5.545,-0.9577,38.3168,1.1025,6.9989,0.1314
4944921.0,4.5203,-1.1492,38.2593,0.745,6.7616,0.0059
4944931.0,4.5681,-1.8579,38.6041,0.489,6.753,-0.1857
4944941.0,3.8978,-2.2314,39.3128,0.3576,6.7318,-0.4369
4944951.0,3.3902,-1.8771,39.9736,0.3475,6.6839,-0.7247
4944961.0,2.8252,-0.5555,39.7246,0.3469,6.703,-0.9711
4944971.0,1.5514,0.8811,40.3279,0.2756,6.5886,-1.1126
4944981.0,0.6033,2.4325,39.0255,0.1101,6.3513,-1.1126
4944991.0,-0.0479,3.3232,37.3591,-0.0596,6.2874,-1.0014
4945001.0,-0.4788,3.2082,35.0032,-0.2847,6.6567,-0.9083
4945011.0,-1.5227,2.4134,34.5818,-0.2666,7.5177,-0.8684
4945021.0,-3.0454,2.0877,36.9569,0.0649,8.4505,-0.7976
4945031.0,-4.0701,2.5666,40.462,0.6321,9.2013,-0.7045
4945041.0,-6.3303,3.1029,45.7388,1.2866,9.5706,-0.5289
4945051.0,-7.8243,3.1412,48.2671,1.9028,9.5296,-0.3214
4945061.0,-9.1459,2.8826,49.4834,2.3354,9.4844,-0.2203
4945071.0,-9.9216,2.2505,50.9295,2.4195,9.4631,-0.2453
4945081.0,-10.9271,1.3982,53.3237,2.3881,9.3726,-0.3863
4945091.0,-12.4115,1.6951,56.3308,2.2407,9.1609,-0.6396
4945101.0,-13.7427,3.0646,59.5103,1.9151,8.8788,-0.8535
4945111.0,-15.1792,4.0414,64.4998,1.4676,8.2669,-0.9722
4945121.0,-15.6293,4.616,68.2635,0.9631,7.0351,-1.06
4945131.0,-15.4665,4.798,70.1597,0.5013,5.7596,-1.1563
4945141.0,-15.7251,5.2289,70.4087,-0.1974,4.3915,-1.2728
4945151.0,-15.5432,5.4109,69.5468,-0.7992,3.033,-1.3856
4945161.0,-15.1697,5.4971,67.3154,-1.3409,1.9976,-1.4479
4945171.0,-14.0396,4.3479,65.151,-1.6091,1.2095,-1.4851
4945181.0,-15.6198,3.0646,62.1918,-1.0983,1.061,-1.5186
4945191.0,-18.6173,4.0606,59.8167,-0.6529,0.9195,-1.4229
4945201.0,-15.6964,2.7581,63.1973,-1.2861,-0.0958,-1.3782
4945211.0,-13.398,2.4517,59.3858,-0.961,-0.5433,-1.3862
4945221.0,-15.1505,2.0303,60.2573,-0.8626,-0.895,-1.4936
4945231.0,-14.9398,2.9209,59.3283,-0.953,-1.6171,-1.5373
4945241.0,-14.3556,4.0318,59.1272,-0.8902,-2.3078,-1.5155
4945251.0,-14.5663,4.2042,58.2078,-0.7577,-2.983,-1.4128
4945261.0,-13.8385,3.8307,56.8767,-0.6098,-3.6519,-1.3436
4945271.0,-12.8425,3.3423,54.923,-0.4188,-4.2638,-1.3771
4945281.0,-11.9423,2.7869,52.5958,-0.3868,-4.8119,-1.5027
4945291.0,-11.1953,3.1987,48.6693,-0.6279,-5.2232,-1.7081
4945301.0,-10.8409,3.8978,46.074,-1.1339,-5.4568,-1.8874
4945311.0,-10.4483,4.5298,43.5745,-1.4862,-5.5036,-2.0566
4945321.0,-10.4196,5.0087,43.0861,-1.7267,-5.3935,-2.146
4945331.0,-10.161,6.1004,42.6455,-1.6793,-5.2216,-2.1178
4945341.0,-9.4715,7.4316,42.7796,-1.4745,-4.9635,-1.9571
4945351.0,-9.3948,8.3318,43.5266,-1.1329,-4.748,-1.6495
4945361.0,-9.6151,8.916,45.0397,-0.7274,-4.7816,-1.2324
4945371.0,-8.6574,8.4084,45.6718,-0.2123,-4.8933,-0.7694
4945381.0,-7.6614,7.4603,44.9535,0.074,-5.0939,-0.4326
4945391.0,-6.5984,6.5888,43.8522,0.1011,-5.4329,-0.2347
4945401.0,-5.363,5.8131,41.3239,-0.1208,-5.6223,-0.2011
4945411.0,-4.5969,5.5354,39.8395,-0.5332,-5.6744,-0.2075
4945421.0,-4.0989,5.4588,39.2936,-0.8482,-5.5904,-0.2059
4945431.0,-4.2425,5.5929,40.1556,-0.9248,-5.5483,-0.1272
4945441.0,-3.6966,5.4779,40.9313,-0.97,-5.7351,0.0287
4945451.0,-3.3232,4.8937,40.9025,-0.8338,-5.9809,0.1767
4945461.0,-2.557,4.0989,39.9927,-0.7508,-6.2678,0.3124
4945471.0,-1.1684,3.2178,37.9146,-0.6295,-6.421,0.3576
4945481.0,0.0,2.4804,36.0471,-0.6896,-6.4258,0.3315
4945491.0,1.3312,1.7813,33.854,-0.7274,-6.2443,0.2416
4945501.0,2.1165,1.6951,32.8676,-0.6641,-5.9453,0.1937
4945511.0,2.7677,2.2314,32.293,-0.5869,-5.5829,0.1783
4945521.0,2.7773,2.4325,31.7375,-0.4193,-5.3371,0.2645
4945531.0,3.553,2.5187,31.1725,-0.3118,-5.1205,0.4071
4945541.0,3.8882,2.2027,31.5077,-0.1873,-4.8885,0.5289
4945551.0,4.9225,1.7909,31.3162,-0.299,-4.8348,0.6119
4945561.0,5.5929,0.9768,31.795,-0.257,-4.8587,0.663
4945571.0,6.4835,0.2873,30.6362,-0.3038,-5.0173,0.6662
4945581.0,7.8434,-0.1437,29.3721,-0.4518,-5.1136,0.6013
4945591.0,8.7053,0.5459,26.8342,-0.7689,-5.1482,0.5082
4945601.0,9.2512,0.7661,24.871,-1.1472,-4.9369,0.4438
4945611.0,9.7971,0.7087,24.6124,-1.2755,-4.6432,0.4757
4945621.0,10.7739,1.1205,23.6068,-1.2973,-4.3479,0.5321
4945631.0,11.6167,0.929,22.2373,-1.1877,-3.8993,0.6034
4945641.0,12.0093,0.6895,21.0211,-1.094,-3.4284,0.6588
4945651.0,12.8808,0.067,20.3411,-0.9754,-2.8867,0.7311
4945661.0,13.6374,-0.0958,18.4928,-0.8987,-2.2115,0.7418
4945671.0,13.7906,-0.3735,17.4394,-0.7657,-1.4388,0.762
4945681.0,14.4897,-0.9098,16.6541,-0.7412,-0.4768,0.721
4945691.0,14.7674,-1.3024,16.3476,-0.7237,0.4709,0.6311
4945701.0,14.4897,-1.4078,16.2518,-0.7934,1.4591,0.5385
4945711.0,13.9247,-1.6089,17.7171,-0.7253,2.3615,0.4661
4945721.0,13.4746,-1.6855,19.4888,-0.6125,3.2448,0.4172
4945731.0,12.8521,-2.0303,20.8487,-0.4603,3.9217,0.3491
4945741.0,12.402,-2.3942,22.4768,-0.4209,4.383,0.224
4945751.0,12.3541,-2.8347,23.5589,-0.3235,4.8922,0.0575
4945761.0,11.6741,-2.49,23.6547,-0.1937,5.4589,-0.1644
4945771.0,10.4483,-1.3886,23.7601,-0.2144,6.0618,-0.3469
4945781.0,8.9447,0.7183,24.2868,-0.3272,6.8478,-0.4315
4945791.0,6.8283,2.4421,26.4224,-0.4752,7.4496,-0.3155
4945801.0,4.8842,2.7198,30.1095,-0.5561,7.739,-0.0218
4945811.0,4.6064,1.8675,31.9195,-0.5087,7.8449,0.2639
4945821.0,4.4819,0.4501,32.7431,-0.357,8.1615,0.3975
4945831.0,3.6583,-0.68,33.7199,-0.074,8.7155,0.3746
4945841.0,2.2218,-0.182,35.6161,0.1032,9.2774,0.2841
4945851.0,0.6416,1.0343,39.0351,0.1213,9.6126,0.2549
4945861.0,-1.6089,2.873,43.6415,0.049,9.3615,0.4204
4945871.0,-3.371,3.6105,46.8593,-0.2879,8.4531,0.7098
4945881.0,-3.8307,2.1452,47.4627,-0.7971,7.1154,1.0323
4945891.0,-2.7964,-1.2546,44.3693,-1.036,6.4859,1.1579
4945901.0,-2.3367,-4.4341,41.2952,-0.8865,6.7057,0.9397
4945911.0,-2.873,-5.9472,40.9121,-0.6545,7.2894,0.5529
4945921.0,-3.8978,-5.363,41.5825,-0.5843,7.689,0.1304
4945931.0,-5.2289,-3.4381,44.1491,-0.7492,7.912,-0.1612
4945941.0,-7.4603,-1.8579,47.3956,-0.795,7.5592,-0.2027
4945951.0,-8.7245,-1.494,47.9223,-0.6114,7.1175,-0.0947
4945961.0,-8.8777,-2.3272,46.2177,-0.3384,7.2091,-0.0208
4945971.0,-9.73,-3.3615,46.0453,0.1708,7.747,-0.0394
4945981.0,-10.5919,-3.8499,47.9223,0.7237,8.3409,-0.166
4945991.0,-11.5688,-3.5051,51.1976,1.2217,8.675,-0.306
4946001.0,-13.1681,-2.375,54.9996,1.4521,8.4558,-0.4273
4946011.0,-13.9055,-1.5419,58.4185,1.5362,7.7385,-0.4789
4946021.0,-14.3556,-1.3503,59.3283,1.2425,6.785,-0.589
4946031.0,-14.7579,-1.4844,59.0123,0.77,5.9293,-0.8019
4946041.0,-15.0643,-1.8387,57.9205,0.2453,5.2881,-1.0871
4946051.0,-15.8783,-1.6664,58.2653,-0.1974,4.8864,-1.408
4946061.0,-17.3628,-0.6321,60.6595,-0.1612,4.6118,-1.5884
4946071.0,-18.0714,0.5267,63.3218,0.3166,4.1579,-1.6325
4946081.0,-18.4449,1.6281,64.8829,0.7285,3.5492,-1.5777
4946091.0,-18.8663,2.4038,65.1414,1.0797,2.8356,-1.5128
4946101.0,-19.0387,3.4955,65.2085,1.2856,2.0401,-1.4234
4946111.0,-19.4218,5.114,63.2931,1.1776,1.3335,-1.3186
4946121.0,-19.7474,6.2345,62.2301,0.7886,0.7668,-1.1813
4946131.0,-20.0155,6.8474,62.0481,0.4294,0.2533,-1.0158
4946141.0,-20.2358,6.6176,62.7281,-0.0686,-0.455,-0.8189
4946151.0,-20.4752,5.3247,64.337,-0.3496,-1.2648,-0.6838
4946161.0,-19.7282,4.4053,64.2221,-0.5103,-2.2274,-0.6188
4946171.0,-18.9621,3.7733,62.8526,-0.6657,-3.1655,-0.6242
4946181.0,-18.7514,3.2274,61.0138,-0.721,-3.9749,-0.6742
4946191.0,-17.9852,3.2561,58.7346,-0.8067,-4.6198,-0.7423
4946201.0,-17.8224,3.553,56.7522,-0.9418,-5.1812,-0.7838
4946211.0,-17.0371,4.5394,53.6014,-1.2334,-5.7362,-0.7992
4946221.0,-16.4242,4.8363,51.4945,-1.5261,-6.1129,-0.7168
4946231.0,-16.0699,4.5777,50.4219,-1.6166,-6.371,-0.5885
4946241.0,-15.208,4.0989,49.0141,-1.4841,-6.5503,-0.3959
4946251.0,-14.5472,3.5051,48.5544,-1.0185,-6.6083,-0.224
4946261.0,-13.8193,3.6583,46.7635,-0.4661,-6.5391,-0.0011
4946271.0,-12.6701,3.4764,46.1315,-0.0415,-6.5695,0.2081
4946281.0,-11.5975,3.5817,45.078,0.1804,-6.6344,0.3698
4946291.0,-10.7356,3.4955,44.0725,0.132,-6.8568,0.5087
4946301.0,-9.7492,3.4093,42.5881,-0.1878,-7.1995,0.5811
4946311.0,-8.7245,2.8252,40.5578,-0.8093,-7.5193,0.6002
4946321.0,-7.7859,1.81,38.9297,-1.5729,-7.8843,0.5215
4946331.0,-6.4069,0.7566,36.7654,-2.4179,-8.1041,0.3789
4946341.0,-5.7174,-0.7661,36.2099,-3.1517,-8.169,0.1426
4946351.0,-5.114,-2.1165,36.4876,-3.3927,-8.1653,-0.0803
4946361.0,-4.0701,-3.1029,38.6233,-2.8787,-8.0381,-0.2474
4946371.0,-3.6679,-2.5187,39.5714,-1.8518,-8.0312,-0.3038
4946381.0,-3.2848,-0.7278,38.8914,-0.5752,-8.1828,-0.1453
4946391.0,-2.5857,0.7853,36.3823,0.3288,-8.3882,0.1527
4946401.0,-1.7621,1.494,32.2643,0.853,-8.6186,0.5082
4946411.0,-0.7278,0.9194,27.0257,0.7913,-8.5947,0.7811
4946421.0,1.1875,-0.6321,23.626,0.4837,-8.1818,0.9078
4946431.0,3.7637,-2.3559,21.5957,0.009,-7.6502,0.8397
4946441.0,6.2153,-3.3519,20.9253,-0.4518,-6.985,0.6045
4946451.0,7.0581,-3.9361,22.0171,-0.5305,-6.3348,0.3453
4946461.0,7.5848,-3.2465,21.8638,-0.2634,-5.8681,0.1889
4946471.0,8.1116,-2.4134,21.1456,-0.0027,-5.3578,0.1878
4946481.0,8.418,-1.6759,19.2781,0.0532,-4.7358,0.2336
4946491.0,9.4236,-1.8771,18.646,-0.0255,-4.1271,0.2927
4946501.0,10.6781,-2.6815,18.2055,-0.1165,-3.355,0.3086
4946511.0,11.971,-3.6392,18.3587,-0.0601,-2.5078,0.2187
4946521.0,12.8042,-4.0606,19.6995,0.0761,-1.69,0.0766
4946531.0,13.034,-3.62,20.8391,0.3182,-0.9642,-0.0463
4946541.0,12.4403,-2.739,22.5917,0.6375,-0.3847,-0.0724
4946551.0,12.5169,-1.7334,23.4057,0.8647,0.0734,-0.0511
4946561.0,12.6031,-0.6129,24.1144,0.8109,0.2863,-0.0064
4946571.0,13.0149,0.2011,23.7696,0.3044,0.2746,0.0271
4946581.0,13.5512,0.7853,22.8215,-0.4752,0.2831,0.0192
4946591.0,13.532,0.7661,22.4863,-1.2068,0.339,0.0607
4946601.0,13.4746,0.4405,22.1895,-1.3995,0.7444,0.1378
4946611.0,13.4554,0.3831,22.7545,-1.0626,1.409,0.3251
4946621.0,12.7563,0.5076,22.6491,-0.4374,1.9811,0.5731
4946631.0,12.9478,0.4118,21.567,-0.1564,2.6403,0.8024
4946641.0,12.1434,0.0958,21.8926,-0.1532,3.1698,0.9355
4946651.0,12.038,-0.2011,21.6915,-0.6045,3.2342,1.027
4946661.0,12.2487,-1.5036,21.0977,-1.1696,3.3842,1.0674
4946671.0,11.8274,-2.7773,19.7857,-1.5202,3.9344,1.0472
4946681.0,10.9463,-4.2808,19.4122,-1.4058,4.9705,0.9982
4946691.0,9.4906,-5.2768,21.2414,-0.8945,6.1251,0.9275
4946701.0,8.2552,-6.2824,24.2197,0.0255,7.307,0.82
4946711.0,7.1922,-6.3398,27.6674,1.003,8.1615,0.6614
4946721.0,5.8131,-5.794,31.2395,1.6799,8.4436,0.4656
4946731.0,4.6543,-4.5298,31.2779,1.6793,8.1365,0.216
4946741.0,4.4915,-3.3232,28.0505,1.0376,7.8971,-0.0921
4946751.0,4.0606,-2.7773,25.5605,0.0346,8.4356,-0.3959
4946761.0,1.0918,-2.5762,25.6275,-0.4039,9.578,-0.6545
4946771.0,-2.0877,-2.5379,30.0616,-0.2735,10.9839,-0.7471
4946781.0,-4.4149,-2.0111,36.3727,0.3539,11.9672,-0.746
4946791.0,-6.2058,-0.7661,43.6894,1.168,12.361,-0.696
4946801.0,-8.0637,0.8332,49.2535,1.8129,11.8948,-0.5406
4946811.0,-8.8777,2.6145,52.8161,1.8704,10.5763,-0.3544
4946821.0,-8.734,2.806,51.5711,1.2717,8.9262,-0.2341
4946831.0,-7.92,2.1644,47.1179,0.3688,7.8247,-0.2682
4946841.0,-8.0062,1.5036,42.703,-0.4805,7.572,-0.4374
4946851.0,-9.6726,2.0494,40.7302,-1.2079,7.8103,-0.5981
4946861.0,-11.7507,3.6488,41.4771,-1.6432,8.0626,-0.5417
4946871.0,-14.9015,4.5777,44.197,-1.4048,8.4728,-0.1458
4946881.0,-17.6309,3.7924,48.382,-0.5997,8.6788,0.48
4946891.0,-17.4298,0.565,50.9103,0.3837,8.3478,1.0062
4946901.0,-16.0028,-3.7733,49.2248,1.1675,8.3526,1.0264
4946911.0,-16.3189,-6.3303,47.2424,1.615,8.8347,0.6348
4946921.0,-18.014,-6.6367,47.4531,1.8076,9.5147,0.0857
4946931.0,-20.5135,-5.296,50.7667,1.8427,10.0878,-0.4683
4946941.0,-22.8981,-2.0877,56.1488,2.0215,10.0527,-0.8062
4946951.0,-25.8765,0.6129,61.1192,2.0705,9.6515,-0.8487
4946961.0,-28.0217,2.241,67.6601,2.3924,8.7932,-0.7529
4946971.0,-26.9491,1.9249,71.6249,2.3211,7.4379,-0.6891
4946981.0,-26.0202,1.8962,72.6497,2.543,6.1406,-0.7902
4946991.0,-26.8534,2.1069,73.7223,2.1567,4.4868,-1.0142
4947001.0,-25.4456,2.9975,72.1229,1.7459,2.924,-1.2616
4947011.0,-25.2923,2.7869,67.4878,1.0493,1.3585,-1.6543
4947021.0,-29.0465,5.0278,65.4383,1.3127,1.0238,-1.6825
4947031.0,-28.1654,8.3606,64.5381,-0.9871,-0.6045,-1.6261
4947041.0,-25.1678,8.1977,62.91,-1.0472,-1.6261,-1.3739
4947051.0,-26.6906,7.0964,61.5789,-1.5096,-2.3594,-1.1302
4947061.0,-24.7082,5.4779,59.6539,-1.3319,-2.9554,-0.9312
4947071.0,-23.8271,4.0223,58.7537,-1.234,-3.5859,-0.8423
4947081.0,-23.2429,3.4285,56.1488,-1.0515,-4.2106,-0.7913
4947091.0,-21.7872,2.624,53.8025,-0.9956,-4.6273,-0.803
4947101.0,-20.9349,2.5762,52.1744,-0.8535,-5.0827,-0.8168
4947111.0,-19.9389,2.9018,49.2439,-0.8828,-5.4643,-0.8461
4947121.0,-19.4792,3.0454,47.6925,-0.8626,-5.6782,-0.8312
4947131.0,-19.1345,3.0167,46.0644,-0.7226,-5.9017,-0.77
4947141.0,-18.2438,2.8347,43.5649,-0.555,-5.9442,-0.7035
4947151.0,-17.832,2.6624,41.4388,-0.473,-5.9373,-0.6641
4947161.0,-16.3859,3.0454,39.715,-0.7066,-5.833,-0.6742
4947171.0,-15.7155,3.237,39.3128,-0.8753,-5.6324,-0.687
4947181.0,-15.3325,3.802,39.8395,-0.9519,-5.6271,-0.5619
4947191.0,-14.777,3.7445,40.2226,-0.8131,-5.7032,-0.3863
4947201.0,-13.7906,3.2753,39.7054,-0.5986,-5.6409,-0.2081
4947211.0,-12.8904,2.8539,39.6959,-0.3251,-5.6766,-0.0607
4947221.0,-12.038,2.806,38.6041,-0.1447,-5.6452,0.0521
4947231.0,-11.2144,2.8826,37.6847,0.0686,-5.5127,0.2214
4947241.0,-10.6111,2.4612,37.091,0.2081,-5.4047,0.3613
4947251.0,-9.0692,2.1548,36.4876,0.1761,-5.3057,0.4193
4947261.0,-8.7149,1.8675,36.4302,0.0777,-5.3211,0.481
4947271.0,-7.8338,1.5419,35.3097,-0.083,-5.2849,0.4848
4947281.0,-6.7708,0.8715,34.4478,-0.2586,-5.1487,0.4715
4947291.0,-5.8323,0.3352,33.5667,-0.5406,-4.9987,0.3773
4947301.0,-5.3917,0.4597,33.2028,-0.8147,-4.813,0.2575
4947311.0,-4.8267,0.3639,34.4095,-0.8274,-4.5453,0.182
4947321.0,-4.7788,1.0343,35.166,-0.4448,-4.3601,0.2065
4947331.0,-4.2617,1.063,36.1716,0.2182,-4.1106,0.3214
4947341.0,-3.8786,1.5802,36.0854,0.8338,-3.8248,0.5023
4947351.0,-3.2657,1.4365,35.8364,1.2372,-3.6881,0.622
4947361.0,-2.7294,1.5897,35.3863,1.2654,-3.6471,0.6758
4947371.0,-1.7334,1.7813,34.4574,0.8407,-3.6977,0.5997
4947381.0,-1.3024,1.992,33.4518,0.1554,-3.7748,0.489
4947391.0,-1.0151,2.375,32.5899,-0.5076,-3.7594,0.3725
4947401.0,-0.5076,2.9688,33.107,-0.9413,-3.6455,0.3001
4947411.0,-0.6129,3.7445,33.8827,-1.0046,-3.4252,0.3342
4947421.0,-0.7853,4.5298,34.7447,-0.7886,-3.2592,0.5289
4947431.0,-0.6225,4.8746,34.4574,-0.3868,-2.9708,0.8216
4947441.0,-0.0862,4.9225,34.8021,-0.116,-2.9048,1.135
4947451.0,0.8428,4.4149,34.5723,0.0367,-2.9878,1.384
4947461.0,1.9537,3.8978,33.1357,0.0128,-3.0506,1.5548
4947471.0,2.739,3.0071,30.8469,-0.3374,-3.0155,1.6458
4947481.0,3.4189,2.7294,29.2476,-0.8572,-2.9724,1.6474
4947491.0,4.1659,2.5091,28.0313,-1.4724,-2.9021,1.6405
4947501.0,4.3862,2.3463,26.8246,-2.1354,-2.7989,1.6304
4947511.0,4.3574,2.1548,26.1638,-2.5632,-2.6382,1.7166
4947521.0,4.6256,1.2929,25.3498,-2.6462,-2.3136,1.8624
4947531.0,5.2864,-0.4022,24.8135,-2.3567,-1.7464,2.0359
4947541.0,6.2345,-1.9249,23.9133,-1.8262,-0.9514,2.113
4947551.0,7.106,-3.2561,23.7696,-1.3595,-0.1022,2.1072
4947561.0,7.2401,-3.9169,23.7696,-0.9583,0.787,2.0428
4947571.0,6.5793,-3.9552,25.5222,-0.5795,1.5171,1.9938
4947581.0,6.3686,-4.2425,27.0641,-0.2666,2.071,1.955
4947591.0,6.0717,-4.5298,27.8398,-0.1022,2.4722,1.9215
4947601.0,6.0334,-5.5067,28.7879,0.0059,2.7702,1.8017
4947611.0,6.4739,-6.6655,29.8318,0.091,3.0628,1.5926
4947621.0,6.1866,-7.6136,29.6306,0.0697,3.3661,1.2148
4947631.0,5.9855,-7.9392,30.5979,0.066,3.7828,0.7721
4947641.0,5.1811,-6.9432,31.7471,0.1187,4.1718,0.3581
4947651.0,4.1946,-5.0278,32.9059,0.232,4.5011,0.0686
4947661.0,2.7773,-3.1603,34.3712,0.3523,4.7693,-0.0724
4947671.0,1.7526,-1.2354,35.0415,0.3262,4.8747,-0.0878
4947681.0,1.0726,-0.4501,36.2386,0.2347,4.9343,-0.0218
4947691.0,0.1532,0.0,36.5547,0.1293,4.98,0.0766
4947701.0,-0.3639,-0.0958,36.6313,0.1112,5.2158,0.1336
4947711.0,-1.2258,-0.5555,38.47,0.2522,5.4845,0.1772
4947721.0,-2.1739,-0.4884,39.7437,0.4895,5.6228,0.2501
4947731.0,-2.8156,-0.747,41.2473,0.655,5.6606,0.2708
4947741.0,-4.0223,-1.1971,42.4923,0.746,5.4957,0.2682
4947751.0,-4.5203,-1.6185,41.7453,0.6715,5.1705,0.2304
4947761.0,-5.7461,-1.743,41.027,0.5289,5.0146,0.0958
4947771.0,-6.6655,-1.9345,40.0885,0.3166,5.0019,-0.0718
4947781.0,-7.0677,-1.7047,40.3375,0.1559,5.2126,-0.2559
4947791.0,-7.8434,-0.9864,40.6152,-0.016,5.4808,-0.4587
4947801.0,-9.2799,0.2203,43.9001,0.0825,5.6377,-0.5481
4947811.0,-10.3525,1.7909,46.0836,0.3139,5.6005,-0.4608
4947821.0,-11.2623,2.806,47.5105,0.5247,5.534,-0.2421
4947831.0,-12.038,3.1412,48.5353,0.646,5.3706,-0.0117
4947841.0,-12.2392,2.3272,49.0237,0.7093,5.1828,0.1979
4947851.0,-12.4115,1.2354,50.2782,0.7577,5.1594,0.3065
4947861.0,-12.2392,0.1915,52.0404,0.7311,5.0237,0.2836
4947871.0,-12.3062,-0.0958,54.0898,0.705,4.7002,0.2256
4947881.0,-13.0053,-0.0479,55.4306,0.5864,4.2622,0.1634
4947891.0,-13.3309,-0.6033,56.302,0.4214,3.6253,0.0793
4947901.0,-13.5033,-0.7278,56.0243,0.2214,3.0618,-0.0394
4947911.0,-13.5512,-1.0247,55.7466,0.0223,2.5834,-0.1735
4947921.0,-13.7427,-1.1205,55.4114,-0.2022,2.2024,-0.356
4947931.0,-14.0396,-1.1205,55.5742,-0.2996,1.9204,-0.5252
4947941.0,-14.4897,-0.9864,56.1488,-0.2352,1.6283,-0.6646
4947951.0,-14.3365,-1.0726,56.8096,-0.0878,1.3164,-0.7881
4947961.0,-14.528,-0.68,56.6468,0.0734,0.9679,-0.8977
4947971.0,-14.5567,-0.5076,56.4074,0.058,0.5066,-1.0307
4947981.0,-14.6046,0.1532,55.4689,-0.1266,0.1277,-1.1935
4947991.0,-14.8153,0.6129,55.3731,-0.3331,-0.2421,-1.3303
4948001.0,-15.7155,0.8236,55.2007,-0.4443,-0.5013,-1.4213
4948011.0,-16.0316,0.7183,55.9764,-0.415,-0.7231,-1.467
4948021.0,-15.7634,-0.5267,58.1312,-0.157,-1.0828,-1.5511
4948031.0,-15.7443,-0.8906,59.3379,0.1107,-1.6868,-1.7118
4948041.0,-15.1122,-0.2298,59.6827,0.3225,-2.5446,-1.9188
4948051.0,-14.9302,1.1684,58.3228,0.3672,-3.3151,-2.0609
4948061.0,-14.8057,2.4995,55.4497,0.2416,-4.1159,-2.1865
4948071.0,-14.3844,3.8499,52.5575,-0.0394,-4.6688,-2.2503
4948081.0,-14.2024,5.0949,50.0484,-0.3986,-5.0482,-2.278
4948091.0,-13.5799,5.8706,48.4778,-0.6651,-5.2073,-2.2343
4948101.0,-13.5416,6.7612,48.4299,-0.7742,-5.3307,-2.1221
4948111.0,-13.6086,7.4316,48.2767,-0.629,-5.5058,-1.8768
4948121.0,-12.8712,8.0254,48.6885,-0.2118,-5.6228,-1.5224
4948131.0,-12.038,8.4467,48.4491,0.3081,-5.8878,-1.1004
4948141.0,-10.8505,8.5138,46.3039,0.6864,-6.2135,-0.6768
4948151.0,-9.6917,8.2169,44.2927,0.8599,-6.3971,-0.2969
4948161.0,-8.6383,7.7189,41.0366,0.8482,-6.6136,0.0271
4948171.0,-7.4124,6.7229,37.9337,0.5875,-6.5721,0.2107
4948181.0,-6.3303,5.545,35.8364,0.1426,-6.3332,0.2932
4948191.0,-5.2864,4.5681,34.7351,-0.3299,-6.1645,0.3118
4948201.0,-4.4724,3.6105,34.7447,-0.6492,-5.9219,0.2815
4948211.0,-3.8882,2.9975,35.2331,-0.7615,-5.7532,0.2767
4948221.0,-3.0646,1.9249,35.4629,-0.5619,-5.559,0.3124
4948231.0,-2.0973,1.81,35.3671,-0.3789,-5.4871,0.3203
4948241.0,-0.996,1.561,34.4574,-0.2368,-5.4808,0.3155
4948251.0,-0.1915,1.5802,32.9155,-0.281,-5.4717,0.2889
4948261.0,0.7374,1.0918,30.9331,-0.3773,-5.4249,0.2038
4948271.0,1.6951,1.3312,29.1518,-0.5252,-5.2397,0.1394
4948281.0,2.6049,1.2546,27.1598,-0.6933,-4.8582,0.0633
4948291.0,3.2753,1.6281,26.001,-0.7875,-4.3553,0.0208
4948301.0,3.4572,1.6376,25.3977,-0.7583,-3.7567,0.0543
4948311.0,4.1468,1.7047,25.6084,-0.5938,-3.1735,0.1245
4948321.0,5.2098,1.8004,26.2117,-0.5412,-2.7462,0.1926
4948331.0,6.177,2.1452,26.5373,-0.7215,-2.6223,0.2182
4948341.0,6.7612,2.2505,26.5278,-1.1249,-2.6845,0.2687
4948351.0,8.1403,2.4995,25.3019,-1.5282,-2.5818,0.2879
4948361.0,8.2552,2.4134,23.2716,-1.8486,-2.2609,0.3326
4948371.0,8.667,2.375,22.5055,-1.8826,-1.7347,0.448
4948381.0,8.4659,2.3272,21.4999,-1.8076,-1.0036,0.6226
4948391.0,8.8681,2.4229,21.1647,-1.8049,-0.2751,0.8258
4948401.0,8.9256,1.6855,22.381,-1.8001,0.3533,1.0355
4948411.0,8.9735,0.6608,23.1854,-1.7443,0.8466,1.2388
4948421.0,9.4427,-1.1875,23.9899,-1.6426,1.3196,1.3431
4948431.0,9.8067,-2.7773,24.191,-1.4372,1.9151,1.3532
4948441.0,9.4619,-3.2848,24.3921,-1.0818,2.6372,1.2728
4948451.0,8.4755,-3.1125,25.0146,-0.6678,3.4433,1.2148
4948461.0,7.3646,-2.7485,26.6906,-0.3922,4.1319,1.2372
4948471.0,6.3111,-2.4325,28.6825,-0.1368,4.5948,1.2558
4948481.0,5.5162,-2.3942,30.5692,-0.0452,4.8417,1.3026
4948491.0,5.0087,-2.7198,31.5268,-0.2464,4.8678,1.3223
4948501.0,5.0661,-3.7541,32.2355,-0.422,4.9119,1.2579
4948511.0,4.7788,-4.8267,33.2698,-0.4177,5.1705,1.0972
4948521.0,3.7637,-5.3151,34.352,-0.2469,5.4818,0.8955
4948531.0,2.6624,-5.2385,36.2865,0.0021,5.7745,0.6886
4948541.0,1.5419,-4.4341,37.2921,0.2975,5.8484,0.5651
4948551.0,0.3831,-3.62,38.4796,0.4459,5.7202,0.505
4948561.0,-1.0056,-3.6775,38.5658,0.2959,5.3435,0.4496
4948571.0,-0.996,-4.7214,37.1676,-0.1634,4.8976,0.3379
4948581.0,0.2011,-6.2058,35.1852,-0.647,4.8491,0.0117
4948591.0,-0.2107,-6.8666,33.289,-0.9817,5.2919,-0.422
4948601.0,-1.81,-6.4835,33.356,-1.2191,5.999,-0.829
4948611.0,-3.486,-5.3726,35.9322,-1.1786,6.6759,-1.0993
4948621.0,-5.1811,-3.1795,38.585,-1.0387,7.0872,-1.1744
4948631.0,-6.9528,-1.7909,41.5155,-0.8253,7.2123,-1.044
4948641.0,-8.734,-1.3791,43.6032,-0.6774,7.0585,-0.7913
4948651.0,-9.0501,-2.7964,44.4843,-0.397,6.9558,-0.6332
4948661.0,-9.3087,-4.3287,44.513,-0.1091,7.2043,-0.6609
4948671.0,-10.5345,-4.9608,45.9304,0.2767,7.515,-0.8125
4948681.0,-11.655,-4.2617,48.5736,0.4991,7.5768,-0.9935
4948691.0,-12.718,-2.8156,51.4753,0.4874,7.2005,-1.1329
4948701.0,-13.3692,-1.3024,52.8448,0.182,6.4199,-1.1728
4948711.0,-14.6142,-0.7757,53.7355,-0.2804,5.2669,-1.1057
4948721.0,-14.7196,-1.992,51.2934,-0.6375,4.3277,-1.0775
4948731.0,-14.1258,-3.3136,48.1043,-0.7338,4.4399,-1.2148
4948741.0,-15.026,-4.2234,47.1562,-0.6758,4.7821,-1.4096
4948751.0,-15.8975,-3.7924,48.2863,-0.6864,5.0338,-1.6538
4948761.0,-16.7498,-2.6145,50.623,-0.7737,4.9859,-1.8097
4948771.0,-17.4106,-0.9864,53.2949,-0.8562,4.4735,-1.8528
4948781.0,-17.5064,0.3926,54.1856,-0.9647,3.7753,-1.7719
4948791.0,-17.4489,1.0822,54.0132,-1.1249,3.0048,-1.5958
4948801.0,-17.765,0.8045,52.0116,-1.3766,2.3487,-1.4223
4948811.0,-17.6309,0.0575,49.6557,-1.5176,2.0853,-1.3154
4948821.0,-17.2383,-0.8045,48.6119,-1.4468,2.2982,-1.2425
4948831.0,-17.6884,-1.0151,49.8856,-1.2084,2.4594,-1.2079
4948841.0,-17.7362,-0.8045,51.0827,-1.0977,2.3211,-1.1435
4948851.0,-17.6213,-0.6129,52.8065,-1.0413,1.9411,-1.0546
4948861.0,-17.8416,-0.8906,52.2127,-1.0993,1.3452,-0.994
4948871.0,-17.9086,-1.6185,51.4179,-1.0632,0.9211,-0.9637
4948881.0,-18.0714,-2.4804,49.5791,-0.8599,0.879,-0.9754
4948891.0,-18.2247,-3.1603,49.56,-0.629,1.0339,-1.0568
4948901.0,-18.1289,-3.122,50.4602,-0.4762,1.1116,-1.1781
4948911.0,-18.2917,-2.5091,52.2223,-0.5789,0.9849,-1.3345
4948921.0,-18.6748,-1.1779,54.6357,-0.7391,0.5406,-1.3819
4948931.0,-19.1153,0.2394,56.666,-0.82,-0.0873,-1.2973
4948941.0,-19.5654,0.8523,57.7003,-0.9828,-0.8892,-1.1377
4948951.0,-19.393,0.9673,57.298,-1.0866,-1.8214,-0.9589
4948961.0,-18.9812,0.4022,56.1488,-1.2813,-2.6606,-0.8269
4948971.0,-18.6939,-0.5171,53.9366,-1.3862,-3.2821,-0.7593
4948981.0,-18.0331,-1.3791,52.4905,-1.4064,-3.7993,-0.7444
4948991.0,-17.4106,-1.4844,49.9909,-1.4777,-4.1877,-0.729
4949001.0,-17.3149,-1.9824,48.7651,-1.5139,-4.4501,-0.7231
4949011.0,-16.8839,-2.2027,47.8457,-1.4564,-4.6139,-0.7231
4949021.0,-16.6924,-1.9632,47.4052,-1.3345,-4.6773,-0.6683
4949031.0,-16.9797,-1.6281,47.4627,-1.0174,-4.7832,-0.4975
4949041.0,-16.8169,-1.7909,47.4627,-0.5459,-4.9242,-0.2815
4949051.0,-16.2614,-1.7334,47.8361,-0.1219,-5.0168,-0.0293
4949061.0,-15.9741,-2.2122,48.4395,0.4049,-5.1833,0.2006
4949071.0,-15.275,-2.5857,49.9814,0.9035,-5.5255,0.415
4949081.0,-14.1928,-2.5091,50.1346,1.1994,-6.1358,0.5954
4949091.0,-13.8481,-2.6911,49.3876,1.1414,-7.0681,0.6976
4949101.0,-12.5839,-3.0358,46.1506,0.8631,-7.9311,0.7482
4949111.0,-10.975,-3.4093,42.0135,0.282,-8.4585,0.6997
4949121.0,-9.4906,-4.0414,39.0159,-0.3735,-8.7862,0.5885
4949131.0,-8.6479,-4.549,36.4589,-0.7939,-8.8208,0.4624
4949141.0,-7.0102,-5.3151,35.3863,-0.9727,-8.6953,0.3815
4949151.0,-5.6886,-5.8993,35.2522,-0.8179,-8.5149,0.3241
4949161.0,-3.9552,-6.1196,35.3097,-0.2379,-8.2563,0.3257
4949171.0,-2.624,-6.5793,35.1469,0.4092,-8.0785,0.3634
4949181.0,-2.1069,-7.3933,33.7295,0.737,-8.2456,0.3251
4949191.0,-0.4214,-8.4659,30.55,0.5933,-8.417,0.108
4949201.0,2.2027,-8.9256,27.4376,0.0101,-8.4106,-0.3209
4949211.0,4.5298,-8.667,25.1391,-0.7806,-8.2658,-0.9344
4949221.0,5.8227,-7.4699,23.1567,-1.4878,-8.0062,-1.4846
4949231.0,6.292,-5.6982,21.9883,-1.8007,-7.4847,-1.8145
4949241.0,6.3973,-3.7924,21.9596,-1.583,-6.7483,-1.8901
4949251.0,6.4069,-2.3655,21.9979,-0.8572,-5.8804,-1.7294
4949261.0,5.7269,-1.6951,22.3044,0.1751,-4.938,-1.3877
4949271.0,7.3454,-1.7621,21.1264,0.9844,-4.1404,-1.0701
4949281.0,8.3893,-1.245,19.8815,1.1052,-3.5662,-0.9429
4949291.0,9.4715,-0.5363,17.9565,0.4597,-3.2134,-0.8993
4949301.0,10.3334,0.0479,16.6636,-0.3044,-2.7042,-0.87
4949311.0,10.2472,0.3352,16.7211,-0.903,-1.9981,-0.7657
4949321.0,10.0748,0.8045,17.0084,-1.1137,-1.2404,-0.5784
4949331.0,9.7779,1.6472,17.3149,-1.1329,-0.3065,-0.3102
4949341.0,9.1554,1.8196,18.8376,-0.8524,0.5582,0.1219
4949351.0,9.0501,1.6376,20.3699,-0.513,1.177,0.5678
4949361.0,8.3797,0.8045,21.5095,-0.2607,1.6389,0.9817
4949371.0,8.4946,-0.7087,21.2892,-0.1447,2.0124,1.2856
4949381.0,8.916,-1.743,19.6899,-0.2767,2.5068,1.3963
4949391.0,8.9735,-2.5379,18.9908,-0.6726,3.1176,1.3744
4949401.0,8.3414,-2.2027,19.2015,-1.0445,3.8504,1.358
4949411.0,6.9623,-1.4174,19.9006,-1.1967,4.722,1.4537
4949421.0,4.7022,-1.4078,22.0267,-1.1861,5.65,1.699
4949431.0,3.3902,-2.6911,25.3785,-0.8381,6.462,2.0162
4949441.0,2.7964,-3.9935,27.7153,-0.3113,7.1053,2.2572
4949451.0,2.2027,-4.6926,30.55,0.1048,7.6161,2.3754
4949461.0,1.6664,-5.1715,32.8101,0.2246,7.6571,2.4051
4949471.0,1.1492,-5.7461,34.5723,0.0436,7.2756,2.3759
4949481.0,0.8523,-6.0525,34.3616,-0.2692,6.9861,2.2785
4949491.0,0.1341,-7.0294,33.5188,-0.4789,6.8451,2.1806
4949501.0,-1.1109,-7.8338,32.858,-0.4885,7.1915,2.0545
4949511.0,-2.5857,-8.2552,33.4709,-0.3507,7.7502,1.9087
4949521.0,-3.5626,-8.4946,35.7119,-0.1575,8.1137,1.7911
4949531.0,-4.2617,-8.4946,38.4988,0.0037,8.2871,1.6868
4949541.0,-5.0566,-8.6766,40.8068,0.1235,7.9604,1.5575
4949551.0,-5.5067,-9.3278,40.8738,0.2496,7.5539,1.3824
4949561.0,-6.1387,-9.7492,38.9393,0.3874,7.3618,1.1382
4949571.0,-7.106,-10.0078,36.2961,0.6859,7.755,0.8242
4949581.0,-8.6479,-9.4427,35.2331,0.8397,8.5707,0.4773
4949591.0,-10.4579,-8.0924,36.5642,0.8695,9.4583,0.1692
4949601.0,-13.4075,-7.0773,41.7645,1.1999,10.1442,0.0255
4949611.0,-14.6334,-5.3247,46.6486,1.4862,10.2144,0.0106
4949621.0,-15.7634,-4.3096,50.623,1.4841,9.6669,0.0692
4949631.0,-16.2423,-4.3479,52.5192,1.1866,8.7628,0.0974
4949641.0,-16.338,-4.798,52.8831,1.0376,8.07,0.0511
4949651.0,-17.2287,-5.2481,52.2032,0.9759,7.7385,-0.0878
4949661.0,-18.2247,-5.1332,52.5192,0.8285,7.4666,-0.2464
4949671.0,-19.3068,-4.798,53.5439,0.804,7.2554,-0.447
4949681.0,-21.0019,-3.9935,54.492,0.7008,6.9297,-0.5449
4949691.0,-21.7202,-3.1125,57.5949,0.6417,6.5785,-0.6087
4949701.0,-22.563,-1.992,58.6292,0.4512,5.858,-0.5305
4949711.0,-22.5055,-1.9441,59.4241,0.4039,5.0811,-0.4262
4949721.0,-22.9173,-2.4517,59.1655,0.1192,4.3303,-0.3539
4949731.0,-22.7545,-3.5051,58.294,-0.1815,3.7338,-0.4097
4949741.0,-22.9652,-4.8746,57.9588,-0.4699,3.2709,-0.5491
4949751.0,-22.8503,-5.6503,58.7729,-0.6747,2.8058,-0.7822
4949761.0,-24.6124,-6.0717,60.2477,-0.3177,2.3674,-0.9386
4949771.0,-25.867,-5.1715,61.3394,0.2017,2.0109,-0.961
4949781.0,-25.2445,-4.7118,62.776,0.4432,1.06,-0.9972
4949791.0,-24.3347,-4.1276,61.9715,0.6737,0.158,-1.0323
4949801.0,-24.5645,-3.1412,60.7936,0.5348,-0.655,-1.1424
4949811.0,-24.6603,-1.9824,58.725,0.2442,-1.4489,-1.2015
4949821.0,-24.3921,-0.9481,57.0586,-0.1857,-2.2024,-1.2276
4949831.0,-23.7505,-0.1053,55.8041,-0.6864,-2.9431,-1.2148
4949841.0,-23.3961,0.814,54.1281,-1.1126,-3.4672,-1.1196
4949851.0,-22.9843,1.0534,53.9749,-1.5053,-3.8509,-0.9589
4949861.0,-22.5534,0.5363,54.1377,-1.4426,-4.4517,-0.7338
4949871.0,-21.5957,-0.2873,53.8217,-1.1792,-4.938,-0.4938
4949881.0,-20.887,-0.9577,52.6629,-0.654,-5.3185,-0.2975
4949891.0,-20.1113,-1.6951,50.4027,-0.0947,-5.6388,-0.1139
4949901.0,-19.8336,-2.1356,48.4586,0.2575,-5.8208,0.041
4949911.0,-18.8088,-2.806,46.1506,0.3932,-5.9767,0.1149
4949921.0,-17.583,-3.1316,44.4077,0.2522,-6.1081,0.0729
4949931.0,-16.5775,-2.988,43.2776,-0.0596,-6.2582,-0.0293
4949941.0,-15.9837,-3.0742,42.6838,-0.4166,-6.4465,-0.1059
4949951.0,-15.3037,-3.7733,42.5498,-0.647,-6.6466,-0.1868
4949961.0,-14.7196,-4.4628,42.3869,-0.6401,-6.7371,-0.2719
4949971.0,-13.8289,-4.9416,42.3965,-0.05,-6.7626,-0.3097
4949981.0,-12.8233,-4.7118,41.8698,0.3948,-6.7578,-0.3618
4949991.0,-11.9327,-4.2904,40.4333,0.7146,-6.7722,-0.3996
4950001.0,-11.2815,-3.3423,39.0063,0.7503,-6.7951,-0.4406
4950011.0,-10.161,-2.4325,37.6177,0.6928,-6.6833,-0.4645
4950021.0,-9.5193,-1.7621,36.4398,0.3501,-6.5625,-0.456
4950031.0,-8.7053,-1.5227,36.0567,0.0623,-6.3332,-0.431
4950041.0,-8.6287,-1.3982,37.1293,0.0234,-6.0698,-0.3448
4950051.0,-8.1211,-1.7047,38.8531,0.2405,-5.85,-0.2187
4950061.0,-7.355,-2.1261,40.2513,0.6667,-5.7527,-0.0575
4950071.0,-6.2824,-2.49,41.4293,1.2026,-5.7037,0.0692
4950081.0,-5.2481,-2.0973,41.9273,1.5181,-5.8,0.1607
4950091.0,-4.7884,-1.5323,41.707,1.5692,-6.1028,0.2597
4950101.0,-4.2138,-1.0534,40.711,1.4867,-6.371,0.3549
4950111.0,-3.5243,-0.929,39.9449,1.4734,-6.4598,0.4736
4950121.0,-2.557,-0.5171,38.9201,1.4841,-6.4758,0.5811
4950131.0,-1.8387,-0.7566,38.7286,1.2015,-6.4838,0.6635
4950141.0,-0.9864,-0.5746,38.5466,0.9328,-6.5354,0.712
4950151.0,-0.565,-0.5171,38.7573,0.6667,-6.9036,0.771
4950161.0,0.1532,-0.996,38.0678,0.4049,-7.2564,0.8647
4950171.0,0.7853,-1.8579,36.2003,0.1628,-7.539,0.9088
4950181.0,2.0686,-3.62,35.0703,0.016,-7.5794,0.8524
4950191.0,3.553,-4.9416,33.7774,0.1256,-7.4161,0.7146
4950201.0,5.1332,-5.545,32.3217,0.1948,-7.3857,0.4534
4950211.0,6.3398,-5.2385,31.5556,0.2112,-7.2782,0.224
4950221.0,7.039,-4.2617,29.0752,0.0724,-7.1457,-0.0074
4950231.0,7.7859,-3.1508,27.2173,-0.1841,-7.0095,-0.2065
4950241.0,8.1307,-2.4995,25.0817,-0.4113,-6.8063,-0.3187
4950251.0,8.8298,-2.0782,22.5534,-0.5225,-6.3045,-0.3576
4950261.0,10.0844,-2.2793,21.3371,-0.4895,-5.6127,-0.4305
4950271.0,11.3294,-2.3463,21.2797,-0.3108,-4.8651,-0.4901
4950281.0,12.2679,-2.2314,20.0443,-0.1096,-4.0414,-0.5401
4950291.0,13.5129,-2.3846,20.2645,0.1745,-3.1698,-0.5944
4950301.0,14.1928,-1.743,20.0538,0.4225,-2.1875,-0.6742
4950311.0,13.9821,-0.8045,20.1017,0.5449,-1.45,-0.7269
4950321.0,14.5376,0.8332,19.4505,0.1937,-0.7242,-0.7412
4950331.0,14.1449,2.5474,19.6708,-0.3549,0.008,-0.6635
4950341.0,13.8481,3.371,21.1839,-1.0222,0.6944,-0.448
4950351.0,13.2447,2.6432,24.4592,-1.4734,1.2313,-0.2176
4950361.0,13.6278,2.1452,27.5812,-1.3723,1.5458,0.0447
4950371.0,13.8385,1.312,30.3106,-0.9764,1.798,0.3171
4950381.0,13.8672,0.5171,32.0919,-0.4076,1.8076,0.5928
4950391.0,13.8481,-0.2011,32.0727,0.0724,1.7235,0.7535
4950401.0,13.4458,-0.3065,30.4447,0.2102,1.5431,0.8775
4950411.0,13.0532,-0.5555,27.744,-0.1884,1.3718,0.8828
4950421.0,12.9287,-1.2163,24.8327,-0.7838,1.3766,0.8115
4950431.0,12.7276,-2.4708,22.563,-1.3856,1.7751,0.7003
4950441.0,13.2926,-3.8499,21.5191,-1.6799,2.2742,0.5055
4950451.0,13.6374,-4.6735,20.571,-1.7214,3.198,0.2421
4950461.0,12.5839,-4.5777,20.4656,-1.6118,4.2931,-0.0309
4950471.0,11.0325,-4.2042,22.199,-1.4011,5.2371,-0.2155
4950481.0,9.4906,-2.873,24.5741,-1.1126,6.1166,-0.3006
4950491.0,7.4795,-1.0247,27.6482,-0.7886,6.5998,-0.2506
4950501.0,6.3973,0.0,30.4159,-0.7604,6.5274,-0.0942
4950511.0,6.5505,0.0958,30.7224,-0.9429,6.0634,0.1112
4950521.0,6.675,-0.9673,28.3473,-0.9344,6.2151,0.2011
4950531.0,5.114,-2.3846,26.4703,-0.7529,6.9409,0.1793
4950541.0,4.051,-3.237,26.5278,-0.6204,7.7199,0.091
4950551.0,2.988,-2.806,26.4894,-0.7423,8.5037,-0.0825
4950561.0,0.6321,-1.992,30.1191,-0.7684,9.0837,-0.1697
4950571.0,-1.4461,-0.5267,33.2603,-0.796,9.3412,-0.1064
4950581.0,-2.8635,0.2873,35.7598,-1.0403,8.9954,0.0899
4950591.0,-2.873,-0.5459,36.5451,-1.0573,8.7878,0.3209
4950601.0,-3.8882,-2.1356,37.0048,-0.7301,9.0826,0.4975
4950611.0,-5.0374,-3.4093,38.2019,-0.1399,9.6126,0.5199
4950621.0,-5.9185,-3.2082,39.6959,0.2804,10.0692,0.4848
4950631.0,-7.2784,-2.7007,42.7221,0.5076,10.1293,0.4369
4950641.0,-9.2033,-1.5993,45.2983,0.3368,9.7041,0.4576
4950651.0,-11.1857,-1.5514,45.8537,-0.091,8.7187,0.6093
4950661.0,-11.3485,-3.6871,43.7373,-0.497,8.1956,0.696
4950671.0,-11.0038,-5.3822,42.3008,-0.2724,8.6154,0.5906
4950681.0,-12.153,-6.2345,43.8139,0.1777,9.3785,0.3916
4950691.0,-13.8289,-4.9321,46.1219,0.5013,9.793,0.2235
4950701.0,-15.3229,-3.4189,50.2112,0.5364,9.7153,0.125
4950711.0,-16.8264,-1.7238,53.5056,0.339,9.0534,0.1862
4950721.0,-17.8607,-2.1835,54.7698,-0.0335,8.0929,0.3118
4950731.0,-17.8799,-4.6064,54.0036,-0.2384,7.4597,0.3342
4950741.0,-17.5543,-7.0773,52.9502,-0.2166,7.3655,0.125
4950751.0,-18.4545,-8.1882,53.7163,-0.0905,7.5235,-0.2416
4950761.0,-20.0634,-7.9009,56.1584,0.1336,7.5587,-0.6024
4950771.0,-21.1743,-6.359,59.5294,0.2863,7.2005,-0.8727
4950781.0,-22.3427,-4.5873,62.6323,0.4448,6.562,-1.0248
4950791.0,-23.4823,-3.0071,64.9499,0.5076,5.5925,-1.0419
4950801.0,-23.8654,-2.8156,65.898,0.563,4.6704,-1.0493
4950811.0,-23.5589,-2.2601,65.7352,0.4773,3.6434,-1.0685
4950821.0,-23.4249,-2.2697,65.5054,0.3241,2.6164,-1.1387
4950831.0,-23.8941,-1.8579,64.2795,0.0218,1.7714,-1.2361
4950841.0,-24.0378,-1.494,63.3027,-0.1362,0.9855,-1.3047
4950851.0,-24.871,-1.3408,62.2397,-0.141,0.4135,-1.318
4950861.0,-24.9859,-1.3982,62.0864,0.0468,-0.1229,-1.292
4950871.0,-24.3251,-1.063,60.6978,0.1245,-0.7684,-1.3117
4950881.0,-24.507,-0.3926,60.0849,-0.0319,-1.3106,-1.293
4950891.0,-24.0952,0.0958,59.2517,-0.1815,-1.9358,-1.2819
4950901.0,-23.7505,0.6512,59.0793,-0.3704,-2.6382,-1.2616
4950911.0,-23.2716,1.3695,57.4513,-0.5922,-3.3119,-1.2164
4950921.0,-22.8407,1.9824,57.1257,-0.8535,-3.9967,-1.1041
4950931.0,-22.0554,2.5762,56.1775,-0.8136,-4.6336,-0.9418
4950941.0,-21.7872,3.2178,54.3388,-0.7269,-5.1205,-0.7098
4950951.0,-21.6244,3.4572,53.18,-0.48,-5.5606,-0.3767
4950961.0,-20.5518,2.9688,50.9295,-0.282,-5.9942,-0.0543
4950971.0,-19.2207,2.1931,48.1235,-0.3092,-6.346,0.2107
4950981.0,-18.148,1.0151,46.2943,-0.5289,-6.5397,0.3602
4950991.0,-16.6541,-0.2777,44.9823,-0.6902,-6.7339,0.4268
4951001.0,-15.1122,-1.3695,43.9001,-0.8466,-6.852,0.4198
4951011.0,-14.5376,-2.1261,44.2065,-0.7066,-6.835,0.397
4951021.0,-13.4458,-2.1644,43.5457,-0.4321,-6.8855,0.3911
4951031.0,-12.718,-2.5379,42.9137,-0.2081,-6.9521,0.3624
4951041.0,-11.5784,-2.3559,41.7261,-0.2251,-7.1995,0.3203
4951051.0,-10.5058,-1.7238,39.9927,-0.5076,-7.4166,0.241
4951061.0,-9.7013,-1.7717,39.0446,-0.8498,-7.4719,0.1995
4951071.0,-8.8585,-1.7813,37.0814,-1.0648,-7.4214,0.1841
4951081.0,-7.7476,-2.2122,36.9856,-1.1706,-7.2867,0.1687
4951091.0,-6.4931,-2.6145,36.7366,-0.9716,-7.0436,0.1942
4951101.0,-5.2385,-2.7007,36.9665,-0.6737,-6.9238,0.2102
4951111.0,-4.0989,-2.6624,35.846,-0.5369,-6.8568,0.2059
4951121.0,-3.1029,-2.806,34.9841,-0.4954,-6.8089,0.2256
4951131.0,-2.3463,-2.9113,33.8157,-0.422,-6.6652,0.2496
4951141.0,-1.3599,-3.3902,33.107,-0.4017,-6.4306,0.2315
4951151.0,-0.6991,-3.4093,32.5611,-0.406,-6.2204,0.199
4951161.0,0.3543,-3.8403,32.3888,-0.4699,-6.0613,0.1527
4951171.0,1.4078,-4.0414,31.2108,-0.5374,-5.7942,0.0825
4951181.0,2.1931,-4.1563,31.5173,-0.4486,-5.4882,0.0399
4951191.0,2.8252,-4.2808,31.6513,-0.298,-5.1477,-0.0069
4951201.0,3.3902,-3.8499,31.8716,0.0298,-4.8215,-0.0037
4951211.0,3.7828,-3.486,31.6609,0.2969,-4.7651,0.0218
4951221.0,4.5969,-3.1412,30.3681,0.232,-4.6863,0.0208
4951231.0,4.9033,-3.2657,28.6155,0.0692,-4.4261,-0.009
4951241.0,5.6407,-3.5147,28.1271,-0.083,-4.1478,-0.0495
4951251.0,6.6846,-3.0646,27.3897,-0.3826,-3.7658,-0.1245
4951261.0,7.1922,-3.2274,27.6291,-0.6944,-3.4396,-0.19
4951271.0,7.9966,-2.7773,28.1654,-0.9716,-3.173,-0.2336
4951281.0,8.2073,-2.4708,28.1079,-0.9397,-2.7963,-0.1852
4951291.0,8.1786,-2.2601,28.3761,-0.6955,-2.485,-0.067
4951301.0,8.0158,-2.2984,28.242,-0.3485,-1.9997,0.1043
4951311.0,8.0062,-2.5091,27.7057,-0.0718,-1.6017,0.2719
4951321.0,8.9639,-3.1316,28.3473,0.0303,-1.1738,0.3735
4951331.0,9.5289,-3.5817,28.7975,-0.0479,-0.9424,0.381
4951341.0,9.9599,-4.3287,29.3242,-0.2501,-0.8588,0.3395
4951351.0,10.3142,-4.5969,28.4623,-0.531,-0.7641,0.2671
4951361.0,10.7739,-4.5681,28.4623,-0.7348,-0.5827,0.1607
4951371.0,10.41,-4.3096,27.6004,-0.8109,-0.3597,0.0772
4951381.0,10.2472,-3.9073,27.0066,-0.82,-0.0101,0.0548
4951391.0,9.4332,-3.8116,26.6427,-0.7673,0.3384,0.0793
4951401.0,9.5481,-3.4285,26.3171,-0.6657,0.7487,0.1522
4951411.0,9.6151,-3.869,25.8765,-0.6822,1.1387,0.1751
4951421.0,9.5002,-4.118,25.7329,-0.8024,1.466,0.1623
4951431.0,9.7683,-4.1946,26.1543,-1.0126,1.7177,0.132
4951441.0,9.6917,-4.1276,25.9819,-1.1552,1.905,0.1144
4951451.0,9.3853,-4.1563,25.2636,-1.152,2.2322,0.133
4951461.0,8.8873,-4.2617,23.8271,-1.1536,2.7915,0.1176
4951471.0,7.6519,-3.9073,23.5589,-1.0318,3.6263,0.1671
4951481.0,6.2345,-3.8211,24.0952,-1.0174,4.4086,0.2708
4951491.0,5.928,-4.7788,26.183,-1.1334,4.93,0.3586
4951501.0,5.928,-5.7557,28.6059,-1.1499,5.294,0.4113
4951511.0,5.9759,-6.8666,30.4255,-0.9355,5.6904,0.4017
4951521.0,4.8554,-7.3167,30.6937,-0.7061,6.1565,0.3459
4951531.0,3.6871,-7.5369,32.7718,-0.2421,6.8424,0.2687
4951541.0,2.0686,-7.3263,35.0415,0.3177,7.4182,0.2703
4951551.0,0.5746,-7.3167,38.0582,0.9035,7.8354,0.2985
4951561.0,-0.2969,-7.1539,40.9504,1.1733,7.7609,0.2246
4951571.0,-0.6033,-7.0485,42.3582,0.9775,7.2591,0.1011
4951581.0,-0.9673,-7.4795,43.3925,0.5933,6.6759,-0.0947
4951591.0,-1.1684,-8.1786,42.5019,0.3304,6.3811,-0.381
4951601.0,-2.2218,-7.9679,42.2529,0.3501,6.6227,-0.68
4951611.0,-4.0318,-6.6272,43.6798,0.473,6.9781,-0.9168
4951621.0,-5.545,-4.5394,45.5664,0.6492,7.125,-1.0046
4951631.0,-7.3167,-3.2753,48.6598,0.8487,7.1734,-0.9312
4951641.0,-7.5465,-1.8196,51.2646,0.9206,6.753,-0.7758
4951651.0,-8.1116,-1.3503,52.931,0.5736,5.783,-0.5545
4951661.0,-7.9296,-2.4804,52.1649,-0.1139,4.5735,-0.4337
4951671.0,-6.6942,-4.6064,48.9375,-0.5624,3.9887,-0.4917
4951681.0,-6.8378,-6.2153,46.256,-0.6997,4.1595,-0.6721
4951691.0,-8.3797,-6.8474,45.7676,-0.5821,4.6384,-0.9067
4951701.0,-9.4523,-6.3111,47.3956,-0.3278,4.9843,-1.0248
4951711.0,-10.1227,-5.9376,49.7802,0.016,4.9699,-1.0871
4951721.0,-11.0038,-5.4492,52.6724,0.4188,4.9407,-1.1254
4951731.0,-11.6933,-4.3479,54.8272,0.8679,4.4921,-1.1025
4951741.0,-11.8561,-4.0989,55.1145,1.0429,3.7604,-1.0653
4951751.0,-11.655,-3.8403,53.2566,0.945,3.2129,-1.1382
4951761.0,-11.6262,-3.9552,51.7243,0.7029,2.9793,-1.2877
4951771.0,-12.0572,-3.4764,51.0444,0.4443,2.9101,-1.4718
4951781.0,-13.2064,-2.4421,52.0021,0.2788,2.8335,-1.5772
4951791.0,-14.2407,-1.1109,53.1034,0.1852,2.6611,-1.5378
4951801.0,-15.1792,-0.4501,54.5591,0.2847,2.4318,-1.4016
4951811.0,-15.0643,-0.3735,55.8615,0.4065,2.0316,-1.2324
4951821.0,-15.0164,-0.8236,57.2406,0.4331,1.4351,-1.1451
4951831.0,-14.8632,-1.3024,57.1831,0.3299,0.6311,-1.0972
4951841.0,-14.3269,-1.2737,55.9286,0.1075,-0.1266,-1.1339
4951851.0,-14.2503,-1.6089,54.0802,-0.2112,-0.7849,-1.2329
4951861.0,-13.7714,-1.2929,51.7339,-0.6183,-1.3228,-1.3287
4951871.0,-13.6948,-1.0822,49.2344,-1.1797,-1.6921,-1.4309
4951881.0,-13.1011,-0.8523,48.133,-1.6724,-2.1146,-1.4606
4951891.0,-12.0668,-1.3982,47.5488,-1.9529,-2.3477,-1.4431
4951901.0,-11.5879,-2.241,47.1179,-1.7948,-2.4254,-1.3931
4951911.0,-11.0516,-2.9113,46.074,-1.293,-2.3791,-1.268
4951921.0,-10.5153,-3.4093,45.1068,-0.6556,-2.1684,-1.1978
4951931.0,-10.3813,-3.7924,44.2065,-0.1086,-1.9789,-1.177
4951941.0,-9.6534,-3.0454,42.4157,0.0979,-1.7836,-1.1946
4951951.0,-9.7971,-2.4421,42.4827,0.0138,-1.6229,-1.2553
4951961.0,-9.8354,-1.81,42.5019,-0.2022,-1.6208,-1.2829
4951971.0,-9.9886,-1.2163,43.5936,-0.3437,-1.5836,-1.2356
4951981.0,-10.5441,-0.8236,44.9152,-0.2778,-1.6495,-1.1212
4951991.0,-10.3334,-0.6033,45.3941,-0.0931,-1.6655,-0.9695
4952001.0,-10.2472,-0.5171,46.323,0.0686,-1.7283,-0.7838
4952011.0,-9.9503,-0.7757,46.8497,0.0963,-1.9268,-0.654
4952021.0,-9.5481,-0.8523,47.6542,0.1612,-2.162,-0.547
4952031.0,-9.6822,-0.6033,47.8745,0.2778,-2.4541,-0.4012
4952041.0,-9.4523,-0.2298,47.5776,0.2368,-2.842,-0.2911
4952051.0,-9.1267,-0.2203,46.3901,0.1511,-3.1911,-0.1532
4952061.0,-8.3989,-0.5459,45.26,0.0122,-3.3507,-0.0426
4952071.0,-7.9296,-1.2067,44.4651,-0.1336,-3.463,0.0266
4952081.0,-7.5178,-1.9058,44.5992,-0.1979,-3.5577,0.0686
4952091.0,-7.0773,-2.1739,44.4555,-0.1873,-3.671,0.0798
4952101.0,-6.6559,-2.5474,44.5322,-0.0543,-3.7908,0.0564
4952111.0,-6.0717,-2.3367,44.829,0.1043,-3.8956,0.0803
4952121.0,-5.6024,-1.9249,45.4324,0.4379,-4.1052,0.1612
4952131.0,-4.9704,-1.1684,44.0916,0.6731,-4.4091,0.265
4952141.0,-4.5969,-0.9385,42.0326,0.6423,-4.6352,0.4065
4952151.0,-4.0893,-1.2067,39.8204,0.4039,-4.7406,0.513
4952161.0,-3.0358,-1.5514,38.5562,0.2011,-4.6326,0.5385
4952171.0,-2.4995,-1.7717,37.474,-0.0979,-4.5879,0.5449
4952181.0,-1.5514,-2.0686,37.158,-0.4044,-4.4953,0.5034
4952191.0,-1.1396,-1.992,37.34,-0.705,-4.5123,0.4629
4952201.0,-0.5171,-2.4708,37.5028,-0.745,-4.5735,0.4864
4952211.0,0.0383,-2.3846,37.0144,-0.4353,-4.5166,0.572
4952221.0,0.3926,-2.7102,36.5547,0.0154,-4.3931,0.6811
4952231.0,1.0534,-2.7198,35.4342,0.332,-4.358,0.7881
4952241.0,2.2218,-2.7581,33.2507,0.3783,-4.2473,0.8301
4952251.0,3.0933,-3.0071,31.6992,0.3262,-3.9701,0.8344
4952261.0,3.8499,-3.3615,30.981,0.183,-3.6194,0.8104
4952271.0,4.5586,-3.3902,31.0001,0.1032,-3.2427,0.7524
4952281.0,5.0853,-2.9975,31.0863,-0.042,-3.007,0.7066
4952341.0,7.3167,-1.5802,26.7959,-0.183,-2.2301,0.771
4952351.0,7.7572,-1.6376,25.1678,-0.4683,-1.7538,0.7801
4952361.0,7.3646,-1.5897,24.373,-0.8354,-1.1504,0.7652
4952371.0,8.2935,-1.8579,24.2581,-1.1536,-0.7705,0.7301
4952381.0,8.4851,-2.059,24.507,-1.4436,-0.2416,0.721
4952391.0,7.9296,-2.241,24.7848,-1.7778,0.0261,0.6811
4952401.0,8.0828,-2.2889,24.8518,-2.0204,0.1857,0.6875
4952411.0,8.2552,-2.7581,23.3195,-2.1849,0.5055,0.6566
4952421.0,7.9009,-3.371,22.4768,-2.2801,0.9754,0.63
4952431.0,8.2456,-3.8595,20.8774,-2.3998,1.7326,0.5449
4952441.0,8.5521,-3.7445,21.4137,-2.5259,2.6989,0.4741
4952451.0,7.3837,-3.3615,23.7601,-2.5126,3.3794,0.48
4952461.0,6.5505,-2.8539,25.8382,-2.3764,3.8876,0.5901
4952471.0,5.545,-2.6624,27.0928,-2.0566,4.3564,0.7817
4952481.0,4.7405,-2.7869,27.3131,-1.7256,4.8146,1.0057
4952491.0,3.6105,-3.2178,27.6195,-1.3026,5.46,1.1994
4952501.0,2.7102,-3.6679,29.3529,-1.0387,6.0209,1.3388
4952511.0,1.8866,-4.0031,30.9331,-0.9339,6.4316,1.425
4952521.0,1.1971,-4.1372,33.0113,-1.0382,6.611,1.4915
4952531.0,0.249,-4.1755,35.0798,-1.309,6.4801,1.5766
4952541.0,-0.0862,-4.4053,35.7311,-1.6166,6.313,1.6868
4952551.0,-1.0056,-5.43,36.5259,-1.8055,6.3651,1.8432
4952561.0,-2.5187,-6.5218,37.1005,-1.7991,6.5333,1.9587
4952571.0,-3.3519,-8.0158,37.972,-1.6437,6.7924,2.0242
4952581.0,-4.2425,-9.1267,40.4907,-1.4516,7.0132,2.0396
4952591.0,-5.1236,-10.4387,43.9097,-0.9833,6.918,2.0566
4952601.0,-5.0757,-11.157,45.8154,-0.5491,6.3486,2.0071
4952611.0,-4.865,-12.2583,44.7141,-0.3097,5.7713,1.8725
4952621.0,-4.7309,-12.967,42.1858,-0.29,5.5973,1.5846
4952631.0,-5.296,-13.0245,40.2417,-0.4768,5.7096,1.2159
4952641.0,-7.0102,-12.5552,39.8874,-0.8413,5.8777,0.8705
4952651.0,-8.4372,-11.3964,41.2282,-1.3771,5.8415,0.6279
4952661.0,-9.1937,-10.6973,43.4117,-1.8816,5.6021,0.472
4952671.0,-9.7875,-10.7643,47.0508,-2.0689,4.9912,0.4736
4952681.0,-9.5768,-11.3102,47.252,-1.9401,4.3043,0.5529
4952691.0,-9.845,-12.4882,45.1834,-1.4261,4.0845,0.6194
4952701.0,-9.7875,-13.5799,43.5362,-0.7205,4.4219,0.6295
4952711.0,-10.228,-14.1641,42.6264,0.0867,4.8678,0.5635
4952721.0,-10.7452,-14.1641,43.1818,0.7588,5.3499,0.4821
4952731.0,-11.2815,-14.1545,44.762,1.2861,5.6659,0.373
4952741.0,-11.5688,-13.7906,46.4092,1.5266,5.6212,0.2586
4952751.0,-12.0764,-13.7523,47.9415,1.4532,5.2615,0.074
4952761.0,-12.651,-14.5472,48.564,1.2217,4.8039,-0.1884
4952771.0,-12.5552,-15.591,48.2958,1.1041,4.482,-0.5279
4952781.0,-12.9957,-15.9741,48.3437,1.1903,4.4958,-0.9748
4952791.0,-14.0588,-15.8592,49.0332,1.3415,4.5246,-1.4356
4952801.0,-15.0835,-14.9302,50.3453,1.4979,4.4399,-1.8911
4952811.0,-16.0986,-13.1873,51.8967,1.7091,4.309,-2.2732
4952821.0,-17.4202,-11.5113,53.9653,2.0199,4.001,-2.4929
4952831.0,-18.397,-9.5481,55.2103,2.42,3.6923,-2.6089
4952841.0,-19.2685,-7.3646,55.8041,2.5552,3.2815,-2.6494
4952851.0,-19.9293,-6.0525,56.0626,2.6217,2.8399,-2.5935
4952861.0,-20.1879,-4.9991,56.9437,2.585,2.344,-2.5584
4952871.0,-20.1879,-4.0893,57.48,2.3578,1.7687,-2.5265
4952881.0,-20.4656,-3.5721,58.0259,2.1657,1.1946,-2.5063
4952891.0,-20.9636,-3.4093,58.4185,1.9816,0.4768,-2.4887
4952901.0,-20.9828,-3.122,58.5143,1.9933,-0.1554,-2.5121
4952911.0,-20.8966,-2.3559,57.4991,1.988,-0.7003,-2.5206
4952921.0,-21.1169,-1.6855,57.1735,1.9901,-1.2324,-2.5121
4952931.0,-20.7817,-0.814,57.3268,2.105,-1.7411,-2.4009
4952941.0,-20.7721,0.1245,56.7617,2.2327,-2.3184,-2.254
4952951.0,-20.4656,0.7853,55.4114,2.253,-2.9325,-2.0997
4952961.0,-20.1304,1.3408,53.6588,2.0768,-3.6434,-1.9326
4952971.0,-19.6133,1.5802,51.3891,1.7538,-4.1984,-1.8023
4952981.0,-18.6843,1.5514,48.88,1.3617,-4.5724,-1.707
4952991.0,-17.6692,1.5993,46.639,0.879,-4.9598,-1.6341
4953001.0,-16.5583,1.6664,45.3845,0.3842,-5.1657,-1.5889
4953011.0,-15.8496,1.5227,44.762,0.1666,-5.2802,-1.4851
4953021.0,-15.457,1.5706,44.5513,0.1868,-5.3296,-1.3133
4953031.0,-14.71,1.2258,44.1778,0.4576,-5.427,-1.0664
4953041.0,-13.9534,0.9481,43.268,0.8312,-5.5127,-0.8493
4953051.0,-13.0149,0.2682,41.8698,1.1212,-5.5898,-0.6412
4953061.0,-12.0093,-0.0958,40.0981,1.3867,-5.5441,-0.481
4953071.0,-11.2815,-0.3926,38.1157,1.3553,-5.419,-0.4145
4953081.0,-10.0652,0.0192,36.66,1.2457,-5.1961,-0.3618
4953091.0,-9.5768,0.6512,36.2482,1.1254,-4.8135,-0.281
4953101.0,-9.0022,1.2067,36.7941,1.1691,-4.4979,-0.1288
4953111.0,-8.2935,1.7909,37.9242,1.1903,-4.3192,0.075
4953121.0,-7.7285,1.6281,39.1021,1.2866,-4.2133,0.3001
4953131.0,-7.0581,1.1205,39.9257,1.4112,-4.2489,0.4991
4953141.0,-6.6463,0.0766,40.5003,1.5335,-4.3564,0.6274
4953151.0,-5.7269,-0.4501,40.0311,1.6261,-4.5682,0.6811
4953161.0,-5.1236,-1.2929,38.9393,1.7033,-4.7486,0.6513
4953171.0,-4.3287,-1.3312,37.3974,1.6905,-4.7113,0.5699
4953181.0,-3.4764,-1.0822,35.913,1.6022,-4.4719,0.4597
4953191.0,-3.0071,-0.1245,35.3959,1.4245,-4.2319,0.3773
4953201.0,-2.9688,0.6416,36.5164,1.2957,-4.1217,0.3501
4953211.0,-2.4421,1.1396,37.3112,1.3478,-4.0999,0.4214
4953221.0,-2.0207,1.1205,37.1867,1.434,-4.1515,0.5172
4953231.0,-1.6759,0.6895,36.9665,1.6187,-4.1457,0.5997
4953241.0,-0.6033,0.4405,36.2195,1.8071,-4.027,0.5635
4953251.0,0.182,0.6321,35.6066,1.8337,-3.9547,0.4842
4953261.0,0.3543,1.2067,35.3671,1.8384,-3.8764,0.398
4953271.0,0.4214,2.0494,35.1469,1.9704,-3.7796,0.3432
4953281.0,0.6225,3.5338,34.0743,2.1652,-3.5657,0.4262
4953291.0,1.1875,5.1044,33.3273,2.0838,-3.3842,0.5507
4953301.0,1.0247,5.861,33.9498,1.8757,-3.421,0.7705
4953311.0,1.7334,6.4356,33.0496,1.6102,-3.5801,1.0227
4953321.0,2.5187,5.8514,31.728,1.2414,-3.6359,1.2404
4953331.0,3.5434,5.0278,30.3393,0.9275,-3.5657,1.3776
4953341.0,4.7597,3.8307,29.4008,0.6173,-3.3821,1.4266
4953351.0,5.6982,3.3998,28.0026,0.3943,-3.0575,1.4255
4953361.0,6.3398,3.237,27.5525,0.2469,-2.6936,1.4106
4953371.0,7.0102,3.7062,27.7344,0.2336,-2.2551,1.4468
4953381.0,7.5082,3.6488,28.0026,0.2746,-1.9832,1.5681
4953391.0,8.2361,3.8499,27.3322,0.1751,-1.8225,1.6203
4953401.0,8.6383,3.5051,25.7616,-0.0782,-1.5947,1.6746
4953411.0,9.0501,3.4668,24.5932,-0.5364,-1.4239,1.6655
4953421.0,9.5577,3.4285,23.1471,-1.0839,-1.086,1.6703
4953431.0,9.6534,3.5051,22.1895,-1.5304,-0.6864,1.6788
4953441.0,10.0652,3.0742,22.0267,-1.7719,-0.1735,1.7389
4953451.0,9.9503,2.7198,21.8064,-1.7038,0.5454,1.815
4953461.0,9.6055,1.992,22.199,-1.3319,1.4819,1.9454
4953471.0,8.916,1.5036,22.9556,-0.6561,2.4514,2.0832
4953481.0,7.7859,0.747,23.7313,0.0692,3.4465,2.2221
4953491.0,7.5753,-0.0383,25.0817,0.5459,4.2675,2.2141
4953501.0,7.8338,-0.0192,26.7384,0.7482,4.8816,2.0949
4953511.0,6.7995,0.6416,29.2284,0.6135,5.1838,1.9374
4953521.0,5.6024,1.6376,32.1493,0.5821,5.4925,1.8491
4953531.0,5.2864,3.4093,33.7295,0.4097,5.7681,1.856
4953541.0,3.3232,4.367,36.6504,0.0697,5.7239,1.9576
4953551.0,2.0303,4.8267,38.1636,-0.4874,5.4435,2.1109
4953561.0,1.8004,4.4915,39.8491,-1.035,5.1987,2.2721
4953571.0,1.3408,3.9744,42.5306,-1.5389,4.6629,2.4477
4953581.0,0.8715,2.3176,43.5362,-1.7491,3.9307,2.6356
4953591.0,0.7566,0.1532,42.6359,-1.7331,3.3672,2.726
4953601.0,1.1013,-2.0494,40.4812,-1.3734,3.1384,2.685
4953611.0,1.1205,-3.7445,37.4836,-0.9791,3.3055,2.511
4953621.0,1.0534,-4.4149,35.2139,-0.7753,3.6694,2.2524
4953631.0,0.8332,-4.5011,33.787,-0.878,4.0302,1.8858
4953641.0,0.2873,-3.6775,34.4478,-1.0786,4.4862,1.5245
4953651.0,-1.494,-2.4229,36.4014,-1.3345,4.6618,1.3457
4953661.0,-2.7869,-1.7047,37.8475,-1.4303,4.5363,1.2941
4953671.0,-2.9497,-1.9249,39.1213,-1.1185,4.6427,1.3893
4953681.0,-3.2082,-2.4804,39.4373,-0.3938,4.9322,1.4633
4953691.0,-3.7828,-2.9688,40.0981,0.2528,5.2865,1.4447
4953701.0,-4.8459,-2.8443,41.1515,0.6753,5.4095,1.3691
4953711.0,-5.5067,-2.2218,42.4444,0.9562,5.4275,1.2771
4953721.0,-6.5027,-2.2314,43.4212,1.0972,5.3674,1.1988
4953731.0,-6.8474,-0.0958,42.1284,0.9003,4.6821,1.1627
4953741.0,-6.8857,-0.814,41.7357,0.5763,4.2314,1.093
4953751.0,-7.0006,-0.0192,39.5043,0.1969,4.1579,0.9525
4953761.0,-7.3741,0.7087,39.3798,0.0952,4.3601,0.8801
4953771.0,-8.8873,1.245,40.1268,-0.1926,4.6704,0.8647
4953781.0,-10.4004,1.6281,40.9792,-0.4677,4.6437,0.8572
4953791.0,-11.157,1.8771,42.6647,-0.8567,4.5176,0.8578
4953801.0,-11.6646,1.3312,44.5609,-1.0727,4.2723,0.887
4953811.0,-11.5688,0.3926,45.8633,-1.0892,3.8956,0.9073
4953821.0,-11.1187,-0.0383,45.8729,-0.7556,3.6524,0.9104
4953831.0,-11.157,-0.2011,45.0397,-0.2075,3.7423,0.8987
4953841.0,-12.6031,0.8428,44.4747,0.2421,3.9818,0.9333
4953851.0,-13.5895,1.1875,45.0876,0.3677,3.9483,0.9227
4953861.0,-14.0683,2.3272,45.2217,-0.0378,3.778,0.912
4953871.0,-14.4227,2.2505,46.8785,-0.1618,3.4891,0.9663
4953881.0,-14.6334,2.1261,47.6829,-0.6071,3.0304,0.9759
4953891.0,-14.0875,1.1396,48.4874,-0.8466,2.4083,0.9897
4953901.0,-13.3501,-0.0096,47.8361,-0.7753,1.8571,0.9583
4953911.0,-13.0532,-0.9481,45.1259,-0.2379,2.0098,0.8865
4953921.0,-14.3461,-0.6321,43.8905,0.2001,2.2652,0.8413
4953931.0,-15.1218,-0.1149,43.2872,0.4746,2.4898,0.7615
4953941.0,-16.271,1.0151,44.8961,0.5337,2.6361,0.7173
4953951.0,-16.8552,2.7485,46.5241,0.3852,2.3722,0.7487
4953961.0,-16.6445,3.7158,46.7827,-0.041,1.8102,0.8285
4953971.0,-16.5583,3.5338,47.1466,-0.3847,1.3122,0.9275
4953981.0,-15.8975,2.6432,46.7157,-0.4688,1.1079,1.0233
4953991.0,-15.8017,1.81,45.6239,-0.3852,1.06,1.0302
4954001.0,-15.7538,1.4748,45.0301,-0.5768,0.8812,0.9477
4954011.0,-15.6485,1.1205,44.4555,-0.9184,0.7157,0.8264
4954021.0,-15.6677,1.1588,44.2065,-1.2318,0.6199,0.7269
4954031.0,-15.9837,1.6855,44.9918,-1.4612,0.2118,0.6955
4954041.0,-15.7251,1.2833,45.4611,-1.2749,-0.1612,0.7428
4954051.0,-15.0164,0.4788,44.3502,-0.8924,-0.223,0.7918
4954061.0,-14.3269,-0.3926,42.8083,-0.2677,-0.1538,0.8141
4954071.0,-14.9494,-0.814,41.6495,0.3592,0.0601,0.7604
4954081.0,-14.3844,-0.6895,40.1843,0.5215,0.3336,0.6662
4954091.0,-13.7523,-0.5842,40.2417,0.5773,0.4374,0.5459
4954101.0,-14.3173,-0.3065,40.213,0.3842,0.3735,0.3735
4954111.0,-14.6621,-0.5459,40.5482,0.4353,0.6024,0.2687
4954121.0,-14.2694,-0.8523,41.8698,0.6556,0.9695,0.1155
4954131.0,-13.8098,-0.9385,43.6128,0.7226,1.0169,-0.1155
4954141.0,-14.1737,-0.1915,44.082,0.5784,1.1004,-0.356
4954151.0,-14.7674,1.0151,45.3749,0.5108,1.317,-0.5475
4954161.0,-15.3899,2.1261,47.3669,0.3246,1.3228,-0.6449
4954171.0,-16.0603,2.7198,52.0116,0.3656,1.1978,-0.605
4954181.0,-16.9222,5.2002,51.303,0.1841,1.3133,-0.5438
4954191.0,-16.8743,5.4684,54.1568,0.3464,0.8737,-0.3443
4954201.0,-17.334,5.4492,53.8791,0.1373,0.5385,-0.1426
4954211.0,-16.9509,4.1468,52.2798,0.1969,0.5364,-0.0128
4954221.0,-17.1521,2.2218,53.247,0.2884,0.6098,-0.0346
4954231.0,-16.2327,1.4174,55.1049,0.5507,0.6151,-0.1628
4954241.0,-16.4242,2.0877,57.0299,0.7987,0.4656,-0.3374
4954251.0,-17.2383,3.7828,59.0506,0.5167,-0.075,-0.5002
4954261.0,-17.516,5.2577,59.8263,0.0591,-0.8604,-0.6375
