time_ms,ax,ay,az,gx,gy,gz
2990711.0,-3.0047,0.4669,9.505,0.0649,0.049,-0.1272
2990721.0,-2.9904,0.4262,9.5457,0.067,0.0686,-0.1171
2990731.0,-2.9281,0.3519,9.6175,0.0803,0.0889,-0.1091
2990741.0,-2.9353,0.3017,9.5409,0.083,0.0984,-0.1112
2990751.0,-2.9497,0.2849,9.7468,0.0745,0.1101,-0.1181
2990761.0,-2.9473,0.3208,9.7827,0.0867,0.1155,-0.125
2990771.0,-2.9832,0.4286,9.6438,0.1171,0.1155,-0.1293
2990781.0,-3.0263,0.5267,9.5122,0.1415,0.1208,-0.1277
2990791.0,-3.1005,0.644,9.3182,0.1676,0.1485,-0.1235
2990801.0,-3.1747,0.7183,9.2991,0.1857,0.1889,-0.1155
2990811.0,-3.2394,0.723,9.323,0.1948,0.2309,-0.107
2990821.0,-3.3519,0.7614,9.4284,0.1974,0.2645,-0.0984
2990831.0,-3.4093,0.7135,9.5122,0.1985,0.2794,-0.0889
2990841.0,-3.4453,0.6895,9.6462,0.2001,0.2921,-0.0819
2990851.0,-3.4453,0.6895,9.6462,0.2001,0.2921,-0.0819
2990861.0,-3.4261,0.7063,9.7659,0.1979,0.2985,-0.0777
2990871.0,-3.4381,0.7254,9.7851,0.158,0.2799,-0.0819
2990881.0,-3.4165,0.8428,9.8545,0.0857,0.2421,-0.0926
2990891.0,-3.4812,0.9026,10.0078,0.0122,0.2049,-0.0947
2990901.0,-3.5195,0.9816,10.1011,-0.0239,0.1612,-0.0841
2990911.0,-3.4812,0.9984,10.0269,-0.0287,0.1112,-0.0612
2990921.0,-3.4692,0.972,9.8043,-0.0122,0.0819,-0.0293
2990931.0,-3.3639,0.8715,9.6223,0.0128,0.0878,-0.0005
2990941.0,-3.2848,0.7398,9.5864,0.0245,0.1112,0.016
2990951.0,-3.2394,0.6369,9.4978,0.0176,0.1325,0.0165
2990961.0,-3.2274,0.6536,9.4906,-0.0112,0.1543,0.0048
2990971.0,-3.2633,0.6967,9.7205,-0.0537,0.1681,-0.0128
2990981.0,-3.2825,0.8116,9.8258,-0.0793,0.1612,-0.0208
2990991.0,-3.3112,0.8835,9.8497,-0.0766,0.1485,-0.016
2991001.0,-3.3543,0.9218,9.8258,-0.0527,0.1431,-0.0037
2991011.0,-3.2777,0.9194,9.821,-0.033,0.1357,0.0112
2991021.0,-3.2561,0.8571,9.7707,-0.0218,0.1394,0.0186
2991031.0,-3.2441,0.8332,9.7348,-0.0351,0.1309,0.017
2991041.0,-3.2609,0.8308,9.7947,-0.0702,0.1144,0.0101
2991051.0,-3.2896,0.8404,9.7923,-0.0867,0.1101,0.0064
2991061.0,-3.316,0.8882,9.7899,-0.0958,0.1064,0.0043
2991071.0,-3.3686,0.917,9.7899,-0.1059,0.099,0.0069
2991081.0,-3.4477,0.9481,9.8186,-0.1208,0.0889,0.0149
2991091.0,-3.5291,0.8811,9.8162,-0.1229,0.0841,0.0309
2991101.0,-3.4931,0.7302,9.845,-0.0889,0.0926,0.0511
2991111.0,-3.5219,0.6536,9.7875,-0.0553,0.1027,0.0601
2991121.0,-3.5434,0.5746,9.8114,-0.058,0.1054,0.0564
2991131.0,-3.5602,0.5914,9.8258,-0.0665,0.1027,0.0458
2991141.0,-3.5745,0.6225,9.8857,-0.0713,0.1011,0.0357
2991151.0,-3.5961,0.7087,9.924,-0.0819,0.091,0.0271
2991161.0,-3.6344,0.7685,9.9288,-0.1112,0.0649,0.0245
2991171.0,-3.6655,0.7374,10.0006,-0.1378,0.0383,0.0293
2991181.0,-3.6296,0.6895,9.9814,-0.1362,0.0112,0.0394
2991191.0,-3.5889,0.6536,9.7875,-0.1208,-0.016,0.0495
2991201.0,-3.5937,0.5938,9.6175,-0.1107,-0.0245,0.0543
2991211.0,-3.4955,0.5052,9.4595,-0.1123,-0.0154,0.0548
2991221.0,-3.4069,0.4741,9.4882,-0.1277,-0.0059,0.0436
2991231.0,-3.3782,0.4381,9.4786,-0.1532,-0.0016,0.0298
2991241.0,-3.3639,0.4453,9.4882,-0.1697,-0.0021,0.0186
2991251.0,-3.3232,0.4573,9.4595,-0.166,-0.0053,0.0117
2991261.0,-3.3567,0.4477,9.3925,-0.1575,-0.0032,0.0069
2991271.0,-3.3136,0.4477,9.3757,-0.1373,0.0,0.0043
2991281.0,-3.2825,0.4741,9.2273,-0.1011,0.0186,0.0032
2991291.0,-3.2801,0.5076,9.1147,-0.0734,0.0543,-0.0005
2991301.0,-3.2609,0.5291,9.1339,-0.0681,0.0905,-0.0085
2991311.0,-3.2417,0.6345,9.1602,-0.0809,0.1112,-0.0197
2991321.0,-3.3447,0.7422,9.2799,-0.1,0.1277,-0.0261
2991331.0,-3.3998,0.8068,9.402,-0.0984,0.1426,-0.0192
2991341.0,-3.4117,0.8332,9.4475,-0.0772,0.1506,-0.0059
2991351.0,-3.45,0.7901,9.4355,-0.05,0.1607,0.0117
2991361.0,-3.4524,0.723,9.5002,-0.0335,0.1719,0.0234
2991371.0,-3.4572,0.6776,9.5624,-0.0186,0.1862,0.0277
2991381.0,-3.4405,0.6464,9.6199,-0.0021,0.2043,0.0271
2991391.0,-3.3902,0.5962,9.754,0.0043,0.2144,0.0234
2991401.0,-3.45,0.5842,9.8067,0.0032,0.2081,0.016
2991411.0,-3.4788,0.6393,9.845,0.0011,0.2006,0.008
2991421.0,-3.5099,0.7159,9.924,-0.0043,0.1953,0.0021
2991431.0,-3.5578,0.7039,10.0509,-0.0208,0.182,0.0011
2991441.0,-3.541,0.68,10.0987,-0.0229,0.1538,0.0027
2991451.0,-3.5219,0.6512,10.0676,-0.0154,0.124,0.0043
2991461.0,-3.5386,0.6297,10.0269,-0.0074,0.0952,0.0059
2991471.0,-3.553,0.5698,9.9216,0.0011,0.0782,0.0048
2991481.0,-3.5027,0.5555,9.7995,-0.0032,0.0724,-0.0043
2991491.0,-3.553,0.565,9.8234,-0.0298,0.066,-0.0223
2991501.0,-3.6057,0.6536,9.8186,-0.0537,0.0591,-0.0378
2991511.0,-3.6392,0.6919,9.9503,-0.0564,0.05,-0.042
2991521.0,-3.6488,0.6656,9.9072,-0.0404,0.0388,-0.0383
2991531.0,-3.6272,0.6704,9.8593,-0.0298,0.0213,-0.0362
2991541.0,-3.5721,0.6488,9.8186,-0.0319,0.009,-0.0378
2991551.0,-3.5698,0.6536,9.7372,-0.0426,-0.0069,-0.0452
2991561.0,-3.5338,0.6153,9.7133,-0.0628,-0.0229,-0.0532
2991571.0,-3.4979,0.6033,9.6462,-0.0702,-0.0319,-0.0601
2991581.0,-3.4788,0.5674,9.5241,-0.0777,-0.0372,-0.0644
2991591.0,-3.4931,0.4334,9.3302,-0.0947,-0.0399,-0.0708
2991601.0,-3.3471,0.182,9.4355,-0.1346,-0.0234,-0.0867
2991611.0,-3.3327,0.0455,9.6343,-0.1336,0.0112,-0.1171
2991621.0,-3.2202,0.0263,9.6869,-0.1048,0.0245,-0.1543
2991631.0,-3.3232,0.1413,9.6989,-0.0713,0.0303,-0.191
2991641.0,-3.3734,0.3208,9.742,-0.0521,0.033,-0.2187
2991651.0,-3.4764,0.4525,9.8928,-0.0415,0.0293,-0.232
2991661.0,-3.5434,0.5794,9.8833,-0.0176,0.0064,-0.232
2991671.0,-3.5985,0.6919,9.8138,0.0043,-0.0106,-0.2235
2991681.0,-3.6224,0.7781,9.6965,0.0165,-0.0197,-0.2102
2991691.0,-3.6607,0.8356,9.596,0.0027,-0.0298,-0.1979
2991701.0,-3.6392,0.8763,9.4403,-0.0335,-0.0404,-0.1889
2991711.0,-3.6679,0.9337,9.5457,-0.0686,-0.0351,-0.1793
2991721.0,-3.6512,0.9768,9.6175,-0.0708,-0.0282,-0.158
2991731.0,-3.6129,0.9768,9.5409,-0.0452,-0.0245,-0.1304
2991741.0,-3.565,0.9553,9.3709,-0.0176,-0.0176,-0.1043
2991751.0,-3.5386,0.8691,9.256,0.0,0.0064,-0.0857
2991761.0,-3.5099,0.8835,9.1937,0.0,0.0362,-0.0772
2991771.0,-3.5338,0.8811,9.2727,-0.0181,0.0676,-0.074
2991781.0,-3.4548,0.8452,9.426,-0.0197,0.0889,-0.0686
2991791.0,-3.4093,0.8212,9.5529,-0.009,0.099,-0.0681
2991801.0,-3.3758,0.838,9.6151,-0.0059,0.0958,-0.0697
2991811.0,-3.4165,0.893,9.5624,-0.0192,0.0803,-0.0777
2991821.0,-3.3902,0.9744,9.5481,-0.0452,0.0612,-0.0809
2991831.0,-3.4285,1.0056,9.6031,-0.0729,0.0521,-0.0772
2991841.0,-3.474,0.9529,9.6941,-0.067,0.0474,-0.0644
2991851.0,-3.4261,0.9146,9.6438,-0.0234,0.0458,-0.0479
2991861.0,-3.3686,0.8739,9.493,0.0229,0.0569,-0.0346
2991871.0,-3.3686,0.9074,9.3781,0.0468,0.0857,-0.0282
2991881.0,-3.4405,0.996,9.426,0.033,0.108,-0.0271
2991891.0,-3.4069,1.0774,9.4547,-0.0027,0.1155,-0.0245
2991901.0,-3.4716,1.1013,9.5529,-0.0383,0.116,-0.017
2991911.0,-3.4141,1.166,9.6271,-0.074,0.099,-0.0074
2991921.0,-3.3734,1.1253,9.6582,-0.1117,0.0788,0.0053
2991931.0,-3.5195,1.0726,9.675,-0.1277,0.0569,0.0176
2991941.0,-3.5841,1.0223,9.6295,-0.1368,0.0341,0.0303
2991951.0,-3.6033,0.8595,9.5002,-0.1346,0.0255,0.0436
2991961.0,-3.5434,0.7614,9.2464,-0.1378,0.0309,0.0447
2991971.0,-3.5793,0.7446,9.1387,-0.216,0.0229,0.0192
2991981.0,-3.7733,0.929,9.0381,-0.373,-0.0064,-0.0245
2991991.0,-3.6966,1.3288,9.4954,-0.5986,-0.0575,-0.0734
2992001.0,-3.814,1.8747,10.2304,-0.6385,-0.0686,-0.0702
2992011.0,-3.9624,2.8754,10.0724,-0.3821,-0.0186,0.0202
2992021.0,-3.8978,3.4596,9.924,-0.1336,0.0447,0.191
2992031.0,-3.9409,3.5698,10.0197,0.0202,0.0857,0.3874
2992041.0,-3.8642,3.1795,10.0604,0.1352,0.0681,0.5768
2992051.0,-4.0749,2.8443,9.6079,0.2373,0.0527,0.7253
2992061.0,-4.1444,2.49,9.4403,0.2235,0.0319,0.8232
2992071.0,-4.0175,1.9776,9.6103,0.2065,0.0452,0.8934
2992081.0,-3.9816,1.7406,9.5409,0.2442,0.0649,0.9339
2992091.0,-3.9217,1.5323,9.8497,0.2389,0.0474,0.9509
2992101.0,-3.9025,1.4605,9.9168,0.3597,0.0298,0.9812
2992111.0,-3.8427,1.2522,9.1626,0.5981,0.0362,1.0344
2992121.0,-3.565,0.8978,7.7668,0.7535,0.1075,1.0573
2992131.0,-3.4141,0.6656,7.5393,0.6662,0.3044,1.0004
2992141.0,-3.6799,0.5866,8.5473,0.456,0.5034,0.9014
2992151.0,-3.7421,0.7566,9.7779,0.3315,0.6034,0.8157
2992161.0,-3.9313,0.8164,10.9415,0.3294,0.6316,0.7753
2992171.0,-3.9025,0.7877,11.5089,0.3847,0.538,0.7652
2992181.0,-3.8355,0.7398,11.2623,0.4209,0.3613,0.7556
2992191.0,-3.711,0.5555,10.4722,0.3821,0.2155,0.729
2992201.0,-3.5003,0.0455,10.0365,0.2666,0.1644,0.6737
2992211.0,-3.5434,-0.1652,9.8067,0.116,0.1889,0.5768
2992221.0,-3.4931,-0.2753,10.3956,-0.0873,0.2182,0.456
2992231.0,-3.4955,-0.0934,11.1067,-0.2107,0.207,0.3443
2992241.0,-3.6727,0.3759,11.6837,-0.2677,0.1149,0.2645
2992251.0,-3.6129,0.7254,11.5616,-0.2586,-0.0511,0.2352
2992261.0,-3.5769,0.9601,11.0205,-0.2075,-0.1921,0.2379
2992271.0,-3.4093,1.2282,10.0054,-0.1453,-0.2735,0.2522
2992281.0,-3.3136,1.3743,9.2919,-0.1357,-0.2533,0.2597
2992291.0,-3.3734,1.482,8.9998,-0.1777,-0.1745,0.2645
2992301.0,-3.4405,1.0487,9.4116,-0.2634,-0.1011,0.2613
2992311.0,-3.5003,0.6919,9.8904,-0.2879,-0.0819,0.2458
2992321.0,-3.462,0.2346,10.2903,-0.257,-0.1048,0.2139
2992331.0,-3.2346,0.0575,10.1562,-0.1788,-0.1676,0.1575
2992341.0,-3.1029,0.0718,9.833,-0.1676,-0.2469,0.0772
2992351.0,-2.9281,0.4741,9.1123,-0.2214,-0.339,-0.0186
2992361.0,-2.8563,1.1588,8.4731,-0.3262,-0.3852,-0.1064
2992371.0,-2.8012,1.6759,8.2289,-0.414,-0.3299,-0.1501
2992381.0,-2.9377,2.0207,8.2432,-0.4124,-0.2054,-0.1442
2992391.0,-2.8946,1.913,8.6574,-0.3523,-0.0814,-0.1038
2992401.0,-2.8898,1.6305,9.0142,-0.2416,0.0128,-0.0591
2992411.0,-2.7342,1.2809,9.3877,-0.1506,0.0415,-0.0351
2992421.0,-2.7031,1.008,9.584,-0.0745,0.0271,-0.0357
2992431.0,-2.5642,0.7254,9.4523,-0.0213,-0.0106,-0.0548
2992441.0,-2.5714,0.5195,9.2943,0.0069,-0.042,-0.0995
2992451.0,-2.5019,0.7254,8.9112,0.0069,-0.0623,-0.165
2992461.0,-2.4995,1.2905,8.6048,-0.0548,-0.0644,-0.2336
2992471.0,-2.6073,2.0135,8.4396,-0.1075,-0.0223,-0.265
2992481.0,-2.7294,2.3774,8.7029,-0.1266,0.0569,-0.2437
2992491.0,-2.8443,2.399,9.1554,-0.0724,0.1469,-0.1846
2992501.0,-2.9233,2.2266,9.4547,0.0287,0.2134,-0.1181
2992511.0,-3.0095,1.9321,9.6534,0.1256,0.24,-0.0649
2992521.0,-3.043,1.6807,9.6127,0.1777,0.2304,-0.0436
2992531.0,-3.0909,1.5275,9.5888,0.1719,0.2054,-0.0575
2992541.0,-3.1987,1.6017,9.5146,0.099,0.1671,-0.0947
2992551.0,-3.2968,1.9872,9.5026,0.0048,0.1341,-0.1373
2992561.0,-3.3112,2.4445,9.6007,-0.0782,0.1203,-0.157
2992571.0,-3.462,2.8323,9.7947,-0.1123,0.1133,-0.1368
2992581.0,-3.4477,2.9951,9.8545,-0.1027,0.0835,-0.0835
2992591.0,-3.4046,2.7653,9.7995,-0.0585,0.0617,-0.0149
2992601.0,-3.383,2.4804,9.5289,-0.0218,0.0463,0.0362
2992611.0,-3.316,2.2553,9.2296,-0.0415,0.0372,0.0548
2992621.0,-3.3255,2.0997,9.2991,-0.0937,0.0426,0.0548
2992631.0,-3.3184,1.9201,9.2751,-0.116,0.0431,0.0506
2992641.0,-3.2585,1.9369,9.1794,-0.1171,0.0404,0.0447
2992651.0,-3.1364,1.9656,9.1363,-0.1101,0.0564,0.0415
2992661.0,-3.0215,2.0686,8.8418,-0.0835,0.0772,0.049
2992671.0,-2.8371,1.9345,8.825,-0.1165,0.0984,0.0553
2992681.0,-2.6217,1.7286,8.7508,-0.1405,0.1213,0.0585
2992691.0,-2.4086,1.3815,8.7628,-0.158,0.1469,0.0521
2992701.0,-2.4972,0.8691,8.7029,-0.149,0.1692,0.0335
2992711.0,-2.5019,0.4357,8.4683,-0.0974,0.1985,0.0037
2992721.0,-2.4732,0.1604,8.4372,0.0011,0.2751,-0.0447
2992731.0,-2.7461,0.2753,8.0972,0.1383,0.3863,-0.1016
2992741.0,-2.9928,0.5052,8.0421,0.1942,0.4991,-0.158
2992751.0,-3.0957,0.8906,8.2313,0.1852,0.6204,-0.2086
2992761.0,-3.237,1.4796,8.7029,0.1139,0.7205,-0.2533
2992771.0,-3.6057,1.9489,9.6893,-0.0176,0.7561,-0.2677
2992781.0,-3.7757,2.2865,10.0676,-0.0756,0.7114,-0.2283
2992791.0,-3.8738,2.4181,9.7971,-0.1447,0.6151,-0.1703
2992801.0,-3.8595,2.411,9.4451,-0.3054,0.5209,-0.1224
2992811.0,-4.2114,2.1093,9.4188,-0.4236,0.5374,-0.0734
2992821.0,-4.3072,1.7286,9.9335,-0.4204,0.63,-0.0314
2992831.0,-4.5538,1.7071,10.4962,-0.3209,0.7061,-0.0011
2992841.0,-4.6998,2.0686,10.9391,-0.2389,0.6774,0.0213
2992851.0,-4.7046,2.5259,10.7332,-0.1948,0.5454,0.0617
2992861.0,-4.6543,2.6576,10.1658,-0.2214,0.4055,0.1235
2992871.0,-4.4796,2.3248,9.7276,-0.2458,0.3597,0.1889
2992881.0,-4.4365,2.1428,9.3398,-0.2224,0.4028,0.2283
2992891.0,-4.2976,2.0614,9.414,-0.2666,0.4427,0.2373
2992901.0,-4.3886,1.9848,9.7492,-0.3166,0.473,0.2421
2992911.0,-4.525,1.8411,10.161,-0.348,0.4432,0.2538
2992921.0,-4.4197,1.6137,10.3358,-0.3113,0.3704,0.2746
2992931.0,-4.4796,1.4748,10.2831,-0.1926,0.339,0.2964
2992941.0,-4.3958,1.4437,9.979,-0.0511,0.3177,0.3129
2992951.0,-4.2808,1.391,9.5002,0.0761,0.3304,0.3214
2992961.0,-4.2521,1.4126,8.7556,0.1149,0.3842,0.3092
2992971.0,-4.1899,1.166,8.5832,0.0043,0.4491,0.2735
2992981.0,-4.0701,0.9505,8.8083,-0.1038,0.5624,0.224
2992991.0,-4.1707,0.9074,9.4858,-0.1506,0.6992,0.1724
2993001.0,-4.3981,1.0319,10.5105,-0.1171,0.7955,0.1373
2993011.0,-4.5777,1.3527,11.1809,-0.0122,0.7934,0.1352
2993021.0,-4.4963,1.6017,11.5017,0.0947,0.6955,0.1607
2993031.0,-4.3527,1.6281,11.303,0.2054,0.589,0.2059
2993041.0,-4.1707,1.4796,10.7476,0.2692,0.5146,0.2421
2993051.0,-4.1515,1.4461,10.3908,0.2474,0.4853,0.2432
2993061.0,-4.2617,1.4964,10.307,0.1644,0.506,0.232
2993071.0,-4.2713,1.3838,10.635,0.0841,0.5326,0.2235
2993081.0,-4.3383,1.3767,10.7164,0.0681,0.5614,0.2155
2993091.0,-4.2497,1.1061,11.0516,0.0362,0.5832,0.2086
2993101.0,-4.4293,0.7829,11.5233,0.0639,0.6252,0.1953
2993111.0,-4.5394,0.565,12.4714,0.2368,0.7194,0.1761
2993121.0,-5.1164,0.9864,13.2136,0.5667,0.8503,0.1639
2993131.0,-5.5474,1.7693,13.9941,0.8242,0.9131,0.1676
2993141.0,-6.213,2.6049,15.1074,0.8993,0.8636,0.1756
2993151.0,-6.8211,3.5267,16.1609,0.9317,0.7364,0.2128
2993161.0,-7.3502,4.0606,16.9509,0.9514,0.5305,0.2927
2993171.0,-7.7835,4.5705,17.0036,0.9147,0.2538,0.3767
2993181.0,-8.0278,4.9057,17.2694,0.7045,-0.0122,0.4321
2993191.0,-8.7197,5.0326,17.686,0.3342,-0.3565,0.4581
2993201.0,-8.8298,5.138,18.1648,-0.107,-0.8556,0.4645
2993211.0,-9.1459,5.1116,18.6532,-0.3911,-1.3047,0.4949
2993221.0,-9.3254,4.5131,19.089,-0.5013,-1.7741,0.5651
2993231.0,-9.2632,4.0773,18.1097,-0.5263,-2.4222,0.6274
2993241.0,-8.6335,3.79,15.8257,-0.5204,-3.0868,0.6784
2993251.0,-8.4276,3.3758,12.6007,-0.4715,-3.5141,0.7247
2993261.0,-7.6902,2.8371,9.4715,-0.5193,-3.7083,0.7215
2993271.0,-6.869,2.2577,7.6136,-0.6252,-3.6317,0.6609
2993281.0,-6.6511,1.7885,7.2688,-0.5247,-3.247,0.5869
2993291.0,-7.0725,1.8459,6.6607,-0.281,-2.8143,0.5167
2993301.0,-6.2177,2.0327,7.3717,-0.3272,-2.5275,0.4012
2993311.0,-6.3111,2.8036,9.074,-0.3794,-2.2397,0.3017
2993321.0,-6.5457,3.0789,11.2599,-0.2746,-2.0577,0.2873
2993331.0,-6.426,3.3303,12.6653,-0.1314,-2.138,0.3076
2993341.0,-6.3638,3.8211,13.4746,-0.0639,-2.4206,0.3278
2993351.0,-6.5553,4.2832,13.1633,-0.0484,-2.8378,0.3751
2993361.0,-6.541,4.3215,11.8202,-0.0952,-3.2975,0.4459
2993371.0,-5.9352,3.8642,9.9766,-0.1921,-3.6412,0.5018
2993381.0,-5.466,3.9768,8.2289,-0.3906,-3.8275,0.4906
2993391.0,-5.2313,3.9648,7.4268,-0.7567,-3.9557,0.4475
2993401.0,-4.9249,3.8547,6.6702,-1.1339,-4.126,0.4097
2993411.0,-4.5322,3.5961,5.9352,-1.4825,-4.3234,0.3783
2993421.0,-4.039,3.237,4.8674,-1.6687,-4.4655,0.3735
2993431.0,-3.2465,2.8371,3.6033,-1.7294,-4.532,0.3799
2993441.0,-2.3822,2.4636,2.2913,-1.7219,-4.5001,0.3922
2993451.0,-1.585,1.9728,0.8619,-1.6927,-4.3846,0.4097
2993461.0,-0.3807,1.2594,-0.146,-1.7193,-4.2532,0.4081
2993471.0,0.7757,0.5746,-1.3575,-1.6772,-4.0627,0.406
2993481.0,1.4293,-0.2921,-3.1747,-1.5926,-3.8344,0.3916
2993491.0,2.8754,-1.0558,-5.4995,-1.6017,-3.5838,0.3198
2993501.0,3.8164,-1.1875,-7.8123,-1.7762,-3.2321,0.1868
2993511.0,3.8283,-1.3312,-9.8809,-2.1689,-2.8878,0.0474
2993521.0,3.2801,-1.901,-11.6813,-2.6797,-2.7728,-0.0979
2993531.0,1.8028,-1.4892,-16.2111,-2.6372,-2.7351,-0.2091
2993541.0,1.494,0.5818,-24.9332,-2.0689,-2.6308,-0.2783
2993551.0,0.8691,4.4125,-36.6002,-1.359,-2.0332,-0.2708
2993561.0,-0.079,9.2249,-48.5927,-0.878,-0.6667,-0.1346
2993571.0,-2.1356,14.042,-57.2549,-0.7364,1.8369,0.2097
2993581.0,-8.1211,14.5927,-55.1026,-1.0185,5.2802,0.8274
2993591.0,-16.0866,10.7021,-42.442,-1.0642,8.7277,1.6464
2993601.0,-23.4943,4.8794,-24.7608,-0.016,11.376,2.4355
2993611.0,-30.0879,-0.6416,-10.228,2.4653,13.1868,2.9718
2993621.0,-34.7111,-5.1643,-3.2346,5.3355,14.4862,2.9985
2993631.0,-40.0191,-8.4013,4.6328,6.8307,15.6904,2.2673
2993641.0,-45.0589,-6.1339,16.5679,6.918,16.5636,0.8849
2993651.0,-47.3453,2.9975,30.6625,6.139,16.3162,-0.5933
2993661.0,-46.1961,15.3157,44.2927,4.8295,14.7651,-1.5357
2993671.0,-42.3534,24.6004,54.7745,3.3768,12.0311,-1.5314
2993681.0,-36.4398,25.3067,59.6108,2.245,8.6612,-0.6838
2993691.0,-31.5053,17.4585,59.2349,1.8917,5.4222,0.4385
2993701.0,-27.1838,7.7907,49.4953,2.2327,2.4823,1.1744
2993711.0,-23.1711,1.4964,38.2043,2.2955,0.5252,1.1297
2993721.0,-20.8703,0.9433,29.3026,2.0109,-0.2868,0.5193
2993731.0,-19.0962,3.6679,25.9412,1.5612,-0.2857,-0.1995
2993741.0,-16.3763,8.8035,25.5222,1.2377,-0.0628,-0.7056
2993751.0,-18.9118,13.6254,27.0353,0.8657,-0.1054,-0.821
2993761.0,-17.1712,17.5687,27.2269,0.6018,-0.5635,-0.5699
2993771.0,-18.5838,17.7674,28.6777,0.1362,-1.1579,-0.0873
2993781.0,-18.6149,15.2128,27.4088,-0.1096,-2.1497,0.4874
2993791.0,-18.4976,12.0716,24.6363,-0.2001,-3.0267,0.8961
2993801.0,-18.002,10.8481,20.7673,-0.4518,-3.8035,1.0137
2993811.0,-17.5399,10.489,18.2534,-1.0557,-4.4745,0.9525
2993821.0,-16.7762,10.987,15.6246,-1.7315,-5.1147,0.8599
2993831.0,-15.8424,10.9798,12.6917,-2.4951,-5.7601,0.8226
2993841.0,-14.5089,9.2895,10.5848,-3.1895,-6.322,0.8604
2993851.0,-12.9646,6.8546,7.762,-3.4167,-6.6445,0.9456
2993861.0,-11.8154,4.0677,5.4109,-3.4241,-6.7866,0.9919
2993871.0,-10.0102,1.6903,2.7749,-3.2741,-6.9489,0.961
2993881.0,-8.6407,0.6153,-0.5626,-2.8532,-6.8637,0.8759
2993891.0,-7.173,0.5698,-4.0654,-2.3785,-6.5274,0.7748
2993901.0,-5.5019,0.4286,-6.6631,-2.047,-6.007,0.6854
2993911.0,-3.8116,-0.1269,-8.09,-1.7624,-5.261,0.6024
2993921.0,-2.7222,-0.747,-7.9918,-1.6416,-4.4447,0.4683
2993931.0,-1.415,-1.0654,-6.3734,-1.7315,-3.8147,0.2639
2993941.0,-0.6369,-0.5507,-5.4684,-1.8986,-3.4295,0.0436
2993951.0,-0.1772,-0.6057,-3.0502,-2.1582,-3.2352,-0.1378
2993961.0,0.3926,-0.2969,-2.6576,-1.8757,-3.1427,-0.2033
2993971.0,1.1947,-0.2634,-3.9385,-1.1472,-2.9266,-0.1628
2993981.0,1.8531,-0.3304,-6.6798,-0.3602,-2.536,-0.0851
2993991.0,2.5618,-0.668,-8.3366,0.0458,-2.014,-0.0692
2994001.0,2.6097,-0.8475,-8.5401,0.1559,-1.4489,-0.1341
2994011.0,2.6288,-0.5076,-8.7412,0.2006,-0.9663,-0.2405
2994021.0,2.9664,0.759,-9.7827,0.0788,-0.6157,-0.3528
2994031.0,2.5857,1.9896,-9.754,-0.3475,-0.3592,-0.4177
2994041.0,2.1548,3.7757,-11.7795,-0.704,-0.3608,-0.3714
2994051.0,-0.261,6.098,-18.3731,-1.1307,-0.6439,-0.2107
2994061.0,-1.1396,9.1961,-30.6745,-2.0199,-1.1084,0.0234
2994071.0,-2.0255,14.5232,-43.6391,-3.2081,-0.8727,0.3624
2994081.0,-5.0063,17.8248,-52.9885,-3.794,0.8413,1.1733
2994091.0,-8.9567,13.8385,-54.8966,-3.5593,3.8498,2.3605
2994101.0,-16.5296,6.3015,-48.327,-2.5063,7.6417,3.4486
2994111.0,-28.0337,-2.3487,-31.0289,-0.7742,11.4952,4.2244
2994121.0,-38.1325,-10.0149,-10.659,2.3009,14.4889,4.5687
2994131.0,-46.8952,-15.4881,7.039,6.7163,16.9015,4.2212
2994141.0,-53.5176,-11.6286,11.2216,10.4863,17.4357,2.7372
2994151.0,-59.8886,0.6536,21.9883,9.8824,17.4357,0.3656
2994161.0,-78.4532,24.7465,53.0507,6.1166,17.4357,-1.7682
2994171.0,-50.3596,12.0979,78.4508,0.232,12.9926,-2.7377
2994181.0,-50.5871,34.0815,78.4508,2.6941,9.5653,-1.7522
2994191.0,-42.612,24.4999,78.4508,-0.1543,2.6712,-0.5869
2994201.0,-34.8021,16.7307,66.6378,0.3464,-3.2991,0.953
2994211.0,-32.202,7.276,46.7755,1.6964,-5.5808,2.054
2994221.0,-25.8789,-1.3312,24.3921,1.6543,-7.5406,2.2652
2994231.0,-19.7258,-5.5474,11.5185,0.5821,-7.548,1.6315
2994241.0,-14.2886,-4.3886,5.8203,0.0186,-6.1879,0.721
2994251.0,-10.8242,-0.4453,2.2889,0.0362,-4.3394,0.0128
2994261.0,-10.0173,3.1771,5.5785,-0.4241,-2.651,-0.4534
2994271.0,-10.0485,5.2265,12.651,-0.9663,-1.8188,-0.6252
2994281.0,-10.5034,5.2696,18.4617,-0.7013,-1.6644,-0.4715
2994291.0,-12.8521,5.0254,19.8791,0.0724,-2.0859,-0.1777
2994301.0,-12.6198,3.4261,18.3994,0.5672,-2.9426,0.1038
2994311.0,-12.5672,4.3551,14.7866,0.7641,-3.654,0.1511
2994321.0,-12.6917,7.0342,11.6215,0.3464,-4.1186,0.0521
2994331.0,-12.8449,9.2368,11.1354,-0.4028,-4.3479,0.0032
2994341.0,-12.3756,11.2934,10.4866,-0.9477,-4.524,0.1032
2994351.0,-12.0021,11.5999,9.6869,-1.5825,-4.8699,0.3395
2994361.0,-11.0301,9.3853,8.7125,-2.2397,-5.3658,0.6316
2994371.0,-10.0149,5.8371,7.4531,-2.5169,-5.7042,0.8822
2994381.0,-9.074,2.4349,5.5091,-2.3365,-5.758,1.0302
2994391.0,-7.6974,-0.5459,3.8714,-2.0215,-5.6452,1.027
2994401.0,-6.7708,-1.8531,2.7102,-1.6916,-5.4313,0.8381
2994411.0,-5.7628,-1.3647,1.7837,-1.3415,-5.186,0.5608
2994421.0,-4.367,-0.0383,0.7374,-0.9764,-4.8731,0.34
2994431.0,-3.5554,1.506,-0.3424,-0.7615,-4.4836,0.2144
2994441.0,-2.8994,2.2793,-0.9074,-0.9668,-4.2266,0.1532
2994451.0,-1.8531,2.0901,-1.2091,-1.4926,-4.1201,0.1048
2994461.0,-1.2067,1.5083,-0.9146,-2.0231,-3.9978,0.0372
2994471.0,-0.9577,0.8906,-0.0934,-2.3142,-3.8802,-0.0378
2994481.0,-0.8619,0.6871,-0.4142,-2.253,-3.8738,-0.0766
2994491.0,-0.3089,0.7757,-2.3631,-2.0002,-4.0286,-0.0607
2994501.0,0.2179,1.1157,-7.082,-1.608,-4.2079,0.0213
2994511.0,1.2713,1.9776,-16.0986,-1.3015,-4.291,0.1426
2994521.0,1.3479,3.0119,-27.483,-1.4154,-3.8871,0.2405
2994531.0,0.589,5.5186,-38.3671,-2.1476,-2.8851,0.2629
2994541.0,-1.2402,8.6574,-44.5992,-3.2198,-1.4053,0.3304
2994551.0,-3.4093,11.3653,-45.8873,-3.3645,0.7029,0.6848
2994561.0,-7.0916,13.7547,-46.3086,-2.0305,3.1991,1.351
2994571.0,-11.2695,14.449,-46.9216,0.0452,5.8745,2.2077
2994581.0,-18.5335,12.9287,-43.3446,1.7671,8.8873,3.0485
2994591.0,-27.7871,8.5042,-33.2603,2.7494,11.9055,3.736
2994601.0,-36.2243,0.5148,-19.1728,3.3757,14.5128,4.1382
2994611.0,-43.5601,-9.4523,-0.9194,3.3592,16.3944,3.8972
2994621.0,-47.1849,-17.1736,24.4472,3.2581,16.9515,2.9777
2994631.0,-44.9703,-15.8736,37.2059,4.8002,15.882,1.7336
2994641.0,-43.845,-4.7645,45.43,6.5402,14.6741,0.3225
2994651.0,-42.6766,8.916,51.4921,6.5386,12.6137,-0.779
2994661.0,-42.5067,10.8338,78.4508,2.6201,9.329,-1.5633
2994671.0,-34.6872,25.6802,56.2973,3.1666,5.1338,-1.0962
2994681.0,-33.6433,15.3133,66.1255,0.5342,2.6169,-0.4299
2994691.0,-29.317,11.2097,51.7195,0.5582,-0.9748,0.3251
2994701.0,-27.088,4.1851,45.77,0.6715,-2.7744,0.7418
2994711.0,-23.5398,3.7924,29.9251,1.8246,-3.6934,0.8838
2994721.0,-20.6117,3.1699,24.3586,1.3159,-3.8951,0.6077
2994731.0,-17.3747,6.1531,19.5822,0.9392,-3.8216,0.2905
2994741.0,-15.6006,8.3582,18.1624,0.821,-3.2986,0.2405
2994751.0,-14.6429,8.0804,17.9493,0.8046,-2.9208,0.4241
2994761.0,-14.0971,6.2824,18.5455,0.5555,-2.9867,0.5773
2994771.0,-14.5544,4.707,19.9317,0.306,-3.2826,0.6045
2994781.0,-15.3851,4.1372,20.0562,0.2405,-3.7769,0.5561
2994791.0,-16.1633,4.5873,20.14,0.0654,-4.5442,0.4353
2994801.0,-16.2662,6.3398,17.2478,0.0218,-5.4733,0.3624
2994811.0,-15.7826,8.2337,12.6438,-0.1857,-6.3215,0.3624
2994821.0,-14.4873,9.821,6.8785,-0.6848,-6.9105,0.4257
2994831.0,-13.1801,9.8067,2.8706,-1.5809,-7.1292,0.5177
2994841.0,-12.2751,8.3103,0.6728,-2.5302,-7.1042,0.6183
2994851.0,-10.7021,4.3886,0.5411,-3.0958,-6.9345,0.7359
2994861.0,-9.323,0.7685,-0.0886,-2.9474,-6.6509,0.7764
2994871.0,-7.9823,-1.5586,-0.9553,-2.4562,-6.3407,0.687
2994881.0,-6.3901,-2.7078,-2.6695,-1.848,-6.0209,0.5092
2994891.0,-4.6926,-2.4229,-4.1228,-1.3122,-5.5941,0.2692
2994901.0,-3.0718,-1.2929,-5.4708,-0.8562,-5.0625,0.0452
2994911.0,-1.5634,0.7111,-7.252,-0.6332,-4.4793,-0.1181
2994921.0,-0.644,1.8483,-7.1778,-0.9083,-3.9009,-0.2033
2994931.0,0.4381,1.5083,-5.7892,-1.3111,-3.3709,-0.2049
2994941.0,1.0175,0.8667,-3.1987,-1.5362,-2.8649,-0.2097
2994951.0,1.3192,0.4142,-0.929,-1.5027,-2.5823,-0.2107
2994961.0,1.8364,-0.2801,0.0934,-1.2537,-2.5307,-0.1756
2994971.0,2.3104,-0.5914,-0.972,-0.8636,-2.5887,-0.1357
2994981.0,2.6217,-0.8667,-3.6344,-0.5289,-2.6632,-0.0899
2994991.0,2.9473,-0.8308,-9.0357,-0.4145,-2.7558,-0.0362
2995001.0,2.7414,-0.8835,-15.694,-0.6843,-2.7851,-0.0101
2995011.0,2.2913,0.0024,-25.6275,-1.0344,-2.5137,-0.0048
2995021.0,1.7765,1.9537,-35.36,-1.7373,-1.7395,-0.0772
2995031.0,-0.2705,5.5833,-42.1619,-2.5121,-0.4252,-0.132
2995041.0,-2.964,9.9048,-44.1251,-2.5877,1.549,0.066
2995051.0,-7.355,13.872,-45.7149,-1.5038,3.8062,0.6593
2995061.0,-13.137,15.0164,-48.9782,-0.1719,6.0959,1.5559
2995071.0,-20.3771,11.1522,-47.477,0.2166,8.6138,2.5063
2995081.0,-29.9586,3.1675,-38.1875,0.0357,11.4729,3.3028
2995091.0,-37.9242,-9.4427,-21.5143,-0.1006,13.9552,3.7078
2995101.0,-44.5274,-18.3779,2.4157,0.9535,16.0113,3.3731
2995111.0,-50.4506,-18.9381,21.1145,4.3814,17.2553,2.5281
2995121.0,-54.0635,-9.2727,26.3745,8.1168,17.4155,1.1749
2995131.0,-56.6492,5.7006,36.3895,8.8948,17.1468,-0.4406
2995141.0,-72.8699,20.741,75.8052,6.8786,16.322,-1.6942
2995151.0,-43.5529,29.159,59.2996,3.7312,10.3081,-1.972
2995161.0,-47.9798,20.4321,78.4508,-0.1208,7.6241,-1.7852
2995171.0,-41.5035,23.2956,71.7901,0.8402,2.2907,-0.8024
2995181.0,-38.8435,12.9909,74.7302,-0.9019,-2.6999,-0.1703
2995191.0,-33.9905,15.8951,45.7412,1.4266,-5.9597,0.7817
2995201.0,-28.8453,12.615,29.8677,1.1116,-7.2601,1.2872
2995211.0,-23.2525,11.576,19.5846,0.2006,-7.6055,1.3415
2995221.0,-19.2087,9.0237,13.3956,0.2964,-6.6035,1.5884
2995231.0,-15.7682,4.4867,10.5201,0.5667,-5.5148,1.7863
2995241.0,-13.1992,0.7302,8.5593,0.8806,-4.5421,1.7671
2995251.0,-11.9495,-0.9457,9.6079,0.7035,-3.6631,1.4388
2995261.0,-12.3038,0.407,12.1625,0.0341,-3.3294,0.8695
2995271.0,-13.453,2.4828,16.1896,-1.0174,-3.7663,0.3416
2995281.0,-14.5256,3.3088,19.6253,-1.4761,-4.5815,0.0921
2995291.0,-15.5432,5.0159,17.3268,-1.152,-5.5909,0.0889
2995301.0,-15.852,5.7916,13.714,-1.2366,-6.7451,0.1671
2995311.0,-14.8321,6.4715,8.2839,-1.4234,-7.6704,0.2895
2995321.0,-13.9869,6.9647,2.6001,-1.6283,-8.0211,0.4512
2995331.0,-12.0237,5.7604,-2.7557,-2.0683,-8.0642,0.6375
2995341.0,-8.3007,3.0335,-5.7916,-2.5408,-7.68,0.7529
2995351.0,-7.3191,0.7757,-6.9576,-2.378,-6.662,0.795
2995361.0,-4.7549,-1.8938,-8.5449,-2.1561,-5.932,0.7471
2995371.0,-2.4756,-4.1731,-8.023,-2.0215,-5.1179,0.5124
2995381.0,-1.1061,-4.6567,-6.1962,-1.5703,-4.1563,0.1666
2995391.0,0.1556,-4.2449,-3.7709,-0.9009,-3.2544,-0.1623
2995401.0,0.589,-2.0853,-1.9776,-0.3932,-2.6047,-0.4523
2995411.0,0.9385,0.0263,0.4046,-0.4448,-2.3376,-0.6635
2995421.0,1.2163,2.1332,1.7142,-0.6784,-2.3317,-0.763
2995431.0,0.9194,3.4812,2.7988,-1.0397,-2.4509,-0.7386
2995441.0,1.166,3.6009,2.6001,-1.4165,-2.7691,-0.6151
2995451.0,1.6257,2.5977,1.7454,-1.7177,-3.0447,-0.4832
2995461.0,1.6281,1.6759,-0.1197,-1.922,-3.3177,-0.4012
2995471.0,2.0279,0.6009,-3.0813,-2.046,-3.6168,-0.357
2995481.0,1.8603,0.9337,-9.4523,-1.9236,-3.8206,-0.3501
2995491.0,2.5833,2.4445,-19.1608,-1.8108,-3.7998,-0.3507
2995501.0,1.6544,6.0765,-31.4383,-1.7389,-3.1778,-0.3459
2995511.0,1.0127,11.9973,-43.3542,-2.279,-1.8826,-0.2522
2995521.0,-0.8835,18.3683,-51.4466,-3.3465,0.1075,0.166
2995531.0,-5.2146,20.9828,-49.7563,-3.8195,2.991,1.1111
2995541.0,-10.2879,19.1823,-41.7309,-2.7292,6.064,2.4679
2995551.0,-17.3364,14.2551,-32.2307,0.0117,8.9906,3.9057
2995561.0,-24.3179,7.5944,-25.5653,3.4199,11.3228,5.0125
2995571.0,-33.6577,1.6616,-22.6515,6.1385,13.654,5.3962
2995581.0,-41.0917,-3.5961,-16.4386,6.1677,15.5632,4.7943
2995591.0,-48.1139,-6.8378,2.4349,4.0579,16.9717,3.4944
2995601.0,-51.4993,-7.9942,21.2916,2.2354,16.8839,2.2881
2995611.0,-50.2519,-11.9926,45.5233,1.7006,15.9825,1.4378
2995621.0,-46.3374,-5.0422,56.2494,4.3255,14.4713,0.8615
2995631.0,-47.9702,3.8714,57.1017,5.3727,12.1662,0.2634
2995641.0,-43.754,13.9989,61.6268,5.4483,9.627,0.0202
2995651.0,-35.8699,16.1561,64.1359,3.1347,5.0178,-0.1857
2995661.0,-36.8444,14.7219,65.9603,1.8895,2.129,0.033
2995671.0,-33.5356,16.0268,51.5879,1.4479,-1.1004,0.3012
2995681.0,-35.3288,11.0397,49.6414,-1.0238,-4.1159,0.1325
2995691.0,-28.1414,12.6845,33.8684,-0.8631,-6.0017,0.2426
2995701.0,-25.2516,10.4722,28.5868,-1.0642,-6.1938,0.4182
2995711.0,-21.6819,8.9591,21.2773,-0.4257,-6.1102,0.7072
2995721.0,-19.1369,6.4883,18.7418,0.0016,-5.6617,0.9679
2995731.0,-17.2406,4.4221,16.0076,0.5561,-5.3254,1.1408
2995741.0,-14.7387,4.5969,12.9598,0.6933,-5.2275,1.1866
2995751.0,-13.8074,2.8539,12.7946,0.1203,-5.3217,1.1494
2995761.0,-12.5456,2.1332,11.4012,-0.3001,-5.576,1.0445
2995771.0,-12.2128,1.0558,10.6638,-0.7072,-5.8484,0.9078
2995781.0,-11.5065,0.0622,8.7508,-0.9833,-6.2747,0.7625
2995791.0,-10.6422,-1.0415,7.0294,-1.1573,-6.6338,0.5731
2995801.0,-9.9072,-0.5626,3.4524,-1.0807,-6.8552,0.3549
2995811.0,-8.3725,0.3831,0.6009,-1.1685,-6.9201,0.1336
2995821.0,-7.0892,1.7573,-1.9465,-1.1696,-6.7083,-0.009
2995831.0,-5.9687,2.9185,-4.877,-1.1526,-6.3013,-0.0282
2995841.0,-4.604,2.5019,-6.6176,-1.4777,-5.8926,-0.0117
2995851.0,-3.1747,1.6496,-7.4891,-1.7528,-5.3637,-0.0213
2995861.0,-1.9776,1.0439,-7.5202,-1.881,-4.7177,-0.0782
2995871.0,-0.6776,0.1197,-6.0334,-1.9034,-4.0201,-0.1628
2995881.0,0.0814,-0.3711,-3.4405,-1.6911,-3.2874,-0.2708
2995891.0,0.2825,-0.3089,0.1772,-1.3548,-2.7308,-0.3847
2995901.0,0.6584,0.0,2.8659,-0.8673,-2.5073,-0.4502
2995911.0,0.9313,0.5602,4.2425,-0.3187,-2.4983,-0.4683
2995921.0,1.1899,1.008,4.3766,0.2538,-2.594,-0.4294
2995931.0,1.7885,1.7119,2.3367,0.6662,-2.7622,-0.3773
2995941.0,1.9752,2.2865,0.2562,0.539,-2.9442,-0.365
2995951.0,2.4852,2.4948,-2.6504,0.0601,-3.1278,-0.365
2995961.0,3.0047,2.4373,-5.1834,-0.6263,-3.1352,-0.4044
2995971.0,3.0095,2.4134,-7.2712,-1.2063,-3.0618,-0.4528
2995981.0,3.158,3.1292,-12.5935,-1.4378,-3.0591,-0.4539
2995991.0,2.3367,4.8171,-20.8535,-1.5782,-2.8851,-0.4454
2996001.0,0.8164,8.6526,-31.4909,-1.6671,-2.3833,-0.4071
2996011.0,-0.9984,14.7818,-42.1643,-1.8816,-1.2398,-0.2719
2996021.0,-5.8012,23.9444,-54.0826,-2.2679,0.5204,0.191
2996031.0,-11.5017,29.6498,-58.1911,-3.322,2.7404,1.2441
2996041.0,-18.9621,30.2938,-55.2055,-3.5327,5.5159,2.9426
2996051.0,-28.4886,23.942,-49.785,-1.9502,8.8363,5.0529
2996061.0,-40.8834,9.9695,-38.3264,0.6992,12.9596,7.0558
2996071.0,-57.7912,-9.9503,-24.6699,3.4199,17.4075,8.1913
2996081.0,-68.5819,-30.2771,12.6941,4.7699,17.4357,7.448
2996091.0,-66.7456,-28.3952,26.9922,8.2722,17.4357,5.2589
2996101.0,-55.4617,-9.6486,30.6601,9.1465,17.4357,2.1673
2996111.0,-58.9069,3.7062,62.946,6.893,17.4357,-0.3006
2996121.0,-61.0976,21.1815,70.6361,3.4215,14.9657,-1.6666
2996131.0,-58.8351,21.2222,78.4508,-0.9668,8.5808,-1.6921
2996141.0,-46.7731,25.934,78.4508,1.5548,3.0506,0.1474
2996151.0,-41.5777,16.3404,74.5411,1.898,-2.0949,1.7326
2996161.0,-36.5427,7.0557,54.255,2.1747,-6.4779,2.5951
2996171.0,-29.463,0.5219,34.1222,2.941,-8.1881,2.8308
2996181.0,-23.049,-3.1244,18.9932,2.8968,-8.2243,2.4158
2996191.0,-17.935,-4.0414,8.4539,1.9385,-7.6688,1.5628
2996201.0,-12.7252,-3.0813,4.5226,0.6758,-6.653,0.514
2996211.0,-10.1658,1.3695,1.9297,0.3044,-5.0923,-0.3246
2996221.0,-9.4571,5.296,1.585,-0.0383,-3.4433,-0.8328
2996231.0,-10.0892,8.1116,7.3741,-0.9823,-2.2918,-1.176
2996241.0,-11.6741,10.2352,14.2503,-1.3883,-1.872,-1.2499
2996251.0,-12.73,11.9614,19.1943,-1.0222,-2.0784,-1.0185
2996261.0,-13.1083,11.789,22.2541,-0.1793,-2.7159,-0.5066
2996271.0,-12.9885,10.4627,21.2485,0.7998,-3.6694,0.1208
2996281.0,-13.4003,8.1235,19.1129,1.2616,-4.7656,0.6178
2996291.0,-13.1298,7.6519,12.5049,1.2962,-5.9389,0.8934
2996301.0,-12.2152,7.3215,7.4603,0.3161,-6.8627,0.9381
2996311.0,-12.0045,6.2249,4.0438,-0.7497,-7.3352,0.9035
2996321.0,-10.9463,5.5689,-0.1891,-1.4106,-7.4639,0.861
2996331.0,-9.5672,4.0342,-2.7485,-2.1535,-7.3868,0.7694
2996341.0,-6.9528,2.6145,-4.7381,-2.5414,-7.0116,0.6524
2996351.0,-5.3247,1.5921,-4.7214,-2.4493,-6.1853,0.5348
2996361.0,-3.371,0.8643,-3.9049,-2.1646,-5.452,0.4294
2996371.0,-2.5259,0.407,-3.4788,-1.8432,-4.8699,0.3395
2996381.0,-1.3312,0.0934,-3.158,-1.6772,-4.4884,0.2315
2996391.0,0.1891,0.2322,-3.723,-1.5868,-4.2149,0.1176
2996401.0,1.0558,0.1532,-4.3503,-1.6075,-3.8844,0.0271
2996411.0,2.2098,-0.3041,-4.7357,-1.7464,-3.5252,-0.049
2996421.0,2.8443,-0.9194,-4.3718,-2.0002,-3.1826,-0.165
2996431.0,3.4165,-1.4413,-3.371,-2.1747,-2.9101,-0.3081
2996441.0,3.9935,-1.6903,-2.375,-1.9507,-2.6265,-0.4289
2996451.0,4.0725,-1.4389,-2.3463,-1.2866,-2.3174,-0.4895
2996461.0,4.209,-0.644,-3.8068,-0.5965,-2.1614,-0.5039
2996471.0,4.0079,0.2658,-7.3694,-0.0266,-2.0295,-0.4784
2996481.0,3.5243,1.0822,-11.1115,0.2474,-1.7507,-0.5018
2996491.0,1.798,3.7206,-17.3604,0.4363,-1.2877,-0.5624
2996501.0,-0.5219,8.3055,-27.5381,-0.1187,-0.9333,-0.6178
2996511.0,-0.7949,12.4307,-35.1325,-1.6362,-0.3512,-0.5587
2996521.0,-3.6488,18.5335,-42.9951,-2.7563,1.2568,-0.1341
2996531.0,-7.9057,19.0171,-41.458,-4.0755,2.9867,0.7008
2996541.0,-10.149,18.1289,-38.2258,-4.3527,4.3931,1.7645
2996551.0,-14.109,17.3292,-36.3512,-3.0804,5.9767,3.0001
2996561.0,-18.3683,12.0404,-35.8819,-0.8312,7.7422,4.4032
2996571.0,-27.1335,2.9185,-33.5332,1.8512,10.5529,5.6319
2996581.0,-38.5754,-9.5217,-24.0522,4.2995,14.2516,6.2247
2996591.0,-52.8616,-24.5669,-2.6791,6.2129,17.4357,5.6516
2996601.0,-60.7984,-31.3162,17.9876,8.4558,17.4357,3.6487
2996611.0,-67.1693,-24.756,36.3679,10.3118,17.4357,0.4784
2996621.0,-53.1704,4.7812,28.7663,10.8205,17.4357,-2.6776
2996631.0,-68.309,25.6898,66.3385,7.3506,17.4357,-4.9763
2996641.0,-66.7384,49.1242,76.6695,4.1781,13.0618,-5.294
2996651.0,-63.25,49.9287,78.4508,-0.3092,6.62,-4.0957
2996661.0,-56.4529,49.0907,78.4508,0.5422,0.0245,-1.2776
2996671.0,-51.7195,32.135,78.0893,-0.2602,-7.2873,1.1824
2996681.0,-49.5624,17.0587,52.1936,-0.5188,-12.8771,2.6483
2996691.0,-43.5194,6.8426,21.6029,0.7817,-15.1439,3.4715
2996701.0,-33.9498,-0.1772,0.577,0.8578,-14.8976,3.4257
2996711.0,-17.6117,-2.5714,-17.7434,0.2086,-13.4981,2.7617
2996721.0,-13.2711,-3.9169,-19.9078,-0.0612,-9.2625,1.848
2996731.0,-11.3365,-1.8052,-14.4035,-0.3778,-5.5244,0.9333
2996741.0,-6.4524,-2.0686,-3.4907,-1.3026,-3.7902,0.074
2996751.0,-8.0062,2.6121,4.9799,-0.4204,-1.9433,-0.422
2996761.0,-9.6798,6.8953,12.3708,0.1495,-1.4622,-0.5353
2996771.0,-9.4188,9.6175,16.1537,-0.0479,-2.3221,-0.3693
2996781.0,-10.7093,11.0588,17.516,-0.315,-3.3832,0.0202
2996791.0,-11.3198,10.3525,15.3205,-0.6268,-4.7635,0.5023
2996801.0,-10.8553,8.3342,9.5792,-0.9722,-6.0155,0.936
2996811.0,-10.477,5.9137,3.9241,-1.5229,-6.7616,1.1898
2996821.0,-8.6095,4.039,-1.7286,-2.1966,-7.1372,1.2308
2996831.0,-6.5505,2.715,-6.5098,-2.908,-7.0409,1.1265
2996841.0,-4.4508,1.3168,-9.2201,-3.6354,-6.5625,0.9461
2996851.0,-2.3128,-0.3424,-9.7923,-4.1047,-5.8288,0.7146
2996861.0,-0.7326,-1.5586,-8.6119,-4.1047,-4.9359,0.4464
2996871.0,0.6584,-2.569,-6.3566,-3.5912,-4.0031,0.1969
2996881.0,1.3455,-2.7629,-4.6831,-2.7446,-3.2278,-0.0282
2996891.0,2.1691,-2.2098,-3.2872,-1.889,-2.676,-0.2347
2996901.0,2.8659,-1.0511,-2.7078,-0.9748,-2.1939,-0.3704
2996911.0,3.5769,0.4717,-3.0694,-0.1809,-1.7842,-0.4246
2996921.0,4.1348,1.5778,-3.4764,0.3219,-1.384,-0.4055
2996931.0,4.3024,2.0734,-3.8451,0.4645,-1.0557,-0.3363
2996941.0,4.6807,1.5083,-3.5602,0.2841,-0.821,-0.2708
2996951.0,4.6615,0.7422,-2.9425,0.1032,-0.5901,-0.2522
2996961.0,4.616,0.3543,-3.1508,-0.0585,-0.4635,-0.2852
2996971.0,4.3766,-0.0359,-2.8443,-0.3778,-0.4715,-0.3677
2996981.0,3.5051,1.0104,-4.6304,-0.5486,-0.6742,-0.4624
2996991.0,2.2817,2.9353,-10.0269,-0.8429,-1.0621,-0.5146
2997001.0,0.6369,6.2034,-20.7458,-1.3776,-1.3936,-0.5018
2997011.0,-1.245,11.169,-33.6146,-2.4589,-1.1685,-0.4331
2997021.0,-2.3822,18.1887,-45.1499,-3.8392,0.0894,-0.1
2997031.0,-8.4755,21.4616,-45.9423,-5.3749,2.3849,0.771
2997041.0,-11.0468,21.1839,-40.881,-5.6356,4.7518,2.2226
2997051.0,-17.5519,16.7211,-32.6809,-3.7535,7.5065,4.0941
2997061.0,-24.0905,7.2161,-25.266,-0.5577,9.984,5.8809
2997071.0,-32.2068,-4.9632,-17.0874,2.958,12.7531,6.9978
2997081.0,-42.4013,-17.3699,-6.1196,5.7628,15.6728,6.9132
2997091.0,-45.6479,-25.0577,5.624,6.6998,17.2953,5.3355
2997101.0,-52.7658,-23.6739,26.1183,6.1496,17.4357,2.8798
2997111.0,-50.8097,-16.3045,39.5043,6.5647,17.0425,0.7785
2997121.0,-57.1568,-1.7549,37.6033,6.4332,15.0455,-1.0318
2997131.0,-54.8224,5.5378,59.2541,3.9547,13.6024,-2.4397
2997141.0,-47.2998,19.5127,63.159,3.5284,10.8732,-2.8005
2997151.0,-45.6574,20.3244,78.4508,0.796,6.1411,-2.7313
2997161.0,-44.7189,28.8621,78.4508,2.2445,1.2739,-1.4096
2997171.0,-41.3048,29.0848,60.8654,3.2975,-3.3262,0.4512
2997181.0,-38.482,18.6006,48.6621,2.4818,-6.8643,1.7762
2997191.0,-33.2507,12.0931,27.9188,2.7516,-8.5697,2.5073
2997201.0,-28.1103,4.8076,17.504,1.5107,-8.7548,2.3817
2997211.0,-22.9532,1.7047,11.5951,0.1086,-8.3717,1.6464
2997221.0,-19.1536,2.6983,9.1315,-0.9088,-7.6342,0.7221
2997231.0,-16.4984,6.2106,9.335,-1.2414,-6.694,0.0511
2997241.0,-14.9422,10.1466,7.9942,-1.0621,-5.7958,-0.1522
2997251.0,-14.4107,10.7524,11.0804,-1.4191,-5.1982,-0.0298
2997261.0,-14.5232,8.679,14.121,-1.4846,-5.1716,0.3124
2997271.0,-14.4993,5.1451,14.7507,-1.184,-5.6159,0.6965
2997281.0,-14.1449,2.0159,12.9024,-0.9626,-6.3928,0.9014
2997291.0,-13.3285,0.5195,8.7125,-0.9929,-7.2096,0.8732
2997301.0,-12.4977,-0.1101,4.288,-1.408,-7.8114,0.6625
2997311.0,-11.6215,0.2394,-0.3304,-2.0518,-8.1605,0.3262
2997321.0,-10.7571,1.1157,-3.6847,-2.8926,-8.2589,-0.0686
2997331.0,-9.6774,1.9968,-6.0956,-3.6386,-8.127,-0.4204
2997341.0,-6.9384,2.6624,-9.2799,-4.0829,-7.9173,-0.6763
2997351.0,-5.3439,2.7366,-10.9319,-4.0866,-7.1814,-0.8131
2997361.0,-3.3016,3.1244,-12.7108,-3.753,-6.2353,-0.8232
2997371.0,-1.0942,1.8555,-11.8633,-3.5934,-5.3648,-0.7897
2997381.0,1.233,1.2139,-11.4778,-2.9463,-4.457,-0.7354
2997391.0,2.3415,0.9577,-10.6398,-1.9465,-3.3959,-0.6396
2997401.0,2.988,0.5148,-10.6973,-0.9908,-2.5217,-0.5167
2997411.0,3.292,0.34,-11.2839,-0.4911,-1.8698,-0.4757
2997421.0,2.7892,0.68,-11.7388,-0.5832,-1.4372,-0.5422
2997431.0,1.98,1.2929,-12.9957,-1.1797,-1.3276,-0.6843
2997441.0,0.984,3.3926,-15.2295,-2.0204,-1.4947,-0.878
2997451.0,-1.4126,7.0198,-20.0754,-2.7021,-1.8901,-0.9828
2997461.0,-3.2106,13.9773,-32.8676,-2.7633,-2.4381,-0.8929
2997471.0,-2.7701,23.5781,-51.8345,-2.7462,-2.1551,-0.3879
2997481.0,-8.8538,27.155,-67.0113,-3.0543,0.3863,0.6556
2997491.0,-14.6453,29.3122,-67.4447,-4.0201,4.2638,1.9273
2997501.0,-24.5717,26.4559,-53.5774,-4.499,8.6213,3.7125
2997511.0,-36.2769,19.8647,-31.0911,-3.3209,12.4179,5.6729
2997521.0,-43.6415,12.0213,-9.9503,-0.414,14.2734,7.4368
2997531.0,-50.951,1.9944,5.1954,4.3229,15.6558,8.9177
2997541.0,-57.3842,-9.9886,10.7835,9.553,17.3761,9.5158
2997551.0,-64.8086,-18.0595,9.1818,12.494,17.4357,8.144
2997561.0,-66.6498,-19.0746,16.8983,10.7199,17.4357,4.7331
2997571.0,-49.7563,-10.1634,28.1031,5.1434,17.4357,1.0765
2997581.0,-71.9003,-4.6639,78.4508,3.845,17.4357,-0.6928
2997591.0,-66.0321,13.3764,78.4508,4.8135,14.8603,-1.5202
2997601.0,-62.1535,15.6796,78.4508,1.9954,6.3268,-1.7363
2997611.0,-56.0028,30.7272,78.4508,4.5246,-0.6433,-0.4001
2997621.0,-52.9262,21.7394,68.0576,2.0077,-6.388,0.6497
2997631.0,-49.4187,12.4331,48.6861,0.415,-10.8455,1.2808
2997641.0,-43.5481,7.9535,29.4726,0.4417,-12.6292,1.7214
2997651.0,-35.0248,2.5259,11.4108,0.8205,-12.7925,1.9672
2997661.0,-24.8734,1.3264,-0.4286,0.795,-11.4947,1.8071
2997671.0,-16.9198,-0.7087,-5.1451,0.6832,-9.2098,1.5649
2997681.0,-10.8002,-2.2865,-8.3629,1.0892,-6.521,1.351
2997691.0,-10.4387,-4.1731,-3.7972,0.9035,-3.8328,0.9519
2997701.0,-9.6295,-4.6974,4.4101,0.3155,-2.477,0.3001
2997711.0,-10.1131,-2.3511,12.0883,0.3411,-1.9454,-0.3203
2997721.0,-11.1522,2.1739,15.1505,0.9972,-1.9582,-0.6497
2997731.0,-12.1961,5.6144,16.7953,0.8759,-2.6552,-0.7742
2997741.0,-12.6127,8.5808,17.6141,-0.2645,-4.109,-0.8562
2997751.0,-13.3046,10.7715,18.0786,-1.5868,-5.808,-0.8147
2997761.0,-14.2479,11.3868,15.5839,-2.1178,-7.3533,-0.4502
2997771.0,-15.0116,9.5457,9.9503,-2.1013,-8.6841,0.1304
2997781.0,-14.2862,6.6463,1.4581,-2.0013,-9.693,0.6598
2997791.0,-14.0324,3.9959,-9.5193,-2.0162,-9.9862,0.9945
2997801.0,-3.3615,-0.1484,-17.5926,-2.1817,-9.2673,1.0919
2997811.0,-4.0007,-0.7374,-20.7553,-1.8039,-6.5136,0.9589
2997821.0,-1.5682,-3.3471,-15.7754,-2.5611,-4.7901,0.5603
2997831.0,1.6185,-4.7142,-9.9048,-3.0112,-3.7035,-0.017
2997841.0,0.8332,-2.9568,-5.3654,-2.3567,-2.4573,-0.5034
2997851.0,0.6105,-1.2354,-1.7286,-2.014,-2.0178,-0.8487
2997861.0,1.1013,0.3041,-0.4741,-1.9385,-2.1529,-1.0653
2997871.0,1.6233,1.4844,0.3591,-1.6852,-2.2625,-1.1238
2997881.0,1.8651,2.8659,-0.9888,-0.8764,-2.1763,-0.9945
2997891.0,2.5211,2.9425,-3.2322,0.0974,-1.9981,-0.7333
2997901.0,4.1468,2.5833,-7.6686,1.028,-1.6118,-0.4534
2997911.0,3.4285,2.6073,-10.7931,1.2106,-0.9626,-0.3272
2997921.0,2.2027,3.383,-12.9742,0.3767,-0.5821,-0.3789
2997931.0,0.6728,5.1954,-14.7219,-1.2031,-0.5353,-0.5076
2997941.0,-1.7813,7.592,-16.5008,-2.8532,-0.6364,-0.5193
2997951.0,-4.8914,12.4834,-25.2397,-4.0707,-1.1696,-0.3294
2997961.0,-2.9904,17.279,-35.3624,-4.6108,-1.6229,0.1548
2997971.0,-7.3478,26.7145,-50.9941,-3.2927,0.2932,1.2515
2997981.0,-12.9287,28.3617,-59.3882,-2.1987,3.3656,2.9979
2997991.0,-19.0147,19.5678,-56.5223,-1.1744,7.4592,4.9077
2998001.0,-33.2818,8.4156,-41.877,-0.1735,12.5456,6.3204
2998011.0,-46.1051,-4.0725,-14.6022,0.4294,16.0879,6.9771
2998021.0,-53.5679,-15.5767,13.477,2.717,17.4357,7.1441
2998031.0,-55.263,-20.0036,24.5142,6.9904,17.4357,6.5562
2998041.0,-58.7537,-22.8335,34.2658,10.4927,17.4357,5.0013
2998051.0,-42.8395,-10.6303,9.3781,11.9438,16.9414,2.4461
2998061.0,-60.3842,-3.2944,36.2626,7.8311,17.4357,-0.6747
2998071.0,-49.2894,12.8856,49.9,3.8445,16.3598,-3.0735
2998081.0,-56.6277,5.023,78.4508,-1.3984,12.2689,-4.6517
2998091.0,-48.3341,38.6664,78.4508,3.2097,6.5546,-3.7918
2998101.0,-47.0461,25.6443,78.4508,-0.5177,-0.3672,-2.6079
2998111.0,-49.0716,29.4774,76.9496,1.5665,-7.6582,-0.3288
2998121.0,-49.4618,21.1097,54.1664,1.847,-12.369,1.8214
2998131.0,-47.1586,6.2153,26.104,1.9592,-15.3185,3.2124
2998141.0,-37.3208,-0.7661,-0.8906,1.5495,-15.9229,3.5417
2998151.0,-17.1928,-6.0454,-19.5487,-0.3358,-14.4437,2.859
2998161.0,-14.6932,-7.2903,-20.8128,-1.748,-9.4477,1.5708
2998171.0,-11.5855,-7.0413,-8.6957,-3.6886,-6.0975,0.0591
2998181.0,-7.5369,-4.8937,3.5937,-4.0143,-4.5166,-1.1728
2998191.0,-10.5512,1.6759,11.6957,-1.6655,-2.577,-1.6581
2998201.0,-11.2551,7.0629,14.9159,-0.149,-2.5041,-1.5931
2998211.0,-10.5776,9.165,16.0388,-0.1777,-3.7248,-1.2654
2998221.0,-10.817,10.319,14.5998,-0.3086,-4.7645,-0.7716
2998231.0,-11.4395,8.8705,11.8034,-0.3666,-5.6638,-0.2086
2998241.0,-10.3717,7.0413,5.4731,-0.3427,-6.512,0.2586
2998251.0,-8.5928,4.5011,-0.5794,-0.6332,-6.7685,0.5326
2998261.0,-6.8235,2.3918,-4.7908,-1.1275,-6.4136,0.5741
2998271.0,-5.3654,1.2761,-5.9999,-1.8991,-5.7979,0.3964
2998281.0,-4.3096,0.0814,-4.3862,-2.7404,-5.2855,0.1272
2998291.0,-3.3662,-0.9074,-2.4205,-3.1251,-5.0035,-0.1383
2998301.0,-2.4397,-1.2306,-1.8172,-2.8516,-4.8417,-0.339
2998311.0,-1.1013,-1.3982,-3.0526,-2.0763,-4.6645,-0.4262
2998321.0,0.5076,-1.3599,-6.2776,-1.0908,-4.3021,-0.4358
2998331.0,1.561,-1.2258,-9.3948,-0.3219,-3.6514,-0.4555
2998341.0,2.8946,-0.826,-11.6095,0.1607,-2.8037,-0.505
2998351.0,3.1675,-0.1867,-11.3701,0.4012,-1.757,-0.5875
2998361.0,2.9856,1.0678,-10.422,0.3741,-0.9222,-0.6816
2998371.0,3.1532,2.1452,-8.7604,-0.0516,-0.4523,-0.7545
2998381.0,2.8683,2.897,-6.7564,-0.4624,-0.1548,-0.7455
2998391.0,2.8826,3.9337,-7.3191,-0.6965,-0.1671,-0.629
2998401.0,2.6336,4.4029,-9.4427,-1.0158,-0.3948,-0.4395
2998411.0,1.391,5.5713,-15.2463,-1.094,-0.5747,-0.1932
2998421.0,-0.51,7.2616,-24.7225,-1.292,-0.5699,0.0676
2998431.0,-1.6664,11.5879,-37.972,-1.8283,0.0372,0.3129
2998441.0,-5.7533,14.5496,-44.2784,-3.5279,1.3968,0.6497
2998451.0,-9.7995,16.1896,-44.0389,-5.1993,3.3949,1.3681
2998461.0,-15.7634,15.5791,-35.8197,-5.5808,5.8836,2.5376
2998471.0,-20.559,11.9878,-25.0649,-4.1452,7.7827,4.0254
2998481.0,-25.8286,6.6702,-17.3915,-0.7886,9.6759,5.5824
2998491.0,-31.8572,-1.0942,-12.4259,3.5311,12.0609,6.8057
2998501.0,-42.1978,-12.1769,-6.0358,7.3288,15.1897,7.1527
2998511.0,-49.2296,-21.2749,-1.6233,9.0864,17.4357,5.915
2998521.0,-58.8399,-23.547,20.8798,7.225,17.4357,3.14
2998531.0,-45.3486,-14.1282,20.1185,5.0513,17.4357,0.4246
2998541.0,-62.9507,-9.0333,64.27,2.6691,17.4357,-1.7203
2998551.0,-56.2925,10.9702,67.2435,3.845,15.0061,-2.5132
2998561.0,-44.4747,10.7571,78.4508,-0.0479,8.534,-3.0596
2998571.0,-45.5976,24.9284,78.4508,2.0965,1.6703,-1.905
2998581.0,-41.4556,31.5316,61.689,4.7321,-3.1645,0.3161
2998591.0,-40.2753,17.7099,55.3468,2.85,-6.9648,1.7129
2998601.0,-35.5132,15.6844,29.0943,2.9303,-9.6323,2.6435
2998611.0,-30.2914,5.9065,20.48,1.0882,-10.2166,2.8989
2998621.0,-23.1807,1.2067,7.3071,0.8849,-9.7366,2.8351
2998631.0,-16.5775,-1.7095,0.2394,0.2937,-8.2887,2.4429
2998641.0,-12.0548,-5.6958,1.3144,-0.4315,-6.5194,1.8102
2998651.0,-9.1099,-5.3247,0.249,-0.0404,-4.7927,1.1377
2998661.0,-8.5497,-3.8571,3.7182,-0.0287,-3.322,0.4709
2998671.0,-9.1482,-1.8004,8.6239,0.0096,-2.4701,-0.0234
2998681.0,-9.8378,0.8595,12.4522,0.1841,-2.2311,-0.3171
2998691.0,-11.2384,2.9999,16.5008,0.0681,-2.6089,-0.4672
2998701.0,-12.1434,5.1787,17.8823,-0.0521,-3.6216,-0.431
2998711.0,-12.8042,6.8522,16.7379,-0.2118,-4.8353,-0.2421
2998721.0,-12.8066,7.5753,13.204,-0.5199,-6.0331,0.0309
2998731.0,-12.6821,7.0126,8.7771,-1.0397,-6.9999,0.3241
2998741.0,-12.1194,4.8171,4.2617,-1.6267,-7.6316,0.5773
2998751.0,-10.92,1.7406,-0.0383,-2.0923,-7.8817,0.7029
2998761.0,-9.0716,-1.1875,-3.2777,-2.394,-7.7449,0.6268
2998771.0,-7.0342,-2.8395,-5.7748,-2.4504,-7.2958,0.3544
2998781.0,-5.3367,-3.0287,-7.6351,-2.3525,-6.6253,-0.0202
2998791.0,-2.8611,-2.739,-8.1858,-2.1928,-5.833,-0.3884
2998801.0,-1.5826,-1.6233,-8.2935,-1.8544,-4.9141,-0.6838
2998811.0,0.0144,-0.0263,-8.4396,-1.6543,-4.1851,-0.9035
2998821.0,1.8052,1.1253,-8.3749,-1.6841,-3.5891,-1.0243
2998831.0,2.8659,1.7789,-7.9703,-1.707,-2.9107,-1.0387
2998841.0,3.3782,1.8651,-6.845,-1.7379,-2.2711,-1.0004
2998851.0,3.7517,1.6472,-5.0613,-1.6506,-1.7315,-0.9429
2998861.0,3.5865,1.3958,-3.4405,-1.2558,-1.3138,-0.8477
2998871.0,3.6009,1.2881,-3.3615,-0.5949,-1.0956,-0.7253
2998881.0,3.6009,1.4964,-5.387,0.0803,-1.0605,-0.6066
2998891.0,3.486,1.992,-10.1754,0.4528,-1.1557,-0.5289
2998901.0,2.4157,3.7804,-17.6692,0.1953,-1.2265,-0.5486
2998911.0,-0.5507,7.3047,-26.9731,-0.944,-1.0701,-0.6449
2998921.0,-3.6105,11.497,-34.091,-3.2608,-0.8477,-0.7354
2998931.0,-5.1811,18.5239,-40.9696,-5.5074,-0.2251,-0.5672
2998941.0,-9.0621,25.2253,-40.881,-6.644,1.1052,0.2437
2998951.0,-13.2926,30.1215,-40.7685,-5.2791,3.0197,2.0316
2998961.0,-19.9245,28.3043,-45.5186,-1.8443,5.8171,4.6629
2998971.0,-32.6569,17.3867,-43.3997,1.7405,10.1059,7.2575
2998981.0,-50.3405,3.4644,-35.5323,4.7289,15.3584,8.9682
2998991.0,-72.9729,-16.9893,-17.3268,6.0102,17.4357,9.0177
2999001.0,-78.4532,-28.2779,9.584,6.238,17.4357,6.9079
2999011.0,-70.1932,-25.424,20.6069,6.4902,17.4357,3.9594
2999021.0,-75.8675,-13.8505,45.9878,7.7092,17.4357,1.2909
2999031.0,-72.032,2.7174,62.5772,5.8064,17.4357,-1.4138
2999041.0,-51.6429,-4.1755,78.4508,-1.6751,12.7952,-3.3981
2999051.0,-50.4219,13.9055,78.4508,0.34,5.1705,-3.107
2999061.0,-46.7564,29.2212,78.4508,3.6354,-1.1536,-1.1722
2999071.0,-49.6222,16.3524,75.8244,1.6666,-7.515,0.4145
2999081.0,-48.2503,14.8632,42.7892,2.0316,-12.7537,1.773
2999091.0,-42.0733,4.3479,23.6427,1.7522,-14.2627,2.6536
2999101.0,-32.2499,-1.8747,-0.3519,2.7159,-13.529,3.0863
2999111.0,-13.1705,-3.2585,-22.3954,1.45,-12.0247,2.7143
2999121.0,-9.6007,-7.1347,-16.113,-0.4629,-7.2128,1.7342
2999131.0,-8.5473,-6.9983,-10.6757,-1.4857,-4.135,0.6689
2999141.0,-4.4628,-9.0214,1.652,-2.427,-2.5073,-0.397
2999151.0,-7.525,-4.6519,9.5409,-0.9567,-0.7726,-1.1169
2999161.0,-9.4499,-1.2306,17.2981,0.464,-0.2432,-1.4633
2999171.0,-9.6414,2.3894,20.0131,1.342,-0.9397,-1.5602
2999181.0,-10.6877,5.0661,21.7274,1.5809,-1.9614,-1.4692
2999191.0,-11.6238,6.5122,21.4592,1.5309,-3.2235,-1.2212
2999201.0,-12.5815,7.3694,17.9685,1.2941,-4.5948,-0.9003
2999211.0,-13.4075,7.1156,13.9893,0.6518,-5.8681,-0.622
2999221.0,-12.8066,5.8419,9.5337,0.1426,-6.7142,-0.3879
2999231.0,-11.6406,5.5138,3.8499,-0.1394,-7.0148,-0.257
2999241.0,-10.477,5.2768,0.5459,-0.8067,-6.9983,-0.2442
2999251.0,-8.2456,4.6567,-1.4868,-1.3888,-6.7935,-0.2543
2999261.0,-6.1579,4.1899,-3.2825,-1.6049,-6.2821,-0.2405
2999271.0,-4.8698,3.6703,-3.7326,-1.7389,-5.6383,-0.2256
2999281.0,-3.2657,3.3399,-3.8858,-1.8379,-5.1439,-0.2134
2999291.0,-1.6161,2.8826,-3.8906,-1.8076,-4.7065,-0.1687
2999301.0,-0.4405,2.2434,-4.1803,-1.5479,-4.2207,-0.0788
2999311.0,0.6895,1.64,-4.8961,-1.2074,-3.7583,0.009
2999321.0,2.1979,1.1588,-6.0501,-0.9621,-3.3582,0.0623
2999331.0,3.0718,0.5219,-6.8594,-0.7487,-2.8872,0.0963
2999341.0,4.4317,0.0,-8.2217,-0.4172,-2.3152,0.1203
2999351.0,4.8794,-0.6393,-8.9208,-0.1517,-1.6346,0.1016
2999361.0,5.296,-0.6728,-9.6247,0.0298,-0.9615,0.0261
2999371.0,5.4181,-0.2682,-9.9647,0.0181,-0.3533,-0.0756
2999381.0,4.7285,0.2873,-9.675,-0.2357,0.1298,-0.1612
2999391.0,3.2154,1.2713,-9.1554,-0.6204,0.3805,-0.2022
2999401.0,1.834,2.6001,-10.2376,-0.92,0.3666,-0.1575
2999411.0,0.1508,4.4508,-14.7483,-1.1254,0.2075,-0.0218
2999421.0,-1.2258,7.3933,-23.0274,-1.6017,0.0484,0.1171
2999431.0,-2.0494,11.7412,-34.0719,-2.2711,0.2613,0.3251
2999441.0,-5.8945,17.3388,-41.5274,-3.0171,1.8118,0.8184
2999451.0,-10.8625,20.7553,-44.7045,-3.4082,4.3553,1.9624
2999461.0,-19.2254,18.646,-39.739,-3.2533,7.5172,3.6141
2999471.0,-29.8772,12.4331,-28.2324,-2.2136,10.7348,5.3919
2999481.0,-40.6607,1.6472,-11.7244,-0.166,13.5604,6.951
2999491.0,-51.2455,-14.3796,6.5338,3.207,16.0075,7.7774
2999501.0,-50.7188,-25.0936,10.999,6.9228,17.4357,6.9584
2999511.0,-54.753,-30.6697,32.2762,7.9216,17.4357,4.3899
2999521.0,-42.3582,-13.8816,21.0881,8.3568,17.1819,1.2574
2999531.0,-54.9445,-5.272,49.2822,4.7113,17.4357,-1.8831
2999541.0,-55.0666,9.3326,65.5245,1.6511,13.9286,-3.8456
2999551.0,-52.9621,14.0252,78.4508,-1.6495,8.5356,-4.5645
2999561.0,-50.0412,26.6307,78.4508,-0.5417,2.7281,-3.3683
2999571.0,-47.7619,27.2484,78.4508,1.5181,-3.0698,-0.853
2999581.0,-46.3757,19.1512,61.7848,2.6265,-8.1142,1.5548
2999591.0,-42.8849,8.7795,40.5003,2.991,-11.6267,3.2203
2999601.0,-36.0088,-0.8859,16.4386,3.4114,-12.9532,4.0808
2999611.0,-30.3896,-7.9272,0.6536,2.7127,-12.3785,3.9541
2999621.0,-13.0628,-10.2041,-16.5559,1.3877,-11.3122,3.0251
2999631.0,-12.8545,-10.7739,-12.3684,-0.1777,-7.2745,1.5708
2999641.0,-9.9862,-9.1051,-7.0461,-1.6464,-5.2897,0.0995
2999651.0,-7.5513,-6.9887,2.4062,-2.278,-3.9094,-1.1499
2999661.0,-10.1825,-0.984,9.7109,-0.8705,-2.4312,-1.8124
2999671.0,-11.0349,3.6224,14.9255,0.4523,-2.2758,-1.9544
2999681.0,-10.6446,7.6207,15.2846,1.1073,-3.2241,-1.7624
2999691.0,-10.4483,10.1778,13.7044,1.1079,-4.3766,-1.3053
2999701.0,-10.2999,10.343,10.1634,0.8604,-5.3962,-0.654
2999711.0,-9.9958,8.6718,4.7908,0.4177,-6.189,-0.017
2999721.0,-8.272,6.2321,-1.1181,-0.4683,-6.7483,0.3602
2999731.0,-6.5864,3.8068,-5.2792,-1.6581,-6.8829,0.4268
2999741.0,-5.2481,1.7837,-7.4579,-2.6105,-6.5077,0.3054
2999751.0,-3.8595,-0.0646,-7.3789,-3.165,-5.8724,0.0697
2999761.0,-2.3703,-1.2354,-5.6862,-3.1006,-5.1407,-0.2102
2999771.0,-0.8906,-1.1899,-4.8243,-2.2317,-4.291,-0.4097
2999781.0,0.3519,-0.34,-4.9416,-1.1712,-3.48,-0.5156
2999791.0,1.6831,0.3567,-5.0087,-0.3608,-2.6989,-0.5385
2999801.0,2.5833,1.2713,-4.5346,0.116,-1.8975,-0.547
2999811.0,3.0598,2.1787,-2.9305,0.2261,-1.1898,-0.5518
2999821.0,2.9018,2.9616,-0.8452,0.009,-0.7199,-0.5348
2999831.0,2.5163,3.1747,1.6352,-0.5135,-0.5651,-0.4954
2999841.0,2.3343,2.6025,3.7062,-1.1595,-0.7322,-0.4337
2999851.0,2.1452,1.2905,5.8586,-1.7139,-1.1015,-0.3805
2999861.0,1.9872,0.2586,6.6774,-1.7655,-1.5756,-0.339
2999871.0,2.1141,-0.0096,4.7716,-1.2334,-2.0731,-0.2778
2999881.0,2.3415,0.4956,0.0958,-0.4321,-2.4307,-0.1948
2999891.0,2.9808,1.822,-7.9128,0.1644,-2.5643,-0.1086
2999901.0,3.1915,3.486,-16.7091,-0.0548,-2.2221,-0.0756
2999911.0,3.6105,5.8466,-25.0434,-0.9168,-1.4457,-0.0553
2999921.0,2.3104,8.0661,-29.4271,-2.0827,-0.1256,0.0511
2999931.0,-1.47,10.5105,-30.3441,-3.1171,1.5942,0.3874
2999941.0,-3.134,12.1649,-30.0065,-3.4939,3.1432,1.0754
2999951.0,-7.9296,12.5336,-27.5956,-2.5605,5.0482,2.1173
2999961.0,-13.2256,10.228,-25.8358,-0.4927,7.0702,3.3991
2999971.0,-18.8711,4.9225,-24.0258,2.1998,9.6296,4.5464
2999981.0,-26.7791,-2.4062,-18.579,4.3718,12.5568,5.0327
2999991.0,-34.5579,-10.6757,-6.8354,5.12,14.6874,4.5235
3000001.0,-38.6017,-11.8034,3.9289,5.0513,15.9666,3.1687
3000011.0,-41.3503,-15.615,23.5781,4.1984,16.3508,1.7054
3000021.0,-40.8642,-13.6805,35.7718,4.8997,15.6627,0.3821
3000031.0,-40.1101,-7.9559,41.5466,4.1909,13.7663,-1.1754
3000041.0,-43.0023,3.158,51.1737,3.8727,12.1886,-2.452
3000051.0,-41.2808,13.1514,56.3236,1.6927,7.8566,-3.4848
3000061.0,-39.5642,17.0324,68.3664,-0.5358,3.9908,-3.7376
3000071.0,-37.5243,27.6028,61.7297,0.7673,0.8216,-2.7351
3000081.0,-34.4454,25.776,57.2573,0.9365,-2.519,-1.2042
3000091.0,-31.8596,23.1974,43.6415,1.276,-5.6803,0.3166
3000101.0,-27.9667,15.9933,30.7679,1.5548,-7.398,1.6384
3000111.0,-22.4672,8.3486,16.2566,2.0343,-7.7843,2.4903
3000121.0,-17.8176,3.802,6.1124,1.5852,-7.141,2.6015
3000131.0,-13.6302,0.0766,3.2848,0.2996,-6.0661,2.1763
3000141.0,-10.6757,-2.0016,2.7845,-0.5326,-4.7528,1.5304
3000151.0,-9.3781,-2.2458,5.2313,-1.0669,-3.5327,0.7923
3000161.0,-9.2536,-0.3711,8.849,-1.2686,-2.7271,0.157
3000171.0,-9.6438,1.7717,12.5097,-1.1307,-2.3163,-0.2054
3000181.0,-10.489,3.5386,15.603,-0.7838,-2.2572,-0.2985
3000191.0,-11.0756,4.2641,18.263,-0.4236,-2.5446,-0.2123
3000201.0,-11.6023,4.5586,20.0443,-0.0921,-3.1485,-0.0553
3000211.0,-12.1027,5.1523,19.1033,0.1171,-4.0877,0.1059
3000221.0,-12.6917,5.7724,16.2279,-0.1799,-5.2828,0.199
3000231.0,-12.311,6.213,12.2631,-0.8136,-6.4098,0.2261
3000241.0,-12.0237,6.2273,7.7189,-1.4362,-7.1537,0.2543
3000251.0,-11.2911,5.5402,3.5099,-1.9906,-7.5118,0.3145
3000261.0,-9.6031,3.948,-0.1341,-2.4057,-7.5533,0.3837
3000271.0,-7.6064,2.3008,-3.067,-2.6244,-7.2719,0.3986
3000281.0,-6.043,0.565,-4.3862,-2.5536,-6.6174,0.3735
3000291.0,-4.4317,-0.6895,-5.5402,-2.2657,-5.8985,0.2953
3000301.0,-2.5139,-1.2641,-6.3111,-2.1242,-5.2844,0.108
3000311.0,-0.8835,-1.1803,-6.3829,-2.0933,-4.6783,-0.1245
3000321.0,0.3184,-1.1995,-5.6,-1.9571,-3.9807,-0.2964
3000331.0,1.4245,-1.5371,-4.5945,-1.6958,-3.3161,-0.4182
3000341.0,2.2673,-1.7741,-3.2082,-1.4718,-2.7707,-0.5507
3000351.0,2.8826,-1.731,-1.9393,-1.2686,-2.3754,-0.6763
3000361.0,3.1891,-1.7406,-0.9673,-1.0376,-2.1082,-0.7748
3000371.0,3.6631,-1.8316,-0.3328,-0.7822,-1.9167,-0.8519
3000381.0,3.8762,-1.8651,-0.1772,-0.539,-1.7773,-0.9312
3000391.0,4.4365,-1.7669,-0.5219,-0.3735,-1.7054,-1.0302
3000401.0,4.5897,-1.4269,-1.1085,-0.3161,-1.6224,-1.1435
3000411.0,4.3814,-0.5339,-1.2019,-0.3054,-1.5059,-1.2361
3000421.0,4.3,0.6704,-1.7095,-0.215,-1.4388,-1.2611
3000431.0,3.7182,1.9704,-3.5578,-0.0686,-1.425,-1.2042
3000441.0,2.7438,3.7493,-7.8554,-0.2011,-1.5107,-1.1132
3000451.0,1.1779,5.6767,-12.9024,-0.7263,-1.5953,-1.0376
3000461.0,-1.664,10.0006,-22.2517,-1.5602,-1.6394,-0.9791
3000471.0,-6.0741,14.6118,-28.8238,-3.389,-1.6751,-0.9472
3000481.0,-8.193,23.2932,-39.1572,-4.3575,-1.3063,-0.6561
3000491.0,-13.4147,31.0911,-45.1115,-4.6656,-0.3374,0.1932
3000501.0,-17.7698,37.4214,-54.7602,-3.6428,1.2771,1.9305
3000511.0,-26.7744,38.7717,-65.0648,-2.047,4.2074,4.3984
3000521.0,-41.4029,30.5955,-65.7998,-1.1515,8.3951,7.167
3000531.0,-64.6554,14.71,-53.3045,-0.3618,13.8685,9.8622
3000541.0,-78.4532,-10.5369,-35.518,1.0557,17.4357,11.8954
3000551.0,-78.4532,-44.1299,4.4125,1.9289,17.4357,11.6102
3000561.0,-78.4532,-52.3708,29.724,6.1608,17.4357,9.1103
3000571.0,-78.4532,-34.4526,41.8315,12.5254,17.4357,5.2418
3000581.0,-78.4532,0.4812,41.1587,13.3108,17.4357,0.6423
3000591.0,-78.4532,-13.0269,78.4508,-1.0307,17.4357,-3.9924
3000601.0,-59.2373,14.552,78.4508,-0.7269,9.8765,-4.3426
3000611.0,-59.6611,36.9665,78.4508,1.7879,5.1844,-2.6132
3000621.0,-63.0824,17.8057,78.4508,-2.0018,-3.3465,-0.944
3000631.0,-57.6667,28.9244,60.6643,1.5447,-11.5069,1.7586
3000641.0,-52.4019,9.2512,43.9097,0.9392,-15.1588,3.7631
3000651.0,-42.0278,-5.0135,7.9272,4.3293,-16.0815,5.31
3000661.0,-16.5631,-6.0765,-30.6721,5.3876,-14.1324,5.767
3000671.0,-14.5855,-6.7708,-28.4407,3.6668,-6.6211,5.2291
3000681.0,-10.6973,-16.1369,-16.6373,-0.5593,-4.0531,4.0781
3000691.0,2.1404,-21.5119,-8.916,-3.4433,-3.1533,2.2801
3000701.0,-2.3774,-18.1911,3.1603,-2.5648,-0.2703,0.5438
3000711.0,-5.4492,-13.1633,11.9327,-1.1004,0.6481,-0.7774
3000721.0,-5.2864,-8.0278,15.9047,0.1341,0.0617,-1.6932
3000731.0,-7.173,-0.6704,15.4402,1.7214,-0.1639,-2.1551
3000741.0,-8.8298,4.604,15.2511,2.3658,-0.6699,-2.2556
3000751.0,-8.5641,8.3222,13.4578,2.1577,-1.5969,-2.072
3000761.0,-9.1794,10.3358,12.1147,1.6405,-2.1966,-1.6304
3000771.0,-10.6015,10.671,12.7539,1.2808,-2.3892,-1.0105
3000781.0,-10.9128,10.3669,12.6342,1.1941,-2.634,-0.3209
3000791.0,-10.4986,9.1482,12.1649,0.9631,-3.0969,0.282
3000801.0,-9.6343,8.2145,10.2137,0.7375,-3.4869,0.7545
3000811.0,-9.244,6.6726,9.2871,0.447,-3.6647,1.1185
3000821.0,-8.6048,4.8195,7.8697,0.2112,-3.8275,1.3883
3000831.0,-7.6255,2.5857,6.5146,-0.074,-3.9653,1.5192
3000841.0,-6.6846,0.5052,5.3391,-0.3624,-3.993,1.4915
3000851.0,-5.9951,-1.0606,4.7214,-0.6609,-3.9275,1.3031
3000861.0,-5.205,-2.1931,5.1404,-0.9168,-3.8243,0.9887
3000871.0,-4.8554,-2.2697,5.0637,-1.0392,-3.7769,0.6103
3000881.0,-4.4796,-2.0135,5.1691,-1.0999,-3.7791,0.2267
3000891.0,-3.0694,-0.7901,3.9025,-0.9919,-3.7615,-0.1229
3000901.0,-2.4756,0.826,2.8778,-0.911,-3.5593,-0.3959
3000911.0,-2.1308,2.3727,2.3296,-0.9461,-3.2746,-0.5353
3000921.0,-1.8483,3.055,3.0263,-1.0828,-2.9782,-0.5481
3000931.0,-1.1013,2.8371,4.6424,-0.9605,-2.5988,-0.4443
3000941.0,-1.0942,2.5402,5.7844,-0.621,-2.2727,-0.3065
3000951.0,-1.0606,2.2362,6.6511,-0.448,-2.2115,-0.2091
3000961.0,-0.8595,1.98,6.8929,-0.4156,-2.3328,-0.1453
3000971.0,-0.577,1.4317,7.1898,-0.2831,-2.3716,-0.0825
3000981.0,-0.3519,1.3408,6.5697,0.108,-2.2977,-0.0245
3000991.0,-0.1532,1.2163,5.7964,0.4496,-2.1806,0.0117
3001001.0,0.5531,1.0199,4.8578,0.6444,-1.9795,0.0106
3001011.0,0.7302,1.166,4.6807,0.5555,-1.7038,-0.0766
3001021.0,0.8045,1.5562,5.2792,0.1602,-1.5027,-0.2166
3001031.0,0.7853,1.6616,7.0892,-0.4268,-1.4165,-0.3682
3001041.0,0.4046,1.9609,8.8298,-0.9445,-1.4894,-0.4965
3001051.0,-0.0862,2.0063,10.92,-1.2978,-1.7177,-0.5704
3001061.0,0.1724,1.9249,12.3708,-1.151,-1.9869,-0.5438
3001071.0,0.2586,2.2793,11.6286,-0.5428,-2.2258,-0.4374
3001081.0,0.8978,2.5881,9.3063,-0.0192,-2.4536,-0.3065
3001091.0,1.6783,2.6073,7.1084,0.1825,-2.5307,-0.199
3001101.0,2.2553,2.5546,5.3319,0.1,-2.4514,-0.1389
3001111.0,2.6815,2.32,4.2138,-0.3097,-2.3764,-0.1522
3001121.0,3.1292,2.1069,4.0821,-0.8801,-2.3189,-0.2219
3001131.0,3.3974,1.798,4.3862,-1.3244,-2.2232,-0.2772
3001141.0,3.4979,1.3623,4.9799,-1.6155,-2.1721,-0.3193
3001151.0,3.6583,1.0391,5.2768,-1.7198,-2.246,-0.3411
3001161.0,3.9409,0.6967,4.6543,-1.5697,-2.3754,-0.3326
3001171.0,4.6471,0.5674,2.9999,-1.1483,-2.3988,-0.2996
3001181.0,4.8578,0.6752,0.814,-0.6306,-2.2668,-0.2538
3001191.0,5.3199,1.2139,-2.5067,-0.1969,-2.0848,-0.2001
3001201.0,5.7006,1.7765,-6.3877,-0.0857,-1.8736,-0.1522
3001211.0,5.5905,2.6169,-10.9128,-0.2389,-1.4974,-0.0984
3001221.0,4.7453,3.8762,-15.4618,-0.7987,-0.994,-0.049
3001231.0,3.6943,4.889,-18.4186,-1.7326,-0.3581,0.0122
3001241.0,1.1971,5.0973,-19.9748,-2.5009,0.3368,0.1469
3001251.0,-4.7477,5.9496,-20.9014,-2.8782,0.8727,0.3565
3001261.0,-4.142,6.3231,-22.9795,-2.767,0.8806,0.6141
3001271.0,-8.6311,10.4938,-33.9282,-0.9493,1.3106,0.9216
3001281.0,-14.3939,15.7227,-47.0365,0.7865,2.5861,1.3297
3001291.0,-18.3731,20.5542,-62.1463,1.2749,4.9641,2.1125
3001301.0,-32.7551,20.6907,-63.0537,0.2272,9.0752,3.3784
3001311.0,-46.6271,10.7069,-47.7643,-1.3867,12.7409,5.078
3001321.0,-61.4137,-2.9568,-29.1303,-0.3416,16.662,6.8169
3001331.0,-76.1045,-20.6141,0.5243,3.5529,17.4357,7.4352
3001341.0,-78.4532,-25.0481,16.0076,10.2054,17.4357,5.9543
3001351.0,-78.4532,-21.9141,30.6218,16.9079,17.4357,2.7931
3001361.0,-74.474,12.7659,7.4962,17.4357,17.4357,-1.5782
3001371.0,-78.4532,23.6763,40.0861,10.5587,17.4357,-5.9001
3001381.0,-77.474,35.8005,62.2899,2.5504,15.3956,-8.2504
3001391.0,-71.6178,37.9122,78.4508,-2.4765,9.6738,-8.1429
3001401.0,-67.3657,43.6487,78.4508,-1.3734,4.0334,-5.6606
3001411.0,-62.697,39.7318,78.4508,1.376,-2.8505,-2.1125
3001421.0,-58.9812,31.6346,66.7863,4.1154,-9.503,1.2542
3001431.0,-51.9422,18.1504,35.7215,5.0396,-13.3709,3.4321
3001441.0,-41.1922,8.5497,8.5305,4.3692,-14.5496,4.1946
3001451.0,-29.0201,3.4333,-9.4882,2.3711,-13.4726,3.9179
3001461.0,-18.3755,1.7286,-19.0842,-0.1474,-10.8476,3.1155
3001471.0,-14.3748,-0.9792,-14.4825,-2.9181,-7.7923,2.063
3001481.0,-10.568,-3.2944,-5.4851,-4.7145,-6.0485,0.977
3001491.0,-7.8602,-3.8978,1.6185,-4.3846,-4.8268,0.0899
3001501.0,-7.8841,-1.5083,4.3766,-2.5052,-3.6508,-0.4853
3001511.0,-7.6998,1.561,4.8914,-0.9057,-3.0495,-0.7795
3001521.0,-7.1323,4.1084,4.9967,0.0032,-2.7478,-0.8578
3001531.0,-6.9815,6.8785,5.0637,0.4757,-2.4546,-0.7918
3001541.0,-7.0725,9.2847,5.4013,0.4523,-2.2907,-0.6002
3001551.0,-6.845,10.4387,6.0071,-0.0117,-2.3365,-0.2863
3001561.0,-7.0006,9.742,7.264,-0.6433,-2.4839,0.108
3001571.0,-7.4053,7.422,8.9878,-1.0786,-2.6536,0.5039
3001581.0,-7.5322,4.5873,10.3669,-1.0233,-2.8218,0.8274
3001591.0,-7.4364,2.5714,9.8019,-0.5922,-3.0586,1.019
3001601.0,-6.8642,0.917,8.5329,-0.1383,-3.2193,1.0733
3001611.0,-5.9161,0.2011,6.675,0.24,-3.1687,0.9993
3001621.0,-5.4085,0.2825,5.6671,0.1697,-3.0602,0.7769
3001631.0,-5.102,1.1396,5.5952,-0.3124,-3.0623,0.4816
3001641.0,-4.5131,1.9609,5.7748,-0.8955,-3.1283,0.2458
3001651.0,-4.2521,2.375,6.4524,-1.3771,-3.1655,0.1064
3001661.0,-4.1779,2.6312,7.0916,-1.5926,-3.2124,0.0654
3001671.0,-3.8451,2.4565,7.3215,-1.4564,-3.2464,0.1426
3001681.0,-3.0119,1.6879,7.1778,-0.9775,-3.1522,0.2889
3001691.0,-2.5857,1.1444,6.2177,-0.3954,-2.9766,0.4161
3001701.0,-1.9896,0.5722,5.3726,-0.149,-2.8793,0.4448
3001711.0,-1.0487,0.0551,4.8459,-0.2038,-2.8133,0.3741
3001721.0,-0.4262,0.1724,4.6735,-0.4166,-2.7132,0.2224
3001731.0,-0.3519,0.656,5.1667,-0.7317,-2.6489,0.0553
3001741.0,-0.1748,0.996,5.6982,-0.9722,-2.6302,-0.0591
3001751.0,-0.0383,1.403,5.9711,-1.0749,-2.6478,-0.1176
3001761.0,0.1317,1.4222,6.189,-1.0296,-2.6441,-0.1155
3001771.0,0.6464,1.1875,5.8371,-0.7833,-2.5845,-0.0686
3001781.0,1.1803,1.1468,4.8626,-0.5726,-2.5275,-0.0415
3001791.0,1.7023,1.0511,3.7661,-0.5864,-2.4898,-0.0468
3001801.0,2.15,0.6776,3.1077,-0.7524,-2.3817,-0.0756
3001811.0,2.7198,0.0575,2.9736,-0.8924,-2.1582,-0.1203
3001821.0,2.9975,-0.6153,3.1675,-0.9817,-1.8805,-0.1937
3001831.0,3.0119,-1.0798,3.8379,-1.135,-1.6841,-0.3171
3001841.0,3.0191,-1.4988,4.8123,-1.317,-1.6027,-0.4736
3001851.0,2.9568,-1.4748,5.6527,-1.3681,-1.5676,-0.6385
3001861.0,3.134,-0.9912,5.8083,-1.2984,-1.5756,-0.7854
3001871.0,3.3639,-0.2227,5.5306,-1.2691,-1.6315,-0.9046
3001881.0,3.8403,0.2873,5.4516,-1.2803,-1.6511,-0.9631
3001891.0,4.2066,0.498,4.9608,-1.21,-1.591,-0.9594
3001901.0,4.5059,0.6656,4.6831,-1.1318,-1.4867,-0.9365
3001911.0,4.64,0.5004,4.458,-1.0509,-1.3659,-0.8998
3001921.0,4.7788,0.4693,4.0103,-0.9631,-1.2255,-0.8769
3001931.0,4.9273,0.7302,3.8642,-0.912,-1.0594,-0.8828
3001941.0,4.8219,1.1468,3.881,-0.9051,-0.9386,-0.8881
3001951.0,4.6519,1.4389,3.7948,-0.8365,-0.8886,-0.8556
3001961.0,4.5897,1.8004,2.7892,-0.5795,-0.8551,-0.7811
3001971.0,4.8219,2.5642,0.5746,-0.1729,-0.7716,-0.687
3001981.0,4.4556,4.1324,-3.4788,0.1703,-0.5928,-0.5821
3001991.0,2.7653,6.2608,-9.1554,-0.1187,-0.4305,-0.4885
3002001.0,0.7207,9.2991,-16.0507,-1.5022,-0.3959,-0.4369
3002011.0,-2.411,13.1178,-22.3475,-4.0973,-0.5832,-0.3954
3002021.0,-6.1531,16.8791,-25.7472,-6.9313,-0.8131,-0.1602
3002031.0,-4.4125,20.9469,-31.2108,-7.7029,-0.878,0.5587
3002041.0,-7.7596,25.5174,-38.7214,-5.8804,0.3491,1.7437
3002051.0,-17.358,30.313,-50.8337,-3.0676,2.3392,3.7168
3002061.0,-23.6571,24.2988,-55.9046,0.2857,6.231,6.5466
3002071.0,-45.418,14.4945,-50.3668,4.1515,12.8713,9.0683
3002081.0,-67.8277,2.2218,-33.3057,6.2188,17.4357,10.4081
3002091.0,-78.4532,-14.0947,-0.1173,7.3825,17.4357,10.0447
3002101.0,-78.4532,-17.243,18.1433,9.6084,17.4357,8.1206
3002111.0,-73.8396,-20.4585,25.685,11.4484,17.4357,5.4206
3002121.0,-65.6155,-11.8776,31.0289,9.2444,17.4357,1.6469
3002131.0,-67.1717,-1.5897,55.2271,5.5664,17.4357,-1.5921
3002141.0,-59.5222,8.3534,70.2602,2.3855,13.406,-3.7445
3002151.0,-47.3405,16.1513,78.4508,-0.8014,6.6184,-4.4809
3002161.0,-50.477,28.9435,68.0265,2.2599,1.7586,-3.3635
3002171.0,-49.0787,32.0512,59.5246,3.455,-1.6613,-1.5202
3002181.0,-43.9121,27.3753,48.1689,2.2583,-6.5508,0.1357
3002191.0,-38.2809,22.3307,24.0474,3.3805,-8.9193,1.9592
3002201.0,-25.5366,10.0102,10.4818,4.3165,-8.0338,3.3385
3002211.0,-18.0714,7.1395,-3.9528,4.7012,-5.6377,3.7908
3002221.0,-13.9055,-0.6991,-0.9697,2.1125,-3.7988,3.4444
3002231.0,-9.6534,-4.6711,1.0487,0.5401,-2.4642,2.6648
3002241.0,-8.9304,-6.8283,7.7907,0.0059,-0.8093,1.7102
3002251.0,-9.663,-4.4843,12.3182,-0.0798,-0.0548,0.7662
3002261.0,-10.4794,-1.6879,18.646,-0.8125,-0.5108,-0.0654
3002271.0,-11.1067,2.5115,21.1097,-0.9434,-1.4777,-0.5475
3002281.0,-12.7395,6.5673,20.7338,-0.4741,-2.2891,-0.6295
3002291.0,-13.295,9.991,18.2366,-0.2325,-3.2443,-0.4268
3002301.0,-13.1657,11.0277,15.7275,-0.3698,-4.2266,-0.0298
3002311.0,-12.3756,10.5872,10.9822,-0.3602,-4.8795,0.4773
3002321.0,-11.1235,8.9711,6.7612,-0.5976,-5.0987,0.8971
3002331.0,-9.9814,6.6463,4.2306,-1.1861,-5.0928,1.1499
3002341.0,-8.8538,3.7757,3.2825,-1.84,-4.9774,1.2483
3002351.0,-7.9559,1.4509,3.1939,-2.2397,-4.7922,1.2036
3002361.0,-7.7476,-0.1532,3.7565,-2.2679,-4.5693,1.0797
3002371.0,-7.1635,-1.0918,3.4764,-1.906,-4.4064,0.9477
3002381.0,-6.4883,-1.7717,2.66,-1.3446,-4.201,0.7982
3002391.0,-5.2218,-1.6975,1.0774,-0.7407,-3.8722,0.622
3002401.0,-4.2689,-1.2809,-0.0048,-0.3656,-3.3933,0.4103
3002411.0,-3.4141,-0.1197,-0.7661,-0.3751,-2.9436,0.1591
3002421.0,-2.5738,0.9601,0.0431,-0.7907,-2.5712,-0.0889
3002431.0,-2.1859,1.8555,2.0566,-1.2116,-2.2274,-0.248
3002441.0,-2.0925,2.2913,4.6376,-1.3409,-1.9699,-0.2799
3002451.0,-1.9369,2.5929,6.2153,-1.1111,-1.8571,-0.1958
3002461.0,-1.8675,2.3966,7.1706,-0.7354,-1.8246,-0.0372
3002471.0,-1.8603,2.1883,7.2712,-0.3203,-1.8544,0.1235
3002481.0,-1.573,1.6879,7.0246,0.0846,-1.8565,0.2533
3002491.0,-1.2426,1.8387,5.5043,0.4001,-1.8161,0.315
3002501.0,-0.7949,2.0351,4.5298,0.2996,-1.7565,0.2948
3002511.0,-0.3783,2.2098,4.2042,-0.0149,-1.6432,0.2421
3002521.0,-0.1221,2.32,4.4676,-0.2937,-1.4202,0.2001
3002531.0,-0.2107,2.1859,5.0446,-0.4879,-1.1483,0.1916
3002541.0,-0.2346,1.3647,6.3327,-0.6258,-0.8971,0.2027
3002551.0,-0.1796,0.5578,7.9775,-0.6369,-0.6917,0.1889
3002561.0,-0.5243,0.3232,9.5505,-0.5587,-0.6114,0.1368
3002571.0,-0.6536,0.2658,10.738,-0.4794,-0.7482,0.0756
3002581.0,-0.407,0.5914,10.8697,-0.3155,-0.9929,0.0261
3002591.0,-0.1269,1.4365,9.9527,-0.1373,-1.1951,-0.0059
3002601.0,0.2466,2.0734,8.9471,-0.0516,-1.293,0.0048
3002611.0,0.4262,2.4948,7.6974,-0.0511,-1.2936,0.0527
3002621.0,0.723,2.1883,6.8714,-0.1639,-1.1781,0.1075
3002631.0,0.8954,1.6544,6.9719,-0.3794,-0.9706,0.1128
3002641.0,0.6776,1.0965,8.1355,-0.6061,-0.771,0.0761
3002651.0,0.6177,0.0934,9.979,-0.6641,-0.6604,0.0399
3002661.0,0.6895,-0.4477,11.0971,-0.4848,-0.6971,-0.0239
3002671.0,0.8332,-0.2945,11.3342,-0.2272,-0.854,-0.1139
3002681.0,1.0534,0.5028,10.4962,-0.0229,-1.0541,-0.2017
3002691.0,1.3288,1.5083,9.2847,0.0388,-1.1994,-0.2634
3002701.0,1.3599,2.3631,8.2504,-0.0085,-1.2239,-0.2826
3002711.0,1.3384,2.6743,7.8195,-0.1038,-1.1222,-0.2538
3002721.0,1.3264,2.5331,7.7117,-0.2315,-0.9887,-0.2059
3002731.0,1.5323,1.8699,8.2959,-0.4571,-0.8881,-0.1804
3002741.0,1.6305,1.0798,9.5313,-0.6694,-0.853,-0.1937
3002751.0,1.585,0.6488,10.4603,-0.7551,-0.9211,-0.2357
3002761.0,1.7454,0.5291,10.9104,-0.6832,-1.061,-0.2788
3002771.0,1.8866,0.9337,10.2759,-0.5103,-1.1994,-0.3139
3002781.0,2.0255,1.4653,9.4427,-0.4581,-1.3324,-0.3491
3002791.0,2.1787,1.9944,8.5976,-0.5119,-1.4415,-0.3751
3002801.0,2.5355,2.3104,7.7955,-0.6268,-1.483,-0.3751
3002811.0,2.8156,2.3248,7.0366,-0.796,-1.4782,-0.3629
3002821.0,3.0694,2.1165,6.4907,-1.052,-1.4835,-0.3544
3002831.0,3.5099,1.889,6.3734,-1.3143,-1.4771,-0.3485
3002841.0,3.8164,1.8196,6.4308,-1.4282,-1.4447,-0.3203
3002851.0,3.6703,1.9968,5.9687,-1.3867,-1.4766,-0.2474
3002861.0,3.541,2.3104,5.1595,-1.251,-1.5884,-0.1203
3002871.0,2.8036,3.2777,1.4653,-1.0775,-1.8991,0.0809
3002881.0,2.4349,3.8355,-5.6024,-1.326,-2.3727,0.2953
3002891.0,0.8595,5.2457,-14.4538,-2.2838,-2.659,0.4246
3002901.0,1.4844,7.3047,-24.926,-4.2175,-3.0298,0.4299
3002911.0,1.3384,8.8897,-32.6761,-5.1253,-2.7319,0.505
3002921.0,-5.5402,13.7978,-38.5682,-3.6482,-0.5247,0.9541
3002931.0,-5.8131,17.5687,-49.7731,-1.4069,1.7177,2.0869
3002941.0,-11.0636,15.0021,-53.8336,0.8902,5.1493,3.5034
3002951.0,-23.6164,9.9407,-49.4283,2.7824,9.3811,4.6134
3002961.0,-36.5188,5.3798,-42.442,4.1042,13.0857,5.1833
3002971.0,-49.4091,1.7023,-30.9331,5.0551,16.3933,5.1588
3002981.0,-60.9037,-4.1922,-12.5145,5.5366,17.4357,4.6512
3002991.0,-64.6913,-7.7093,-5.0015,5.8788,17.4357,3.5481
3003001.0,-68.6298,-10.1945,11.3461,4.773,17.4357,1.856
3003011.0,-69.5324,-9.1195,28.5604,3.9685,17.4357,0.1655
3003021.0,-66.4942,0.5746,37.668,3.4061,17.4357,-1.4489
3003031.0,-66.3026,11.4874,56.0818,3.0666,17.4357,-2.5169
3003041.0,-70.8564,6.6559,78.4508,-1.8028,11.3175,-3.2028
3003051.0,-49.8928,33.8756,54.018,2.6898,5.4526,-2.0502
3003061.0,-45.5976,23.9564,76.964,1.2345,3.1794,-0.705
3003071.0,-39.0973,24.9188,57.3172,1.5782,-2.9186,0.9041
3003081.0,-36.7893,14.0516,45.2073,2.0279,-5.9767,2.3764
3003091.0,-32.7958,8.3079,28.7927,3.2895,-6.7706,3.2299
3003101.0,-29.3266,3.9744,17.504,2.9399,-7.0095,3.3699
3003111.0,-23.2836,-0.668,10.9559,1.2467,-7.4921,2.9532
3003121.0,-18.2821,-3.2154,6.0262,0.629,-6.8483,2.3887
3003131.0,-14.7507,-3.79,2.8898,0.4842,-5.4669,1.7554
3003141.0,-12.7228,-3.7613,3.7685,-0.3693,-4.5458,0.9966
3003151.0,-11.0923,-2.9018,6.1028,-1.4042,-4.2532,0.2357
3003161.0,-10.9056,-1.2043,9.6726,-1.7879,-4.0063,-0.323
3003171.0,-11.5377,0.7566,12.1625,-1.2882,-3.9004,-0.539
3003181.0,-11.5424,2.5426,11.485,-0.3975,-4.1537,-0.4826
3003191.0,-10.4722,3.4716,9.0692,0.2368,-4.5203,-0.3065
3003201.0,-9.9,4.3072,5.9017,0.5231,-4.6751,-0.1336
3003211.0,-9.1889,5.1643,3.3327,0.2677,-4.7326,-0.0202
3003221.0,-8.26,5.0613,1.8459,-0.3214,-4.7342,0.067
3003231.0,-7.6543,4.6735,1.008,-0.8753,-4.6113,0.1362
3003241.0,-7.2449,3.699,1.1444,-1.2909,-4.3963,0.1979
3003251.0,-6.5553,2.1931,1.4844,-1.375,-4.1409,0.2677
3003261.0,-5.7868,0.6656,1.7526,-1.1696,-3.8062,0.2927
3003271.0,-5.2792,0.0,1.9848,-0.8748,-3.4939,0.2235
3003281.0,-4.7525,0.1484,1.9465,-0.6359,-3.3151,0.0883
3003291.0,-3.6392,1.1349,0.7015,-0.4773,-3.2023,-0.0516
3003301.0,-2.7007,2.0399,-0.1197,-0.5172,-2.9623,-0.1591
3003311.0,-2.0207,2.7318,-0.1293,-0.5864,-2.5435,-0.1953
3003321.0,-1.5371,2.7102,1.0391,-0.6018,-2.0422,-0.157
3003331.0,-1.087,2.241,2.5211,-0.5044,-1.6102,-0.0772
3003341.0,-0.7254,1.3886,4.4843,-0.2655,-1.2435,0.0112
3003351.0,-0.5938,1.1396,5.5162,0.1181,-0.9812,0.0692
3003361.0,-0.6345,1.0008,6.1124,0.3171,-0.8966,0.0772
3003371.0,-0.5459,1.1468,6.2537,0.2841,-0.9525,0.0314
3003381.0,-0.6273,1.4772,6.2584,0.1064,-1.0105,-0.0468
3003391.0,-0.7829,1.5921,6.6415,-0.0266,-0.9786,-0.1054
3003401.0,-0.7159,1.6472,6.6774,0.0128,-0.8365,-0.1314
3003411.0,-0.8308,1.4054,7.5058,0.049,-0.6199,-0.1607
3003421.0,-0.7997,1.4964,8.655,0.1203,-0.4401,-0.2102
3003431.0,-0.9457,1.8818,9.8306,0.1479,-0.3852,-0.2756
3003441.0,-1.1253,2.5474,10.7835,0.0681,-0.5321,-0.3416
3003451.0,-1.1708,3.3854,10.8433,-0.0357,-0.7982,-0.3725
3003461.0,-1.1061,4.1492,10.398,-0.1144,-1.0254,-0.3475
3003471.0,-1.087,4.7405,9.5696,-0.1666,-1.1297,-0.2661
3003481.0,-1.1708,4.7262,9.0644,-0.2778,-1.1254,-0.1474
3003491.0,-1.0511,3.8595,9.4308,-0.3959,-1.0323,-0.0234
3003501.0,-1.0056,2.9568,10.1466,-0.3858,-0.9163,0.0617
3003511.0,-0.8068,2.1811,10.9918,-0.3294,-0.9083,0.0921
3003521.0,-0.6057,1.889,11.1713,-0.2708,-1.0424,0.074
3003531.0,-0.3208,1.81,10.7978,-0.2772,-1.2382,0.0314
3003541.0,-0.0192,1.8316,10.1442,-0.3411,-1.409,-0.0165
3003551.0,0.3759,2.0399,9.2847,-0.423,-1.5016,-0.0649
3003561.0,0.4477,2.2458,8.7077,-0.5273,-1.4926,-0.0984
3003571.0,0.6895,1.9441,8.8418,-0.5757,-1.3771,-0.0968
3003581.0,0.7901,1.5754,9.4906,-0.5013,-1.2026,-0.0937
3003591.0,0.5435,1.494,10.2304,-0.4411,-1.1499,-0.1197
3003601.0,0.7039,1.4653,10.7141,-0.5071,-1.3234,-0.1602
3003611.0,0.9553,1.1851,10.8242,-0.5412,-1.5841,-0.1953
3003621.0,1.2665,1.3024,9.6486,-0.4603,-1.7991,-0.224
3003631.0,1.4198,1.4174,8.5353,-0.4071,-1.9012,-0.2554
3003641.0,1.8316,1.7837,7.1419,-0.357,-1.8933,-0.2831
3003651.0,1.8962,2.3056,6.1866,-0.4001,-1.7645,-0.3124
3003661.0,1.9656,2.6887,6.2489,-0.5215,-1.5793,-0.3262
3003671.0,2.0973,3.0095,6.7181,-0.5864,-1.4133,-0.3022
3003681.0,2.2984,3.225,7.0437,-0.6641,-1.3702,-0.2522
3003691.0,2.5187,3.4429,6.8163,-0.8125,-1.4942,-0.191
3003701.0,2.6767,3.4285,6.122,-0.9583,-1.6613,-0.0979
3003711.0,2.8156,3.5458,4.4748,-0.9961,-1.806,0.0362
3003721.0,2.8611,4.2353,1.664,-1.0036,-1.963,0.1963
3003731.0,3.3902,5.1691,-2.9616,-0.9738,-2.0476,0.4273
3003741.0,2.8611,5.7174,-8.3031,-0.9168,-1.748,0.7205
3003751.0,2.1907,6.0334,-14.4346,-1.1664,-1.2957,1.0052
3003761.0,1.3575,5.0111,-20.2909,-2.0992,-0.9232,1.2201
3003771.0,-0.2682,2.9592,-25.0745,-2.9607,-0.5236,1.3532
3003781.0,0.0503,3.6416,-34.455,-2.7872,0.2059,1.4841
3003791.0,-3.6727,4.5107,-38.6233,-2.163,1.8369,1.6346
3003801.0,-7.6519,6.9719,-43.2824,-0.6614,3.8328,1.9326
3003811.0,-14.8441,8.8921,-47.1825,1.0397,6.438,2.4573
3003821.0,-24.0186,7.3837,-46.754,2.1588,9.304,3.1054
3003831.0,-36.1405,3.814,-41.8052,2.9883,12.4876,3.6572
3003841.0,-50.6733,-1.142,-30.7703,3.7886,15.8745,3.9759
3003851.0,-63.3027,-9.8689,-13.2112,4.9811,17.4357,3.8546
3003861.0,-72.2331,-14.9111,-2.8802,6.8419,17.4357,2.6717
3003871.0,-78.4532,-10.3549,12.2463,7.9833,17.4357,0.364
3003881.0,-78.4532,4.7238,19.3021,7.7784,17.4357,-2.1535
3003891.0,-78.4532,11.3102,49.8976,4.159,17.4357,-4.4474
3003901.0,-76.9879,25.7329,72.7502,1.848,17.4357,-5.5904
3003911.0,-64.2915,29.1949,78.4508,-0.8264,10.6854,-5.4584
3003921.0,-56.3068,37.5267,78.4508,-0.7418,3.4821,-3.9142
3003931.0,-55.8711,37.1891,78.4508,-0.5018,-3.0607,-1.6192
3003941.0,-57.1352,31.1557,65.9818,0.1894,-9.1284,0.8258
3003951.0,-55.9716,19.5463,40.7661,1.7943,-13.1421,3.1474
3003961.0,-48.5257,8.1283,10.5225,3.4513,-14.8513,4.8273
3003971.0,-33.3536,0.1963,-12.6725,3.5859,-13.9626,5.5138
3003981.0,-21.5167,-4.64,-21.4209,2.8404,-10.0575,5.4212
3003991.0,-18.0906,-9.6438,-17.5327,0.7742,-6.5061,4.5948
3004001.0,-7.932,-14.4825,-11.7651,-1.4686,-5.1796,3.2044
3004011.0,-5.8347,-13.9917,-3.8259,-1.8023,-3.1953,1.6831
3004021.0,-7.5824,-10.3908,3.3734,-1.2489,-1.9656,0.3751
3004031.0,-7.2568,-5.4157,6.0286,-0.6407,-1.9502,-0.5954
3004041.0,-7.6902,-0.3328,7.1658,-0.158,-2.0853,-1.2063
3004051.0,-7.6998,4.0486,7.7835,0.1719,-2.1402,-1.4606
3004061.0,-7.7357,7.106,8.7676,0.2565,-2.2359,-1.4175
3004071.0,-8.0948,9.1889,9.5481,-0.0069,-2.577,-1.1829
3004081.0,-7.9895,9.5624,10.5058,-0.5039,-3.1464,-0.8274
3004091.0,-8.1331,9.3278,10.2352,-0.7061,-3.6694,-0.4033
3004101.0,-8.327,8.904,8.4539,-0.7827,-4.1601,0.0261
3004111.0,-7.6926,7.9631,5.8849,-0.9312,-4.5687,0.4188
3004121.0,-7.0916,6.5027,3.2872,-1.0898,-4.7161,0.7524
3004131.0,-6.3183,4.3287,1.8076,-1.1494,-4.5081,1.0217
3004141.0,-5.3558,1.8364,1.5538,-1.0073,-4.0478,1.1808
3004151.0,-4.47,-0.0551,1.1899,-0.8285,-3.6258,1.1653
3004161.0,-3.4979,-1.3767,1.3264,-0.8195,-3.3257,0.9663
3004171.0,-2.6935,-1.5754,1.7047,-0.8072,-3.0096,0.6518
3004181.0,-2.0949,-1.1564,2.6384,-0.6619,-2.6068,0.3453
3004191.0,-1.8148,-0.1867,3.3351,-0.4502,-2.2184,0.1032
3004201.0,-1.5538,0.7111,4.3048,-0.422,-1.9449,-0.0841
3004211.0,-1.585,1.7095,5.3582,-0.6433,-1.8672,-0.2363
3004221.0,-1.7358,2.3176,6.5625,-0.9466,-1.939,-0.3235
3004231.0,-1.482,2.2098,7.8171,-0.9477,-1.9443,-0.3038
3004241.0,-1.5179,2.399,8.1379,-0.6071,-1.8682,-0.2304
3004251.0,-1.4198,2.3679,8.6622,-0.3421,-1.889,-0.1575
3004261.0,-1.1013,2.6049,8.0661,-0.0979,-2.0018,-0.0878
3004271.0,-0.6321,2.7509,6.9192,0.0016,-2.0976,-0.0341
3004281.0,0.0048,2.8587,5.5067,-0.0266,-2.071,0.0069
3004291.0,0.249,2.7605,4.7932,-0.2176,-1.8592,0.0271
3004301.0,0.4884,2.1452,5.4253,-0.555,-1.5868,0.016
3004311.0,0.3136,1.7142,6.4859,-0.8833,-1.4085,-0.0404
3004321.0,0.1508,1.1708,7.9631,-1.1355,-1.3436,-0.1197
3004331.0,0.3017,1.008,9.3134,-1.1632,-1.3409,-0.1974
3004341.0,0.0742,1.3886,9.9814,-0.9621,-1.4037,-0.2474
3004351.0,0.2969,1.7382,9.9144,-0.613,-1.4947,-0.2293
3004361.0,0.6847,2.0039,9.0405,-0.2315,-1.5176,-0.1639
3004371.0,1.0822,1.8052,8.2863,-0.0319,-1.4782,-0.1
3004381.0,1.3264,1.4222,7.9464,-0.0335,-1.4287,-0.0825
3004391.0,1.5802,1.1349,8.2648,-0.0873,-1.3532,-0.1101
3004401.0,1.5323,1.1827,8.3629,-0.1697,-1.3452,-0.1671
3004411.0,1.5802,1.2139,8.3031,-0.4087,-1.4995,-0.248
3004421.0,1.9656,1.3431,7.6231,-0.7279,-1.7427,-0.3363
3004431.0,2.1835,1.3743,6.8881,-1.0988,-1.9544,-0.4273
3004441.0,2.375,1.4964,6.256,-1.4383,-2.1407,-0.5034
3004451.0,2.5977,1.8172,5.7772,-1.6075,-2.3083,-0.5305
3004461.0,2.8754,2.0614,4.6567,-1.4032,-2.4349,-0.4534
3004471.0,3.0837,2.3224,1.5179,-0.8418,-2.5031,-0.2788
3004481.0,3.2777,2.6983,-4.312,-0.3858,-2.5169,-0.0899
3004491.0,3.8882,3.1101,-10.4579,-0.5199,-2.3631,0.0043
3004501.0,2.7629,4.4317,-15.8305,-1.2052,-1.9231,0.0043
3004511.0,1.4198,6.0621,-20.0323,-2.4685,-1.6001,-0.0005
3004521.0,-1.7262,7.1036,-22.3283,-3.5864,-1.3542,0.0952
3004531.0,-0.7614,9.6534,-29.3697,-2.8133,-0.8679,0.4182
3004541.0,-4.8339,14.9997,-40.3184,-0.8599,0.7987,0.9919
3004551.0,-9.0836,18.4856,-50.7427,0.1846,2.8298,1.8943
3004561.0,-18.2582,17.607,-55.3923,0.0341,5.4339,3.0293
3004571.0,-27.8661,12.7132,-53.1704,-0.5662,8.3962,4.1989
3004581.0,-40.8403,5.7868,-44.9248,-0.4688,11.9034,5.2754
3004591.0,-54.4753,-3.8714,-32.7646,0.6385,15.369,6.1134
3004601.0,-67.6506,-14.4442,-17.1353,2.7228,17.4357,6.3002
3004611.0,-70.174,-23.7505,1.245,5.5851,17.4357,5.2168
3004621.0,-78.4532,-23.3387,15.2654,9.3843,17.4357,2.8574
3004631.0,-78.2736,-5.4181,17.6405,11.6314,17.4357,-0.241
3004641.0,-74.2897,7.2042,29.1518,6.67,17.4357,-3.4848
3004651.0,-77.8618,11.5903,66.1279,0.8939,17.4357,-5.3637
3004661.0,-70.8732,19.7809,78.4508,-1.4681,13.3113,-5.6005
3004671.0,-62.254,24.7106,78.4508,-1.6352,5.6058,-4.3559
3004681.0,-61.6244,32.3552,78.4508,1.201,-1.3143,-2.013
3004691.0,-57.9325,26.2572,67.6027,3.1411,-6.8249,0.6146
3004701.0,-51.923,21.7034,39.9808,5.0476,-9.9745,2.8112
3004711.0,-46.0405,11.8728,22.9293,4.715,-11.0791,4.1063
3004721.0,-37.1628,4.367,6.019,3.4965,-11.5511,4.49
3004731.0,-25.3522,-1.9297,-5.9568,2.0822,-10.4965,4.1654
3004741.0,-17.2502,-5.114,-8.3917,1.0179,-7.7103,3.38
3004751.0,-14.5328,-6.1818,-4.1755,-0.0229,-5.2131,2.4025
3004761.0,-10.6063,-6.9456,0.5842,-1.0951,-4.3293,1.3627
3004771.0,-9.1147,-4.9799,4.4388,-1.3297,-3.6317,0.4028
3004781.0,-9.6127,-1.6712,7.7357,-1.0376,-3.0586,-0.2873
3004791.0,-10.0724,1.1492,9.3877,-0.9594,-3.1283,-0.7173
3004801.0,-10.2328,3.1699,10.5943,-1.267,-3.6407,-0.9935
3004811.0,-10.5082,5.1834,10.7883,-1.4223,-4.1707,-1.1047
3004821.0,-10.5465,6.5098,10.094,-1.2819,-4.5751,-1.0105
3004831.0,-10.3477,7.7381,7.9727,-1.0445,-4.9183,-0.7833
3004841.0,-9.9383,8.3294,5.6862,-1.0179,-5.2541,-0.4922
3004851.0,-8.928,7.9583,2.9473,-1.0382,-5.4536,-0.1357
3004861.0,-7.8913,6.6679,0.4764,-0.9679,-5.3185,0.2352
3004871.0,-6.6798,4.537,-1.0582,-0.8365,-4.8704,0.5561
3004881.0,-5.5282,2.32,-1.6903,-0.7168,-4.283,0.7412
3004891.0,-4.3862,0.4669,-1.3575,-0.7311,-3.7434,0.7402
3004901.0,-3.5003,-0.5938,-0.3998,-0.7673,-3.2496,0.5938
3004911.0,-3.2705,-0.8595,0.5555,-0.7748,-2.8409,0.3773
3004921.0,-2.4948,-0.5746,1.1229,-0.8455,-2.6116,0.1352
3004931.0,-1.9824,-0.1125,2.1213,-0.861,-2.3466,-0.0724
3004941.0,-1.9106,0.7015,2.8826,-0.754,-2.0502,-0.2097
3004951.0,-1.7238,1.2306,4.2545,-0.6268,-1.8097,-0.2735
3004961.0,-1.64,1.743,5.3415,-0.2975,-1.5405,-0.248
3004971.0,-1.391,1.5634,7.1706,0.091,-1.267,-0.1559
3004981.0,-1.2426,1.7885,7.8961,0.4379,-1.1829,-0.0798
3004991.0,-1.0678,2.0423,8.3749,0.4459,-1.3058,-0.0585
3005001.0,-0.8428,2.4134,8.5856,0.2543,-1.5038,-0.0537
3005011.0,-0.6536,2.6887,8.6574,0.0708,-1.657,-0.0346
3005021.0,-0.5722,2.7677,8.1092,-0.0734,-1.7693,0.0059
3005031.0,-0.5842,2.2218,7.9057,-0.2639,-1.8257,0.0463
3005041.0,-0.3184,1.3384,8.09,-0.3278,-1.7783,0.0702
3005051.0,-0.2682,0.589,8.3534,-0.2171,-1.6171,0.0591
3005061.0,-0.1508,0.1867,9.1315,-0.1272,-1.4692,-0.0117
3005071.0,-0.0886,0.4836,9.9742,-0.1325,-1.474,-0.1362
3005081.0,-0.0455,1.1947,10.2256,-0.2272,-1.6469,-0.2549
3005091.0,-0.146,1.9106,10.0987,-0.3528,-1.8597,-0.3272
3005101.0,0.0407,2.6719,9.5122,-0.4534,-2.0619,-0.3453
3005111.0,0.1963,3.4213,8.4803,-0.5076,-2.2093,-0.3113
3005121.0,0.6321,3.7541,7.0246,-0.5651,-2.2806,-0.2203
3005131.0,1.1325,3.3854,5.8897,-0.6705,-2.2248,-0.1043
3005141.0,1.6688,2.4445,5.363,-0.7604,-2.0412,-0.0059
3005151.0,2.1428,1.324,5.3056,-0.8184,-1.8039,0.0383
3005161.0,2.3272,0.5698,5.3056,-0.944,-1.665,-0.0021
3005171.0,2.6504,0.0383,5.4277,-1.1355,-1.6309,-0.1022
3005181.0,2.9449,0.012,5.5929,-1.21,-1.5884,-0.215
3005191.0,3.1771,0.5315,5.5354,-1.0685,-1.5245,-0.2868
3005201.0,3.6033,1.233,4.8219,-0.7402,-1.4479,-0.2826
3005211.0,4.2904,1.7669,3.4429,-0.3209,-1.3149,-0.2033
3005221.0,4.64,1.9656,1.9872,0.0772,-1.0701,-0.0878
3005231.0,5.0182,2.0111,0.6752,0.4406,-0.7157,0.0362
3005241.0,5.0374,1.8531,-0.6704,0.7295,-0.2698,0.141
3005251.0,4.9321,1.7933,-2.0542,0.6651,0.075,0.1751
3005261.0,4.537,1.6041,-3.2657,0.1543,0.2421,0.1288
3005271.0,3.1723,2.739,-5.5258,-0.6992,0.1729,0.0122
3005281.0,1.8387,5.2864,-10.24,-2.1194,-0.3677,-0.0708
3005291.0,0.6632,7.0773,-14.9853,-3.8988,-1.1041,0.0069
3005301.0,0.3017,6.6607,-18.6484,-4.3069,-1.6054,0.323
3005311.0,-0.8547,12.4882,-34.6632,-2.0407,-0.8892,0.9009
3005321.0,-3.9983,14.6166,-47.3501,-0.5055,0.4677,1.6772
3005331.0,-9.9311,14.8632,-56.0076,0.3395,2.4887,2.5611
3005341.0,-21.9117,15.2487,-58.7944,0.9764,5.6925,3.5726
3005351.0,-34.8356,9.6702,-56.2949,1.5841,9.1348,4.7629
3005361.0,-49.2966,-0.2705,-50.6613,2.5802,13.0836,5.7436
3005371.0,-65.9674,-12.3661,-37.1125,3.6519,17.4357,5.9852
3005381.0,-78.4532,-21.2653,-10.0126,5.2269,17.4357,5.0221
3005391.0,-78.4532,-23.377,6.9408,8.3292,17.4357,2.7212
3005401.0,-78.4532,-9.256,14.4322,11.9725,17.4357,-0.6018
3005411.0,-78.4532,10.0724,22.7784,9.6451,17.4357,-4.3841
3005421.0,-78.4532,25.1942,49.9718,3.9382,17.4357,-6.8701
3005431.0,-77.8762,28.0481,78.4508,-1.7985,15.3302,-7.5395
3005441.0,-69.3768,30.4111,78.4508,-2.9293,9.2625,-6.1592
3005451.0,-63.9372,34.3616,78.4508,0.1543,2.0864,-3.3645
3005461.0,-57.6787,28.8429,78.4508,2.2668,-5.7058,-0.2528
3005471.0,-56.6827,20.8391,51.6717,4.2532,-10.9386,2.5169
3005481.0,-50.8169,8.7005,28.2755,4.9502,-13.356,4.1851
3005491.0,-43.3518,2.0016,4.8435,5.0897,-13.8227,4.8491
3005501.0,-29.3769,-2.7294,-14.2072,3.3816,-13.3683,4.7156
3005511.0,-16.5535,-6.1531,-22.6731,1.6416,-10.2006,4.0483
3005521.0,-13.0101,-7.3167,-19.3835,-0.199,-6.3417,2.924
3005531.0,-7.2784,-9.809,-12.4714,-2.3551,-4.7901,1.533
3005541.0,-7.2784,-9.809,-12.4714,-2.3551,-4.7901,1.533
3005551.0,-4.5442,-8.8538,-6.1794,-2.5153,-3.0479,0.2756
3005561.0,-7.0126,-4.7166,0.3519,-1.3446,-1.16,-0.6252
3005571.0,-7.9033,-0.8428,5.126,-0.4528,-0.5071,-1.176
3005581.0,-8.1235,2.6145,7.9344,0.0766,-0.4613,-1.4372
3005591.0,-8.7317,5.5857,10.8697,0.3065,-0.5204,-1.4745
3005601.0,-9.2799,8.2887,13.374,0.3155,-0.8109,-1.3606
3005611.0,-9.4978,10.4507,15.1242,0.0905,-1.4457,-1.1222
3005621.0,-9.3661,11.6119,15.0212,-0.3634,-2.3519,-0.7492
3005631.0,-9.5193,11.0133,14.6789,-0.9706,-3.2767,-0.3076
3005641.0,-10.3262,9.3781,13.7451,-1.3473,-4.1239,0.1426
3005651.0,-10.1203,6.9001,11.643,-1.2563,-4.7858,0.5752
3005661.0,-9.347,4.2952,8.8083,-0.7215,-5.0024,0.9333
3005671.0,-8.4515,2.375,6.3111,-0.1453,-4.8369,1.1339
3005681.0,-7.9511,1.2737,4.8842,0.0931,-4.5469,1.1393
3005691.0,-6.9312,0.8547,3.8188,-0.1112,-4.3937,0.9642
3005701.0,-5.794,0.8835,3.2801,-0.7221,-4.3452,0.6588
3005711.0,-5.679,1.4557,3.3447,-1.4984,-4.2521,0.2884
3005721.0,-5.8897,2.2865,3.893,-2.3487,-4.2388,-0.0702
3005731.0,-5.6719,2.2601,5.6767,-3.0155,-4.1675,-0.3251
3005741.0,-6.019,2.3607,7.4364,-3.2986,-4.1116,-0.5002
3005751.0,-5.8849,2.2625,9.4403,-3.3725,-4.2452,-0.6268
3005761.0,-5.3199,2.466,10.331,-3.2278,-4.6161,-0.721
3005771.0,-5.4157,2.9137,9.9072,-2.8915,-5.0684,-0.7184
3005781.0,-5.0087,2.5211,9.2153,-2.1928,-5.2764,-0.5523
3005791.0,-3.9696,2.0949,7.2664,-1.2462,-5.2881,-0.3182
3005801.0,-3.3998,1.968,5.2672,-0.4933,-5.2253,-0.1426
3005811.0,-1.8196,1.6951,3.802,0.0633,-5.0263,0.0106
3005821.0,-1.6831,1.7478,2.8898,0.5289,-4.6666,0.1729
3005831.0,-0.9409,0.7566,2.7246,0.969,-4.2686,0.3837
3005841.0,0.4022,-0.4621,2.6145,1.4074,-3.8791,0.5209
3005851.0,1.4126,-0.9002,2.4828,1.8528,-3.4763,0.5156
3005861.0,2.9616,-0.4932,1.9968,2.17,-3.1597,0.4268
3005871.0,4.2713,0.1293,0.8954,2.3025,-2.866,0.3565
3005881.0,0.9146,1.0654,0.2849,2.1694,-2.5318,0.3225
3005891.0,3.0095,1.0774,-0.2945,2.0731,-2.1556,0.4576
3005901.0,2.478,1.0918,-0.917,1.7655,-1.8603,0.5821
3005911.0,7.3023,-0.5555,-0.8906,1.8017,-1.2393,0.737
3005921.0,10.41,-1.494,1.0942,1.9949,-0.4975,0.6588
3005931.0,11.2264,-1.5802,1.968,2.5643,0.2368,0.5135
3005941.0,10.5249,-2.2314,2.909,3.1214,0.7673,0.3081
3005951.0,7.604,-1.0463,2.4134,3.786,1.3005,0.0303
3005961.0,6.5649,1.0846,-1.0582,4.1664,1.8491,-0.1421
3005971.0,7.1802,1.7358,-1.9106,3.4555,2.6387,-0.2943
3005981.0,6.5553,1.5921,2.5426,2.0502,3.7019,-0.5071
3005991.0,4.312,0.3759,10.1131,0.7354,4.3218,-0.7854
3006001.0,0.6393,0.893,15.2582,0.2395,4.3372,-1.1196
3006011.0,-2.5546,3.4213,16.939,0.0782,3.9461,-1.3904
3006021.0,-3.4477,4.9775,20.662,-0.2788,3.4582,-1.4899
3006031.0,-3.6248,6.3111,24.9141,-0.2038,3.0559,-1.3526
3006041.0,-4.6519,7.2089,28.2444,-0.0032,2.2402,-1.0802
3006051.0,-3.9409,7.4699,29.6713,0.0468,0.8375,-0.7865
3006061.0,-3.7373,7.8123,28.7304,0.1181,-0.7327,-0.4816
3006071.0,-2.8706,7.6495,24.2054,0.215,-2.3376,-0.133
3006081.0,-2.0327,7.1275,16.9318,0.1815,-3.5726,0.1767
3006091.0,-0.5818,6.4835,9.3613,-0.2677,-4.2707,0.348
3006101.0,0.7566,5.8514,3.5626,-1.0743,-4.3181,0.3868
3006111.0,1.7909,5.2289,-0.0144,-2.0864,-3.9158,0.3358
3006121.0,2.1979,4.3311,-0.7087,-3.2624,-3.4135,0.2171
3006131.0,2.4924,3.1987,0.6345,-4.2755,-3.0251,0.0926
3006141.0,2.7533,2.0327,2.7725,-4.673,-2.7627,0.0346
3006151.0,3.2513,1.0271,2.8252,-4.3559,-2.6973,0.0676
3006161.0,3.8355,0.4334,0.8475,-3.6726,-2.7074,0.1123
3006171.0,4.8937,0.893,-2.964,-2.8319,-2.5275,0.1607
3006181.0,5.4755,1.9992,-7.7213,-2.1481,-2.1077,0.2517
3006191.0,4.288,3.4285,-12.9454,-2.0167,-1.7086,0.3751
3006201.0,2.0949,5.1499,-20.1951,-2.6638,-1.524,0.5428
3006211.0,2.8683,5.5258,-28.1534,-3.5827,-1.3015,0.7769
3006221.0,-1.0558,6.8307,-31.5316,-4.0983,0.016,1.0461
3006231.0,-1.901,7.6207,-32.4773,-3.977,1.1786,1.466
3006241.0,-5.205,9.6822,-33.9977,-2.3025,2.552,1.9938
3006251.0,-8.916,11.9997,-40.7828,-0.0766,3.737,2.5749
3006261.0,-14.9997,13.9582,-50.86,1.3643,5.4712,3.2033
3006271.0,-25.2229,12.3589,-52.8544,0.9684,8.1711,3.9557
3006281.0,-36.2769,6.0645,-43.3231,-0.414,11.1706,4.8885
3006291.0,-47.6877,-4.027,-27.3561,-0.6561,14.4453,5.9049
3006301.0,-57.3938,-16.5942,-5.3606,0.3113,17.184,6.2486
3006311.0,-59.7305,-22.278,16.0052,3.0628,17.4357,5.526
3006321.0,-64.1071,-22.7545,32.4606,8.2712,17.4357,4.109
3006331.0,-65.3497,-4.3072,21.6292,12.9851,17.4357,1.8172
3006341.0,-69.7383,9.6774,34.5292,10.8929,17.4357,-0.9094
3006351.0,-62.0816,20.3363,46.5433,7.183,16.9962,-2.8106
3006361.0,-68.3305,22.539,78.4508,0.5412,12.4099,-4.3521
3006371.0,-50.034,20.3052,78.4508,-2.502,5.3179,-4.5171
3006381.0,-46.7181,23.0705,78.4508,-0.8019,1.2036,-3.4098
3006391.0,-44.987,18.8735,76.4804,0.2469,-5.1775,-2.0114
3006401.0,-42.1284,19.7929,45.9471,2.8229,-10.5789,-0.3145
3006411.0,-34.3065,15.5336,14.2958,4.483,-12.6526,1.3425
3006421.0,-19.9964,13.8864,-14.7052,3.993,-11.7528,2.3817
3006431.0,-10.7859,8.7676,-21.9836,1.9167,-7.8024,2.7952
3006441.0,-9.5481,1.7789,-15.1936,0.058,-3.9834,2.8415
3006451.0,-3.5937,-6.3231,-6.6032,-0.6135,-1.88,2.5398
3006461.0,-5.2002,-7.9775,1.2809,1.0206,0.9817,1.9449
3006471.0,-6.9384,-7.0413,10.9439,1.9066,2.1865,1.0674
3006481.0,-6.9264,-3.9528,17.4011,2.0907,1.7554,0.1884
3006491.0,-8.6718,0.5626,21.2749,2.2631,1.0419,-0.4651
3006501.0,-9.809,4.628,22.5031,2.0657,-0.2293,-0.854
3006511.0,-10.4004,8.4252,20.4848,1.5633,-1.7906,-0.9466
3006521.0,-10.8912,11.5831,15.8999,0.9227,-3.0591,-0.7263
3006531.0,-10.8553,11.8752,12.6294,0.0734,-3.7966,-0.3017
3006541.0,-10.422,10.7476,10.0341,-0.6848,-4.1441,0.1181
3006551.0,-9.9742,8.9256,8.7436,-1.3814,-4.2596,0.4204
3006561.0,-9.3853,6.6295,8.8897,-1.964,-4.2686,0.6077
3006571.0,-9.0405,4.5777,9.7827,-2.2407,-4.2755,0.7205
3006581.0,-8.679,2.9281,10.319,-2.1556,-4.4171,0.7998
3006591.0,-8.0134,1.7502,9.3182,-1.7379,-4.6177,0.87
3006601.0,-7.1946,1.1588,7.0461,-1.1983,-4.7161,0.9243
3006611.0,-6.6176,0.7374,4.312,-0.8115,-4.6565,0.9493
3006621.0,-5.3343,-0.3232,2.4157,-0.6689,-4.374,0.9301
3006631.0,-4.4796,-1.4317,1.9465,-0.7301,-3.9249,0.7886
3006641.0,-3.8331,-1.9034,2.6959,-0.9929,-3.5753,0.505
3006651.0,-3.3255,-1.8172,4.4341,-1.1573,-3.3145,0.1756
3006661.0,-3.3423,-0.9074,5.9831,-0.9498,-3.0469,-0.0649
3006671.0,-3.0885,-0.2945,7.1156,-0.6024,-2.9282,-0.182
3006681.0,-2.5043,0.3735,6.8283,-0.282,-3.0128,-0.2458
3006691.0,-2.1308,1.3767,5.6264,-0.1479,-3.0974,-0.2964
3006701.0,-1.6161,2.1404,4.9249,-0.1857,-3.0426,-0.3235
3006711.0,-1.5012,2.9401,4.4053,-0.331,-2.9069,-0.3304
3006721.0,-1.1349,3.0263,4.8147,-0.597,-2.7696,-0.3086
3006731.0,-0.6776,2.6504,5.612,-0.8248,-2.6398,-0.2767
3006741.0,-0.4166,2.5307,6.3829,-1.0264,-2.6159,-0.2868
3006751.0,-0.1628,2.7845,6.6918,-1.201,-2.6877,-0.3033
3006761.0,-0.0287,2.7246,6.8211,-1.2723,-2.7356,-0.2677
3006771.0,0.2729,2.3056,6.6726,-1.2441,-2.767,-0.2043
3006781.0,0.6369,1.98,5.8706,-1.1919,-2.808,-0.1628
3006791.0,1.0247,1.7645,4.7956,-1.2159,-2.8298,-0.1463
3006801.0,1.4844,1.5083,3.8116,-1.2989,-2.7968,-0.1399
3006811.0,1.8651,1.2378,2.9592,-1.3766,-2.6829,-0.1336
3006821.0,2.2625,0.9505,2.1213,-1.4117,-2.5509,-0.1293
3006831.0,2.8659,0.7278,0.7087,-1.4314,-2.4153,-0.1399
3006841.0,3.3782,0.7781,-1.2977,-1.6208,-2.2828,-0.1932
3006851.0,3.7469,0.8859,-3.3902,-2.1609,-2.2546,-0.2836
3006861.0,4.0103,1.4006,-6.0573,-2.9293,-2.353,-0.3693
3006871.0,3.2178,2.3176,-8.3965,-3.5098,-2.2785,-0.3746
3006881.0,2.5235,4.118,-12.0787,-3.7078,-2.1332,-0.2347
3006891.0,-0.4334,5.3223,-15.9502,-3.7977,-2.0305,0.0213
3006901.0,-1.7047,7.0318,-24.543,-3.24,-2.0699,0.3443
3006911.0,-2.636,10.5824,-36.6864,-2.2386,-1.309,0.6263
3006921.0,-5.9759,16.1537,-48.9495,-1.715,0.3108,0.9631
3006931.0,-9.3948,19.5295,-54.911,-1.9135,2.7675,1.616
3006941.0,-18.4473,21.8399,-53.678,-2.0816,6.2135,2.7601
3006951.0,-29.5037,17.4729,-42.7892,-2.054,9.6632,4.4543
3006961.0,-41.5514,9.8569,-28.7376,-0.7343,12.8761,6.3465
3006971.0,-52.1816,-2.0231,-12.0811,2.0651,16.1294,7.971
3006981.0,-62.3713,-16.8001,3.9313,5.4302,17.4357,8.3377
3006991.0,-62.831,-23.93,19.1345,8.1206,17.4357,6.818
3007001.0,-64.1718,-19.5056,25.0649,10.1399,17.4357,4.1648
3007011.0,-64.1431,-7.6231,38.628,9.3402,17.4357,1.0344
3007021.0,-56.8647,5.2026,48.4802,5.9948,17.075,-1.6772
3007031.0,-52.8089,7.6614,73.2267,0.4901,12.1199,-3.5258
3007041.0,-50.4195,15.5551,78.4508,-1.2201,6.91,-3.7381
3007051.0,-48.1857,18.3851,78.4508,-0.3203,1.8858,-2.5435
3007061.0,-45.8298,18.67,72.494,1.9566,-3.6173,-0.6327
3007071.0,-42.2457,12.9766,53.1441,3.8184,-7.9694,1.2026
3007081.0,-35.6736,8.5856,23.614,5.7883,-10.1016,2.6478
3007091.0,-23.0202,4.7381,0.5435,5.1673,-9.8675,3.1709
3007101.0,-14.528,1.7382,-10.4746,2.8835,-7.5581,2.8122
3007111.0,-10.999,-0.7446,-9.5624,0.3693,-4.4011,2.0023
3007121.0,-9.7516,-3.5985,1.1851,-1.7517,-2.0194,1.0339
3007131.0,-10.2711,-4.2473,12.287,-2.0162,-0.6806,0.2208
3007141.0,-11.5975,-0.9649,18.7969,-0.8578,-0.2283,-0.3097
3007151.0,-12.7826,3.4213,21.294,0.2464,-0.6699,-0.5768
3007161.0,-12.9239,6.7756,21.3275,0.6024,-1.7538,-0.6401
3007171.0,-12.9383,8.983,20.1281,0.7231,-2.71,-0.4949
3007181.0,-12.876,10.3645,17.6501,0.7716,-3.4061,-0.207
3007191.0,-12.7132,10.7212,14.7028,0.4135,-4.0999,0.1405
3007201.0,-11.8848,9.1794,12.706,-0.1825,-4.5932,0.5305
3007211.0,-11.7675,6.8761,11.0636,-0.7364,-4.8454,0.8264
3007221.0,-11.6191,4.1444,10.6662,-1.3175,-5.1014,0.9227
3007231.0,-11.2097,2.1739,10.2544,-1.6809,-5.4148,0.854
3007241.0,-11.0061,1.1349,9.5624,-1.7209,-5.6952,0.6811
3007251.0,-10.1251,1.4102,7.0844,-1.4883,-5.9448,0.4975
3007261.0,-9.1626,1.9704,4.6328,-1.2978,-6.0033,0.3837
3007271.0,-7.7261,2.8419,2.0279,-1.2404,-5.8947,0.348
3007281.0,-6.596,2.8826,0.7925,-1.4564,-5.6734,0.3751
3007291.0,-5.5665,2.2817,0.2945,-1.731,-5.4409,0.4395
3007301.0,-4.8123,1.2689,-0.2801,-2.0119,-5.2908,0.4949
3007311.0,-3.8092,-0.0622,-1.2498,-2.4041,-5.3025,0.4997
3007321.0,-2.5977,-1.889,-2.0375,-2.7718,-5.2929,0.4443
3007331.0,-1.415,-3.292,-3.5195,-2.9043,-5.1801,0.3086
3007341.0,0.1891,-4.5586,-4.7788,-2.8963,-4.9705,0.0846
3007351.0,1.2641,-5.3558,-5.4277,-2.4477,-4.482,-0.1639
3007361.0,2.5163,-4.9728,-6.8402,-1.5484,-3.8536,-0.39
3007371.0,3.4237,-4.7788,-9.1339,-0.6316,-3.1804,-0.5779
3007381.0,5.1116,-4.3455,-12.2416,0.107,-2.3535,-0.7364
3007391.0,5.6,-3.7972,-13.0269,0.4252,-1.2286,-0.9206
3007401.0,5.3558,-3.0095,-11.9112,0.29,-0.2309,-1.1408
3007411.0,4.2832,-2.059,-9.4595,-0.1884,0.4762,-1.3899
3007421.0,3.1508,0.0192,-5.9472,-0.646,0.9525,-1.6219
3007431.0,0.7757,3.3854,-1.8555,-0.9397,0.9828,-1.7091
3007441.0,-1.8316,7.6854,-2.0279,-0.9291,0.2097,-1.5123
3007451.0,-4.6902,11.9495,-10.6542,-0.9594,-1.1999,-1.0664
3007461.0,-6.4715,16.01,-26.8462,-1.5697,-2.4796,-0.5726
3007471.0,-1.2354,19.2494,-50.8265,-1.6788,-2.8207,-0.0059
3007481.0,-10.8697,22.3858,-61.4807,-2.8915,-0.0165,0.5672
3007491.0,-15.2271,24.4161,-62.4863,-5.1945,2.9905,1.6639
3007501.0,-22.9556,21.7633,-50.9414,-5.4659,6.5572,3.4864
3007511.0,-36.4924,14.7698,-36.3919,-2.3482,10.2852,5.6878
3007521.0,-53.1249,4.0462,-26.4009,2.9687,14.1787,7.7859
3007531.0,-69.3672,-11.746,-21.239,8.2579,17.4357,8.8198
3007541.0,-77.2441,-25.6395,-6.6846,10.6566,17.4357,7.2538
3007551.0,-78.4532,-28.5509,16.9246,10.489,17.4357,3.537
3007561.0,-78.4532,-15.5264,26.8869,7.8348,17.4357,-0.779
3007571.0,-78.4532,-5.7102,65.0552,2.7281,17.4357,-4.5666
3007581.0,-76.794,21.2318,78.4508,1.2345,14.3692,-6.0985
3007591.0,-72.1325,9.572,78.4508,-2.2918,6.1821,-5.8692
3007601.0,-68.0983,28.8884,78.4508,2.7484,-2.6036,-3.9791
3007611.0,-59.5797,31.5628,62.2899,2.9266,-9.3338,-1.4484
3007621.0,-53.2327,20.9134,38.1109,2.0625,-13.1054,0.8296
3007631.0,-41.4963,14.3676,9.0405,3.3039,-12.8894,2.7116
3007641.0,-24.8135,2.3942,-5.4755,1.9491,-11.4633,3.4555
3007651.0,-15.7179,-4.8291,-13.046,0.7301,-8.9038,3.3034
3007661.0,-10.3262,-8.6957,-11.5927,-0.0298,-5.4584,2.6403
