time_ms,ax,ay,az,gx,gy,gz
245531.0,3.0191,-0.5363,9.7109,-0.1096,-0.1458,0.679
245541.0,3.1364,-0.5914,9.4284,-0.0516,-0.1548,0.7673
245551.0,3.2992,-0.6033,9.4523,0.0059,-0.1346,0.8477
245561.0,3.2513,-0.4357,10.0149,0.1128,-0.0431,0.9243
245571.0,3.0047,-0.1413,11.1043,0.2895,0.067,1.0201
245581.0,2.4876,0.0503,12.4187,0.4704,0.0692,1.1297
245591.0,1.9225,0.2251,12.9143,0.572,-0.1474,1.2361
245601.0,1.7789,0.0599,12.4475,0.4965,-0.5534,1.3207
245611.0,2.0806,-0.316,11.3054,0.2969,-0.9684,1.3633
245621.0,2.332,-0.838,10.0772,0.0889,-1.2478,1.3702
245631.0,2.5522,-1.2689,9.1315,-0.0096,-1.3553,1.3601
245641.0,2.8635,-1.5993,8.6766,0.1261,-1.2542,1.3643
245651.0,2.9401,-1.5945,8.9615,0.4592,-1.027,1.3856
245661.0,2.7797,-1.3431,8.9974,0.919,-0.8125,1.45
245671.0,2.6935,-1.3527,8.8705,1.3234,-0.671,1.5474
245681.0,3.0095,-1.47,8.078,1.574,-0.5577,1.6357
245691.0,3.5123,-1.7765,7.6471,1.5814,-0.381,1.6751
245701.0,3.8379,-2.0901,8.0661,1.3792,-0.149,1.6442
245711.0,3.7397,-2.2625,8.9232,1.0589,0.0239,1.5596
245721.0,3.3902,-2.3679,10.07,0.6726,0.0697,1.4479
245731.0,3.3208,-2.5618,11.2504,0.3006,0.0176,1.3329
245741.0,3.3064,-2.806,12.3325,-0.0027,-0.1123,1.2217
245751.0,3.3543,-2.9856,13.1944,-0.2027,-0.3171,1.1174
245761.0,3.4093,-3.0263,13.5847,-0.2911,-0.5646,1.0174
245771.0,3.2322,-2.7821,13.5608,-0.2836,-0.8035,0.9317
245781.0,3.3399,-2.557,13.0532,-0.2762,-1.0632,0.8615
245791.0,3.5745,-2.2793,12.3996,-0.2645,-1.268,0.8125
245801.0,3.7685,-2.1763,11.8776,-0.2607,-1.4096,0.7742
245811.0,4.1037,-2.1045,11.3533,-0.1974,-1.5091,0.7561
245821.0,4.3144,-1.8531,10.8936,-0.0484,-1.5447,0.7545
245831.0,4.2234,-1.5155,10.3382,0.1383,-1.5335,0.7849
245841.0,4.3407,-1.5131,9.9623,0.3044,-1.5229,0.8471
245851.0,4.5993,-1.7095,9.6391,0.4901,-1.4846,0.9216
245861.0,4.8818,-1.9369,9.5337,0.721,-1.3819,0.9871
245871.0,4.9895,-2.1428,9.7659,0.9626,-1.243,1.0355
245881.0,4.8961,-2.1284,10.1945,1.1478,-1.1648,1.0536
245891.0,4.7597,-1.9489,10.137,1.1893,-1.2398,1.0376
245901.0,4.7669,-1.8747,9.6822,1.0924,-1.4011,1.003
245911.0,4.8746,-1.7765,9.1099,0.9498,-1.524,0.9525
245921.0,4.9871,-1.6257,8.576,0.8024,-1.6075,0.8876
245931.0,5.0206,-1.1684,7.8697,0.6933,-1.6682,0.828
245941.0,4.9033,-0.5219,7.0725,0.6141,-1.7001,0.8077
245951.0,4.8243,-0.0551,6.2177,0.5577,-1.6714,0.8487
245961.0,4.8674,0.1915,5.4755,0.5231,-1.5963,0.9349
245971.0,5.0063,0.1317,4.8291,0.4816,-1.5165,1.0366
245981.0,5.2002,-0.1556,4.039,0.4677,-1.409,1.1371
245991.0,5.3774,-0.5674,3.5051,0.4864,-1.2568,1.209
246001.0,5.4947,-0.9984,3.1747,0.5491,-1.0892,1.243
246011.0,5.5067,-1.2809,3.1819,0.713,-0.8897,1.2473
246021.0,5.2888,-1.2522,3.4548,1.0238,-0.679,1.2361
246031.0,4.9081,-0.8404,3.9576,1.5133,-0.4661,1.2425
246041.0,4.3096,0.3376,3.7254,2.1354,-0.2975,1.3095
246051.0,3.7541,1.2306,3.1388,2.6973,-0.1655,1.4724
246061.0,3.5434,1.5778,2.083,3.1155,-0.0085,1.7022
246071.0,3.7254,0.9242,1.4485,3.3028,0.1857,1.9161
246081.0,3.1316,0.7518,0.237,3.3358,0.3916,2.0635
246091.0,3.0287,1.0127,-0.9888,3.0644,0.5779,2.1226
246101.0,4.0582,0.68,-1.5323,2.4621,0.7806,2.1338
246111.0,0.7949,0.1987,-0.8021,1.7288,1.0169,2.1183
246121.0,1.4724,-0.1748,-2.1308,1.143,1.0312,2.088
246131.0,2.0231,-0.4741,-3.1484,0.5736,1.2185,2.0077
246141.0,1.9776,-0.6249,-3.7661,0.1836,1.6799,1.9529
246151.0,2.3631,-1.1396,-3.7421,-0.0724,2.2423,1.938
246161.0,2.4038,-1.7549,-2.1308,-0.0293,2.9287,1.9156
246171.0,2.071,-1.0654,-2.1668,0.4688,3.653,1.9087
246181.0,0.4693,-0.6776,-1.9776,0.919,4.4038,1.9332
246191.0,-0.929,-0.3591,-1.2186,1.2936,5.1109,1.9406
246201.0,-2.1763,-0.1006,-0.7207,1.624,5.7463,1.9454
246211.0,-3.9121,0.2538,-0.7087,1.9124,6.4279,1.9486
246221.0,-6.1411,0.4453,-0.2682,1.9278,6.9967,1.9039
246231.0,-8.2911,0.3424,-0.2538,1.7012,7.4251,1.8374
246241.0,-10.6087,-0.1293,0.6033,1.4069,7.8588,1.7507
246251.0,-13.1681,-0.1867,2.0494,1.4085,8.4031,1.6629
246261.0,-16.1297,-0.7135,3.9049,1.8108,9.0289,1.6091
246271.0,-17.765,-1.2139,5.1571,2.6265,9.7371,1.5298
246281.0,-19.6851,-0.7781,4.0534,3.2507,10.5268,1.3085
246291.0,-22.6324,-1.5706,5.6719,2.6228,11.4053,0.9046
246301.0,-25.6036,-4.1228,13.635,0.7279,12.1519,0.3352
246311.0,-27.6458,-7.8626,27.8972,-1.6123,12.0311,-0.3198
246321.0,-26.6594,-9.232,38.0606,-3.3853,10.2889,-0.8844
246331.0,-25.4959,-11.0133,41.9775,-4.6501,7.5666,-1.2792
246341.0,-23.7337,-11.5688,39.545,-4.963,5.0466,-1.5123
246351.0,-22.5103,-11.9495,39.4277,-4.4532,3.5785,-1.6293
246361.0,-22.0745,-10.4842,39.3918,-2.916,2.7659,-1.5963
246371.0,-22.7186,-9.1818,41.4125,-1.1467,1.8922,-1.475
246381.0,-22.7353,-7.2353,40.3064,0.6236,0.5348,-1.2861
246391.0,-22.1416,-6.3135,37.1341,1.7102,-1.21,-1.1126
246401.0,-20.5734,-5.9975,31.6466,2.1056,-2.9532,-1.0286
246411.0,-19.1321,-6.0741,26.4248,1.9284,-4.3532,-1.0733
246421.0,-17.9924,-6.4045,21.8591,1.6203,-5.3328,-1.1962
246431.0,-17.0132,-6.2872,17.6046,1.5639,-5.8602,-1.3324
246441.0,-15.6461,-6.0501,13.8529,1.7139,-6.0485,-1.4489
246451.0,-14.3054,-5.6575,11.1306,2.0188,-5.8985,-1.5453
246461.0,-12.9622,-4.9129,9.2871,2.3541,-5.5803,-1.6331
246471.0,-11.4874,-4.0151,8.1092,2.5462,-5.2557,-1.7251
246481.0,-10.2113,-2.8299,7.2592,2.5116,-4.9715,-1.8342
246491.0,-9.1243,-1.3671,6.1172,2.1614,-4.7762,-1.9693
246501.0,-8.3342,0.0311,5.5833,1.4755,-4.582,-2.1316
246511.0,-8.1044,1.3384,6.2082,0.5773,-4.3655,-2.3025
246521.0,-8.1475,2.2745,7.3502,-0.3576,-4.3096,-2.4419
246531.0,-7.9176,2.715,8.3079,-1.1403,-4.4213,-2.5126
246541.0,-7.7021,2.9377,9.1004,-1.5633,-4.5277,-2.5078
246551.0,-7.4867,3.0789,9.7564,-1.6139,-4.6081,-2.4179
246561.0,-7.2496,3.0454,9.991,-1.3856,-4.7182,-2.2519
246571.0,-7.106,2.8802,9.9335,-1.035,-4.8827,-2.0428
246581.0,-7.082,2.7438,9.1315,-0.6811,-5.1604,-1.8235
246591.0,-6.9959,2.5043,8.0972,-0.3539,-5.452,-1.6102
246601.0,-6.6774,2.3343,7.1036,0.0234,-5.6234,-1.3904
246611.0,-6.3398,2.1931,6.1986,0.3725,-5.7543,-1.1754
246621.0,-5.9568,2.0925,5.0398,0.6497,-5.9336,-0.9668
246631.0,-5.5833,2.1021,3.371,0.8322,-6.115,-0.7678
246641.0,-5.3319,2.1237,1.4509,0.8929,-6.2406,-0.5848
246651.0,-5.1858,2.2913,-0.5195,0.762,-6.3279,-0.4342
246661.0,-4.8123,2.3679,-2.2936,0.4411,-6.3811,-0.3187
246671.0,-3.9145,2.1524,-3.6176,0.0926,-6.2938,-0.215
246681.0,-2.8012,1.6017,-3.9409,-0.2389,-6.0836,-0.1453
246691.0,-2.7797,1.3144,-4.2186,-0.4571,-5.8841,-0.1128
246701.0,-1.7573,0.984,-5.0566,-0.5694,-5.7399,-0.083
246711.0,-1.4988,0.7398,-5.4971,-0.539,-5.393,-0.0756
246721.0,-1.1756,2.332,-5.0757,-0.4278,-4.9838,-0.0394
246731.0,-1.0606,2.1189,-5.6671,-0.4071,-4.7252,0.2097
246741.0,2.9712,-0.0551,-5.8634,-0.506,-4.7778,0.3555
246751.0,8.0254,1.9824,-7.616,0.0835,-4.0526,0.4411
246761.0,2.6647,1.7071,-6.177,0.3076,-3.3225,0.6657
246771.0,2.3343,0.4381,-9.6199,0.5816,-3.0607,0.9642
246781.0,7.173,-1.3551,-13.5488,0.6917,-2.4365,0.9812
246791.0,9.979,-1.5658,-16.3716,0.5209,-1.2281,0.7263
246801.0,9.8138,-1.3264,-16.1633,0.0553,0.2272,0.4816
246811.0,8.6886,-1.8004,-14.0564,-0.3618,1.5038,0.3666
246821.0,8.5329,-2.4828,-12.6222,-0.4486,2.5424,0.3044
246831.0,8.0134,-2.66,-11.7148,-0.1825,3.6051,0.223
246841.0,6.857,-2.7414,-10.7524,0.2996,4.698,0.1485
246851.0,5.8179,-2.3343,-9.0237,0.8939,5.8735,0.0612
246861.0,2.897,-1.9704,-7.1922,1.648,6.9382,-0.0128
246871.0,0.6153,-1.8004,-5.3941,2.3881,7.7651,-0.1346
246881.0,-2.4229,-0.2586,-5.1188,3.3034,8.6979,-0.3076
246891.0,-6.1124,1.0223,-3.632,3.9254,9.5089,-0.5449
246901.0,-9.9766,2.9928,-3.1603,4.3788,10.2102,-0.7827
246911.0,-13.8505,4.628,-2.2936,4.4623,10.7769,-1.0014
246921.0,-17.3987,5.7676,-1.2019,4.2154,11.1557,-1.184
246931.0,-20.6021,6.9791,-0.0168,3.7844,11.4569,-1.342
246941.0,-22.9388,7.9895,1.6927,3.1576,11.6543,-1.4745
246951.0,-24.8805,9.2823,3.7565,2.4536,11.8555,-1.5038
246961.0,-26.1734,10.0317,7.1012,1.5202,11.9986,-1.3675
246971.0,-27.3681,8.8346,11.88,0.3198,12.0444,-1.0866
246981.0,-28.1941,5.2122,18.5527,-1.1871,11.6719,-0.8551
246991.0,-27.0856,0.3448,24.4233,-2.4216,10.9035,-0.7226
247001.0,-25.3905,-6.0454,30.9115,-3.2172,10.0234,-0.7146
247011.0,-23.2309,-11.1929,37.9098,-3.3151,9.0252,-0.9355
247021.0,-22.3116,-12.6893,43.7947,-2.7313,7.7406,-1.3979
247031.0,-22.3259,-10.3908,48.2647,-1.8949,5.9958,-1.9385
247041.0,-22.5893,-6.1196,49.8976,-1.0669,3.8248,-2.2854
247051.0,-22.7617,-2.1955,48.9638,-0.4273,1.3697,-2.3764
247061.0,-22.7617,0.838,44.9823,0.1958,-1.0754,-2.2141
247071.0,-22.4744,2.6001,38.743,0.8673,-3.1884,-1.8502
247081.0,-21.4975,2.9951,30.9546,1.4974,-4.8177,-1.3877
247091.0,-19.484,2.636,23.0418,1.9576,-5.858,-0.9525
247101.0,-16.9342,2.059,16.1704,2.1577,-6.2438,-0.6204
247111.0,-14.1497,1.4533,11.2911,2.0077,-6.1374,-0.415
247121.0,-11.5496,0.5028,8.7364,1.6033,-5.6798,-0.3315
247131.0,-9.3901,-0.1101,7.7788,1.061,-5.1173,-0.39
247141.0,-7.8602,-0.1532,8.1858,0.4209,-4.598,-0.5646
247151.0,-7.2018,0.1844,9.6845,-0.1687,-4.1207,-0.7705
247161.0,-7.0749,0.7757,11.8034,-0.6694,-3.8264,-0.953
247171.0,-7.5082,1.4006,14.1473,-1.0222,-3.7455,-1.069
247181.0,-8.1403,1.6759,16.7139,-1.1185,-3.8216,-1.0743
247191.0,-8.7388,1.5754,18.3755,-0.9812,-4.1446,-0.9849
247201.0,-9.3901,0.9864,18.9238,-0.7859,-4.7241,-0.861
247211.0,-9.7157,-0.1628,18.3516,-0.5827,-5.4281,-0.7466
247221.0,-9.809,-1.3503,17.0371,-0.4278,-6.1246,-0.7024
247231.0,-9.9048,-2.2314,15.3037,-0.3448,-6.794,-0.7428
247241.0,-9.9048,-2.7821,13.3764,-0.2751,-7.3905,-0.8407
247251.0,-9.8306,-2.8108,10.7955,-0.1208,-7.8678,-0.961
247261.0,-9.7516,-2.3822,7.6016,0.033,-8.2297,-1.0882
247271.0,-9.2967,-1.8268,4.6711,0.1862,-8.3414,-1.1909
247281.0,-8.2935,-1.1684,2.0566,0.3177,-8.2025,-1.2547
247291.0,-7.2975,-0.7111,0.747,0.3198,-8.004,-1.3175
247301.0,-6.189,-0.1437,-0.6393,0.3895,-7.7433,-1.3356
247311.0,-5.3582,0.1389,-1.4916,0.4225,-7.4639,-1.342
247321.0,-4.6783,0.7709,-2.1931,0.5013,-7.1846,-1.3542
247331.0,-4.628,1.8076,-2.1261,0.6806,-6.8089,-1.2622
247341.0,-2.9377,1.5921,-3.5386,0.8461,-6.6679,-1.0839
247351.0,-1.6137,0.8619,-5.0111,1.0759,-6.3705,-0.9711
247361.0,0.6512,0.7901,-7.6591,1.499,-5.8272,-0.8727
247371.0,3.4548,0.0694,-9.821,1.7655,-5.1466,-0.7923
247381.0,4.5801,-0.3615,-11.0947,2.1439,-4.0946,-0.7503
247391.0,6.0908,-0.7254,-10.9367,2.453,-3.0666,-0.7897
247401.0,4.8123,0.1532,-10.0676,2.9692,-1.9832,-0.8892
247411.0,5.5043,1.075,-9.0357,3.6572,-1.0658,-0.9328
247421.0,6.3758,1.7693,-7.7931,4.5065,-0.2251,-0.9126
247431.0,5.8993,3.1125,-7.1587,5.542,0.6274,-0.8189
247441.0,5.624,3.9361,-7.0342,6.2789,1.1792,-0.6944
247451.0,5.1667,4.8243,-8.4132,6.7232,1.6251,-0.5859
247461.0,5.521,5.8873,-11.0708,6.5317,1.9736,-0.522
247471.0,6.8115,7.2281,-14.212,5.5595,2.3823,-0.4832
247481.0,5.9448,7.865,-14.3269,3.8498,3.0815,-0.4347
247491.0,4.2114,7.9009,-12.6605,1.8661,3.6977,-0.3746
247501.0,2.9928,6.8474,-9.6103,0.0548,4.1558,-0.2932
247511.0,2.2242,5.8299,-7.8123,-1.201,4.5309,-0.1602
247521.0,1.2139,4.3024,-5.9759,-2.013,4.8965,0.0186
247531.0,0.237,2.8276,-4.4628,-2.2774,5.344,0.2118
247541.0,-0.6153,1.8723,-3.3662,-2.0859,5.8484,0.3709
247551.0,-1.913,1.2857,-2.4852,-1.632,6.3747,0.4885
247561.0,-3.3232,1.0511,-1.834,-1.0233,6.9223,0.5683
247571.0,-4.944,0.9242,-1.6281,-0.4049,7.482,0.6002
247581.0,-6.7109,0.6201,-2.0279,-0.0096,7.9838,0.5683
247591.0,-8.9902,0.0934,-2.6264,0.0325,8.4888,0.4699
247601.0,-11.6957,-0.6081,-2.7677,-0.3267,9.0401,0.2884
247611.0,-14.6597,-0.8404,-1.4581,-1.0142,9.6456,0.0319
247621.0,-16.3524,-1.3048,1.9441,-1.8273,10.1894,-0.1873
247631.0,-17.8153,-2.2625,4.853,-2.6755,10.5007,-0.2921
247641.0,-18.8065,-4.2234,6.9432,-3.8461,10.4629,-0.3874
247651.0,-19.4864,-6.6559,8.1977,-5.4393,10.1649,-0.5486
247661.0,-20.2071,-9.5289,10.6757,-7.3325,9.7185,-0.7428
247671.0,-20.8655,-11.2647,15.0452,-8.6729,9.3114,-0.82
247681.0,-21.1743,-11.0373,19.2685,-8.7979,8.9932,-0.6923
247691.0,-21.5502,-9.5433,22.2469,-8.0259,8.5149,-0.423
247701.0,-21.5023,-8.5473,24.1455,-6.927,7.8508,-0.0803
247711.0,-20.0826,-8.8849,26.0872,-5.8341,7.1191,0.2458
247721.0,-18.4138,-9.2512,28.005,-4.8938,6.1959,0.4363
247731.0,-17.5112,-8.7676,29.8701,-3.9515,5.2014,0.5199
247741.0,-17.5591,-7.185,31.5675,-2.8569,4.3234,0.6045
247751.0,-17.8153,-5.7557,33.854,-1.8182,3.421,0.7583
247761.0,-17.8153,-4.5562,35.3073,-1.0605,2.1939,0.9312
247771.0,-17.7698,-3.7373,34.7614,-0.8274,0.5672,1.0589
247781.0,-17.7123,-3.6823,32.6928,-1.0781,-1.2542,1.1281
247791.0,-17.5878,-4.3455,29.894,-1.3734,-2.9218,1.1808
247801.0,-17.8368,-5.284,26.9898,-1.2941,-4.1861,1.2499
247811.0,-18.4856,-6.5793,24.3179,-0.746,-5.0487,1.3516
247821.0,-18.4401,-8.4132,22.065,0.1086,-5.6638,1.4708
247831.0,-17.9038,-10.2855,19.7617,0.9567,-6.1778,1.5261
247841.0,-17.3675,-11.6047,17.1904,1.4426,-6.7387,1.4282
247851.0,-16.8767,-12.3613,14.7626,1.5224,-7.3096,1.1792
247861.0,-16.2662,-12.6821,12.1937,1.3697,-7.7933,0.828
247871.0,-15.5336,-12.7683,10.1083,1.1526,-8.1051,0.4369
247881.0,-14.6238,-13.0556,8.3079,1.0169,-8.2637,0.0202
247891.0,-13.295,-12.7707,6.031,0.9557,-8.3446,-0.4427
247901.0,-11.9231,-12.0716,3.4907,0.8503,-8.2994,-0.9131
247911.0,-10.6374,-11.1522,1.4557,0.6816,-8.0679,-1.3622
247921.0,-9.5313,-9.1842,-0.3496,0.4917,-7.7183,-1.7613
247931.0,-8.4539,-8.4324,-1.1181,0.2453,-7.2862,-2.0609
247941.0,-6.9839,-7.3406,-2.2505,0.124,-6.8345,-2.3626
247951.0,-5.6838,-6.3566,-3.0502,0.0287,-6.3311,-2.6563
247961.0,-4.3574,-5.138,-3.5075,-0.0234,-5.7883,-2.8952
247971.0,-3.3184,-4.2737,-3.8403,0.0303,-5.1673,-3.0362
247981.0,-2.3415,-3.6176,-3.9744,0.0937,-4.5831,-3.1379
247991.0,-1.4676,-3.0167,-4.3431,0.1767,-4.0329,-3.2267
248001.0,-0.8547,-2.2051,-4.9895,0.2629,-3.4688,-3.2959
248011.0,-0.0862,-1.7597,-5.43,0.2873,-2.8803,-3.3268
248021.0,0.7638,-1.5275,-5.9041,0.2943,-2.2758,-3.3374
248031.0,1.1851,-1.3408,-6.5697,0.2868,-1.6442,-3.3491
248041.0,1.6664,-1.1875,-7.3215,0.1836,-1.0472,-3.389
248051.0,1.7071,-0.6416,-8.4324,-0.0085,-0.4379,-3.4641
248061.0,1.5682,0.067,-9.2512,-0.3193,0.2065,-3.5423
248071.0,0.7877,0.68,-10.4459,-0.6439,0.9126,-3.5758
248081.0,-0.0718,0.7302,-11.0397,-0.9668,1.7352,-3.5497
248091.0,-0.2873,0.6393,-12.3684,-1.1712,2.7127,-3.4683
248101.0,-1.6281,0.5267,-11.643,-1.1738,4.0893,-3.3656
248111.0,-4.1013,0.5674,-9.0716,-0.9658,5.5318,-3.2533
248121.0,-6.7636,0.814,-5.9831,-0.513,6.728,-3.132
248131.0,-9.5385,1.2881,-3.6823,0.1538,7.6747,-2.9958
248141.0,-11.801,1.5658,-2.1428,0.7944,8.4106,-2.8463
248151.0,-13.6398,1.1779,0.7542,1.259,9.0608,-2.7249
248161.0,-15.3253,0.7685,4.6926,1.5995,9.4806,-2.7042
248171.0,-16.2159,0.5315,10.2208,1.7294,9.4993,-2.8255
248181.0,-16.52,1.3719,15.4019,1.7347,9.1667,-2.9788
248191.0,-15.7108,1.4796,21.7322,1.3989,8.4223,-3.0953
248201.0,-15.1218,0.4501,27.8589,1.0823,7.3751,-3.1528
248211.0,-13.9223,-0.5483,33.0376,0.8716,5.9229,-3.2597
248221.0,-13.7619,-0.3807,35.8508,0.9674,4.2473,-3.3922
248231.0,-14.3724,0.0335,35.9322,1.143,2.3227,-3.504
248241.0,-14.6765,0.7518,32.6306,1.3282,0.3539,-3.5848
248251.0,-14.6932,1.6089,27.1526,1.4511,-1.2957,-3.6577
248261.0,-13.7595,2.9066,20.9397,1.5405,-2.3158,-3.7131
248271.0,-13.034,4.5155,15.5192,1.5101,-2.6664,-3.7322
248281.0,-12.6558,5.6599,12.1027,1.2984,-2.5499,-3.6875
248291.0,-12.0907,6.0023,10.9032,1.1542,-2.0939,-3.5593
248301.0,-10.987,6.0908,10.7117,1.2063,-1.5575,-3.3779
248311.0,-9.7731,6.1818,11.1953,1.3601,-1.0264,-3.1756
248321.0,-8.2337,6.5362,11.8585,1.4122,-0.6167,-2.9836
248331.0,-7.094,6.9121,13.3118,1.126,-0.4379,-2.8292
248341.0,-6.505,7.0892,14.7004,0.5374,-0.5587,-2.6967
248351.0,-6.2537,6.6295,16.089,-0.2363,-0.928,-2.5728
248361.0,-6.043,5.5761,16.9605,-0.9174,-1.417,-2.453
248371.0,-5.6096,4.3646,16.9869,-1.3244,-1.906,-2.3461
248381.0,-5.2768,3.2537,16.441,-1.4213,-2.2221,-2.2487
248391.0,-4.6495,2.6767,15.1792,-1.358,-2.4328,-2.1795
248401.0,-3.8666,2.6288,13.4746,-1.3995,-2.5823,-2.1513
248411.0,-3.4644,2.6504,12.3493,-1.6315,-2.5754,-2.1338
248421.0,-3.4405,2.5809,11.9806,-1.9582,-2.4722,-2.1061
248431.0,-3.055,2.5283,12.1075,-2.2796,-2.3839,-2.0625
248441.0,-2.8443,2.2625,12.9431,-2.4834,-2.2594,-1.9832
248451.0,-2.648,2.0542,13.8912,-2.4754,-2.154,-1.8651
248461.0,-2.4541,1.8842,14.765,-2.3259,-2.1519,-1.7187
248471.0,-2.2793,1.9968,14.9662,-2.1205,-2.2812,-1.5564
248481.0,-2.1165,1.9225,14.7004,-2.0061,-2.535,-1.3979
248491.0,-1.8723,1.8364,13.8361,-1.9944,-2.8904,-1.2654
248501.0,-1.4174,1.8028,12.1602,-2.0571,-3.2677,-1.1648
248511.0,-0.9026,2.0351,10.2041,-2.1801,-3.5614,-1.0967
248521.0,-0.5986,2.5762,8.3917,-2.2929,-3.7104,-1.0318
248531.0,-0.3974,3.2513,6.6511,-2.3312,-3.7248,-0.9365
248541.0,-0.3855,3.7254,5.4396,-2.3163,-3.6248,-0.7939
248551.0,-0.4118,4.2473,4.2689,-2.1971,-3.4603,-0.5922
248561.0,-0.5076,4.6208,3.0263,-2.0151,-3.2757,-0.3368
248571.0,-0.3879,4.7309,1.7693,-1.7985,-3.0149,-0.0367
248581.0,-0.0096,4.616,0.7973,-1.5596,-2.6473,0.2932
248591.0,0.5914,4.4029,0.0622,-1.3537,-2.2317,0.6204
248601.0,1.0822,4.1922,-0.4597,-1.2042,-1.7826,0.9253
248611.0,1.2929,3.8834,-0.5578,-1.1137,-1.3175,1.2058
248621.0,1.2474,3.7254,-0.5578,-1.0302,-0.8849,1.4654
248631.0,0.9457,3.7828,-0.8308,-0.9833,-0.4922,1.7182
248641.0,0.4405,3.869,-1.1971,-1.0366,-0.1149,1.9757
248651.0,-0.1508,3.5745,-1.0702,-1.1818,0.2698,2.2583
248661.0,-0.747,2.8898,-0.5076,-1.3106,0.646,2.5616
248671.0,-1.1875,1.731,0.4764,-1.3234,0.9849,2.8633
248681.0,-1.5036,0.3663,1.3982,-1.144,1.2808,3.1421
248691.0,-1.822,-0.9529,2.0877,-0.7992,1.5575,3.3773
248701.0,-2.1237,-2.0638,2.7366,-0.3879,1.8204,3.5428
248711.0,-2.3391,-3.1053,3.6152,0.0032,2.0433,3.6322
248721.0,-2.6336,-3.9409,4.561,0.3613,2.2152,3.6476
248731.0,-2.8228,-4.5322,5.6383,0.6891,2.3445,3.6003
248741.0,-3.2082,-4.6878,6.9743,0.9919,2.4158,3.5056
248751.0,-3.7852,-4.6424,8.3127,1.2962,2.4163,3.3986
248761.0,-4.288,-4.2856,9.3901,1.6533,2.362,3.306
248771.0,-4.8483,-3.4237,9.5888,2.0029,2.2833,3.2347
248781.0,-5.7461,-2.8299,9.493,2.1774,2.2258,3.207
248791.0,-6.1746,-2.6528,9.4212,2.1449,2.2242,3.2038
248801.0,-6.2201,-2.8108,9.8521,1.905,2.2631,3.1778
248811.0,-6.3734,-3.0598,10.6518,1.5245,2.2876,3.1187
248821.0,-6.8067,-3.4453,12.1362,1.1095,2.2929,3.0378
248831.0,-7.2808,-3.8499,13.7714,0.8163,2.2253,2.9511
248841.0,-7.5226,-4.5777,15.2295,0.6369,2.022,2.8553
248851.0,-7.4148,-5.1739,16.0172,0.6002,1.7299,2.7388
248861.0,-7.0174,-5.4636,16.6038,0.6476,1.4202,2.5855
248871.0,-6.9623,-5.1451,16.7977,0.7774,1.1462,2.4222
248881.0,-7.2113,-4.4724,17.2119,0.9365,0.8987,2.2833
248891.0,-7.3909,-3.3854,17.1521,1.127,0.6194,2.1971
248901.0,-7.5824,-2.4421,16.6469,1.2404,0.306,2.1673
248911.0,-7.908,-2.0039,15.955,1.2632,0.0149,2.187
248921.0,-7.7548,-2.2984,15.1649,1.2611,-0.1958,2.2311
248931.0,-7.2113,-2.8156,14.3006,1.2377,-0.34,2.253
248941.0,-6.7924,-3.1268,13.3501,1.1733,-0.3906,2.2258
248951.0,-6.7516,-3.5099,13.1106,1.0445,-0.3257,2.1689
248961.0,-6.5984,-3.8188,13.283,0.8908,-0.2634,2.0949
248971.0,-6.4356,-3.9552,13.4937,0.7231,-0.2336,2.0034
248981.0,-6.3925,-4.027,14.0348,0.513,-0.2059,1.9092
248991.0,-6.462,-4.1851,15.1673,0.2517,-0.2437,1.814
249001.0,-6.4955,-4.197,16.1489,0.0239,-0.4331,1.7251
249011.0,-6.6559,-4.0438,16.4314,-0.1426,-0.738,1.657
249021.0,-6.8666,-4.0318,16.5152,-0.2831,-1.0727,1.6261
249031.0,-7.1443,-4.2737,16.6517,-0.2985,-1.3617,1.6384
249041.0,-7.3382,-4.5777,16.7666,-0.1506,-1.6378,1.6836
249051.0,-7.355,-4.9105,16.3021,0.1442,-1.8917,1.7496
249061.0,-7.2089,-5.3822,15.6724,0.4241,-2.1375,1.8049
249071.0,-6.9552,-6.0071,14.8129,0.6055,-2.3929,1.8129
249081.0,-6.5362,-6.7205,13.7284,0.6907,-2.6606,1.7554
249091.0,-6.0956,-7.3885,12.4068,0.7487,-2.8681,1.6336
249101.0,-5.4708,-8.0469,11.054,0.8099,-2.9703,1.4537
249111.0,-4.798,-8.5162,9.809,0.8924,-2.9777,1.2217
249121.0,-4.1061,-8.7532,8.6622,0.9876,-2.9096,0.944
249131.0,-3.4237,-8.5425,7.5346,1.0669,-2.7851,0.6295
249141.0,-2.9497,-7.9823,6.6152,1.1302,-2.5882,0.3033
249151.0,-2.6025,-7.2161,5.8802,1.1712,-2.3354,-0.009
249161.0,-2.4253,-6.5362,5.0566,1.1467,-2.0577,-0.3006
249171.0,-1.968,-5.9999,4.2976,1.0185,-1.7528,-0.5875
249181.0,-1.391,-5.4684,3.8164,0.7646,-1.4069,-0.8844
249191.0,-1.1899,-4.8028,3.6248,0.3677,-1.0562,-1.201
249201.0,-1.2929,-4.1228,4.2641,-0.1378,-0.704,-1.5245
249211.0,-1.5251,-3.5051,5.4253,-0.6109,-0.3629,-1.8118
249221.0,-1.8555,-3.2657,6.9911,-0.9759,-0.108,-2.0407
249231.0,-1.8292,-3.2537,8.3031,-1.1802,0.0346,-2.2285
249241.0,-1.6496,-3.213,9.2919,-1.2547,0.1096,-2.4062
249251.0,-1.5754,-3.2058,10.2639,-1.2632,0.149,-2.5791
249261.0,-1.6209,-2.9808,11.2887,-1.1903,0.1357,-2.7494
249271.0,-1.6831,-2.4157,11.8178,-1.0238,0.0474,-2.9069
249281.0,-1.9752,-1.5969,11.971,-0.8237,-0.0894,-3.0352
249291.0,-2.2051,-0.6416,11.7483,-0.6188,-0.2384,-3.124
249301.0,-2.3727,0.2394,11.5377,-0.4427,-0.3565,-3.1741
249311.0,-2.5067,1.0247,11.1091,-0.2969,-0.4699,-3.1826
249321.0,-2.5019,1.731,10.6973,-0.191,-0.5614,-3.1634
249331.0,-2.3655,2.5115,10.1466,-0.132,-0.6135,-3.1304
249341.0,-2.1093,3.4381,9.6582,-0.1804,-0.6492,-3.0905
249351.0,-1.9345,4.4005,9.505,-0.3209,-0.663,-3.033
249361.0,-1.9704,5.3103,9.505,-0.4922,-0.6705,-2.9373
249371.0,-2.0135,5.9568,9.7516,-0.6428,-0.6981,-2.792
249381.0,-1.9944,6.426,9.7971,-0.6742,-0.7274,-2.5999
249391.0,-1.8699,6.7157,9.4762,-0.6178,-0.7593,-2.3828
249401.0,-1.8459,7.0198,8.8394,-0.4901,-0.7423,-2.1529
249411.0,-1.8627,7.1491,8.6239,-0.3416,-0.6428,-1.9151
249421.0,-1.5802,7.0749,8.4563,-0.1958,-0.5465,-1.6756
249431.0,-1.1899,6.9887,7.9416,-0.0713,-0.4725,-1.4548
249441.0,-0.7446,6.9312,7.2592,-0.0692,-0.3991,-1.2702
249451.0,-0.4717,7.0629,6.8809,-0.1916,-0.2543,-1.1174
249461.0,-0.3855,7.3789,6.9312,-0.4401,-0.1181,-0.9817
249471.0,-0.3352,7.7428,7.2592,-0.7604,-0.0346,-0.8391
249481.0,-0.5746,8.2672,7.8027,-1.0589,0.0218,-0.6635
249491.0,-0.7661,8.6239,8.3797,-1.3079,0.0303,-0.4342
249501.0,-0.9529,8.8131,9.0309,-1.4644,-0.0085,-0.1559
249511.0,-1.0965,8.9256,9.3398,-1.4755,-0.0963,0.1676
249521.0,-1.2761,8.9256,9.323,-1.3446,-0.19,0.531
249531.0,-1.4868,8.7843,8.8538,-1.1047,-0.2533,0.928
249541.0,-1.8627,8.2959,8.2361,-0.8471,-0.2895,1.3351
249551.0,-1.9872,7.4436,7.5753,-0.5805,-0.2708,1.7363
249561.0,-1.8794,6.462,6.7109,-0.3081,-0.1953,2.1125
249571.0,-1.7909,5.4731,5.9376,-0.1032,-0.0654,2.4355
249581.0,-2.1069,4.5801,5.4277,0.0527,0.1495,2.7175
249591.0,-2.624,3.4453,5.4923,0.1655,0.4119,2.9777
249601.0,-3.067,2.1476,5.7365,0.2836,0.6518,3.2198
249611.0,-3.3519,0.656,5.9664,0.3858,0.8679,3.4241
249621.0,-3.474,-0.8619,6.268,0.447,1.0813,3.5758
249631.0,-3.6009,-2.5881,6.8331,0.4411,1.2771,3.6631
249641.0,-3.9313,-4.5969,7.7476,0.389,1.4442,3.6828
249651.0,-4.3431,-6.9097,8.8442,0.3496,1.5511,3.6221
249661.0,-4.3981,-9.505,10.2208,0.3464,1.5841,3.4603
249671.0,-3.8906,-11.8321,11.2934,0.4257,1.525,3.1788
249681.0,-3.2394,-13.7834,11.9782,0.5374,1.3893,2.784
249691.0,-2.7821,-15.0093,12.0764,0.6774,1.2366,2.2939
249701.0,-2.7054,-15.2606,11.564,0.7657,1.093,1.732
249711.0,-2.8754,-14.9494,10.6734,0.705,0.9754,1.144
249721.0,-3.0095,-14.2766,9.3278,0.4736,0.878,0.564
249731.0,-3.3686,-13.7954,7.8961,0.042,0.8253,0.0059
249741.0,-3.3662,-13.8648,6.9168,-0.4842,0.8801,-0.5172
249751.0,-2.8922,-14.3101,6.8331,-0.8929,1.0807,-1.011
249761.0,-2.466,-14.4897,7.4627,-1.06,1.3622,-1.491
249771.0,-2.5402,-14.224,8.5329,-0.9472,1.641,-1.9449
249781.0,-3.0526,-12.9598,8.904,-0.589,1.8438,-2.3684
249791.0,-3.699,-10.8601,9.0118,-0.2214,1.9715,-2.7516
249801.0,-4.2377,-8.4324,9.1459,0.0367,2.0327,-3.0607
249811.0,-4.7621,-5.8921,9.3948,0.2134,2.0715,-3.2815
249821.0,-5.205,-3.3495,10.1035,0.3682,2.1386,-3.4124
249831.0,-5.6024,-0.5411,10.908,0.5922,2.229,-3.4481
249841.0,-5.5665,2.3056,12.0309,0.8083,2.3184,-3.3848
249851.0,-5.715,5.4013,13.2519,0.9376,2.3663,-3.2187
249861.0,-6.1794,8.5305,14.3724,0.8328,2.2939,-2.9399
249871.0,-6.6655,10.6949,16.4146,0.4858,2.1114,-2.5392
249881.0,-6.7253,12.0093,17.8129,0.1527,1.8406,-2.013
249891.0,-6.4548,11.8226,19.7474,-0.1873,1.4878,-1.4362
249901.0,-6.1316,11.1067,20.8128,-0.3086,1.1004,-0.8684
249911.0,-6.0142,10.0245,21.3012,-0.3182,0.688,-0.3528
249921.0,-5.8969,9.0381,21.0642,-0.2666,0.2857,0.0894
249931.0,-5.7892,7.9296,20.5973,-0.2575,-0.0968,0.4661
249941.0,-5.6312,6.608,19.903,-0.3166,-0.4704,0.7769
249951.0,-5.3989,5.1451,19.0722,-0.4135,-0.8221,1.0227
249961.0,-5.0996,3.5482,18.3707,-0.5156,-1.1323,1.2047
249971.0,-4.9704,2.1189,17.753,-0.5523,-1.3915,1.3266
249981.0,-4.8602,0.8499,17.243,-0.5044,-1.6171,1.3957
249991.0,-4.8435,-0.3184,16.7187,-0.3602,-1.7969,1.4282
250001.0,-4.8842,-1.3862,16.4889,-0.1591,-1.9401,1.4181
250011.0,-4.6352,-2.2386,16.2518,0.0654,-2.1237,1.3702
250021.0,-4.4628,-2.8539,15.9262,0.3054,-2.3094,1.293
250031.0,-4.5945,-3.1771,15.4881,0.5374,-2.4674,1.2084
250041.0,-4.6471,-3.4788,15.1074,0.7285,-2.6276,1.1265
250051.0,-4.8315,-3.5865,14.5472,0.8812,-2.7989,1.0461
250061.0,-4.9728,-3.7373,13.8481,0.9748,-2.9687,0.9706
250071.0,-5.0302,-3.8882,13.1466,1.0477,-3.0948,0.9046
250081.0,-4.9273,-4.0941,12.3661,1.0738,-3.2054,0.837
250091.0,-4.7357,-4.4077,11.5448,1.0286,-3.3204,0.7583
250101.0,-4.5514,-4.7716,10.7643,0.9472,-3.3943,0.6604
250111.0,-4.3383,-5.2026,10.1658,0.8455,-3.439,0.5348
250121.0,-4.039,-5.5162,9.3901,0.7615,-3.4646,0.3799
250131.0,-3.6751,-5.7652,8.7269,0.6689,-3.4656,0.2022
250141.0,-3.2226,-5.9113,7.932,0.5582,-3.4497,-0.0016
250151.0,-2.7126,-5.8251,7.015,0.397,-3.4273,-0.2363
250161.0,-2.1668,-5.5881,5.9735,0.1793,-3.389,-0.4906
250171.0,-1.6281,-5.1619,4.9895,-0.0788,-3.3044,-0.7556
250181.0,-1.257,-4.5155,3.9385,-0.3805,-3.1905,-1.0201
250191.0,-0.9673,-3.5745,2.229,-0.7668,-3.0974,-1.2744
250201.0,-0.5387,-2.7773,0.4142,-1.3372,-2.9857,-1.5208
250211.0,0.3184,-2.1979,-1.5155,-2.0247,-2.7798,-1.7565
250221.0,1.4198,-2.0135,-3.1244,-2.8165,-2.4796,-1.9864
250231.0,2.4301,-2.296,-4.0318,-3.5742,-2.0391,-2.196
250241.0,2.7988,-2.332,-3.9552,-4.1489,-1.4351,-2.4083
250251.0,2.1165,-1.5874,-2.9544,-4.4825,-0.7843,-2.5978
250261.0,1.561,-1.2258,-1.2067,-4.59,-0.29,-2.7111
250271.0,1.3958,-0.3376,0.1125,-4.2564,0.1421,-2.7526
250281.0,0.826,1.2115,0.9481,-3.6221,0.5491,-2.6994
250291.0,0.5483,2.5331,2.2865,-2.9005,0.8285,-2.5307
250301.0,0.3352,4.0606,2.6695,-1.9071,1.0839,-2.2418
250311.0,0.3184,5.1858,2.7988,-0.9163,1.2691,-1.8672
250321.0,0.5076,6.1363,2.3152,0.0628,1.4362,-1.4335
250331.0,0.917,6.6798,1.2785,0.9472,1.6543,-0.9402
250341.0,1.1947,6.7876,0.2251,1.6155,1.9465,-0.447
250351.0,1.2857,6.857,-0.261,2.0917,2.3743,0.0085
250361.0,1.257,6.8905,-0.4573,2.3769,2.8543,0.4331
250371.0,0.759,6.5481,0.079,2.4685,3.3997,0.8051
250381.0,-1.5443,6.5888,1.0391,2.4392,3.9951,1.1339
250391.0,-3.79,5.7317,3.3495,2.2242,4.5081,1.4575
250401.0,-5.2146,4.1252,5.6096,1.93,4.8018,1.7405
250411.0,-5.3941,1.4892,8.0493,1.5548,4.921,1.9145
250421.0,-4.6855,-1.4629,10.975,1.1834,4.9471,1.9268
250431.0,-4.3551,-4.4867,14.8225,0.9557,4.8976,1.7938
250441.0,-4.0175,-7.1539,18.1002,1.0211,4.6618,1.5554
250451.0,-4.2545,-8.9687,20.7601,1.3106,4.3224,1.1824
250461.0,-4.7262,-9.2536,22.1488,1.5926,3.8631,0.6933
250471.0,-5.5162,-8.5856,22.5941,1.5543,3.2571,0.166
250481.0,-6.426,-7.8123,22.7258,1.126,2.5834,-0.3496
250491.0,-6.936,-7.1682,22.9293,0.4959,1.9449,-0.8195
250501.0,-7.0701,-6.948,23.1878,-0.0952,1.3819,-1.2137
250511.0,-7.2927,-6.6104,23.3291,-0.4709,0.9386,-1.533
250521.0,-7.6519,-6.019,23.3626,-0.5965,0.596,-1.7767
250531.0,-7.8003,-5.3151,23.2549,-0.5412,0.3044,-1.9486
250541.0,-7.7189,-4.7669,23.0657,-0.4603,0.0027,-2.0689
250551.0,-7.3406,-4.4317,22.8263,-0.4273,-0.357,-2.1689
250561.0,-6.6104,-4.1803,22.2589,-0.4651,-0.7801,-2.2737
250571.0,-6.0358,-3.9744,21.2414,-0.5848,-1.2505,-2.3993
250581.0,-5.7269,-3.6703,19.7689,-0.7817,-1.7469,-2.5478
250591.0,-5.6336,-3.2394,17.8631,-1.003,-2.2189,-2.7074
250601.0,-5.624,-2.7461,15.7347,-1.209,-2.6201,-2.8617
250611.0,-5.5043,-2.1596,13.3022,-1.367,-2.9197,-3.0022
250621.0,-5.1116,-1.5969,11.2887,-1.4585,-3.0863,-3.1182
250631.0,-4.3431,-0.9409,9.1794,-1.4282,-3.156,-3.2092
250641.0,-3.4524,-0.1484,7.082,-1.3074,-3.0974,-3.2821
250651.0,-2.7988,0.7781,5.2648,-1.1307,-2.9069,-3.3337
250661.0,-2.2051,1.8459,3.7637,-0.9573,-2.6159,-3.3592
250671.0,-1.8579,3.043,2.8754,-0.7955,-2.2668,-3.3459
250681.0,-1.4772,3.7302,1.8794,-0.6311,-1.9113,-3.3108
250691.0,-0.6225,6.1411,1.0894,-0.5997,-1.599,-3.2725
250701.0,-0.5698,7.1994,0.7039,-0.5316,-1.177,-3.0586
250711.0,-0.4764,7.695,-0.2658,-0.4044,-0.7764,-2.8101
250721.0,0.4836,7.6543,-0.9768,-0.3198,-0.3272,-2.5983
250731.0,1.2665,8.43,-1.1468,-0.2575,0.1442,-2.3961
250741.0,1.8938,8.9352,-1.6496,-0.2714,0.5396,-2.0843
250751.0,1.7765,8.2001,-2.3583,-0.3618,0.9557,-1.7517
250761.0,1.3815,9.086,-2.3559,-0.4033,1.5288,-1.4825
250771.0,0.9601,10.058,-1.3024,-0.4001,2.171,-1.0531
250781.0,-0.0455,10.2448,0.7853,-0.2863,2.7963,-0.4475
250791.0,-1.1325,9.4595,2.9521,-0.0309,3.2831,0.2065
250801.0,-1.9058,8.4922,5.102,0.2911,3.5843,0.7545
250811.0,-2.5402,7.7428,6.8163,0.6758,3.8009,1.21
250821.0,-3.2944,6.8953,8.5353,0.9924,3.9254,1.5974
250831.0,-4.0366,6.2177,9.9671,1.184,3.9163,1.8959
250841.0,-4.7046,5.4779,11.3605,1.209,3.77,2.1136
250851.0,-5.1787,4.4293,12.2104,1.1765,3.5343,2.2865
250861.0,-5.3702,3.4596,12.6462,1.1185,3.2709,2.3807
250871.0,-5.3558,2.8587,12.4929,0.9982,3.0267,2.3924
250881.0,-5.5545,2.5833,12.4451,0.7604,2.8436,2.344
250891.0,-6.2393,2.4732,12.5887,0.4028,2.685,2.2641
250901.0,-6.9336,2.4972,12.8425,-0.0266,2.4722,2.188
250911.0,-7.0318,2.2697,13.2639,-0.4108,2.2583,2.1561
250921.0,-7.3598,2.0399,13.8576,-0.6002,2.1295,2.1577
250931.0,-7.8219,1.8411,14.6549,-0.6492,1.9757,2.1896
250941.0,-7.8865,1.5802,15.1912,-0.4991,1.8134,2.2695
250951.0,-7.4843,1.336,15.184,-0.2432,1.6245,2.3573
250961.0,-6.9001,1.585,14.5041,-0.0096,1.4468,2.4216
250971.0,-6.5888,1.9489,14.1689,0.0782,1.3452,2.4722
250981.0,-6.8067,3.0023,13.0029,-0.0245,1.2265,2.5222
250991.0,-7.8027,2.7438,13.6805,-0.3251,1.1685,2.6302
251001.0,-8.3031,1.8028,14.0157,-0.4289,1.0956,2.8064
251011.0,-8.2863,0.0575,14.9063,-0.3528,1.0036,2.9713
251021.0,-7.8051,-1.1732,14.6022,-0.0532,0.8764,3.0602
251031.0,-7.5561,-2.0063,14.1042,0.2623,0.8189,3.0511
251041.0,-7.2736,-2.217,13.2495,0.4837,0.8445,2.9569
251051.0,-6.6918,-2.0662,12.5696,0.4651,0.9184,2.7787
251061.0,-6.1794,-1.3288,12.3445,0.1548,1.0036,2.5297
251071.0,-6.9121,-0.0766,12.8114,-0.4065,1.052,2.2727
251081.0,-8.7005,0.5746,14.1689,-1.0275,1.0206,2.0981
251091.0,-9.9359,0.1532,16.6565,-1.3691,0.9365,2.055
251101.0,-9.8426,-0.8882,18.7442,-1.2382,0.6992,2.1013
251111.0,-9.2105,-1.652,19.1919,-0.7694,0.3427,2.1455
251121.0,-8.8753,-1.9417,18.0307,-0.3161,-0.0255,2.1231
251131.0,-8.2696,-2.0016,16.7403,-0.1479,-0.2618,2.014
251141.0,-7.8314,-1.9656,16.2997,-0.2778,-0.3406,1.847
251151.0,-7.8171,-2.0039,16.6038,-0.6928,-0.4741,1.6272
251161.0,-7.7812,-1.9752,17.0563,-1.2286,-0.7726,1.383
251171.0,-8.0182,-2.2003,17.6548,-1.706,-1.1291,1.1653
251181.0,-7.7788,-2.466,17.8248,-2.021,-1.5484,0.978
251191.0,-7.5298,-2.5881,17.7602,-2.1444,-1.9795,0.8152
251201.0,-7.367,-2.4325,17.0635,-2.0859,-2.419,0.6838
251211.0,-7.0892,-2.1524,15.7419,-1.9039,-2.8271,0.5885
251221.0,-6.7564,-1.7166,13.9295,-1.6724,-3.1512,0.5252
251231.0,-6.3422,-1.2665,12.1386,-1.4335,-3.3401,0.4965
251241.0,-6.0645,-0.9673,10.6063,-1.1776,-3.3896,0.5114
251251.0,-5.4899,-0.929,9.153,-0.9253,-3.3592,0.5561
251261.0,-4.7238,-1.1468,7.8602,-0.7295,-3.2326,0.6008
251271.0,-4.0917,-1.5299,6.7756,-0.6795,-3.0708,0.6061
251281.0,-3.4022,-1.9273,6.1723,-0.7758,-2.9101,0.5518
251291.0,-2.8323,-2.1644,6.0525,-0.9115,-2.6882,0.4512
251301.0,-2.3391,-2.4636,6.675,-1.0318,-2.4711,0.331
251311.0,-2.6695,-2.4301,7.7835,-1.0137,-2.2977,0.2134
251321.0,-2.7605,-2.059,8.2025,-0.7992,-2.204,0.1378
251331.0,-2.6097,-1.9345,8.8059,-0.5773,-2.1998,0.0974
251341.0,-2.3607,-1.6185,8.6455,-0.3006,-2.2285,0.0931
251351.0,-2.162,-1.6041,8.4372,-0.1096,-2.2929,0.1048
251361.0,-1.9393,-1.6903,7.8338,-0.0005,-2.3908,0.116
251371.0,-1.7166,-2.0949,7.2281,0.0506,-2.4695,0.1064
251381.0,-1.2905,-2.4181,6.3279,0.124,-2.4956,0.0644
251391.0,-0.8547,-2.4684,5.1427,0.1969,-2.4243,-0.009
251401.0,-0.4214,-2.3655,4.525,0.1884,-2.2695,-0.1117
251411.0,-0.2969,-1.9968,4.1755,0.1926,-2.0407,-0.2118
251421.0,-0.2849,-1.6999,4.3407,0.2038,-1.823,-0.2905
251431.0,-0.3184,-1.3431,4.0797,0.3049,-1.6224,-0.3395
251441.0,-0.0287,-1.1564,3.6727,0.4241,-1.4175,-0.3757
251451.0,0.6177,-1.0415,2.818,0.48,-1.1845,-0.4278
251461.0,1.3168,-0.7925,2.0087,0.3416,-0.9073,-0.5236
251471.0,1.5012,-0.3424,2.047,0.0096,-0.5449,-0.6508
251481.0,1.1277,0.1676,3.1101,-0.4534,-0.2299,-0.7774
251491.0,0.5339,0.4788,4.5131,-0.92,-0.0543,-0.8647
251501.0,0.1844,0.2514,6.0908,-1.2643,-0.0128,-0.8998
251511.0,0.4118,-0.2131,7.3287,-1.3329,-0.0516,-0.8977
251521.0,0.8859,-0.5746,7.8482,-1.1073,-0.0867,-0.878
251531.0,1.257,-0.8021,7.9847,-0.7056,-0.0931,-0.8556
251541.0,1.6855,-0.656,7.5298,-0.2357,-0.0803,-0.8434
251551.0,1.9513,-0.2586,6.8307,0.1506,-0.0293,-0.8418
251561.0,2.1979,0.1652,6.2417,0.3608,0.0319,-0.8482
251571.0,2.3296,0.5435,5.6934,0.4017,0.0846,-0.8615
251581.0,2.5857,0.814,5.0518,0.3038,0.1261,-0.8801
251591.0,2.9592,0.9529,4.47,0.1086,0.207,-0.9104
251601.0,3.0646,1.1253,4.288,-0.1288,0.3507,-0.9519
251611.0,2.8635,1.3431,4.5107,-0.3432,0.5167,-0.9844
251621.0,2.7438,1.7573,4.6519,-0.4709,0.6721,-0.9929
251631.0,2.6839,2.2098,4.8052,-0.5215,0.8477,-0.9679
251641.0,2.5762,2.5786,5.2122,-0.5417,1.0318,-0.9078
251651.0,2.3008,2.9568,5.7245,-0.5348,1.1903,-0.8258
251661.0,1.9824,3.3782,6.1938,-0.4629,1.3207,-0.7152
251671.0,1.8124,3.8092,6.4548,-0.3219,1.4372,-0.5704
251681.0,1.7095,4.1037,6.2968,-0.1607,1.5777,-0.3943
251691.0,1.3767,4.1061,6.1914,-0.0809,1.7517,-0.2075
251701.0,1.0175,3.8595,6.3351,-0.091,1.9688,-0.0277
251711.0,0.8284,3.2202,7.039,-0.1884,2.196,0.1256
251721.0,0.5483,2.4038,7.8961,-0.3065,2.3748,0.2405
251731.0,0.3424,1.8052,8.6263,-0.4603,2.485,0.2996
251741.0,-0.0527,1.1756,9.8234,-0.6721,2.5472,0.3182
251751.0,-0.5171,0.7159,11.0205,-0.8088,2.5536,0.3278
251761.0,-1.0989,0.4573,12.1362,-0.8099,2.5419,0.3512
251771.0,-1.7238,0.17,13.4291,-0.6635,2.5243,0.3938
251781.0,-2.1524,-0.1963,14.4083,-0.4033,2.4483,0.4523
251791.0,-2.4469,-0.5626,14.88,-0.1139,2.304,0.4911
251801.0,-2.6576,-0.7709,14.8129,0.0958,2.146,0.4965
251811.0,-2.6312,-1.0534,14.6453,0.1522,2.0029,0.4629
251821.0,-2.5809,-1.4198,14.607,0.0213,1.889,0.3879
251831.0,-2.9544,-1.7478,15.1218,-0.2496,1.8182,0.2703
251841.0,-3.6176,-2.0423,16.259,-0.5688,1.6825,0.1437
251851.0,-3.9648,-2.4708,17.1975,-0.812,1.4048,0.0426
251861.0,-4.1539,-2.9305,17.7626,-0.8812,1.0802,-0.0271
251871.0,-4.221,-3.3591,18.0954,-0.7497,0.7865,-0.0724
251881.0,-4.0893,-3.6607,18.0714,-0.4613,0.5215,-0.1
251891.0,-3.9504,-3.9552,17.5016,-0.1394,0.2485,-0.1277
251901.0,-3.6679,-4.2282,16.5463,0.0782,-0.0165,-0.1932
251911.0,-3.3471,-4.4293,15.6916,0.1373,-0.2389,-0.3038
251921.0,-3.225,-4.707,15.0763,0.0734,-0.4321,-0.4475
251931.0,-3.0502,-4.9464,14.5615,-0.0261,-0.6263,-0.622
251941.0,-2.7988,-4.9967,13.7738,-0.0979,-0.8072,-0.8163
251951.0,-2.6528,-4.8722,12.9359,-0.1495,-0.9424,-1.0158
251961.0,-2.5067,-4.6735,12.153,-0.2065,-1.0201,-1.2132
251971.0,-2.2936,-4.4173,11.2863,-0.2873,-1.0786,-1.409
251981.0,-2.1141,-4.0773,10.659,-0.3879,-1.1164,-1.5985
251991.0,-1.8866,-3.6679,10.0604,-0.48,-1.1345,-1.7709
252001.0,-1.6664,-3.2753,9.4427,-0.5635,-1.1318,-1.9262
252011.0,-1.5706,-2.7892,8.9399,-0.6034,-1.0898,-2.0603
252021.0,-1.3647,-2.2051,8.1977,-0.6433,-1.0525,-2.1721
252031.0,-1.1564,-1.6807,7.7405,-0.7205,-1.0115,-2.2636
252041.0,-1.0175,-0.9266,7.1635,-0.7513,-0.9195,-2.3237
252051.0,-1.0343,-0.158,6.8163,-0.7684,-0.7881,-2.3456
252061.0,-1.1827,0.6704,6.7205,-0.7338,-0.6385,-2.3189
252071.0,-1.2833,1.4365,6.6032,-0.6391,-0.4832,-2.2349
252081.0,-1.154,1.992,6.462,-0.4943,-0.3272,-2.0992
252091.0,-0.9457,2.478,6.1292,-0.3347,-0.1628,-1.9369
252101.0,-0.7135,2.9521,5.6479,-0.2421,0.0213,-1.7719
252111.0,-0.4549,3.3926,5.2146,-0.2847,0.2395,-1.6107
252121.0,-0.4956,3.7709,4.9799,-0.5055,0.4752,-1.4649
252131.0,-0.7015,4.1994,5.2241,-0.9296,0.6902,-1.3324
252141.0,-1.1444,4.3455,6.5673,-1.499,0.8562,-1.1941
252151.0,-1.5251,4.2545,8.4013,-1.9928,0.8971,-1.027
252161.0,-1.4892,3.9265,9.8904,-2.2429,0.8035,-0.8189
252171.0,-1.1947,3.7517,10.4315,-2.2152,0.6444,-0.5848
252181.0,-0.972,3.8547,10.3166,-2.0029,0.5071,-0.3384
252191.0,-0.9313,4.276,9.5337,-1.7448,0.4113,-0.0846
252201.0,-1.1133,4.8387,8.6694,-1.5495,0.3762,0.1825
252211.0,-1.6664,5.2888,8.0972,-1.4069,0.4193,0.4789
252221.0,-2.5307,5.3463,7.9033,-1.2558,0.5247,0.8237
252231.0,-3.1843,4.5945,8.339,-1.0424,0.6476,1.2047
252241.0,-3.0502,3.3399,8.6526,-0.6822,0.77,1.574
252251.0,-2.6863,2.1883,8.8107,-0.2261,0.8945,1.8714
252261.0,-2.4852,1.3503,8.6957,0.2309,1.0621,2.0843
252271.0,-2.6552,0.8356,8.7867,0.5922,1.2856,2.2226
252281.0,-3.055,0.565,9.335,0.7646,1.4681,2.2955
252291.0,-3.6009,0.486,10.1706,0.7934,1.5649,2.3376
252301.0,-4.1922,0.237,11.1546,0.7732,1.5926,2.3754
252311.0,-4.4317,-0.1173,11.9686,0.7678,1.5649,2.4083
252321.0,-4.4819,-0.5722,12.4091,0.7306,1.4745,2.4131
252331.0,-4.5993,-0.9912,12.5217,0.588,1.3383,2.369
252341.0,-4.8722,-1.4413,12.5241,0.331,1.1935,2.2732
252351.0,-4.8794,-1.913,12.5815,-0.0133,1.0504,2.1322
252361.0,-4.786,-2.1691,12.56,-0.4081,0.9094,1.9518
252371.0,-4.853,-2.2314,12.7826,-0.829,0.7849,1.7671
252381.0,-5.0996,-2.1811,13.386,-1.2004,0.6635,1.6176
252391.0,-5.1763,-2.2194,14.0492,-1.4479,0.4816,1.5176
252401.0,-5.0039,-2.3343,14.5208,-1.5224,0.2485,1.4686
252411.0,-4.9297,-2.1979,14.777,-1.4021,0.0101,1.4654
252421.0,-4.9153,-1.9728,14.7363,-1.1233,-0.2293,1.5229
252431.0,-4.8435,-1.7861,14.267,-0.7364,-0.4555,1.6565
252441.0,-4.7166,-1.9537,13.5344,-0.3267,-0.646,1.8608
252451.0,-4.4652,-2.6288,12.6031,0.041,-0.8093,2.105
252461.0,-4.3191,-3.7445,11.6191,0.3501,-0.9168,2.3408
252471.0,-4.0486,-5.0685,10.5441,0.6284,-0.9493,2.5355
252481.0,-3.869,-6.62,9.3925,0.8647,-0.8801,2.6531
252491.0,-3.2058,-7.9583,8.6167,1.0435,-0.68,2.6616
252501.0,-3.0694,-8.6263,8.3869,1.1887,-0.3118,2.5664
252511.0,-3.96,-8.3893,7.9847,1.2084,0.0905,2.4349
252521.0,-4.1037,-9.8402,9.6199,0.8881,0.4268,2.3035
252531.0,-4.3646,-10.9008,11.7938,0.7003,0.7375,2.0438
252541.0,-4.6902,-11.0995,13.7475,0.6705,0.9488,1.6666
252551.0,-5.5929,-10.6446,16.6301,0.6763,1.0695,1.2537
252561.0,-6.1746,-9.5888,18.8256,0.7311,0.9668,0.8711
252571.0,-6.9528,-8.3869,20.8319,0.6832,0.6353,0.5114
252581.0,-7.355,-6.8594,21.9285,0.5507,0.0798,0.1873
252591.0,-7.4244,-5.3917,21.7848,0.315,-0.6029,-0.0894
252601.0,-7.6806,-3.9528,20.8176,-0.0415,-1.2877,-0.3315
252611.0,-7.9607,-2.5594,19.2925,-0.5055,-1.9082,-0.5385
252621.0,-7.9583,-1.4365,17.8488,-1.1153,-2.4674,-0.7136
252631.0,-7.5034,-0.9457,16.6493,-1.7507,-3.0022,-0.8461
252641.0,-6.7947,-0.8643,15.0356,-2.2184,-3.4582,-0.9402
252651.0,-6.2896,-0.8619,13.1681,-2.4727,-3.7679,-1.0153
252661.0,-5.8778,-0.9625,11.8705,-2.4919,-3.8695,-1.0605
252671.0,-5.2194,-0.7374,10.7188,-2.278,-3.8408,-1.0701
252681.0,-4.5155,-0.5315,9.6343,-2.0045,-3.8105,-1.0562
252691.0,-3.8307,-0.2155,8.2576,-1.7272,-3.7716,-1.0185
252701.0,-3.2394,0.0335,7.1467,-1.4952,-3.6652,-0.9541
252711.0,-2.4924,0.1939,6.3111,-1.3085,-3.5258,-0.8732
252721.0,-1.8435,0.1652,5.7126,-1.1637,-3.388,-0.7801
252731.0,-1.2689,0.0622,5.0613,-1.0291,-3.2634,-0.687
252741.0,-0.7207,0.0383,4.1396,-0.9562,-3.1868,-0.6082
252751.0,-0.2682,0.0335,3.1556,-0.9562,-3.115,-0.5438
252761.0,0.1269,0.0455,2.1596,-0.9802,-2.9915,-0.4816
252771.0,0.4597,-0.0718,1.2881,-1.0238,-2.834,-0.4214
252781.0,0.9266,-0.2346,0.2298,-1.0621,-2.6627,-0.365
252791.0,1.3408,-0.4693,-0.4693,-1.0467,-2.395,-0.3166
252801.0,1.7166,-0.4836,-1.0343,-0.9355,-2.0556,-0.2719
252811.0,2.0518,-0.4597,-1.1636,-0.7476,-1.6863,-0.224
252821.0,2.2218,-0.2729,-1.2546,-0.4076,-1.2627,-0.1559
252831.0,2.1859,0.0239,-1.336,0.0511,-0.8035,-0.0575
252841.0,2.0351,0.3687,-1.5107,0.5406,-0.34,0.0644
252851.0,1.9656,0.5291,-1.7526,1.0222,0.1208,0.2038
252861.0,1.9273,0.7135,-2.0087,1.4303,0.5938,0.3368
252871.0,2.0566,0.7374,-2.0566,1.6969,1.0493,0.4438
252881.0,1.8914,0.9888,-1.9704,1.8816,1.5101,0.5177
252891.0,1.4389,1.2929,-1.4916,1.9725,1.939,0.5715
252901.0,0.7302,1.6185,-0.7446,2.0518,2.3429,0.6274
252911.0,0.0239,1.8962,0.0982,2.1966,2.7191,0.6971
252921.0,-0.5148,2.0327,1.1109,2.4174,3.073,0.7838
252931.0,-0.9577,1.9824,2.3224,2.7148,3.4124,0.8652
252941.0,-1.4461,2.071,3.7685,3.0761,3.7259,0.9232
252951.0,-2.1668,2.4014,5.1212,3.4545,3.9712,0.9535
252961.0,-2.6815,2.9736,5.9496,3.7455,4.1026,0.9466
252971.0,-3.5003,3.8307,6.505,3.8525,4.1957,0.9073
252981.0,-4.4101,4.8674,7.252,3.7104,4.2723,0.8578
252991.0,-5.2313,5.7054,8.4132,3.3869,4.3713,0.8423
253001.0,-5.9711,6.2225,10.1682,2.9426,4.4756,0.8673
253011.0,-6.7086,6.3949,12.2727,2.386,4.5283,0.9253
253021.0,-7.4843,5.9424,15.0739,1.7789,4.5075,1.0052
253031.0,-8.0637,5.126,18.1648,1.2366,4.3809,1.094
253041.0,-8.5928,4.0845,21.3371,0.8019,4.126,1.1744
253051.0,-9.074,2.8228,24.3586,0.4699,3.6854,1.2409
253061.0,-9.3948,1.4198,27.0281,0.2959,3.0724,1.2845
253071.0,-9.2129,0.3376,28.424,0.3539,2.3163,1.3
253081.0,-8.9854,-0.5267,28.4718,0.5353,1.524,1.2851
253091.0,-8.6215,-1.1995,27.3681,0.7077,0.8077,1.2212
253101.0,-8.0349,-1.5897,25.594,0.7247,0.2139,1.0834
253111.0,-7.3167,-1.8124,23.8008,0.4624,-0.2831,0.8594
253121.0,-6.6248,-1.9345,22.3954,-0.0229,-0.6705,0.5779
253131.0,-6.2968,-2.0327,21.7465,-0.5912,-0.9743,0.2778
253141.0,-6.2201,-2.0518,21.4281,-1.0632,-1.2755,-0.0005
253151.0,-6.1483,-1.9752,20.82,-1.367,-1.6208,-0.2379
253161.0,-5.9065,-1.8196,19.7234,-1.516,-1.9731,-0.4353
253171.0,-5.6551,-1.5083,18.512,-1.5495,-2.2679,-0.5954
253181.0,-5.3247,-1.0319,17.2143,-1.5022,-2.4945,-0.7242
253191.0,-5.1092,-0.5411,15.8424,-1.4436,-2.6978,-0.8274
253201.0,-4.9512,-0.0503,14.3101,-1.4181,-2.8904,-0.9083
253211.0,-4.6663,0.2203,12.9526,-1.4138,-3.0325,-0.9738
253221.0,-4.221,0.4238,11.4347,-1.4261,-3.1235,-1.0339
253231.0,-3.814,0.486,10.1586,-1.4819,-3.1714,-1.0956
253241.0,-3.5865,0.4022,9.2153,-1.5171,-3.14,-1.1499
253251.0,-3.5554,0.0215,8.7173,-1.5282,-3.0708,-1.2036
253261.0,-3.1699,-0.4717,8.497,-1.4442,-2.9985,-1.2675
253271.0,-2.66,-0.6895,8.0828,-1.2861,-2.9665,-1.358
253281.0,-2.2697,-0.6009,7.3837,-1.1382,-2.9628,-1.466
253291.0,-1.9656,-0.2993,6.7157,-1.0089,-2.9362,-1.5724
253301.0,-1.7047,0.2514,5.873,-0.8955,-2.8755,-1.6575
253311.0,-1.3288,0.9074,5.1547,-0.7897,-2.7877,-1.7075
253321.0,-0.9385,1.6376,4.4819,-0.6907,-2.6664,-1.7113
253331.0,-0.5052,2.3774,3.7517,-0.6236,-2.535,-1.6671
253341.0,-0.1652,2.885,3.1101,-0.6002,-2.3738,-1.5735
253351.0,0.3065,3.0765,2.6863,-0.6242,-2.2008,-1.4468
253361.0,0.9098,3.1747,2.2936,-0.6854,-2.0481,-1.3159
253371.0,1.3431,3.1747,1.9776,-0.7599,-1.8853,-1.1845
253381.0,1.7765,3.1029,1.6975,-0.8328,-1.7182,-1.0477
253391.0,2.2314,2.9616,1.4174,-0.887,-1.5575,-0.9147
253401.0,2.4972,2.8563,1.075,-0.8929,-1.3718,-0.7801
253411.0,2.6863,2.6863,0.747,-0.862,-1.1632,-0.6439
253421.0,2.8563,2.557,0.3017,-0.7944,-0.9365,-0.5114
253431.0,3.0311,2.4708,-0.2801,-0.713,-0.6923,-0.3805
253441.0,3.158,2.2865,-0.8284,-0.6412,-0.4129,-0.2512
253451.0,3.2537,2.1668,-1.3001,-0.5422,-0.0633,-0.1277
253461.0,3.146,2.2242,-1.5562,-0.3938,0.3496,-0.0043
253471.0,2.8012,2.3774,-1.4078,-0.1304,0.845,0.1421
253481.0,2.2793,2.3679,-0.9553,0.2969,1.4117,0.3331
253491.0,1.7502,2.2122,-0.431,0.8493,1.9805,0.5433
253501.0,1.3767,1.9058,-0.3065,1.4537,2.5366,0.7407
253511.0,1.1181,1.506,-0.4501,1.9853,3.115,0.8854
253521.0,0.6009,1.415,-0.3136,2.3509,3.7509,0.9519
253531.0,-0.3903,1.5514,0.7302,2.4589,4.3825,0.9599
253541.0,-1.4293,1.5131,2.5498,2.3051,4.897,0.9296
253551.0,-2.6288,1.4317,4.9943,2.0188,5.2711,0.8764
253561.0,-4.1084,1.1492,8.193,1.7794,5.568,0.8306
253571.0,-5.4827,0.6967,11.8537,1.724,5.7851,0.803
253581.0,-6.5242,0.3711,15.3756,1.8262,5.8431,0.7577
253591.0,-7.3334,0.249,18.4713,1.8874,5.6808,0.6667
253601.0,-7.762,0.2274,21.2629,1.7501,5.278,0.5044
253611.0,-8.3294,0.6536,23.8008,1.3989,4.7087,0.282
253621.0,-8.9376,1.1301,25.9292,0.861,3.9642,0.0474
253631.0,-9.7779,1.0774,28.6921,0.3155,3.2086,-0.1442
253641.0,-10.2903,1.1325,30.9738,-0.0112,2.3413,-0.2857
253651.0,-10.2185,1.1612,31.8979,-0.1873,1.2132,-0.3852
253661.0,-9.9527,1.3144,30.6338,-0.2283,0.0053,-0.4417
253671.0,-9.3087,1.4629,28.0337,-0.2267,-1.061,-0.4773
253681.0,-8.5401,1.6137,24.4759,-0.2331,-1.8938,-0.4991
253691.0,-7.5274,1.549,20.741,-0.3038,-2.4483,-0.522
253701.0,-6.675,1.3719,17.5208,-0.4566,-2.6808,-0.5577
253711.0,-5.6192,1.063,15.457,-0.7019,-2.7239,-0.6109
253721.0,-4.8195,0.7302,14.2599,-0.9355,-2.6536,-0.6678
253731.0,-4.1396,0.2251,13.5512,-1.1776,-2.6185,-0.7348
253741.0,-3.5243,-0.2155,12.7539,-1.3835,-2.6345,-0.8109
253751.0,-3.0694,-0.6488,12.2511,-1.5575,-2.668,-0.9014
253761.0,-2.6001,-0.905,11.734,-1.6469,-2.7079,-0.9945
253771.0,-2.1811,-1.0463,11.2623,-1.6432,-2.7553,-1.0818
253781.0,-1.7909,-1.0056,10.6111,-1.5495,-2.8149,-1.16
253791.0,-1.5443,-0.8021,9.8521,-1.3973,-2.8649,-1.2196
253801.0,-1.3096,-0.4836,8.9495,-1.2036,-2.8979,-1.251
253811.0,-1.0606,-0.1341,7.8171,-1.0068,-2.9208,-1.259
253821.0,-0.6823,0.0814,6.6966,-0.8423,-2.9149,-1.2499
253831.0,-0.2394,0.2586,5.4564,-0.6965,-2.8511,-1.2313
253841.0,0.1652,0.3639,4.5993,-0.589,-2.7398,-1.2143
253851.0,0.4238,0.5171,3.7685,-0.4688,-2.5914,-1.1999
253861.0,0.68,0.6464,2.9951,-0.373,-2.46,-1.1919
253871.0,0.7398,0.9242,2.0016,-0.2432,-2.2748,-1.1808
253881.0,0.8452,1.2522,1.3408,-0.0681,-1.9944,-1.1563
253891.0,1.245,1.6712,0.8811,0.1532,-1.6735,-1.1164
253901.0,1.6233,2.1668,0.3496,0.4427,-1.3085,-1.0536
253911.0,2.047,2.6288,-0.5962,0.7093,-0.9179,-0.9727
253921.0,2.3655,3.158,-1.4126,0.8801,-0.4699,-0.8961
253931.0,2.4277,3.8259,-1.9393,0.9456,0.0591,-0.8163
253941.0,2.15,4.5035,-1.8794,0.8945,0.6135,-0.7194
253951.0,1.7238,5.1906,-1.5538,0.7418,1.1244,-0.5933
253961.0,1.1971,5.7269,-1.1253,0.5013,1.5607,-0.4262
253971.0,0.6345,6.0334,-0.8763,0.1756,1.9241,-0.2139
253981.0,0.2227,5.8059,-0.3256,-0.1942,2.27,0.0484
253991.0,-0.2897,4.877,0.6464,-0.5076,2.6238,0.3411
254001.0,-0.9529,3.5171,1.98,-0.6465,2.9633,0.6226
254011.0,-1.6448,2.1739,3.474,-0.4949,3.3071,0.8705
254021.0,-2.2865,1.1277,5.1763,-0.0378,3.6721,1.0706
254031.0,-2.6264,0.4884,6.7924,0.6423,4.0127,1.2153
254041.0,-2.9042,-0.1676,8.7293,1.3723,4.3021,1.3154
254051.0,-3.2178,-0.8188,10.738,2.1066,4.5277,1.3713
254061.0,-3.541,-1.4341,12.3421,2.6707,4.5772,1.3404
254071.0,-3.8307,-2.0159,13.86,2.9314,4.4511,1.1994
254081.0,-3.9959,-2.715,15.6389,2.9857,4.2686,0.9647
254091.0,-4.0941,-3.1915,17.8512,2.9708,4.0744,0.6444
254101.0,-4.3862,-2.7054,19.7282,2.8569,3.7705,0.2293
254111.0,-4.9129,-1.1827,21.0666,2.5153,3.2959,-0.2426
254121.0,-6.0358,1.1827,22.1655,1.9848,2.7739,-0.6981
254131.0,-7.5848,3.9385,23.5063,1.3415,2.2753,-1.0568
254141.0,-9.1889,6.256,25.5222,0.729,1.8055,-1.2595
254151.0,-10.3286,8.3606,27.2819,0.3725,1.3313,-1.2978
254161.0,-11.2719,9.8952,29.2284,0.2038,0.8652,-1.1919
254171.0,-11.7244,11.2504,30.8301,0.1655,0.3336,-0.9817
254181.0,-11.9423,12.0979,31.953,0.0458,-0.3964,-0.7184
254191.0,-12.0189,12.3397,32.2164,-0.1862,-1.3324,-0.4331
254201.0,-12.1171,11.813,31.7208,-0.4044,-2.3158,-0.1389
254211.0,-12.0069,11.0636,29.9946,-0.5023,-3.2863,0.1399
254221.0,-12.1673,10.1873,27.2197,-0.5848,-4.1813,0.373
254231.0,-12.153,9.2129,24.0545,-0.7285,-4.9902,0.5374
254241.0,-11.4539,8.4108,20.6931,-0.8365,-5.6154,0.6455
254251.0,-10.6614,7.9966,17.3149,-0.9461,-6.0507,0.713
254261.0,-9.9958,7.6734,14.188,-1.1808,-6.3705,0.7556
254271.0,-9.5912,7.3023,11.7914,-1.4489,-6.5365,0.7966
254281.0,-9.2895,6.778,9.8114,-1.6708,-6.6189,0.8535
254291.0,-8.8322,6.201,7.9727,-1.8177,-6.6855,0.9339
254301.0,-8.3342,5.4013,6.3015,-1.8651,-6.7062,1.0403
254311.0,-7.8051,4.3359,4.3981,-1.8491,-6.6934,1.1616
254321.0,-7.1635,3.0215,2.4134,-1.8661,-6.6583,1.2547
254331.0,-6.0382,1.7023,-0.0503,-1.9507,-6.6025,1.293
254341.0,-4.6855,0.316,-2.2482,-2.1354,-6.4253,1.2611
254351.0,-3.383,-0.8404,-4.5466,-2.4227,-6.1539,1.1483
254361.0,-2.0039,-2.2482,-6.0286,-2.8681,-5.825,0.9418
254371.0,-0.9266,-3.4788,-6.8833,-3.3417,-5.4307,0.6492
254381.0,-0.1652,-3.7709,-6.9097,-3.7684,-5.0082,0.2857
254391.0,0.6752,-2.2027,-6.8498,-4.0792,-4.5719,0.0144
254401.0,1.3144,-3.2537,-7.3358,-4.5442,-4.3277,-0.1618
254411.0,2.4565,-4.039,-7.6136,-5.0024,-4.1175,-0.5949
254421.0,2.9137,-2.9353,-7.9918,-5.2844,-3.7248,-1.1744
254431.0,2.5139,-1.1253,-6.8738,-5.3829,-3.2517,-1.6368
254441.0,1.5371,1.1899,-4.889,-5.0561,-2.7824,-1.8156
254451.0,-0.9864,3.6512,-4.3574,-4.3383,-2.502,-1.7315
254461.0,0.2107,3.553,-4.4652,-3.6673,-2.6079,-1.5011
254471.0,2.8587,5.7533,-9.3374,-2.3104,-2.0609,-1.1419
254481.0,2.5331,6.0071,-9.4308,-1.7416,-1.5591,-0.8285
254491.0,1.6089,7.6423,-12.7611,-0.9551,-0.9668,-0.4262
254501.0,1.9704,7.7381,-14.0803,-0.4193,-0.1873,0.0335
254511.0,2.2697,7.7381,-15.6413,0.0734,0.7306,0.5028
254521.0,1.312,7.75,-15.876,0.4645,1.8044,0.9264
254531.0,-0.431,7.6519,-15.7299,0.7359,2.8239,1.334
254541.0,-1.8124,6.8163,-15.2918,0.9163,3.7886,1.7453
254551.0,-3.292,5.5737,-14.4849,0.9919,4.7214,2.079
254561.0,-4.7836,4.1276,-12.572,1.0632,5.6585,2.3051
254571.0,-6.4069,2.897,-9.7516,1.3351,6.5546,2.4312
254581.0,-8.2049,2.0446,-7.015,1.9608,7.3373,2.4786
254591.0,-10.0628,1.5419,-5.2984,3.033,8.087,2.4701
254601.0,-11.655,1.561,-4.4987,4.4548,8.9565,2.3796
254611.0,-14.4729,2.5474,-2.0758,6.1283,10.1985,2.2157
254621.0,-17.3604,4.2401,-2.6887,7.7513,11.1568,2.0236
254631.0,-21.7729,5.8347,-3.0813,9.03,12.2524,1.6581
254641.0,-26.5062,9.6414,-4.6256,10.0532,13.7945,1.1068
254651.0,-31.6873,15.8185,-1.7573,10.1309,15.6798,0.4374
254661.0,-44.9631,26.5182,9.1578,8.8682,17.4357,0.0458
254671.0,-50.5943,28.4072,25.9268,3.9935,16.4002,-0.0436
254681.0,-43.9839,19.077,46.2153,-1.4372,13.6732,0.1889
254691.0,-41.4412,9.6798,65.6394,-3.3252,11.8124,0.7396
254701.0,-38.8627,4.1922,78.4508,-2.5025,9.213,1.2026
254711.0,-34.7087,1.5155,78.4508,-1.4303,4.7347,1.3117
254721.0,-29.2883,-0.4908,69.5899,-1.3989,-0.472,1.0424
254731.0,-25.9579,-0.3783,55.3755,-1.5782,-4.3458,0.5816
254741.0,-24.1575,1.9249,40.6775,-1.6421,-6.6562,0.1463
254751.0,-21.6651,3.7924,27.9236,-1.6921,-7.7492,-0.0894
254761.0,-17.1736,4.5825,17.4513,-1.6815,-7.7806,-0.1155
254771.0,-12.1673,4.3934,10.0221,-1.6911,-6.9324,-0.0037
254781.0,-9.2105,3.383,7.5992,-1.8214,-5.4941,0.1266
254791.0,-8.406,2.4732,8.4108,-1.9614,-4.1329,0.2017
254801.0,-8.0158,0.8739,11.8274,-2.0465,-3.2459,0.2304
254811.0,-7.2472,-0.5124,14.7172,-1.7395,-2.759,0.2373
254821.0,-6.8881,-1.4844,17.8392,-1.2409,-2.5573,0.1804
254831.0,-6.8354,-1.2258,19.9557,-0.6827,-2.7228,0.0718
254841.0,-7.5298,-0.2442,20.8056,-0.3427,-3.3028,-0.0399
254851.0,-8.4779,0.9768,20.0012,-0.2075,-4.1569,-0.1064
254861.0,-9.1171,1.8747,17.7841,-0.2698,-5.1163,-0.1165
254871.0,-9.347,2.3415,14.2527,-0.4475,-6.0347,-0.0745
254881.0,-8.9471,2.4828,9.6055,-0.6316,-6.7195,0.0117
254891.0,-8.3438,2.2051,5.1619,-0.8051,-7.0186,0.1203
254901.0,-7.695,1.8507,1.336,-0.9786,-6.9914,0.215
254911.0,-6.766,1.3743,-1.4676,-1.2207,-6.7765,0.2735
254921.0,-5.3774,0.8954,-3.6943,-1.4963,-6.4258,0.2868
254931.0,-4.0749,0.4549,-4.956,-1.8071,-5.9527,0.2426
254941.0,-2.7126,0.158,-5.2912,-2.1774,-5.4792,0.1415
254951.0,-1.8747,0.4094,-5.0853,-2.4775,-5.0072,0.0069
254961.0,-1.1588,0.7638,-5.1284,-2.7425,-4.6581,-0.1288
254971.0,-0.6584,1.9872,-5.8059,-3.0788,-4.4431,-0.2405
254981.0,-0.4884,2.4062,-6.3973,-3.5332,-4.2383,-0.2613
254991.0,0.4405,1.901,-6.4548,-4.0669,-4.0967,-0.2836
255001.0,1.324,1.6017,-6.9552,-4.4256,-3.9094,-0.3352
255011.0,2.0255,1.0056,-6.7708,-4.6017,-3.645,-0.3943
255021.0,2.6552,0.7039,-7.0605,-4.3282,-3.2267,-0.4214
255031.0,3.3854,0.7661,-7.5082,-3.6471,-2.6276,-0.4071
255041.0,3.9313,0.8691,-7.8817,-2.6483,-1.8549,-0.3272
255051.0,4.2713,1.0942,-8.4898,-1.3888,-0.9307,-0.1841
255061.0,4.5562,1.1396,-8.9423,-0.066,0.0686,-0.0074
255071.0,4.5083,1.2881,-9.5457,1.2026,1.1228,0.166
255081.0,3.8738,1.3862,-9.4834,2.2178,2.179,0.2937
255091.0,2.8228,1.7645,-9.4188,2.9325,3.1368,0.3565
255101.0,1.7621,2.0806,-8.9926,3.2954,3.9717,0.365
255111.0,0.4788,2.5618,-8.4156,3.439,4.739,0.3469
255121.0,-0.7757,2.909,-7.331,3.4188,5.4393,0.3219
255131.0,-2.4397,3.1268,-5.5976,3.405,6.0959,0.3113
255141.0,-3.7278,3.2585,-3.8259,3.5359,6.661,0.3219
255151.0,-5.1667,3.2729,-2.3774,3.8339,7.1692,0.3251
255161.0,-6.5362,3.3974,-1.0678,4.2814,7.6826,0.2996
255171.0,-8.2337,3.9217,0.8164,4.8401,8.2547,0.2357
255181.0,-9.4739,4.9153,2.2673,5.22,8.6192,0.1192
255191.0,-11.0421,6.2896,4.2018,5.2653,8.9331,-0.0234
255201.0,-13.0197,8.181,6.7325,4.8076,9.1694,-0.1676
255211.0,-14.5783,9.2536,11.1498,3.7008,9.1901,-0.2873
255221.0,-16.0244,9.6845,16.6158,2.3913,9.0518,-0.3576
255231.0,-17.7722,9.8545,24.1024,1.2015,8.8698,-0.3666
255241.0,-18.6939,9.651,31.4718,0.1953,8.2775,-0.299
255251.0,-18.9166,8.521,39.1189,-0.7779,7.1399,-0.2054
255261.0,-19.235,6.4907,45.0708,-1.4213,5.484,-0.0915
255271.0,-18.16,4.6112,48.0732,-1.6086,3.405,-0.0133
255281.0,-17.4777,3.9456,47.0102,-1.2627,1.3276,0.0532
255291.0,-16.8145,3.9385,43.1411,-0.7317,-0.5385,0.1155
255301.0,-15.8137,4.7381,37.2514,-0.2528,-1.9635,0.1729
255311.0,-14.3054,5.1954,32.1517,-0.1192,-2.875,0.2171
255321.0,-12.9,5.6048,27.9475,-0.2426,-3.3741,0.2623
255331.0,-11.6334,5.3103,25.0266,-0.5667,-3.6189,0.3198
255341.0,-10.3573,4.458,22.855,-1.0163,-3.7876,0.3709
255351.0,-9.3158,3.2872,21.1839,-1.6096,-4.018,0.3656
255361.0,-8.5473,1.9225,19.9485,-2.1886,-4.2904,0.3054
255371.0,-7.9416,0.6369,18.7155,-2.6228,-4.6214,0.2001
255381.0,-7.4867,-0.4884,17.109,-2.9101,-5.0444,0.0569
255391.0,-7.1706,-1.1947,14.801,-2.9883,-5.4339,-0.1032
255401.0,-6.8115,-1.7789,12.5265,-2.908,-5.7037,-0.2751
255411.0,-6.3255,-1.8627,9.6702,-2.7409,-5.949,-0.4651
255421.0,-5.7413,-1.7621,6.3925,-2.6223,-6.1645,-0.6699
255431.0,-4.8195,-1.3791,2.9999,-2.5504,-6.2247,-0.8902
255441.0,-4.1851,-0.5698,0.1221,-2.5387,-6.0687,-1.1164
255451.0,-4.0414,0.577,-2.2721,-2.6536,-5.8415,-1.3415
255461.0,-4.2617,2.0638,-4.1683,-2.9091,-5.6239,-1.5687
255471.0,-3.5961,3.9528,-6.9815,-3.3034,-5.4808,-1.7576
255481.0,-3.814,5.545,-8.7293,-3.9195,-5.277,-1.881
255491.0,-3.2202,7.1347,-11.5688,-4.6666,-5.2275,-1.9204
255501.0,-2.0901,8.3582,-13.3932,-5.3594,-4.9854,-1.8321
255511.0,-1.506,10.0006,-15.2702,-5.601,-4.4777,-1.5447
255521.0,-0.9505,11.1115,-16.453,-5.3105,-3.745,-1.0536
255531.0,-0.0431,12.0692,-18.5646,-4.3271,-2.684,-0.3831
255541.0,2.1093,11.8154,-19.5199,-2.9591,-1.3979,0.4204
255551.0,2.7342,11.0397,-19.6109,-0.9956,0.4135,1.3617
255561.0,0.8667,7.9583,-18.1217,1.069,2.3227,2.3056
255571.0,1.415,3.8092,-16.4434,3.0788,4.1414,2.9899
255581.0,1.1181,0.589,-13.4458,5.0865,6.3082,3.3427
255591.0,-1.0343,-2.1284,-6.0406,6.9755,8.5473,3.3805
255601.0,-3.9385,-2.9185,3.1125,9.2891,10.6093,3.1118
255611.0,-6.3327,-1.5706,9.7564,11.8799,12.1295,2.5722
255621.0,-1.6041,11.8537,1.403,12.9942,12.4796,1.8555
255631.0,-27.7296,20.9517,17.1018,10.3475,15.2397,1.6229
255641.0,-27.7584,15.093,38.64,1.8885,11.5671,1.0536
255651.0,-23.547,3.6009,56.9078,-3.6865,8.169,0.729
255661.0,-22.0458,-6.3542,72.8484,-4.5794,5.7724,0.7178
255671.0,-20.1879,-9.0094,75.8316,-2.8335,2.6079,0.6912
255681.0,-21.9907,-4.3934,66.9562,-0.9227,-1.0664,0.4119
255691.0,-21.409,-2.332,56.1081,-0.8274,-4.9013,0.0293
255701.0,-20.5806,0.4597,43.5074,-0.8088,-7.4299,-0.2959
255711.0,-20.0012,2.6169,30.9379,-0.9802,-9.1811,-0.5023
255721.0,-15.8831,4.142,17.1545,-1.0477,-9.9814,-0.5289
255731.0,-12.8018,5.2768,5.2984,-1.1962,-9.5684,-0.5199
255741.0,-9.651,4.9009,-1.9297,-2.0428,-8.8267,-0.5752
255751.0,-5.6599,4.8004,-8.3246,-3.1751,-7.9593,-0.6768
255761.0,-3.5051,3.644,-9.2105,-4.5065,-6.835,-0.8248
255771.0,-2.8299,2.5642,-7.9942,-5.5398,-5.908,-0.9754
255781.0,-2.0782,1.0942,-5.7509,-6.1236,-5.4611,-1.1632
255791.0,-1.4222,1.008,-5.2936,-5.6755,-5.0971,-1.342
255801.0,-1.9944,2.0566,-6.2584,-4.5485,-4.7289,-1.4644
255811.0,-1.5802,3.8571,-9.4308,-3.0969,-4.4101,-1.4505
255821.0,-0.6632,6.1531,-14.6142,-1.6054,-3.8472,-1.2244
255831.0,1.0223,7.9009,-20.5758,-0.4832,-2.9734,-0.8046
255841.0,2.4636,8.6526,-25.1295,0.1681,-1.6671,-0.2873
255851.0,2.9521,8.1762,-26.5709,0.414,-0.0447,0.2687
255861.0,2.7964,6.0932,-24.1934,0.5901,1.7342,0.8386
255871.0,1.4868,3.1412,-18.9381,1.1627,3.5497,1.3814
255881.0,0.4094,-0.3687,-12.5456,2.3509,5.252,1.8603
255891.0,-0.6512,-3.881,-6.1435,4.2186,6.9547,2.1726
255901.0,-2.4804,-6.019,-0.4741,6.5886,8.6298,2.1694
255911.0,-5.1212,-4.7812,0.2011,9.0369,10.1671,1.7496
255921.0,-7.7357,0.5195,9.3206,10.9993,12.5227,0.9578
255931.0,-19.6564,17.4178,14.0923,10.879,13.9163,0.2677
255941.0,-23.6643,17.1377,34.8356,3.9398,11.3297,-0.5071
255951.0,-22.4768,13.4482,50.2758,-1.7012,8.8591,-0.9615
255961.0,-21.5622,3.8188,72.0511,-4.9481,6.3689,-1.0658
255971.0,-21.2581,-0.8739,78.4053,-4.9965,2.2939,-0.8668
255981.0,-21.5023,-1.822,71.7231,-3.4034,-2.4004,-0.5965
255991.0,-21.4137,-1.1085,56.235,-1.4527,-6.5711,-0.2975
256001.0,-21.136,0.4836,37.7709,0.1607,-9.4354,-0.0628
256011.0,-19.5056,1.0918,20.152,0.7923,-11.259,0.0681
256021.0,-15.2918,2.3415,0.1508,0.7136,-12.0077,0.1224
256031.0,-5.0518,1.9656,-14.8871,-0.2815,-11.1392,0.1538
256041.0,-3.6344,3.644,-21.3778,-1.5261,-8.5404,0.1032
256051.0,-1.2163,1.6257,-23.1878,-4.5953,-7.5752,-0.1703
256061.0,3.4165,0.0311,-24.768,-7.3075,-6.7472,-0.6556
256071.0,3.5889,-0.1173,-22.4839,-8.6314,-5.0136,-1.1057
256081.0,2.8491,0.4166,-17.1353,-8.7149,-3.4593,-1.3484
256091.0,2.1093,3.1556,-13.4913,-6.9632,-1.8805,-1.2595
256101.0,1.5323,4.5633,-11.3868,-4.5086,-0.9088,-0.8322
256111.0,1.64,4.8746,-12.6103,-1.2808,0.2208,-0.1479
256121.0,2.7916,3.1077,-14.2455,1.7804,1.4915,0.5076
256131.0,2.8659,1.4293,-15.8544,4.2899,2.9734,0.9594
256141.0,2.7054,0.0359,-15.2175,6.0586,4.7315,1.1781
256151.0,1.3288,-0.68,-11.4323,7.2649,6.669,1.1738
256161.0,-2.0016,-0.3663,-6.1914,8.2829,8.5526,0.9429
256171.0,-5.679,1.1013,-4.3263,9.2204,10.0367,0.4885
256181.0,-6.6607,6.4045,0.814,9.7903,11.8938,-0.141
256191.0,-20.3292,19.9006,11.6765,8.9922,13.8418,-0.4331
256201.0,-23.7529,18.6029,29.5253,2.8287,11.1733,-0.6348
256211.0,-21.8782,13.5153,45.8322,-1.8507,8.758,-0.6635
256221.0,-20.0347,7.0605,62.6706,-3.5343,6.8674,-0.4081
256231.0,-18.67,1.8938,71.4286,-3.2762,3.6194,0.0027
256241.0,-18.5814,0.7949,67.0017,-1.7507,-0.4081,0.3427
256251.0,-16.4984,-0.0622,55.3228,-0.5199,-4.3011,0.5853
256261.0,-16.52,-0.1915,41.4101,0.3618,-6.9462,0.7093
256271.0,-15.7179,-0.8859,28.1798,0.4672,-8.89,0.6912
256281.0,-14.2144,-1.3503,15.3277,0.2613,-10.0133,0.5736
256291.0,-11.4036,-0.9697,2.3152,-0.2623,-10.3767,0.3837
256301.0,-3.5219,-0.2107,-11.6502,-1.2473,-9.9771,0.2139
256311.0,-0.5483,-0.2155,-15.4929,-2.66,-8.1051,-0.0037
256321.0,-0.316,0.0551,-19.9724,-4.7608,-6.9808,-0.3581
256331.0,3.1675,-3.1627,-18.1624,-7.3565,-6.4577,-1.0068
256341.0,3.1077,-0.565,-18.488,-7.6284,-4.7198,-1.5516
256351.0,2.5666,-0.1101,-12.3253,-7.1681,-3.3332,-1.7884
256361.0,1.3982,2.964,-11.8298,-4.6773,-1.9082,-1.5671
256371.0,2.5498,3.7613,-11.8944,-1.7373,-0.6093,-1.0499
256381.0,3.4022,3.8666,-14.5208,1.3266,0.8796,-0.4214
256391.0,3.4955,3.2992,-15.5001,3.6056,2.543,0.0633
256401.0,2.8706,3.0095,-14.5615,4.9481,4.1909,0.3299
256411.0,1.1708,3.0095,-11.4012,5.6308,5.8357,0.4342
256421.0,-1.2043,3.1412,-6.9887,5.8665,7.2857,0.397
256431.0,-3.9552,3.1963,-4.0438,5.9144,8.4622,0.2022
256441.0,-4.7549,5.533,1.3838,5.8171,9.7095,-0.107
256451.0,-13.7882,12.7779,12.1506,5.5164,11.499,-0.0952
256461.0,-16.2662,11.2527,27.0784,1.922,9.9468,-0.0867
256471.0,-16.4458,8.0852,41.4317,-0.8737,8.0546,-0.1139
256481.0,-15.9837,5.8897,53.3763,-1.4974,6.4545,0.0149
256491.0,-14.9662,3.5171,60.9037,-1.3601,3.8142,0.2075
256501.0,-14.9997,4.1899,58.239,-0.6449,0.5263,0.3549
256511.0,-13.5919,3.3902,51.777,-0.481,-2.7547,0.4358
256521.0,-13.5177,3.4165,41.8459,-0.2852,-5.2371,0.4784
256531.0,-13.3429,2.4062,31.874,-0.339,-7.1543,0.48
256541.0,-12.1841,1.5036,20.5638,-0.4225,-8.4819,0.4464
256551.0,-9.5074,0.7159,8.4874,-0.7476,-9.1646,0.3411
256561.0,-5.0206,0.2035,-2.8587,-1.4309,-9.0406,0.182
256571.0,-0.7087,0.0215,-10.7524,-2.3817,-7.9663,0.0032
256581.0,0.5315,0.6823,-12.5073,-3.8333,-6.6301,-0.2639
256591.0,-0.1269,-0.1173,-13.9366,-5.7899,-6.2055,-0.663
256601.0,2.7869,-0.8452,-13.884,-6.9967,-5.6957,-1.1472
256611.0,2.7318,1.221,-14.5903,-6.5934,-4.3548,-1.3856
256621.0,2.4301,2.0446,-12.4235,-5.3813,-3.0809,-1.3063
256631.0,2.7054,4.1755,-14.552,-2.9607,-1.7347,-0.9227
256641.0,3.6512,4.2904,-16.3452,-0.4885,-0.2692,-0.3602
256651.0,3.8595,3.7206,-18.0978,1.7991,1.5101,0.2017
256661.0,3.0358,2.7007,-16.5798,3.4013,3.3869,0.5901
256671.0,1.5754,1.9944,-13.6757,4.5038,5.1173,0.8109
256681.0,-0.0335,1.4437,-9.098,5.2748,6.686,0.8721
256691.0,-2.1045,1.7119,-5.1571,5.9613,8.0588,0.7519
256701.0,-4.3167,2.7749,-2.9904,6.3896,9.1699,0.4252
256711.0,-7.9057,8.011,5.3463,6.8664,10.9232,0.0351
256721.0,-17.1401,16.5272,12.5552,5.8916,11.707,-0.0537
256731.0,-18.2821,12.9024,30.6697,1.4596,9.8824,-0.1538
256741.0,-17.7769,11.0205,43.4188,-0.8578,8.451,-0.0607
256751.0,-17.7243,6.2584,59.2325,-1.9305,6.6211,0.166
256761.0,-18.4737,3.948,65.0864,-1.6017,3.5497,0.4518
256771.0,-17.4058,2.3415,61.8303,-0.9796,-0.3666,0.6428
256781.0,-15.8041,0.8116,51.2455,-0.3507,-3.9387,0.7625
256791.0,-15.1649,0.237,38.3527,0.0905,-6.4178,0.7348
256801.0,-13.8648,0.1987,25.4887,-0.0314,-8.1025,0.5529
256811.0,-11.88,0.4453,13.7762,-0.5449,-8.9358,0.2841
256821.0,-8.0828,1.1779,2.7749,-1.251,-8.9475,0.0197
256831.0,-4.1492,1.3767,-4.9297,-2.1125,-8.0706,-0.1692
256841.0,-2.1452,1.8651,-8.758,-3.1012,-6.7743,-0.3347
256851.0,-1.2761,1.9776,-9.4547,-4.4203,-5.841,-0.5161
256861.0,-1.6376,1.7861,-8.6167,-5.6441,-5.2434,-0.6508
256871.0,0.5626,0.249,-8.0325,-6.3279,-4.9651,-0.7295
256881.0,1.7693,-0.6129,-8.4922,-5.7835,-4.2702,-0.721
256891.0,2.466,-1.1875,-10.1538,-4.5772,-3.4609,-0.6534
256901.0,3.5602,-1.1827,-12.864,-3.1086,-2.5786,-0.605
256911.0,4.2114,-0.4788,-15.3899,-1.599,-1.4005,-0.5555
256921.0,4.5921,0.1006,-16.2566,-0.3108,-0.0378,-0.4768
256931.0,4.0845,0.8787,-15.512,0.9094,1.5016,-0.3586
256941.0,3.2609,1.1301,-12.5983,2.0194,3.0197,-0.2128
256951.0,2.0231,1.5155,-9.4882,3.2278,4.4713,-0.0474
256961.0,0.7853,1.7119,-6.0789,4.4277,5.8415,0.1011
256971.0,-0.9673,1.9872,-2.8587,5.6718,7.283,0.2059
256981.0,-3.6009,1.7813,-0.8763,6.7908,8.6851,0.1575
256991.0,-6.3063,6.3303,6.0837,7.8013,10.5007,-0.0921
257001.0,-16.0795,15.7347,13.8121,7.6135,11.897,-0.0601
257011.0,-16.9677,12.0835,31.5388,2.7074,9.5993,-0.274
257021.0,-14.1306,9.4762,42.8155,-0.7567,7.3591,-0.4911
