time_ms,ax,ay,az,gx,gy,gz
271631.0,-3.5051,-1.5945,10.817,-1.1536,-0.1032,-0.7146
271641.0,-3.5099,-1.3862,10.6446,-0.9913,-0.1527,-0.6827
271651.0,-3.4692,-1.2186,10.3477,-0.8418,-0.1985,-0.6369
271661.0,-3.3471,-1.1301,10.1634,-0.7162,-0.2336,-0.5816
271671.0,-3.2896,-1.0678,9.9096,-0.5949,-0.2591,-0.5231
271681.0,-3.1316,-1.0127,9.5481,-0.497,-0.2836,-0.464
271691.0,-3.0239,-0.9649,9.3087,-0.4369,-0.2767,-0.4113
271701.0,-2.9616,-0.9313,9.177,-0.4124,-0.2634,-0.3608
271711.0,-2.8802,-0.9577,9.0525,-0.4007,-0.257,-0.3081
271721.0,-2.7533,-1.0582,8.8729,-0.3884,-0.249,-0.2591
271731.0,-2.5786,-1.2354,8.5305,-0.3975,-0.2219,-0.2192
271741.0,-2.569,-1.3431,8.1139,-0.4736,-0.1618,-0.2022
271751.0,-2.7007,-1.4174,8.2001,-0.6694,-0.1128,-0.2118
271761.0,-2.7557,-1.5443,8.5928,-0.8743,-0.1011,-0.223
271771.0,-2.7653,-1.6903,8.9112,-0.9482,-0.1155,-0.2155
271781.0,-2.6647,-1.7717,9.0549,-0.8673,-0.1224,-0.1889
271791.0,-2.6528,-1.6544,9.0621,-0.6784,-0.0926,-0.1463
271801.0,-2.7773,-1.4174,9.1051,-0.4613,-0.0596,-0.0878
271811.0,-2.9018,-1.2546,9.165,-0.2496,-0.0468,-0.009
271821.0,-2.9233,-1.0918,8.9376,-0.0585,-0.0601,0.0819
271831.0,-2.7869,-1.1325,8.7652,0.0873,-0.0756,0.1767
271841.0,-2.8132,-1.1396,8.7412,0.2405,-0.0474,0.2698
271851.0,-2.7749,-1.2354,8.576,0.3884,-0.0218,0.3618
271861.0,-2.8778,-1.3647,8.2791,0.5316,0.0213,0.4475
271871.0,-2.6264,-1.6688,7.4939,0.596,0.0803,0.5082
271881.0,-2.4253,-2.0614,6.8091,0.4959,0.2214,0.5172
271891.0,-2.4948,-2.4804,7.2185,0.1809,0.39,0.456
271901.0,-2.7342,-2.727,8.2744,-0.1793,0.4832,0.3555
271911.0,-2.976,-2.8443,9.2344,-0.4076,0.4746,0.265
271921.0,-3.0382,-2.9185,9.8665,-0.4576,0.423,0.2011
271931.0,-3.055,-2.7916,10.1466,-0.3539,0.3863,0.1639
271941.0,-3.1196,-2.4972,10.2903,-0.2118,0.3288,0.1399
271951.0,-3.1771,-2.0518,10.058,-0.0819,0.2458,0.1314
271961.0,-3.2609,-1.5682,9.7252,0.0069,0.1724,0.1405
271971.0,-3.2585,-1.2019,9.3518,0.0596,0.1325,0.1697
271981.0,-3.2825,-0.8859,9.2464,0.1064,0.1357,0.2171
271991.0,-3.3112,-0.6752,9.2991,0.1745,0.1607,0.2847
272001.0,-3.4117,-0.4812,9.5146,0.2815,0.1815,0.3735
272011.0,-3.5003,-0.3687,9.6726,0.4331,0.1857,0.4848
272021.0,-3.4668,-0.4429,9.7205,0.6194,0.1799,0.6066
272031.0,-3.3902,-0.5938,9.6199,0.8115,0.1708,0.7242
272041.0,-3.316,-0.7925,9.4858,0.9924,0.1681,0.8242
272051.0,-3.2777,-0.9816,9.3494,1.1377,0.1783,0.8971
272061.0,-3.1939,-1.1205,9.0908,1.2377,0.1963,0.9408
272071.0,-3.1771,-1.2091,8.8992,1.2563,0.2299,0.9509
272081.0,-3.2633,-1.1779,8.8729,1.1973,0.2767,0.9291
272091.0,-3.383,-0.9481,9.268,1.1217,0.3283,0.8998
272101.0,-3.5314,-0.7254,9.6606,1.0919,0.3682,0.8929
272111.0,-3.699,-0.5339,10.1514,1.1238,0.397,0.9152
272121.0,-3.8762,-0.4262,10.4914,1.2015,0.4156,0.9589
272131.0,-3.9289,-0.4621,10.6566,1.2792,0.414,1.011
272141.0,-4.0055,-0.5387,10.6757,1.3021,0.4023,1.0493
272151.0,-4.1994,-0.6536,10.7428,1.2265,0.381,1.061
272161.0,-4.2976,-0.8954,11.0397,1.0797,0.3698,1.0509
272171.0,-4.2282,-1.2881,11.5544,0.9445,0.3523,1.0254
272181.0,-4.2329,-1.5921,11.971,0.8551,0.3177,0.9844
272191.0,-4.2401,-1.7669,12.39,0.8312,0.2889,0.9317
272201.0,-4.2258,-1.8364,12.8497,0.8439,0.2549,0.8737
272211.0,-4.13,-1.9082,13.0771,0.8562,0.1825,0.8136
272221.0,-4.063,-1.9824,13.1561,0.8232,0.0889,0.7402
272231.0,-4.0007,-2.059,13.2064,0.7253,-0.0314,0.6486
272241.0,-4.063,-2.0662,13.1729,0.6141,-0.1442,0.5433
272251.0,-4.0965,-1.889,13.2136,0.5289,-0.2299,0.439
272261.0,-4.1731,-1.6903,13.1537,0.4778,-0.2884,0.3523
272271.0,-4.2162,-1.5155,13.1705,0.4486,-0.3352,0.2783
272281.0,-4.1899,-1.4293,13.0795,0.4017,-0.3895,0.2107
272291.0,-4.1372,-1.3886,12.9885,0.2868,-0.4587,0.1346
272301.0,-3.9169,-1.4198,12.9407,0.1288,-0.5374,0.0447
272311.0,-3.7062,-1.3982,12.8976,-0.0314,-0.605,-0.0516
272321.0,-3.6152,-1.4293,12.9574,-0.1873,-0.6694,-0.1485
272331.0,-3.5362,-1.3838,13.046,-0.307,-0.7444,-0.2437
272341.0,-3.4165,-1.3072,12.9646,-0.3688,-0.8221,-0.3272
272351.0,-3.2585,-1.1636,12.8736,-0.3927,-0.8828,-0.3991
272361.0,-3.1388,-1.0104,12.7874,-0.3826,-0.928,-0.4581
272371.0,-2.9975,-0.8499,12.7012,-0.3592,-0.9631,-0.5066
272381.0,-2.9113,-0.6488,12.5959,-0.3448,-0.9929,-0.5529
272391.0,-2.8252,-0.4669,12.5336,-0.3453,-1.011,-0.5933
272401.0,-2.7461,-0.2514,12.5791,-0.356,-1.0312,-0.6274
272411.0,-2.6671,-0.1101,12.7324,-0.3932,-1.069,-0.654
272421.0,-2.5786,-0.1006,12.7922,-0.456,-1.1462,-0.6763
272431.0,-2.4181,-0.2059,12.7108,-0.5247,-1.251,-0.704
272441.0,-2.2458,-0.2298,12.5504,-0.5859,-1.3569,-0.7391
272451.0,-2.2865,-0.261,12.39,-0.647,-1.4665,-0.7806
272461.0,-2.3152,-0.328,12.1434,-0.663,-1.5798,-0.8168
272471.0,-2.1428,-0.3089,11.6933,-0.5981,-1.6613,-0.8439
272481.0,-1.968,-0.2179,11.1905,-0.4933,-1.6953,-0.862
272491.0,-1.968,-0.2179,11.1905,-0.4933,-1.6953,-0.862
272501.0,-1.9632,-0.0766,10.8026,-0.3938,-1.6799,-0.8743
272511.0,-1.9393,0.0527,10.5201,-0.3054,-1.6575,-0.8817
272521.0,-1.8172,0.146,9.991,-0.2549,-1.6288,-0.8897
272531.0,-1.5993,0.1772,9.572,-0.2879,-1.5777,-0.9136
272541.0,-1.3815,0.2753,9.4116,-0.4012,-1.491,-0.9583
272551.0,-1.3815,0.395,9.7971,-0.5731,-1.4026,-1.0153
272561.0,-1.5945,0.5722,10.4172,-0.7141,-1.3574,-1.0642
272571.0,-1.7095,0.8188,11.1211,-0.7466,-1.3468,-1.0855
272581.0,-1.5371,1.0894,11.6526,-0.6566,-1.3606,-1.0669
272591.0,-1.2641,1.3527,11.9614,-0.5156,-1.3989,-1.0195
272601.0,-1.2067,1.7286,11.8848,-0.3847,-1.441,-0.961
272611.0,-1.2426,1.9585,11.8561,-0.3629,-1.5006,-0.8993
272621.0,-1.1732,2.1596,11.8561,-0.4166,-1.5857,-0.8445
272631.0,-1.0415,2.375,11.7867,-0.5055,-1.6884,-0.7849
272641.0,-0.8954,2.4086,11.7867,-0.5672,-1.7842,-0.7072
272651.0,-0.7781,2.411,11.7124,-0.5342,-1.8358,-0.6093
272661.0,-0.6919,2.411,11.6262,-0.4241,-1.8645,-0.4927
272671.0,-0.5387,2.4205,11.4634,-0.2788,-1.8853,-0.3634
272681.0,-0.4262,2.3894,11.2719,-0.1607,-1.9167,-0.2315
272691.0,-0.2346,2.3583,10.9343,-0.0968,-1.9736,-0.1064
272701.0,-0.0742,2.2529,10.41,-0.1048,-2.0417,0.008
272711.0,0.1772,1.9728,9.8761,-0.1692,-2.1008,0.1117
272721.0,0.4669,1.6448,9.3685,-0.2416,-2.1316,0.2011
272731.0,0.8859,1.2665,8.849,-0.3257,-2.137,0.2735
272741.0,1.4102,0.7949,8.3031,-0.4252,-2.1098,0.323
272751.0,1.8196,0.4094,8.011,-0.5417,-2.0412,0.3406
272761.0,1.9393,0.2131,7.9487,-0.6566,-1.9544,0.3304
272771.0,1.9656,0.2203,7.8243,-0.7694,-1.8922,0.3124
272781.0,2.0063,0.1628,7.8314,-0.919,-1.8587,0.2948
272791.0,2.1811,0.0311,7.7213,-1.0871,-1.8693,0.273
272801.0,2.3415,-0.1173,7.4939,-1.2659,-1.8677,0.2458
272811.0,2.5139,-0.3879,7.446,-1.5038,-1.8784,0.2017
272821.0,2.4708,-0.759,7.92,-1.7352,-1.8619,0.1394
272831.0,2.3511,-0.838,8.8035,-1.8704,-1.8395,0.0697
272841.0,2.1452,-0.3448,9.1602,-1.9763,-1.9763,-0.0053
272851.0,1.9513,0.4932,8.8681,-2.0417,-2.1817,-0.0431
272861.0,2.4181,1.0343,7.9727,-2.0774,-2.3642,-0.0277
272871.0,2.7821,0.9984,7.2951,-2.1183,-2.46,0.008
272881.0,2.6959,1.245,6.3446,-2.0657,-2.5084,0.049
272891.0,2.1931,1.4174,5.5641,-1.9443,-2.5318,0.1171
272901.0,2.1237,1.8076,4.5203,-1.6288,-2.4419,0.2501
272911.0,1.9824,2.0327,4.0486,-1.2792,-2.2801,0.4246
272921.0,2.0016,2.1476,3.292,-0.9323,-2.1758,0.6396
272931.0,2.2434,1.9201,2.3942,-0.6274,-2.0571,0.8812
272941.0,2.3511,1.4437,1.585,-0.3948,-1.8831,1.1233
272951.0,2.6552,0.7254,1.0104,-0.2485,-1.6857,1.3431
272961.0,3.1125,-0.0718,0.3903,-0.1437,-1.466,1.5304
272971.0,3.383,-0.8835,-0.0215,-0.066,-1.1744,1.6841
272981.0,3.5937,-1.8387,-0.1077,-0.0176,-0.8306,1.7938
272991.0,3.8331,-2.8395,0.1125,0.025,-0.5002,1.8576
273001.0,4.2593,-3.7469,0.4525,0.0995,-0.1862,1.873
273011.0,4.7549,-4.4317,0.7781,0.2352,0.1527,1.8512
273021.0,4.9991,-4.8339,1.233,0.3943,0.4986,1.7985
273031.0,4.9919,-5.0015,1.7549,0.5082,0.8083,1.7235
273041.0,4.9057,-5.1475,2.3798,0.5518,1.0775,1.6384
273051.0,4.6998,-5.2792,3.2968,0.5183,1.2904,1.5453
273061.0,4.5226,-5.4516,4.2497,0.4608,1.4175,1.4516
273071.0,4.3527,-5.6264,5.217,0.4262,1.5043,1.3558
273081.0,4.1851,-5.7916,6.0693,0.4448,1.5367,1.2611
273091.0,4.0821,-5.8466,6.6248,0.53,1.5272,1.1701
273101.0,3.9983,-5.7916,6.9552,0.6699,1.5171,1.0844
273111.0,3.8307,-5.5569,7.1275,0.821,1.5367,1.0062
273121.0,3.6009,-5.296,7.2808,0.9248,1.5618,0.9402
273131.0,3.3255,-4.9991,7.513,0.9631,1.5873,0.8918
273141.0,2.9975,-4.9991,7.8554,0.9376,1.6112,0.8578
273151.0,2.7007,-5.1356,8.4324,0.8876,1.6325,0.8242
273161.0,2.6767,-5.351,9.1315,0.8652,1.6522,0.7891
273171.0,2.7007,-5.4444,9.6869,0.9003,1.6852,0.7513
273181.0,2.6528,-5.3846,10.2831,0.9174,1.7075,0.6971
273191.0,2.4732,-5.1643,10.987,0.8759,1.6889,0.6242
273201.0,2.2841,-5.0039,11.8705,0.7737,1.5878,0.5449
273211.0,1.9585,-4.8818,12.7922,0.7375,1.4718,0.4784
273221.0,1.3862,-4.8842,13.6039,0.8157,1.3659,0.4262
273231.0,1.087,-5.2337,14.5232,0.9754,1.2739,0.3778
273241.0,1.0606,-5.77,15.7108,1.1733,1.184,0.299
273251.0,1.5586,-5.9999,16.2231,1.3127,0.9328,0.1554
273261.0,2.2266,-5.5857,15.8712,1.2888,0.5614,-0.066
273271.0,2.4541,-4.3072,15.1146,1.0924,0.2543,-0.3225
273281.0,2.2673,-2.4205,14.5951,0.7503,-0.0053,-0.5385
273291.0,1.9321,-0.486,14.0827,0.3932,-0.2267,-0.63
273301.0,1.652,1.0151,13.6996,0.1245,-0.3879,-0.5646
273311.0,1.8172,1.5706,13.4243,0.0176,-0.4773,-0.3501
273321.0,2.1596,1.3192,12.9957,0.0628,-0.5146,-0.0516
273331.0,2.7653,0.3639,12.785,0.1942,-0.4858,0.2517
273341.0,3.3208,-0.7398,12.5959,0.3767,-0.4129,0.5098
273351.0,3.8595,-1.8076,12.6438,0.5295,-0.3629,0.6944
273361.0,4.2904,-2.478,12.3325,0.6279,-0.3267,0.804
273371.0,4.6112,-2.9592,12.1985,0.5646,-0.3219,0.8445
273381.0,4.8004,-3.2561,12.1602,0.4012,-0.3512,0.8274
273391.0,4.9416,-3.1747,12.0596,0.2107,-0.4039,0.7774
273401.0,4.9823,-2.6911,11.8848,0.0335,-0.4619,0.7215
273411.0,4.9344,-1.8004,11.643,-0.1229,-0.5076,0.6832
273421.0,4.7597,-0.759,11.5017,-0.2501,-0.5231,0.6928
273431.0,4.3981,0.3448,11.3701,-0.3523,-0.5406,0.7668
273441.0,3.9193,1.3503,11.1761,-0.4608,-0.5587,0.9099
273451.0,3.3327,1.98,11.1306,-0.588,-0.5805,1.1244
273461.0,2.8204,2.1237,10.9295,-0.7407,-0.6502,1.3814
273471.0,2.4349,1.8866,10.4794,-0.9323,-0.7657,1.6474
273481.0,2.1907,1.3599,9.912,-1.1563,-0.8854,1.8933
273491.0,1.9872,0.6105,9.3829,-1.3941,-1.0068,2.104
273501.0,1.719,-0.0311,8.6167,-1.5926,-1.1377,2.2774
273511.0,1.1037,-0.3807,7.7405,-1.7384,-1.2308,2.4286
273521.0,-0.0335,-0.5315,6.9216,-1.8188,-1.2643,2.5829
273531.0,-1.5203,-0.8188,6.62,-1.8044,-1.2425,2.7601
273541.0,-2.9042,-1.7142,6.3518,-1.6416,-1.202,2.9777
273551.0,-3.3088,-3.5626,6.0717,-1.3484,-1.1903,3.2023
273561.0,-3.2441,-5.6455,4.8554,-0.9849,-1.1882,3.3619
273571.0,-2.4924,-7.8913,3.2561,-0.7093,-1.1233,3.4061
273581.0,-1.1995,-9.754,1.9465,-0.5763,-0.9152,3.3268
273591.0,-0.7709,-11.2504,1.0678,-0.6252,-0.6039,3.1432
273601.0,0.1341,-12.1218,0.8882,-0.8588,-0.3437,2.858
273611.0,1.3719,-10.3908,1.561,-1.1281,-0.05,2.5472
273621.0,-3.1747,-9.9024,2.8467,-1.4447,0.1995,2.4131
273631.0,-2.4014,-12.639,4.312,-1.5522,0.075,2.3397
273641.0,-0.3831,-13.7786,3.5027,-1.1073,0.0415,2.1072
273651.0,0.4262,-14.4682,2.7246,-0.6332,0.2261,1.8347
273661.0,0.3807,-15.7443,3.1747,-0.1772,0.5518,1.582
273671.0,0.6369,-16.3117,3.474,0.3092,0.8498,1.2553
273681.0,1.0271,-17.0826,3.711,0.6183,1.0504,0.8716
273691.0,1.4102,-17.6094,4.2186,0.7955,1.2281,0.4119
273701.0,1.7693,-17.583,4.8243,0.8711,1.358,-0.116
273711.0,1.6376,-17.3364,5.9951,0.9014,1.4638,-0.6433
273721.0,1.3455,-16.5463,7.1299,1.0036,1.5,-1.1536
273731.0,0.9385,-15.3205,8.1283,1.1887,1.4569,-1.615
273741.0,0.6273,-13.8241,8.6598,1.4426,1.3585,-2.013
273751.0,0.4453,-12.1506,9.0237,1.724,1.2547,-2.3456
273761.0,0.2035,-10.3214,9.2847,1.9773,1.1542,-2.6127
273771.0,0.0239,-8.4013,9.4403,2.1545,1.0238,-2.8159
273781.0,-0.1245,-6.5098,9.4379,2.2189,0.8413,-2.95
273791.0,-0.0886,-4.8267,9.2177,2.1769,0.6348,-3.0181
273801.0,-0.0215,-3.4931,8.8322,2.0758,0.4544,-3.0298
273811.0,0.2825,-2.4828,8.4467,1.9289,0.3065,-2.9985
273821.0,0.5578,-1.6161,7.9296,1.7757,0.1825,-2.9447
273831.0,0.9002,-0.814,7.3191,1.6389,0.1086,-2.8755
273841.0,1.3312,-0.1101,6.7397,1.5038,0.0734,-2.7957
273851.0,1.6424,0.68,5.9664,1.375,0.0708,-2.7037
273861.0,1.7142,1.3479,5.3965,1.2654,0.1245,-2.5877
273871.0,1.7813,1.8364,5.0398,1.2515,0.2533,-2.4397
273881.0,1.7669,1.8723,4.889,1.4213,0.4725,-2.2524
273891.0,2.1476,1.6281,5.3175,1.8071,0.7779,-2.0646
273901.0,2.7126,2.1404,5.0949,2.3807,1.0999,-1.8858
273911.0,2.3966,2.5905,5.3463,2.8899,1.5117,-1.6985
273921.0,2.1284,3.3279,5.3941,3.1937,1.8496,-1.541
273931.0,1.5706,4.0247,5.9496,3.1192,2.0657,-1.4245
273941.0,1.0965,4.7381,6.3853,2.7462,2.1343,-1.3335
273951.0,0.6081,5.2744,6.8426,2.1763,2.1072,-1.2473
273961.0,0.1556,5.6719,6.7924,1.5676,2.0433,-1.1382
273971.0,0.0024,5.5162,6.924,0.9706,2.0385,-0.9924
273981.0,-0.0622,4.8339,7.8458,0.5151,2.1258,-0.8296
273991.0,-0.3184,4.1396,8.6694,0.3065,2.1838,-0.6662
274001.0,-0.3711,3.5578,8.9256,0.3363,2.2099,-0.5023
274011.0,-0.2777,3.2705,8.7891,0.5177,2.3056,-0.348
274021.0,-0.6464,3.6057,8.4946,0.6806,2.4993,-0.2251
274031.0,-1.3623,4.063,8.6191,0.6055,2.668,-0.1192
274041.0,-2.1835,4.0893,8.9926,0.257,2.7122,-0.0043
274051.0,-2.6432,3.5985,9.2608,-0.2448,2.6318,0.1171
274061.0,-2.9664,2.5786,9.2799,-0.7684,2.5201,0.2368
274071.0,-3.2801,0.9481,9.7923,-1.1744,2.4701,0.3539
274081.0,-3.3447,-0.8571,10.9128,-1.1802,2.5632,0.4603
274091.0,-3.3567,-2.1835,11.8202,-0.8056,2.6818,0.5353
274101.0,-3.5674,-3.0981,12.1482,-0.3283,2.7015,0.5545
274111.0,-3.6751,-3.6966,12.1362,0.0905,2.685,0.5119
274121.0,-3.7589,-3.9528,12.2846,0.3757,2.693,0.415
274131.0,-3.9456,-4.0869,12.8928,0.5013,2.7324,0.2847
274141.0,-4.4772,-3.972,13.4626,0.4374,2.701,0.1229
274151.0,-5.1188,-4.2018,14.7698,0.1974,2.5754,-0.0495
274161.0,-5.4348,-4.6974,15.9765,-0.0564,2.3158,-0.2166
274171.0,-5.5354,-5.0853,16.4817,-0.1921,1.9842,-0.3805
274181.0,-5.43,-5.2265,16.1752,-0.2336,1.6634,-0.5545
274191.0,-5.5043,-5.023,15.6293,-0.2692,1.4638,-0.7364
274201.0,-5.8131,-4.6017,15.4833,-0.3789,1.3542,-0.9206
274211.0,-6.1938,-3.9097,15.7945,-0.5305,1.2824,-1.0876
274221.0,-6.5673,-3.2537,16.5631,-0.7093,1.177,-1.2191
274231.0,-6.9097,-2.6887,17.7793,-0.8093,0.9972,-1.2962
274241.0,-7.0581,-2.1045,19.1656,-0.6806,0.7913,-1.301
274251.0,-7.1419,-1.2953,20.1233,-0.3246,0.5098,-1.2366
274261.0,-7.0725,-0.2753,20.2956,0.0809,0.1245,-1.1201
274271.0,-6.8905,0.6847,19.7019,0.4055,-0.3006,-0.9653
274281.0,-6.5457,1.0989,18.8591,0.5161,-0.712,-0.796
274291.0,-6.0813,0.9505,18.0355,0.4076,-1.1126,-0.6524
274301.0,-5.7174,0.6177,16.9509,0.1873,-1.4952,-0.5561
274311.0,-5.3678,0.0407,15.8855,-0.0644,-1.7932,-0.4933
274321.0,-4.6902,-0.6345,14.8848,-0.2911,-2.0087,-0.4645
274331.0,-4.0845,-1.1061,13.8648,-0.4635,-2.1604,-0.4693
274341.0,-3.6847,-1.4437,12.9718,-0.5667,-2.2152,-0.4837
274351.0,-3.2585,-1.8028,12.5672,-0.5779,-2.2067,-0.4906
274361.0,-2.7821,-2.0518,11.8824,-0.4757,-2.1849,-0.4869
274371.0,-2.3535,-2.2889,11.1809,-0.373,-2.1646,-0.4832
274381.0,-2.0638,-2.5331,10.7021,-0.2937,-2.1279,-0.4858
274391.0,-1.7861,-2.9521,10.5249,-0.1873,-2.079,-0.4895
274401.0,-1.5227,-3.2417,10.0533,0.0016,-2.0417,-0.497
274411.0,-1.3958,-3.5219,9.5696,0.2017,-2.0018,-0.5151
274421.0,-1.1971,-3.6751,9.0956,0.3858,-1.9491,-0.5518
274431.0,-1.0511,-3.5458,8.6479,0.5289,-1.8991,-0.6125
274441.0,-0.8619,-3.1316,8.0541,0.6311,-1.873,-0.6827
274451.0,-0.7709,-2.5091,7.3191,0.6758,-1.8443,-0.7529
274461.0,-0.7374,-1.7861,6.7995,0.7093,-1.7576,-0.8067
274471.0,-0.6943,-1.0989,6.4476,0.7726,-1.6123,-0.8312
274481.0,-0.6009,-0.5914,6.4476,0.92,-1.392,-0.8264
274491.0,-0.5219,-0.0551,6.5505,1.1387,-1.1339,-0.796
274501.0,-0.5195,0.4645,6.9504,1.318,-0.9088,-0.7551
274511.0,-0.7087,1.1349,7.3885,1.4287,-0.7513,-0.7077
274521.0,-0.9601,1.652,7.829,1.4234,-0.7082,-0.6518
274531.0,-0.9553,1.7502,8.0924,1.3409,-0.7482,-0.5752
274541.0,-0.8859,1.5107,8.2337,1.2803,-0.8014,-0.4874
274551.0,-0.8045,1.0391,8.1211,1.3037,-0.8312,-0.3938
274561.0,-0.4453,0.2083,7.9607,1.4048,-0.812,-0.3054
274571.0,0.0431,-0.4334,7.5417,1.5405,-0.7503,-0.257
274581.0,0.486,-0.9433,7.1227,1.5804,-0.6827,-0.2591
274591.0,0.8547,-1.2761,6.7612,1.4665,-0.6173,-0.3129
274601.0,0.9098,-1.391,6.675,1.2361,-0.5683,-0.4039
274611.0,0.9385,-1.4772,6.5649,0.9833,-0.5348,-0.4986
274621.0,1.2019,-1.5203,6.3111,0.762,-0.4789,-0.5875
274631.0,1.2809,-1.5299,6.0741,0.5731,-0.3576,-0.6737
274641.0,1.2665,-1.6616,6.1866,0.4204,-0.1878,-0.7476
274651.0,1.3767,-2.047,6.5721,0.2847,-0.0319,-0.8184
274661.0,1.5897,-2.3631,6.8809,0.1761,0.0718,-0.9104
274671.0,1.5993,-2.569,7.1994,0.0798,0.1602,-1.0275
274681.0,1.5275,-2.5929,7.5681,0.0261,0.2501,-1.1499
274691.0,1.4461,-2.332,7.8243,0.0053,0.3124,-1.276
274701.0,1.2067,-1.8914,8.0254,-0.0197,0.3475,-1.3904
274711.0,0.8787,-1.4317,8.1666,-0.0213,0.3852,-1.4782
274721.0,0.6704,-0.917,8.1547,0.0287,0.4358,-1.5469
274731.0,0.4334,-0.3065,8.26,0.108,0.5337,-1.6038
274741.0,0.2418,0.3567,8.4539,0.1894,0.6747,-1.649
274751.0,0.1197,1.0989,9.0261,0.2522,0.8274,-1.6809
274761.0,-0.2801,2.0135,9.821,0.2783,0.953,-1.7038
274771.0,-0.735,2.8443,10.8601,0.2426,1.0094,-1.7022
274781.0,-1.1085,3.5554,11.8585,0.1437,0.9509,-1.6783
274791.0,-1.3312,3.9409,12.6246,-0.0314,0.7801,-1.6464
274801.0,-1.4581,3.9624,13.5057,-0.2293,0.5731,-1.6123
274811.0,-1.6113,3.802,14.7315,-0.3187,0.3783,-1.5809
274821.0,-2.0399,3.9504,15.4881,-0.2426,0.1304,-1.5527
274831.0,-2.1117,4.1659,15.6988,-0.1149,-0.2011,-1.5256
274841.0,-1.7933,4.7166,14.8512,-0.0011,-0.5731,-1.4889
274851.0,-1.3408,5.3391,13.5248,-0.0213,-0.9019,-1.442
274861.0,-0.9505,5.9185,12.2487,-0.0947,-1.0573,-1.3473
274871.0,-0.7087,6.2201,11.497,-0.1607,-1.0488,-1.1813
274881.0,-0.4836,6.1435,10.7787,-0.1751,-0.9706,-0.945
274891.0,-0.079,5.4253,10.4914,-0.1921,-0.8333,-0.6689
274901.0,0.2849,4.13,10.4746,-0.2203,-0.6864,-0.3975
274911.0,0.5339,2.3798,10.8314,-0.2379,-0.563,-0.1703
274921.0,0.8045,0.4693,11.3389,-0.1777,-0.4496,-0.0117
274931.0,1.1947,-1.3599,11.9231,-0.0415,-0.3608,0.0569
274941.0,1.6161,-2.7677,12.2224,0.125,-0.3182,0.0186
274951.0,1.8603,-3.5674,12.5049,0.2347,-0.3118,-0.124
274961.0,1.8531,-3.4093,12.7611,0.2645,-0.3704,-0.3395
274971.0,1.3168,-2.5905,12.7348,0.2128,-0.4853,-0.5646
274981.0,0.9409,-1.7645,12.9143,0.1463,-0.6018,-0.7364
274991.0,0.8643,-0.9433,12.7826,0.1777,-0.6912,-0.837
275001.0,0.759,-0.2322,12.6079,0.2522,-0.7237,-0.8865
275011.0,0.7733,0.4405,12.6821,0.3379,-0.6992,-0.8982
275021.0,0.6057,1.257,12.7611,0.3874,-0.6864,-0.8908
275031.0,0.3184,2.0207,12.8688,0.3421,-0.7189,-0.8684
275041.0,0.0958,2.5833,13.0556,0.2251,-0.779,-0.8328
275051.0,0.1149,3.0382,13.3165,0.0686,-0.8838,-0.795
275061.0,0.2107,3.6033,13.3094,-0.0915,-1.0089,-0.7519
275071.0,0.2538,4.2258,13.1753,-0.2841,-1.1478,-0.7013
275081.0,0.2538,4.7884,12.9909,-0.481,-1.2893,-0.6343
275091.0,0.1652,5.3798,12.6821,-0.6508,-1.4282,-0.5417
275101.0,0.0575,5.5593,12.457,-0.7673,-1.5405,-0.4103
275111.0,0.2179,5.4181,12.129,-0.7774,-1.6373,-0.2506
275121.0,0.4812,5.1619,11.4898,-0.7237,-1.7427,-0.0915
275131.0,0.747,4.9344,10.5201,-0.6572,-1.8278,0.0484
275141.0,1.0726,4.6902,9.5864,-0.6194,-1.848,0.1666
275151.0,1.4988,4.5035,8.5473,-0.6125,-1.823,0.2597
275161.0,1.9273,4.4772,7.3717,-0.68,-1.7671,0.3246
275171.0,2.1979,4.4915,6.6248,-0.8407,-1.6432,0.3693
275181.0,2.3391,4.5945,6.2704,-1.0286,-1.4777,0.4055
275191.0,2.2697,4.707,6.2752,-1.2058,-1.3361,0.447
275201.0,2.1476,4.6495,6.3087,-1.3079,-1.2297,0.5076
275211.0,2.1907,4.4604,6.3494,-1.3207,-1.1366,0.5805
275221.0,2.3152,4.4221,6.1148,-1.2574,-1.0733,0.6518
275231.0,2.3056,4.525,5.5545,-1.1802,-1.0259,0.7226
275241.0,2.3128,4.5993,4.8483,-1.1142,-0.9402,0.803
275251.0,2.4253,4.7142,4.0079,-1.0626,-0.8109,0.8897
275261.0,2.5881,4.8171,3.4692,-1.0328,-0.6359,0.9738
275271.0,2.7294,5.0566,3.2178,-0.9402,-0.3735,1.069
275281.0,2.8012,5.5426,3.5434,-0.7338,-0.0255,1.1882
275291.0,2.4948,6.3949,4.0773,-0.4337,0.3427,1.3473
275301.0,1.9106,7.2329,4.8028,-0.1506,0.6572,1.557
275311.0,1.2689,7.7812,5.4803,0.0537,0.8876,1.8129
275321.0,0.5531,7.8937,6.0501,0.1458,1.0153,2.0912
275331.0,0.0958,7.2784,6.8378,0.1554,1.0658,2.3642
275341.0,0.0024,6.2417,8.26,0.3102,1.1738,2.6217
275351.0,-0.0215,5.5689,8.3462,0.5247,1.1467,2.8298
275361.0,-0.0455,4.5035,8.8538,0.605,1.0589,2.9687
275371.0,-0.2705,3.7613,8.8562,0.7471,1.0413,3.0618
275381.0,-0.2083,2.7246,9.3901,0.803,0.9935,3.115
275391.0,-0.2634,1.9106,9.7037,0.9147,0.9312,3.1506
275401.0,-0.3903,1.1995,9.8282,1.0679,0.8737,3.1884
275411.0,-0.5219,0.3041,10.2137,1.3196,0.8966,3.2613
275421.0,-0.6321,-0.8954,10.4674,1.6687,0.9807,3.364
275431.0,-0.4429,-2.6408,11.0325,2.03,1.1137,3.4635
275441.0,-0.1508,-4.4341,11.7124,2.3796,1.2733,3.4976
275451.0,0.2466,-6.019,12.7204,2.6217,1.3947,3.421
275461.0,0.5746,-6.9049,13.69,2.7526,1.4601,3.2464
275471.0,0.6081,-7.3646,14.9446,2.7164,1.4601,3.0187
275481.0,0.5531,-7.5681,15.9334,2.5589,1.3681,2.7755
275491.0,0.5291,-7.5369,16.8504,2.2854,1.2292,2.519
275501.0,0.4262,-7.3813,17.4825,1.872,1.0429,2.2498
275511.0,0.328,-7.6614,18.6436,1.3367,0.829,1.9678
275521.0,0.407,-8.0445,20.2885,0.886,0.5741,1.674
275531.0,0.407,-7.8554,21.4497,0.6428,0.2352,1.3755
275541.0,0.2658,-6.9456,21.7034,0.5497,-0.1532,1.0956
275551.0,0.4525,-5.1499,21.2509,0.4789,-0.5177,0.8503
275561.0,0.4357,-3.0095,21.0163,0.2969,-0.7678,0.6678
275571.0,0.0838,-0.996,21.8471,0.0154,-0.9025,0.5741
275581.0,-0.6249,0.9649,22.6946,-0.323,-1.1366,0.5715
275591.0,-1.336,1.9249,23.0466,-0.8285,-1.615,0.6353
275601.0,-1.5251,1.6376,22.7784,-1.3941,-2.2322,0.7221
275611.0,-1.336,0.6225,22.065,-1.8209,-2.858,0.7806
275621.0,-1.0606,-0.2538,20.2813,-2.0071,-3.4359,0.787
275631.0,-0.735,-0.7685,17.8607,-2.0268,-3.8759,0.7402
275641.0,-0.4597,-0.8164,15.1098,-2.0066,-4.1787,0.6513
275651.0,0.0359,-0.5267,12.4355,-2.0486,-4.3947,0.5337
275661.0,0.34,-0.0287,9.9623,-2.1263,-4.4985,0.4193
275671.0,0.7302,0.577,7.2903,-2.2429,-4.5267,0.3326
275681.0,1.0894,0.9122,5.0446,-2.402,-4.4495,0.2863
275691.0,1.4222,1.1636,3.0215,-2.5573,-4.2957,0.2703
275701.0,1.6496,1.1732,1.1396,-2.7053,-4.1021,0.2826
275711.0,1.9178,0.8739,-0.3065,-2.7452,-3.7977,0.3225
275721.0,2.4517,0.1963,-0.893,-2.5797,-3.3677,0.381
275731.0,2.897,-0.6847,-1.0774,-2.1652,-2.8798,0.4486
275741.0,3.2585,-1.3743,-1.4198,-1.5745,-2.428,0.4954
275751.0,3.4788,-1.7454,-1.7621,-0.8876,-1.9576,0.5236
275761.0,3.6272,-1.798,-2.1308,-0.2506,-1.5043,0.531
275771.0,3.6392,-1.5921,-2.5857,0.2299,-1.11,0.5172
275781.0,3.5099,-1.336,-2.897,0.514,-0.7588,0.4832
275791.0,3.3734,-1.0343,-3.1173,0.6768,-0.4012,0.4385
275801.0,3.2298,-0.9098,-2.66,0.7838,0.0037,0.3943
275811.0,2.9616,-0.7733,-2.0279,0.8939,0.3837,0.3501
275821.0,2.8467,-0.68,-1.4892,0.9786,0.6774,0.3044
275831.0,2.8778,-0.4381,-1.1205,1.0616,0.9535,0.2554
275841.0,2.7198,-0.2562,-0.7015,1.0914,1.2265,0.2118
275851.0,2.8467,-0.4022,0.0862,1.035,1.4543,0.1612
275861.0,3.0263,-0.3998,0.838,0.9993,1.6607,0.0958
275871.0,3.0023,-0.3903,1.6137,0.9328,1.815,0.0213
275881.0,2.9832,-0.4262,2.4421,0.8216,1.9044,-0.0527
275891.0,2.9592,-0.4118,3.2274,0.705,1.9353,-0.1293
275901.0,2.8228,-0.4549,3.7086,0.5832,1.8816,-0.2033
275911.0,2.9209,-0.6608,4.0151,0.5013,1.7826,-0.2762
275921.0,2.988,-0.6321,3.6152,0.5401,1.7044,-0.3475
275931.0,3.0957,-0.5076,2.6073,0.5992,1.6527,-0.4156
275941.0,3.3902,-0.3089,0.9912,0.6204,1.6687,-0.4869
275951.0,3.5817,-0.3543,-0.2849,0.6018,1.856,-0.5465
275961.0,4.0007,-0.6273,-1.1157,0.6598,2.2104,-0.58
275971.0,4.2928,-0.917,-1.573,0.8322,2.701,-0.6029
275981.0,4.2258,-1.1109,-1.6448,1.1084,3.3012,-0.6252
275991.0,3.7373,-0.9553,-1.4892,1.4436,3.9584,-0.6502
276001.0,2.7533,-0.5938,-0.9697,1.7368,4.6049,-0.6827
276011.0,1.7214,0.0215,-0.0814,1.9693,5.2115,-0.7045
276021.0,0.577,0.6847,1.2115,2.0944,5.7771,-0.7061
276031.0,-1.3144,1.2402,2.9113,2.146,6.2832,-0.6832
276041.0,-3.45,1.9201,5.1499,2.245,6.8153,-0.646
276051.0,-5.387,3.3184,7.9895,2.3663,7.3799,-0.6071
276061.0,-6.7325,5.4708,12.141,2.2891,7.9109,-0.5444
276071.0,-8.1906,7.6471,17.7985,1.8821,8.3057,-0.4028
276081.0,-10.2185,7.8578,26.3578,1.0217,8.3361,-0.1836
276091.0,-10.9415,6.7469,34.9697,0.0495,7.6268,0.0378
276101.0,-11.0828,4.6376,41.8483,-0.8727,6.2236,0.2112
276111.0,-11.3389,2.0758,46.6079,-1.4548,4.3692,0.3363
276121.0,-11.4299,0.6871,47.5512,-1.3058,2.3583,0.4395
276131.0,-10.7619,-0.0622,45.406,-0.6119,0.4709,0.5491
276141.0,-9.5265,0.3208,39.7007,0.2911,-1.0924,0.6391
276151.0,-7.944,0.8284,33.6697,0.7913,-2.1944,0.6518
276161.0,-6.6128,2.0925,28.3186,0.8966,-2.7106,0.5821
276171.0,-5.7006,3.474,24.7967,0.5965,-2.85,0.4651
276181.0,-4.9464,4.8842,22.29,0.083,-2.7712,0.3613
276191.0,-4.549,5.5713,21.6388,-0.6678,-2.5972,0.2751
276201.0,-4.3072,5.3415,22.3427,-1.5623,-2.6334,0.2001
276211.0,-4.0965,4.6088,22.9341,-2.3184,-2.9367,0.1453
276221.0,-4.0151,3.8427,22.7784,-2.7702,-3.3741,0.1117
276231.0,-4.13,3.4788,21.7968,-2.8995,-3.8419,0.1032
276241.0,-4.2425,3.5506,20.1688,-2.8314,-4.3197,0.1256
276251.0,-4.2737,3.6583,17.9014,-2.6505,-4.7629,0.1926
276261.0,-4.1324,3.6536,15.433,-2.3807,-5.0737,0.3017
276271.0,-3.8451,3.6871,12.7802,-2.0646,-5.2488,0.4353
276281.0,-3.5554,3.6248,10.4339,-1.7773,-5.2844,0.5864
276291.0,-3.0789,3.4285,8.3342,-1.5484,-5.2147,0.746
276301.0,-2.4493,3.1268,6.4452,-1.4016,-5.0795,0.8977
276311.0,-1.6376,2.5642,4.6519,-1.35,-4.897,1.0339
276321.0,-0.7278,1.9489,3.0358,-1.3766,-4.6283,1.1281
276331.0,0.0599,1.2402,2.0638,-1.475,-4.2729,1.1696
276341.0,0.996,0.498,1.6328,-1.6096,-3.9041,1.1621
276351.0,1.7238,-0.2442,1.8914,-1.7145,-3.5364,1.1004
276361.0,2.241,-0.7398,2.2984,-1.7427,-3.2416,0.9977
276371.0,2.5498,-0.9481,2.7414,-1.6783,-3.0283,0.8764
276381.0,2.7294,-0.7638,3.0742,-1.4942,-2.8564,0.77
276391.0,2.8108,-0.3903,3.0526,-1.2318,-2.709,0.7056
276401.0,2.873,0.1173,2.6791,-0.9605,-2.5776,0.6832
276411.0,2.8491,0.6033,2.1691,-0.7577,-2.436,0.7019
276421.0,2.8132,1.0032,1.7214,-0.6667,-2.2929,0.745
276431.0,2.7964,1.3719,1.4006,-0.6609,-2.1439,0.8109
276441.0,2.7605,1.6496,1.2043,-0.7098,-1.9954,0.9104
276451.0,2.7318,1.7454,1.1372,-0.7817,-1.8528,1.0408
276461.0,2.7294,1.743,0.9505,-0.8328,-1.7262,1.1861
276471.0,2.6863,1.6305,0.8212,-0.895,-1.6198,1.3399
276481.0,2.727,1.3001,0.8236,-0.9062,-1.5282,1.5123
276491.0,2.7797,0.8547,0.5698,-0.8333,-1.4415,1.6852
276501.0,2.976,0.4214,-0.0239,-0.7343,-1.3734,1.8342
276511.0,3.1556,0.0168,-0.6512,-0.6114,-1.2515,1.9614
276521.0,3.0287,-0.1389,-1.4341,-0.447,-1.0664,2.0736
276531.0,2.8156,-0.2298,-2.5283,-0.3735,-0.9136,2.163
276541.0,2.6911,-0.3472,-3.8762,-0.3954,-0.7572,2.2343
276551.0,2.6384,-0.4477,-5.5354,-0.4704,-0.5268,2.2934
276561.0,2.7653,-0.5794,-7.1778,-0.5843,-0.1969,2.3456
276571.0,3.3232,-0.7326,-8.6957,-0.7003,0.2506,2.403
276581.0,4.2306,-0.9433,-7.8889,-0.6651,0.9525,2.461
276591.0,2.4086,0.2682,-7.7141,-0.1921,1.8821,2.6403
276601.0,1.494,-2.0566,-3.7804,0.2405,2.7234,2.9538
276611.0,1.5514,-2.9161,-1.9249,1.3601,3.5385,3.1639
276621.0,2.071,-3.8451,1.0582,2.4456,4.1808,3.2187
276631.0,1.5012,-4.0773,2.739,3.5183,4.723,3.2608
276641.0,2.6288,-5.1715,4.774,4.2404,5.103,3.2587
276651.0,2.8371,-5.1451,7.3933,4.5836,5.4887,3.073
276661.0,2.6552,-3.8762,9.8833,4.1617,5.5659,2.7457
276671.0,2.0111,-2.8012,13.2543,2.7042,5.1801,2.3583
276681.0,1.0654,-2.6647,17.1209,0.7987,4.4809,2.0215
276691.0,-0.2131,-3.2394,21.2198,-0.7391,3.6657,1.8198
276701.0,-1.415,-4.1611,24.8398,-1.4319,2.7361,1.7698
276711.0,-1.6807,-4.6328,26.6427,-1.135,1.748,1.8533
276721.0,-1.8268,-4.7477,26.5325,-0.066,0.8929,2.0444
276731.0,-1.5467,-4.2904,24.3155,1.2643,0.2107,2.278
276741.0,-1.0582,-3.6344,21.2773,2.1737,-0.3448,2.4711
276751.0,-0.5698,-2.9712,17.856,2.4126,-0.8141,2.5882
276761.0,-0.5363,-2.6647,15.0907,2.105,-1.0823,2.6356
276771.0,-0.8523,-2.5283,13.307,1.5846,-1.102,2.6494
276781.0,-1.2091,-2.9664,12.7731,1.0722,-0.9764,2.6552
276791.0,-1.3048,-3.5841,12.809,0.8163,-0.7583,2.6654
276801.0,-1.2163,-4.2928,13.0771,0.787,-0.4816,2.6739
276811.0,-1.0942,-4.865,13.556,0.7987,-0.2049,2.6547
276821.0,-1.1516,-5.4157,14.2742,0.6731,-0.0447,2.5744
276831.0,-1.5012,-5.703,14.8728,0.3954,-0.0495,2.4371
276841.0,-1.9249,-5.9137,15.2439,0.0383,-0.1447,2.2673
276851.0,-2.2027,-6.019,15.3947,-0.299,-0.2671,2.0928
276861.0,-2.3966,-6.2345,15.5791,-0.572,-0.3847,1.9273
276871.0,-2.4852,-6.3901,15.9238,-0.745,-0.4715,1.7741
276881.0,-2.8156,-6.3255,16.3261,-0.795,-0.5502,1.641
276891.0,-3.5961,-6.11,16.7091,-0.7742,-0.663,1.5357
276901.0,-4.2473,-6.0118,16.8743,-0.7322,-0.8344,1.4654
276911.0,-4.64,-6.2513,16.9964,-0.763,-1.1041,1.3979
276921.0,-4.9847,-6.5577,16.8983,-0.8328,-1.4447,1.3223
276931.0,-6.0478,-7.2137,17.3795,-0.8439,-1.781,1.2568
276941.0,-7.264,-8.1906,18.8208,-0.6146,-2.138,1.251
276951.0,-8.7029,-9.4092,19.5247,0.0474,-2.6547,1.3484
276961.0,-9.5529,-11.3365,17.0683,0.9307,-3.4076,1.4995
276971.0,-15.4043,-14.3006,13.9606,1.79,-3.7264,1.6144
276981.0,-23.6906,-25.0721,22.1081,2.867,-3.1788,1.8161
276991.0,-6.7086,-36.2482,22.7449,4.7555,-4.0206,1.74
277001.0,4.3359,-27.483,2.1141,4.1946,-6.669,0.5279
277011.0,-1.4916,-17.5567,-14.188,0.3884,-6.8504,-1.2026
277021.0,-5.7054,-15.4091,1.3671,-2.9692,-3.3938,-2.6446
277031.0,-5.9233,-13.975,13.2232,-4.5708,-2.9144,-3.5024
277041.0,-1.4102,-10.6111,7.7692,-5.0625,-4.8433,-4.1643
277051.0,-0.0383,-4.6926,-2.7102,-4.7305,-4.5442,-4.6645
277061.0,-2.7773,-2.1691,0.3089,-5.0646,-2.7851,-5.0168
277071.0,-5.6312,-1.233,6.845,-5.2269,-1.7953,-5.1844
277081.0,-5.8873,-0.5171,9.7899,-4.7965,-1.698,-5.187
277091.0,-7.3478,0.0814,12.6055,-3.7381,-1.5761,-5.0737
277101.0,-7.0078,1.1061,13.2735,-2.394,-1.8353,-4.8795
277111.0,-6.1986,1.9752,13.0676,-0.961,-2.1721,-4.5895
277121.0,-5.5522,3.3974,11.157,0.4353,-2.5313,-4.2085
277131.0,-4.4029,4.3814,8.6335,1.5139,-2.8388,-3.7408
277141.0,-3.4405,4.9488,6.2489,2.2657,-2.966,-3.24
277151.0,-2.3056,5.2553,3.9169,2.6419,-3.0245,-2.7617
277161.0,-1.1779,5.2313,1.6735,2.6776,-2.9963,-2.3376
277171.0,-0.0144,5.0302,-0.1197,2.4467,-2.8186,-1.9954
277181.0,1.0678,5.1092,-2.2505,1.8725,-2.6116,-1.7624
277191.0,2.3248,4.3886,-2.8156,0.9658,-2.27,-1.6017
277201.0,4.458,4.1444,-3.5171,0.0266,-1.8023,-1.5133
277211.0,5.1332,3.1244,-1.2665,-0.7301,-1.3633,-1.4894
277221.0,4.5442,3.9552,-0.8595,-0.6864,-0.7567,-1.3478
277231.0,6.0334,0.5195,2.9377,-0.9711,-0.6912,-1.2297
277241.0,5.4636,0.4525,2.4852,-0.6992,-0.489,-1.1871
277251.0,5.2026,-0.4908,4.7429,-0.6524,-0.4087,-1.1941
277261.0,6.1962,-0.6871,4.1779,-0.5944,-0.6268,-1.2494
277271.0,6.7301,-1.5562,3.2633,-0.5066,-0.7258,-1.3659
277281.0,7.3143,-1.8818,1.7885,-0.3517,-0.7077,-1.5234
277291.0,7.5513,-1.7454,1.075,-0.2458,-0.589,-1.7086
277301.0,8.1379,-1.5993,0.0263,-0.124,-0.3991,-1.8773
277311.0,8.9543,-1.166,-0.6488,-0.0777,-0.107,-2.0263
277321.0,9.3541,-0.9888,-0.8739,-0.1713,0.191,-2.1439
277331.0,9.4164,-1.166,-1.0726,-0.2762,0.5481,-2.2429
277341.0,9.1075,-1.1708,-0.5722,-0.3991,0.9477,-2.3807
277351.0,8.4132,-0.8835,0.1149,-0.5491,1.268,-2.5488
277361.0,7.6567,-0.6656,0.826,-0.6699,1.5181,-2.709
277371.0,7.0629,-0.3567,1.5993,-0.6971,1.7576,-2.8543
277381.0,6.687,0.0431,2.8228,-0.5843,2.0513,-2.9782
277391.0,6.8019,0.6297,4.1084,-0.3342,2.3599,-3.0559
277401.0,7.0174,1.3886,5.1308,-0.1607,2.5494,-3.1102
277411.0,6.9001,2.4373,5.873,-0.1266,2.6877,-3.1512
277421.0,6.3446,3.7996,6.8307,-0.3379,2.767,-3.1804
277431.0,5.5905,5.1571,7.8219,-0.8354,2.7202,-3.1719
277441.0,5.1475,5.9759,8.8178,-1.5,2.5509,-3.0926
277451.0,5.0973,6.0645,9.7013,-2.1295,2.369,-2.9335
277461.0,5.3654,4.7597,10.7332,-2.6004,2.2322,-2.718
277471.0,6.5218,2.2386,12.1506,-2.7281,2.2152,-2.5164
277481.0,7.4699,0.407,13.0197,-2.5249,2.2753,-2.4637
277491.0,7.6423,-0.431,13.8816,-2.2993,2.3115,-2.5749
277501.0,6.8594,-0.1652,15.1098,-2.0933,2.3956,-2.784
277511.0,5.6527,1.0271,16.6541,-1.997,2.3775,-3.0192
277521.0,4.5274,2.648,17.7889,-2.0327,2.1593,-3.1921
277531.0,3.9504,4.1468,18.1217,-2.1822,1.8432,-3.2629
277541.0,3.4405,4.9512,18.1624,-2.4887,1.558,-3.2501
277551.0,3.5745,4.5705,18.907,-2.9213,1.3345,-3.1927
277561.0,3.7685,4.0175,19.8575,-3.3608,1.1318,-3.1666
277571.0,3.6009,3.6655,21.0091,-3.8211,0.8195,-3.1964
277581.0,3.2777,3.383,22.0338,-4.2085,0.3879,-3.2432
277591.0,3.1747,3.2609,21.7034,-4.4027,-0.1527,-3.2916
277601.0,3.0454,3.814,20.9995,-4.465,-0.6455,-3.33
277611.0,3.2992,4.5801,19.0531,-4.4192,-1.0679,-3.3039
277621.0,3.4668,5.5737,17.1832,-4.4187,-1.3106,-3.2714
277631.0,4.0701,7.2257,14.4083,-4.5469,-1.408,-3.215
277641.0,4.4101,8.3725,13.3405,-5.0274,-1.2702,-3.1256
277651.0,4.1779,9.153,13.975,-5.6611,-1.0227,-2.9862
277661.0,4.0701,9.0764,15.9167,-6.2816,-0.9264,-2.7803
277671.0,3.8307,8.4659,17.8105,-6.7105,-1.0722,-2.5222
277681.0,3.8355,8.0421,18.2845,-6.8988,-1.4628,-2.2487
277691.0,3.9121,7.6399,17.5256,-6.9233,-1.8964,-1.9635
277701.0,4.0989,7.1156,16.2662,-6.9457,-2.2822,-1.7017
277711.0,4.0845,6.8211,14.6717,-7.0207,-2.6542,-1.4942
277721.0,4.0247,6.7229,12.9407,-7.1335,-2.9772,-1.3218
277731.0,3.9433,6.4667,12.05,-7.2085,-3.1762,-1.1547
277741.0,3.7541,6.3758,11.7723,-7.0782,-3.3071,-0.969
277751.0,3.5865,6.4835,11.2384,-6.6929,-3.4885,-0.7327
277761.0,3.4165,6.6391,10.1634,-6.0842,-3.6567,-0.4262
277771.0,3.4117,6.857,8.5904,-5.3834,-3.7711,-0.0649
277781.0,3.1723,7.0725,6.6056,-4.7321,-3.828,0.332
277791.0,2.8874,7.1419,4.7214,-4.2617,-3.8732,0.7428
277801.0,2.4134,6.8187,3.1149,-3.8897,-3.8552,1.1685
277811.0,2.1572,6.1531,1.3623,-3.5151,-3.827,1.6123
277821.0,2.2266,5.0206,-0.6273,-3.1496,-3.7642,2.0582
277831.0,1.9465,3.5267,-2.7174,-2.751,-3.5236,2.4823
277841.0,1.7166,1.5778,-4.4867,-2.4977,-3.2688,2.8191
277851.0,2.4157,-0.1844,-8.0038,-2.4291,-3.0373,3.0618
277861.0,3.1603,-2.7366,-10.0413,-2.7941,-2.6047,3.1592
277871.0,3.7014,-5.2122,-10.9726,-3.3959,-2.1338,3.0533
277881.0,4.5562,-7.0749,-10.9104,-3.9483,-1.6703,2.8042
277891.0,4.1372,-7.9057,-9.9958,-4.1393,-1.0887,2.5249
277901.0,3.6536,-8.0254,-8.8921,-4.026,-0.6109,2.2785
277911.0,3.1939,-7.7572,-8.1475,-3.6785,-0.215,2.1098
277921.0,2.8132,-7.446,-7.5178,-3.2225,0.1479,2.0045
277931.0,2.4421,-7.0725,-7.0629,-2.776,0.4459,1.9433
277941.0,2.071,-6.9408,-6.292,-2.402,0.7066,1.9161
277951.0,1.7478,-6.7325,-5.6503,-2.0939,0.8865,1.9103
277961.0,1.4413,-6.5457,-5.2194,-1.9278,0.9488,1.9098
277971.0,1.4269,-6.4045,-4.9967,-1.8592,0.9078,1.9188
277981.0,1.6113,-6.6367,-4.616,-1.7624,0.8844,1.9523
277991.0,1.6831,-6.7924,-3.8834,-1.4974,0.9333,2.0061
278001.0,1.6257,-6.8331,-3.0215,-1.0898,0.9833,2.0784
278011.0,1.4174,-6.9719,-2.1739,-0.5843,0.9988,2.1742
278021.0,1.3096,-7.3215,-1.3288,-0.0447,0.9887,2.2844
278031.0,1.2929,-7.6016,-1.0127,0.4624,0.9355,2.3892
278041.0,1.3862,-8.1331,-0.5578,0.8375,0.8838,2.4775
278051.0,1.3431,-8.5234,0.0048,1.1095,0.8583,2.5323
278061.0,0.9888,-8.8394,0.9912,1.2984,0.8248,2.5658
278071.0,0.4357,-9.1578,1.9968,1.4963,0.7593,2.5994
278081.0,-0.0958,-9.6007,2.4014,1.706,0.6524,2.6435
278091.0,-0.0694,-10.4291,2.3439,1.8384,0.4965,2.6664
278101.0,0.4525,-11.0373,1.3551,1.7826,0.3044,2.6196
278111.0,0.8595,-11.2647,0.6225,1.4575,0.1751,2.4882
278121.0,0.838,-11.2911,0.6967,1.0057,0.1485,2.3237
278131.0,0.7518,-11.2216,1.3886,0.6173,0.1368,2.1806
278141.0,0.4262,-10.7428,2.1979,0.4129,0.1139,2.0752
278151.0,-0.2538,-9.8019,3.0502,0.4033,0.108,2.0279
278161.0,-0.984,-9.256,4.1204,0.4986,0.0926,2.0689
278171.0,-1.4245,-9.3111,4.7405,0.6486,-0.017,2.1737
278181.0,-1.4198,-9.9455,5.1547,0.7599,-0.1953,2.2732
278191.0,-1.2809,-10.7428,5.3654,0.8093,-0.4049,2.3269
278201.0,-1.3934,-11.5233,5.5761,0.8418,-0.621,2.3301
278211.0,-1.8364,-12.2703,5.6719,0.9466,-0.803,2.3067
278221.0,-1.9082,-13.3692,5.861,1.1228,-0.9546,2.2737
278231.0,-1.7119,-14.3892,5.8921,1.3824,-1.0781,2.2013
278241.0,-1.664,-14.7794,5.7461,1.6639,-1.1536,2.0715
278251.0,-1.8196,-14.4059,5.4995,1.88,-1.1829,1.9124
278261.0,-2.2458,-13.3908,5.2481,1.8624,-1.2286,1.756
278271.0,-2.9928,-12.7467,5.5737,1.5298,-1.3617,1.6352
278281.0,-3.5937,-13.1897,6.8953,1.1542,-1.5442,1.5655
278291.0,-3.8595,-14.0659,7.932,1.0605,-1.8001,1.5335
278301.0,-3.7182,-15.287,8.5401,1.2435,-2.1173,1.5053
278311.0,-3.6488,-16.3285,8.6,1.6772,-2.3823,1.4527
278321.0,-3.723,-17.1736,8.9208,2.179,-2.6153,1.3553
278331.0,-3.9049,-17.5399,8.9136,2.685,-2.8771,1.2297
278341.0,-4.5729,-17.6501,9.0549,3.1182,-3.1331,1.1031
278351.0,-5.3558,-17.6261,8.849,3.4252,-3.4619,0.9988
278361.0,-5.8395,-17.9541,7.9607,3.5141,-3.9211,0.903
278371.0,-5.8945,-18.6891,6.5386,3.4758,-4.3559,0.7913
278381.0,-5.4899,-19.587,4.6017,3.3917,-4.6714,0.6412
278391.0,-4.7022,-20.5303,2.6959,3.2885,-4.8183,0.4379
278401.0,-3.8738,-21.2294,1.0295,3.2257,-4.7502,0.1719
278411.0,-3.0813,-21.701,0.012,3.1677,-4.548,-0.1495
278421.0,-2.2601,-21.9357,-0.8811,3.1049,-4.3101,-0.5108
278431.0,-1.5538,-21.725,-1.4389,3.0495,-4.0201,-0.919
278441.0,-1.1349,-20.8774,-1.7406,3.0118,-3.6705,-1.3489
278451.0,-0.9242,-19.5103,-1.5203,2.9852,-3.2885,-1.781
278461.0,-1.154,-17.4178,-0.9409,2.9894,-2.9032,-2.1795
278471.0,-1.4868,-15.0332,0.0335,2.9825,-2.5674,-2.5084
278481.0,-1.8172,-12.6079,1.0127,2.9745,-2.3126,-2.7345
278491.0,-1.9465,-10.4315,1.6448,2.9468,-2.1465,-2.8702
278501.0,-1.9537,-8.4563,1.9489,2.8713,-2.0247,-2.9362
278511.0,-1.8723,-6.7469,1.8268,2.7207,-1.9465,-2.9468
278521.0,-1.494,-5.4061,1.2258,2.4637,-1.8821,-2.9096
278531.0,-1.0654,-4.6017,0.5626,2.1396,-1.7416,-2.8436
278541.0,-0.4717,-4.3215,0.146,1.7959,-1.5282,-2.7675
278551.0,0.2442,-4.4245,-0.4022,1.4931,-1.276,-2.7015
278561.0,1.2905,-4.5969,-1.0008,1.26,-0.9477,-2.6664
278571.0,1.9345,-4.2617,-1.6376,1.0807,-0.4699,-2.6739
278581.0,2.3966,-3.4117,-2.0782,0.7992,0.0809,-2.7026
278591.0,2.4134,-2.1691,-1.9345,0.3028,0.654,-2.7255
278601.0,1.8962,-0.6416,-1.2067,-0.397,1.2122,-2.6994
278611.0,1.2498,0.4501,0.2251,-1.2568,1.6602,-2.5701
278621.0,0.8571,0.4908,2.1739,-2.0508,2.0172,-2.3056
278631.0,1.1468,-0.7254,4.3215,-2.602,2.2844,-1.9449
278641.0,0.7494,-2.7031,6.28,-2.8351,2.4334,-1.5894
278651.0,1.3144,-5.6503,7.7213,-2.6866,2.5031,-1.2888
278661.0,1.664,-9.5313,8.0397,-2.1987,2.6004,-1.119
278671.0,3.6799,-14.2503,8.023,-1.6176,2.726,-1.1983
278681.0,5.5282,-17.1952,7.7883,-1.0669,3.0277,-1.608
278691.0,4.197,-16.8791,9.2057,-0.828,3.4162,-2.2716
278701.0,2.0183,-14.5879,12.0811,-0.8711,3.6173,-2.9197
278711.0,0.1939,-11.6981,15.3995,-1.0296,3.4438,-3.3927
278721.0,-0.8811,-8.5928,17.5878,-1.1797,2.8558,-3.6508
278731.0,-1.2163,-5.6623,17.6429,-1.1669,2.0843,-3.6828
278741.0,-0.6129,-4.0486,16.6996,-0.9951,1.3846,-3.5072
278751.0,0.5938,-3.3998,14.6286,-0.5981,0.8743,-3.2086
278761.0,1.822,-3.6176,12.3014,-0.0777,0.5832,-2.8942
278771.0,3.8307,-4.1587,9.8162,0.514,0.5417,-2.635
278781.0,4.9081,-3.869,8.1499,1.1031,0.8844,-2.4871
278791.0,4.5011,-2.2458,8.09,1.4649,1.4335,-2.4349
278801.0,3.5841,-0.5124,9.6845,1.3409,1.7533,-2.4009
278811.0,2.6719,0.9529,11.3533,0.8966,1.6841,-2.337
278821.0,2.0734,1.7478,12.6677,0.48,1.4223,-2.2131
278831.0,1.9489,1.9992,13.4434,0.3975,1.185,-2.0119
278841.0,2.0111,1.8459,13.9797,0.688,1.0382,-1.7581
278851.0,2.1739,1.6185,14.3604,1.2638,0.9174,-1.4947
278861.0,2.3822,1.6281,14.2383,1.9608,0.745,-1.2553
278871.0,2.8706,1.8028,13.6493,2.6159,0.5608,-1.0429
278881.0,3.4477,2.2529,13.3932,3.1022,0.4315,-0.8689
278891.0,3.3064,3.2585,13.5129,3.364,0.3155,-0.7269
278901.0,2.7653,4.4388,13.6326,3.3454,0.066,-0.5853
278911.0,2.2027,5.5761,12.9885,3.0708,-0.3299,-0.4321
278921.0,1.889,6.541,11.5879,2.6031,-0.7545,-0.2724
278931.0,2.0877,6.8283,10.2639,2.0566,-1.0424,-0.0905
278941.0,2.5426,6.5888,9.5648,1.5618,-1.1573,0.1006
278951.0,2.8635,6.3662,8.9376,1.1776,-1.2228,0.2714
278961.0,3.0143,6.1866,8.3438,0.8721,-1.2914,0.4209
278971.0,3.0071,5.928,8.0517,0.696,-1.3244,0.5699
278981.0,2.9449,5.679,7.9009,0.7168,-1.3356,0.7306
278991.0,2.9305,5.5929,7.446,0.9456,-1.3292,0.9099
279001.0,2.7916,5.4708,7.1012,1.3058,-1.2872,1.1105
279011.0,2.6288,5.284,6.948,1.7943,-1.2132,1.325
279021.0,2.5426,5.035,6.6367,2.3924,-1.1424,1.5532
279031.0,2.624,4.7716,5.7054,3.0495,-1.0743,1.7959
279041.0,2.7102,4.5681,4.2162,3.6588,-0.9498,2.0385
279051.0,2.8611,4.3311,2.4517,4.0999,-0.713,2.2657
279061.0,2.9568,4.0414,0.9936,4.2931,-0.3427,2.4568
279071.0,3.0287,3.7804,0.1077,4.2495,0.1373,2.5946
279081.0,2.7581,3.4644,0.0551,4.0057,0.7019,2.6813
279091.0,2.4397,3.2226,0.8452,3.6152,1.2686,2.7265
279101.0,2.0279,2.9497,2.0351,3.0836,1.7421,2.7388
279111.0,1.6305,2.3535,3.802,2.4137,2.0614,2.7228
279121.0,1.2067,1.6496,5.7485,1.7666,2.2285,2.6723
279131.0,0.759,1.0056,7.4531,1.2659,2.2519,2.5946
279141.0,0.5315,0.1317,9.0644,0.969,2.1982,2.5174
279151.0,0.7183,-0.8978,10.2304,0.9073,2.072,2.4243
279161.0,0.9744,-1.7214,10.6925,1.0153,1.8778,2.2891
279171.0,1.4341,-2.2122,10.4938,1.2217,1.6804,2.0971
279181.0,1.6664,-2.0423,9.9479,1.4596,1.5405,1.8682
279191.0,1.585,-1.3719,9.1961,1.6889,1.5027,1.6644
279201.0,1.1708,-0.7781,8.7939,1.8991,1.591,1.5277
279211.0,0.7183,-0.6177,8.5569,2.0486,1.7118,1.4431
279221.0,0.5698,-0.8835,8.3917,2.0885,1.8305,1.3691
279231.0,0.6369,-1.403,8.3342,1.9635,1.9337,1.2568
279241.0,0.4836,-1.9154,8.5976,1.6602,1.9858,1.0882
279251.0,0.1173,-2.4397,9.2656,1.3404,2.0369,0.9009
279261.0,-0.2945,-2.8443,10.0748,1.1254,2.0875,0.7152
279271.0,-0.6081,-3.213,11.1354,1.0435,2.1338,0.5465
279281.0,-0.8859,-3.486,12.1458,1.1174,2.179,0.3874
279291.0,-1.2905,-3.711,13.1753,1.2989,2.1955,0.2272
279301.0,-1.4892,-3.8307,14.1569,1.5256,2.1652,0.0532
279311.0,-1.47,-3.6799,14.8728,1.7113,2.0646,-0.1442
279321.0,-1.5107,-3.3543,15.5072,1.7847,1.9007,-0.3608
279331.0,-1.6903,-2.9209,15.8424,1.756,1.69,-0.5816
279341.0,-1.8914,-2.4972,16.2901,1.6219,1.483,-0.7987
279351.0,-1.9297,-2.1404,17.0108,1.4202,1.2499,-1.0163
279361.0,-1.8507,-1.6903,17.3197,1.2207,0.9498,-1.2297
279371.0,-1.7286,-1.2617,17.3628,1.0025,0.6284,-1.4303
279381.0,-1.6616,-0.9505,17.1832,0.7769,0.3288,-1.6208
279391.0,-1.7406,-0.5866,16.7067,0.5843,0.0591,-1.7991
279401.0,-1.9513,-0.4956,16.1226,0.4337,-0.1485,-1.9656
279411.0,-1.968,-0.4094,15.6653,0.3586,-0.282,-2.1354
279421.0,-1.9513,-0.237,15.2798,0.3352,-0.3656,-2.3184
279431.0,-1.8124,0.0766,15.0428,0.3145,-0.4289,-2.5201
279441.0,-1.968,0.9026,14.7315,0.2496,-0.5124,-2.7367
279451.0,-2.3439,2.0351,14.6214,0.0899,-0.6332,-2.9399
279461.0,-2.8802,3.3279,14.5113,-0.0915,-0.7593,-3.0937
279471.0,-3.1915,4.4197,14.3245,-0.2602,-0.8987,-3.1799
279481.0,-3.3902,5.272,14.0875,-0.3528,-1.0174,-3.2023
279491.0,-3.486,6.0382,13.7092,-0.3363,-1.0648,-3.1719
279501.0,-3.6655,6.766,13.4291,-0.2666,-1.0557,-3.098
279511.0,-3.7828,7.1611,13.3549,-0.1905,-1.0419,-2.9867
279521.0,-3.5913,7.4148,13.2735,-0.107,-1.0147,-2.8574
279531.0,-3.3399,7.6926,12.8521,-0.1235,-1.0254,-2.7457
279541.0,-3.1412,7.9535,12.5767,-0.3241,-1.0376,-2.6739
279551.0,-3.1101,8.1283,13.0676,-0.6252,-1.0094,-2.626
279561.0,-3.2106,8.4252,13.9271,-0.8892,-1.0227,-2.585
279571.0,-3.3806,8.8585,14.6669,-1.0786,-1.1393,-2.5307
279581.0,-3.5195,9.0668,15.3875,-1.1329,-1.3,-2.436
279591.0,-3.3662,9.323,15.7395,-0.9961,-1.4947,-2.303
279601.0,-3.292,9.7252,15.4211,-0.7758,-1.7235,-2.1402
279611.0,-3.3902,9.8833,14.7555,-0.5864,-1.9582,-1.9598
279621.0,-3.0119,10.0221,13.4961,-0.4523,-2.1811,-1.7852
279631.0,-2.4253,10.1514,12.1123,-0.4683,-2.3317,-1.641
279641.0,-2.1045,10.2544,11.1187,-0.6657,-2.4004,-1.5351
279651.0,-1.9513,10.3789,10.6925,-0.9461,-2.4238,-1.4543
279661.0,-1.7957,10.477,10.5369,-1.185,-2.4296,-1.3558
279671.0,-1.6544,10.2352,10.7428,-1.3079,-2.4089,-1.2095
279681.0,-1.6831,9.6486,11.2097,-1.2212,-2.3706,-1.0126
279691.0,-1.7669,8.7484,11.5329,-0.9014,-2.3349,-0.7822
279701.0,-1.3312,7.6423,11.3198,-0.4092,-2.304,-0.5433
279711.0,-0.5746,6.9839,10.3908,0.0335,-2.2758,-0.3693
279721.0,-0.0934,6.9599,9.3925,0.1979,-2.2072,-0.2794
279731.0,-0.0359,6.9887,9.4691,0.0181,-2.129,-0.2352
279741.0,0.1963,6.6798,10.1083,-0.3129,-2.1407,-0.1995
279751.0,0.3184,6.256,10.5273,-0.6332,-2.262,-0.1644
279761.0,0.2059,5.624,10.7883,-0.8583,-2.4099,-0.1288
279771.0,0.4118,5.0182,10.908,-0.9147,-2.5531,-0.1038
279781.0,0.5459,4.8554,10.4339,-0.8673,-2.7196,-0.0905
279791.0,0.6105,4.5969,9.7612,-0.8157,-2.8739,-0.0729
279801.0,1.1277,4.616,8.6431,-0.738,-2.9873,-0.0474
279811.0,1.664,4.4939,7.75,-0.7061,-3.0075,-0.0346
279821.0,2.2458,4.9775,6.7109,-0.7726,-3.0011,-0.0341
279831.0,2.466,5.1523,6.4524,-0.9062,-2.9426,-0.0149
279841.0,2.6959,5.43,6.1723,-0.9653,-2.8782,0.0255
279851.0,2.9999,5.7868,5.8155,-0.9913,-2.8436,0.0894
279861.0,3.0909,6.031,5.3175,-1.0099,-2.8239,0.1783
279871.0,3.5267,6.1124,4.64,-0.9828,-2.7771,0.2889
279881.0,3.7996,6.1675,4.0893,-0.9397,-2.6451,0.4039
279891.0,3.9935,6.2417,3.8786,-0.9078,-2.5121,0.5204
279901.0,4.3,6.4404,3.62,-0.8269,-2.3631,0.6492
279911.0,4.5107,6.8139,3.3519,-0.7072,-2.163,0.8067
279921.0,4.5921,7.0006,3.2394,-0.629,-1.9614,0.9961
279931.0,4.6112,7.1204,3.1101,-0.5832,-1.7799,1.2095
279941.0,4.616,7.0844,3.1196,-0.5928,-1.6107,1.4303
279951.0,4.4269,6.9192,3.3662,-0.638,-1.4516,1.6543
279961.0,4.2617,6.5386,3.7517,-0.7029,-1.3601,1.8752
279971.0,4.1084,6.0454,3.9911,-0.7295,-1.3377,2.0949
279981.0,4.0223,5.4564,4.0151,-0.7003,-1.342,2.3168
279991.0,3.8595,4.707,3.9409,-0.5944,-1.3345,2.5424
280001.0,3.6823,3.8523,3.8642,-0.4023,-1.3106,2.7649
280011.0,3.6033,3.0287,3.6679,-0.1304,-1.2712,2.9761
280021.0,3.541,2.2529,3.1412,0.1862,-1.201,3.1666
280031.0,3.6272,1.506,2.4972,0.4715,-1.102,3.3294
280041.0,3.8259,1.0678,1.5562,0.6784,-0.9599,3.4444
280051.0,4.0175,0.8308,0.5938,0.7333,-0.7694,3.5098
280061.0,4.1827,0.4118,0.2131,0.6157,-0.5358,3.5343
280071.0,4.3144,-0.1293,0.3089,0.4417,-0.2831,3.5162
280081.0,4.4077,-0.5986,0.6728,0.2953,-0.0601,3.455
280091.0,4.47,-0.735,0.9984,0.2267,0.1144,3.3731
280101.0,4.3527,-0.5986,1.2785,0.248,0.2884,3.3081
280111.0,3.8642,-0.1484,1.5993,0.3746,0.5039,3.2927
280121.0,3.0478,0.1796,1.9872,0.5614,0.7231,3.3433
280131.0,2.3846,0.146,2.2865,0.787,0.9291,3.4529
280141.0,1.9824,-0.1748,2.4086,1.0248,1.1467,3.587
280151.0,1.6927,-0.7781,2.7126,1.21,1.3681,3.7141
280161.0,1.4054,-1.5155,3.0718,1.3351,1.5708,3.8115
280171.0,1.0104,-2.0614,3.395,1.4165,1.7528,3.8674
280181.0,0.4908,-2.4062,3.7302,1.4404,1.9215,3.894
280191.0,-0.1963,-2.7342,4.1084,1.3925,2.0726,3.9148
280201.0,-1.0032,-3.3279,4.6735,1.2771,2.1966,3.9414
280211.0,-1.5778,-4.3,5.3247,1.151,2.2828,3.9557
280221.0,-1.8579,-5.6192,6.1244,1.1057,2.3647,3.9382
280231.0,-1.7119,-7.2975,7.0102,1.1776,2.4504,3.869
280241.0,-1.3216,-8.9639,7.8793,1.3649,2.535,3.7099
280251.0,-0.8882,-10.1945,8.7269,1.6389,2.6079,3.4529
280261.0,-0.4477,-10.9391,9.7013,1.9587,2.6627,3.1235
280271.0,-0.2203,-10.9607,10.2735,2.2748,2.6675,2.7505
280281.0,-0.1269,-10.6207,10.7141,2.469,2.6148,2.3535
280291.0,-0.2705,-9.8569,11.0564,2.5137,2.5408,1.9507
280301.0,-0.7063,-8.7149,11.2264,2.3839,2.4185,1.5618
280311.0,-1.403,-7.841,11.5305,2.0923,2.2466,1.2212
280321.0,-1.9561,-7.4747,11.9064,1.773,2.0736,0.944
280331.0,-2.3559,-7.5872,12.3948,1.5181,1.9018,0.7045
280341.0,-2.3535,-7.9416,12.6917,1.3888,1.7198,0.4901
280351.0,-2.2625,-8.3222,12.8617,1.3665,1.5458,0.2762
280361.0,-2.1141,-8.2887,12.6558,1.4457,1.3819,0.0532
280371.0,-2.1021,-7.865,12.1961,1.583,1.2813,-0.1639
280381.0,-2.1763,-7.3287,11.8561,1.6985,1.2372,-0.3618
280391.0,-2.2984,-6.6128,11.6909,1.7682,1.2106,-0.5369
280401.0,-2.4445,-6.0262,11.6047,1.789,1.1722,-0.6806
280411.0,-2.478,-5.5809,11.5808,1.8065,1.1499,-0.8003
280421.0,-2.4014,-5.1188,11.5089,1.84,1.168,-0.9057
280431.0,-2.3966,-4.865,11.6454,1.847,1.2212,-0.9977
280441.0,-2.4612,-4.8459,12.0931,1.8076,1.2622,-1.0972
280451.0,-2.3727,-4.604,12.2368,1.7586,1.2478,-1.2217
280461.0,-2.3655,-4.027,11.9303,1.6495,1.2153,-1.3665
280471.0,-2.5905,-3.0119,11.7483,1.4633,1.2409,-1.5171
280481.0,-2.7869,-1.6472,11.7962,1.2505,1.3228,-1.6442
280491.0,-2.9497,-0.3543,11.8154,0.9855,1.4021,-1.7214
280501.0,-3.0885,0.2945,12.3493,0.6635,1.4878,-1.7395
280511.0,-3.1556,0.4238,13.7092,0.4087,1.591,-1.7235
280521.0,-3.2154,0.4046,14.8991,0.3379,1.6405,-1.6788
280531.0,-3.6033,-0.1844,16.2686,0.3586,1.6229,-1.6208
280541.0,-3.4836,-0.2658,16.4913,0.447,1.5224,-1.6011
280551.0,-3.5698,-1.0846,17.1257,0.3272,1.3681,-1.6229
280561.0,-3.5865,-2.0638,17.1664,0.1117,1.16,-1.7139
280571.0,-3.4117,-2.7653,16.587,-0.1979,0.9216,-1.8949
280581.0,-3.304,-3.1005,15.5408,-0.6577,0.7279,-2.137
280591.0,-3.4572,-3.3327,15.5384,-1.185,0.704,-2.3929
280601.0,-3.8379,-3.3399,16.6038,-1.5511,0.779,-2.6116
280611.0,-4.2234,-3.0957,18.0068,-1.6527,0.7652,-2.7558
280621.0,-4.2473,-2.9401,18.9286,-1.5522,0.5938,-2.8245
280631.0,-4.118,-2.6671,19.1943,-1.3399,0.3177,-2.8622
280641.0,-3.7613,-2.2841,18.9932,-1.1201,-0.0234,-2.8899
280651.0,-3.2872,-1.8579,18.16,-0.9392,-0.3821,-2.9154
280661.0,-2.8802,-1.2546,16.8432,-0.8657,-0.7194,-2.9506
280671.0,-2.4972,-0.7518,15.3971,-0.9051,-0.986,-2.9809
280681.0,-2.0159,-0.4334,14.1354,-1.0099,-1.1542,-3.0059
280691.0,-1.5682,-0.1484,13.1633,-1.1015,-1.2106,-3.0229
280701.0,-1.2929,0.1101,12.5839,-1.1563,-1.1925,-3.0267
280711.0,-0.972,0.3136,11.9159,-1.1563,-1.1717,-3.0123
280721.0,-0.4334,0.3998,11.1426,-1.1691,-1.1499,-2.9979
280731.0,0.0311,0.668,10.252,-1.2212,-1.0818,-2.9963
280741.0,0.3543,0.8954,9.7564,-1.3723,-0.9887,-3.0112
280751.0,0.5938,1.2282,9.4786,-1.5719,-0.8955,-3.0245
280761.0,0.7518,1.6065,9.3757,-1.7613,-0.8131,-3.0235
280771.0,0.7757,2.0446,9.3134,-1.8927,-0.7428,-2.9867
280781.0,0.6919,2.4972,9.2991,-1.9385,-0.6731,-2.9069
280791.0,0.6919,2.8611,9.232,-1.873,-0.5938,-2.7835
280801.0,0.8595,3.5195,8.8466,-1.7203,-0.5146,-2.626
280811.0,0.8284,3.9792,9.0094,-1.4958,-0.3304,-2.4089
280821.0,0.7087,4.3167,9.56,-1.2004,-0.1517,-2.1481
280831.0,0.5842,4.7214,9.9144,-0.8737,-0.0644,-1.8677
280841.0,0.589,5.2529,10.3094,-0.6008,-0.0596,-1.5788
280851.0,0.5746,5.6096,10.4794,-0.3576,-0.083,-1.2696
280861.0,0.6488,5.9376,10.4076,-0.1937,-0.1692,-0.9738
280871.0,0.8045,6.3518,10.094,-0.1506,-0.2804,-0.6917
280881.0,0.7494,6.7301,10.0389,-0.2261,-0.3688,-0.4135
280891.0,0.5866,6.9743,10.1754,-0.3709,-0.4773,-0.1357
280901.0,0.3519,7.1251,10.3046,-0.4853,-0.629,0.1623
280911.0,0.1365,7.2305,9.9718,-0.5039,-0.7785,0.4927
280921.0,0.0024,6.9097,9.4954,-0.473,-0.8838,0.8524
280931.0,-0.1413,6.2153,9.1482,-0.422,-0.961,1.2207
280941.0,-0.4046,5.3702,8.6263,-0.3491,-1.0424,1.5766
280951.0,-0.8164,4.3598,8.102,-0.2698,-1.1286,1.9151
280961.0,-1.3096,3.2202,7.2784,-0.1767,-1.2074,2.2365
280971.0,-1.7549,1.6017,6.4955,-0.0862,-1.2611,2.5424
280981.0,-2.0734,-0.34,5.5809,-0.0064,-1.309,2.8154
280991.0,-2.162,-2.5379,4.2114,0.0585,-1.3468,3.0416
281001.0,-1.98,-5.2146,2.66,0.066,-1.3361,3.1852
281011.0,-1.3886,-8.0421,0.9936,0.075,-1.2233,3.2081
281021.0,-0.1484,-10.5153,-0.9768,0.0814,-1.0025,3.0926
281031.0,0.6273,-12.4427,-2.0087,0.124,-0.5289,2.8787
281041.0,-0.1532,-13.8217,-1.8986,0.3166,0.1884,2.6324
281051.0,-0.8045,-15.9981,0.1125,0.6268,0.9237,2.3828
281061.0,-0.5602,-18.5455,1.8651,1.0818,1.4388,2.08
281071.0,0.0311,-20.5375,3.0646,1.5282,1.7613,1.6501
281081.0,0.4621,-21.3132,4.1204,1.9129,2.1013,1.0999
281091.0,0.5578,-21.057,5.8275,2.1034,2.3849,0.4842
281101.0,0.7805,-20.1831,7.3789,2.0923,2.4802,-0.1288
281111.0,1.2761,-19.2949,8.7652,1.9401,2.4733,-0.7024
281121.0,1.9609,-18.5622,10.6973,1.7118,2.5116,-1.2489
281131.0,2.2194,-17.4394,13.3165,1.5186,2.5254,-1.7991
281141.0,1.9537,-14.9853,15.6724,1.4947,2.4355,-2.3471
281151.0,1.6807,-10.7045,16.6182,1.6245,2.3259,-2.8489
281161.0,1.3982,-5.7628,17.5758,1.5868,2.3142,-3.2544
281171.0,1.1372,-0.9266,18.9884,1.1504,2.2732,-3.5391
281181.0,0.5435,3.3255,21.0211,0.2538,1.9991,-3.7141
281191.0,-0.1317,6.9097,23.3794,-0.8221,1.5,-3.7557
281201.0,-0.7542,10.3453,25.594,-1.5261,0.9929,-3.5918
281211.0,-1.4629,13.6637,27.2939,-1.7102,0.4975,-3.1788
281221.0,-2.6743,16.3763,28.5437,-1.5479,-0.1059,-2.535
281231.0,-3.9025,18.2318,29.001,-1.0711,-0.886,-1.724
281241.0,-5.0685,19.4792,27.3968,-0.3092,-1.7288,-0.7955
281251.0,-5.9616,19.7067,23.7409,0.4879,-2.4802,0.1894
281261.0,-6.5003,18.7418,19.338,1.035,-3.0128,1.1206
281271.0,-7.027,16.5775,15.0835,1.1722,-3.3566,1.9129
281281.0,-6.9671,13.7954,10.5177,0.9706,-3.5848,2.5206
281291.0,-7.2832,11.145,6.3183,0.5193,-3.5854,2.9421
281301.0,-7.865,8.4587,3.2178,-0.1256,-3.4066,3.2251
281311.0,-8.6933,5.3965,1.0511,-0.7998,-3.1858,3.4252
281321.0,-9.0956,2.0782,-0.9194,-1.351,-3.0155,3.5604
281331.0,-8.7628,-1.7071,-2.387,-1.6868,-2.8213,3.6189
281341.0,-8.3151,-5.3606,-3.2274,-1.6458,-2.5153,3.587
281351.0,-7.9631,-8.5401,-3.4644,-1.1914,-2.1253,3.4731
281361.0,-7.9799,-10.8793,-4.1827,-0.3964,-1.7283,3.3193
281371.0,-7.6638,-13.0029,-4.944,0.5305,-1.2696,3.1411
281381.0,-7.2568,-14.5759,-5.9448,1.3941,-0.7152,2.9144
281391.0,-6.7564,-16.1752,-5.7772,1.9928,-0.0974,2.6361
281401.0,-6.0478,-17.8224,-4.5179,2.4504,0.5928,2.3397
281411.0,-5.0877,-19.8791,-2.0782,2.7723,1.2281,1.9944
281421.0,-3.8116,-21.7609,0.5363,2.9905,1.6974,1.5373
281431.0,-2.5163,-23.1112,3.6536,3.1192,2.047,0.9573
281441.0,-1.4078,-23.2238,6.1148,3.1581,2.1955,0.2943
281451.0,-0.237,-22.9293,8.1762,2.9697,2.1306,-0.423
281461.0,1.075,-22.0219,9.7875,2.7414,2.0098,-1.1494
281471.0,2.0638,-20.0897,10.8601,2.5823,1.9358,-1.8608
281481.0,2.8323,-17.1185,11.4036,2.4594,1.9348,-2.5201
281491.0,3.2968,-13.5177,12.3182,2.2907,2.0242,-3.1054
281501.0,2.9568,-9.5624,13.8624,2.1146,2.1556,-3.5902
281511.0,2.241,-5.4708,15.445,2.0268,2.2828,-3.9626
281521.0,1.1229,-1.1803,17.1257,2.0077,2.436,-4.2308
281531.0,-0.1053,3.9576,19.1584,1.9747,2.6318,-4.4059
281541.0,-1.2809,10.0389,21.6795,1.6256,2.71,-4.457
281551.0,-2.5283,15.3564,25.2708,0.6859,2.4381,-4.3293
281561.0,-3.4237,18.6293,29.5181,-0.5188,1.7996,-3.9765
281571.0,-3.304,19.6827,32.3983,-1.4346,0.8689,-3.4066
281581.0,-2.9233,19.1919,33.8373,-1.8369,-0.2246,-2.726
281591.0,-3.2154,18.658,32.858,-1.682,-1.4399,-2.0178
281601.0,-3.6536,18.5646,29.6785,-1.0493,-2.5951,-1.3122
281611.0,-4.2282,19.0315,24.349,-0.1054,-3.472,-0.5816
281621.0,-4.4508,19.1369,17.7099,0.6215,-4.06,0.1586
281631.0,-4.1731,18.5431,11.5879,0.8806,-4.2612,0.8312
281641.0,-3.7661,17.3939,6.3183,0.7013,-4.1148,1.3963
281651.0,-3.5865,15.1816,2.9018,0.0974,-3.7753,1.8294
281661.0,-3.7517,12.7467,0.3136,-0.7428,-3.4486,2.1104
281671.0,-4.4628,10.0173,-0.6321,-1.6735,-3.239,2.2445
281681.0,-5.6096,7.6351,-0.6297,-2.228,-3.0809,2.2918
281691.0,-6.8761,5.6479,0.7422,-2.1237,-2.9096,2.3381
281701.0,-8.6407,4.8459,0.8882,-1.325,-2.8835,2.452
281711.0,-10.3477,4.2808,-0.6225,-0.1511,-2.9585,2.7122
281721.0,-10.9511,2.8515,-3.814,1.184,-2.8399,3.1554
281731.0,-10.8912,0.0383,-7.4005,2.3317,-2.3929,3.6615
281741.0,-10.0652,-4.2952,-9.6558,3.1964,-1.5421,4.06
281751.0,-8.4443,-9.2919,-9.4834,3.9642,-0.2826,4.2218
281761.0,-7.4316,-13.386,-7.1922,4.7651,1.2079,4.101
281771.0,-6.608,-17.3508,-3.2489,5.3844,2.5153,3.7328
281781.0,-5.2218,-19.5582,0.2921,5.7122,3.4481,3.0825
281791.0,-4.8387,-20.2669,4.9297,5.385,4.1079,2.204
281801.0,-4.798,-19.575,10.0437,4.2947,4.2255,1.1951
281811.0,-4.7405,-18.7681,15.7323,2.8197,3.8807,0.2006
281821.0,-4.2665,-18.0858,19.6636,1.6671,3.2507,-0.6242
281831.0,-3.8259,-17.6141,22.3762,1.0935,2.6483,-1.2765
281841.0,-3.2944,-16.113,23.3004,1.1111,2.1572,-1.7922
281851.0,-2.1979,-13.9965,22.8622,1.3532,1.7522,-2.2045
281861.0,-0.4262,-11.7005,21.5765,1.5096,1.4968,-2.5621
281871.0,1.1181,-9.4403,20.8391,1.3595,1.4734,-2.9256
281881.0,1.4102,-7.1227,22.2062,0.9376,1.6261,-3.3278
281891.0,0.6536,-4.5586,25.1726,0.4938,1.6831,-3.7636
281901.0,0.1221,-0.8308,27.7129,0.2602,1.4484,-4.2181
281911.0,-0.249,4.1515,28.5556,0.1916,1.0887,-4.6139
281921.0,-0.8332,9.9,28.0409,-0.2251,0.5901,-4.9252
281931.0,-1.5514,14.9973,28.2779,-1.2606,-0.1197,-5.1344
281941.0,-2.0973,19.0746,28.5844,-2.3365,-0.8647,-5.1301
281951.0,-2.6887,21.5813,29.0369,-3.0852,-1.6426,-4.8502
281961.0,-3.6344,22.6563,28.9004,-3.2156,-2.5877,-4.3548
281971.0,-5.1834,25.2301,26.3171,-2.4743,-3.5593,-3.6843
281981.0,-6.3135,27.0521,22.3427,-1.1244,-4.3176,-2.7478
281991.0,-6.2465,26.1327,15.433,0.3257,-5.0056,-1.7538
282001.0,-4.1587,26.7265,6.7708,1.2755,-5.4845,-0.92
282011.0,-3.4261,26.5517,-2.6408,1.4149,-5.3541,0.0021
282021.0,-2.0973,24.9117,-9.6678,0.3416,-4.9912,0.7593
282031.0,-1.8196,22.6276,-13.1561,-1.1126,-4.0685,1.367
282041.0,-3.4644,19.2518,-11.5401,-2.3929,-2.892,1.9369
282051.0,-5.205,14.7339,-8.3246,-2.9123,-1.9635,2.518
282061.0,-7.0629,10.5752,-5.6934,-2.3237,-1.0908,3.0676
282071.0,-8.6718,6.9647,-3.2154,-1.0568,-0.3081,3.5332
282081.0,-10.0317,4.4077,-2.5786,0.5241,0.3629,3.9328
282091.0,-10.9535,2.4828,-3.7804,1.806,0.9589,4.2596
282101.0,-11.5975,0.0503,-4.5442,2.3668,1.6299,4.5081
282111.0,-12.2535,-3.1627,-3.5602,2.2061,2.3232,4.6406
282121.0,-13.0723,-7.1275,-0.3041,1.5836,2.8383,4.6299
282131.0,-14.1904,-11.3102,4.0342,0.9993,3.0878,4.5054
282141.0,-13.8912,-16.4458,7.5226,0.7466,3.0187,4.2729
282151.0,-12.2104,-21.5239,10.4004,0.8934,2.8558,3.7961
282161.0,-10.3549,-23.6667,11.7555,1.3313,2.7154,3.0671
282171.0,-9.1267,-24.0138,13.0987,1.6112,2.5669,2.2609
282181.0,-7.9655,-23.5039,13.7619,1.6283,2.3322,1.4787
282191.0,-6.2082,-23.7433,14.8417,1.3862,2.0513,0.7311
282201.0,-4.3431,-24.1144,15.694,1.2366,1.8235,0.0117
282211.0,-2.5115,-23.4608,15.955,1.367,1.7884,-0.7056
282221.0,-1.1803,-21.8519,16.6253,1.6224,1.9773,-1.4128
282231.0,-0.0742,-19.1033,17.7075,1.757,2.1684,-2.1311
282241.0,0.8619,-16.1465,19.9748,1.7107,2.3322,-2.8287
282251.0,1.7813,-12.536,22.4409,1.616,2.386,-3.5013
282261.0,2.3439,-7.8913,24.2724,1.3031,2.2115,-4.1627
282271.0,2.3559,-2.6288,26.1471,0.6385,1.88,-4.7869
282281.0,1.5945,3.2537,27.9715,-0.2607,1.4197,-5.3344
282291.0,-0.0192,9.7564,30.3178,-1.1824,0.8998,-5.7261
282301.0,-2.0327,16.6086,33.0615,-1.765,0.398,-5.8032
282311.0,-3.8283,23.365,35.4055,-1.9247,-0.207,-5.4542
282321.0,-5.1499,27.6578,36.5571,-1.7911,-1.1079,-4.6719
282331.0,-5.0398,29.7863,35.0774,-1.3973,-2.2865,-3.6444
282341.0,-5.0254,30.3752,31.2348,-0.7966,-3.3779,-2.4823
282351.0,-5.2002,29.2452,25.2253,-0.2639,-4.3788,-1.293
282361.0,-5.2672,27.167,17.1975,-0.0952,-5.2966,-0.2469
282371.0,-5.0996,24.5118,8.9567,-0.3624,-5.8942,0.5976
282381.0,-5.3247,21.8112,1.9585,-0.7748,-5.9171,1.2744
282391.0,-6.4165,19.3859,-3.4069,-1.1435,-5.4286,1.848
282401.0,-7.4747,16.0699,-6.1172,-1.5117,-4.6916,2.3551
282411.0,-8.5258,12.9454,-7.8554,-1.6719,-3.8786,2.7707
282421.0,-9.8282,10.3765,-8.995,-1.7113,-3.0533,3.0815
282431.0,-11.2791,8.0517,-9.4475,-1.7544,-2.2301,3.3443
282441.0,-12.7779,4.9608,-8.2552,-1.8145,-1.4857,3.6173
282451.0,-13.4147,1.0104,-6.7133,-1.682,-0.9142,3.9062
282461.0,-13.0388,-3.4788,-5.5378,-1.2638,-0.464,4.1441
282471.0,-12.153,-7.9799,-4.4987,-0.6439,-0.0176,4.2638
282481.0,-10.9415,-12.6725,-3.5506,-0.009,0.34,4.2079
282491.0,-9.5026,-16.994,-2.4588,0.5928,0.5938,3.9052
282501.0,-7.5465,-20.4297,-1.8747,1.2313,0.8413,3.3959
282511.0,-6.3087,-22.4073,-1.4245,1.7469,1.0775,2.7234
282521.0,-5.5952,-22.97,-1.4341,2.0901,1.3367,1.9353
282531.0,-4.9201,-22.5079,-1.0965,2.1721,1.6703,1.0786
282541.0,-4.0366,-21.409,-0.0958,2.0311,2.0806,0.2331
282551.0,-3.4213,-18.6628,0.8356,1.7001,2.4754,-0.596
282561.0,-3.225,-15.3516,2.9975,1.1531,2.9218,-1.3303
282571.0,-3.1029,-12.5145,6.6343,0.5768,3.2869,-1.9076
282581.0,-2.7198,-9.9192,10.3358,0.2559,3.4545,-2.3402
282591.0,-2.332,-7.0294,13.6158,0.282,3.5252,-2.6568
282601.0,-2.2793,-3.7158,17.018,0.4885,3.4954,-2.8936
282611.0,-2.4636,0.0694,20.5614,0.7519,3.2049,-3.0357
282621.0,-2.466,4.0654,23.2453,1.0781,2.5525,-3.0341
282631.0,-1.9968,7.8051,23.5111,1.4569,1.6144,-2.8606
282641.0,-1.0175,10.8625,21.7274,1.7773,0.6295,-2.5382
282651.0,0.1724,12.785,19.338,2.03,-0.0857,-2.104
282661.0,0.8068,14.0013,17.674,2.2503,-0.5007,-1.6293
282671.0,1.4389,14.9207,15.2726,2.4631,-0.796,-1.11
282681.0,1.7933,14.6118,13.0915,2.4036,-1.0557,-0.5726
282691.0,1.9465,13.1083,9.56,2.0609,-1.3803,-0.0841
282701.0,2.4565,11.4586,5.0518,1.3441,-1.6985,0.2597
282711.0,3.0957,8.0134,2.1213,0.5454,-1.5618,0.5284
282721.0,4.2569,4.3551,0.2705,0.0803,-1.0286,0.6854
282731.0,5.624,1.0965,-0.905,-0.0772,-0.282,0.6715
282741.0,6.5505,-0.4812,-1.5179,0.0708,0.7854,0.506
282751.0,5.2888,-0.7542,0.8068,0.3629,2.0981,0.2735
282761.0,3.0598,0.0622,4.1492,0.7838,3.1187,0.0819
282771.0,1.5514,1.1301,6.5817,1.2467,3.6902,-0.0117
282781.0,-0.0287,2.0135,8.928,1.7235,4.1047,-0.0128
282791.0,-1.7861,2.4852,10.6997,2.1471,4.3037,0.0591
282801.0,-2.7869,2.3631,11.7771,2.3333,4.3117,0.133
282811.0,-3.3471,2.5331,12.9071,2.0891,4.2101,0.091
282821.0,-4.0079,2.6264,14.8608,1.3723,3.9456,-0.0255
282831.0,-5.0661,2.0877,17.8703,0.6125,3.6295,-0.1112
282841.0,-5.7868,1.5467,21.0091,0.2368,3.181,-0.1612
282851.0,-6.0214,1.5658,22.1655,0.3496,2.5898,-0.1564
282861.0,-6.5386,1.6879,21.7441,0.6465,2.005,-0.1096
282871.0,-6.7325,2.1452,20.1041,0.8407,1.4596,-0.0974
282881.0,-6.5841,3.2848,17.504,0.7822,1.0344,-0.1325
282891.0,-6.213,3.9911,15.2175,0.315,0.8062,-0.174
282901.0,-6.0597,4.0893,14.5544,-0.4113,0.8099,-0.2001
282911.0,-6.6272,3.5362,16.6086,-0.9088,1.0775,-0.1708
282921.0,-7.3502,3.2944,19.2374,-0.9003,1.2771,-0.0772
282931.0,-8.3222,2.9425,21.8136,-0.5981,1.2095,0.0639
282941.0,-8.77,3.4381,22.8191,-0.1054,0.8971,0.1921
282951.0,-8.6862,4.2401,22.1775,0.1979,0.4459,0.2953
282961.0,-8.3725,4.3096,21.3778,0.0979,0.0245,0.3666
282971.0,-8.4611,3.9959,21.1025,-0.2884,-0.3134,0.3576
282981.0,-9.0716,4.0965,21.5358,-0.6955,-0.5683,0.2783
282991.0,-9.912,4.9297,22.3642,-0.9434,-0.7428,0.1932
283001.0,-11.0325,6.4332,23.6571,-1.0951,-0.9035,0.157
283011.0,-12.2631,7.9487,25.7018,-1.2292,-1.1712,0.1894
283021.0,-13.1968,9.1794,27.1526,-1.3085,-1.6267,0.3092
283031.0,-13.8959,9.3422,28.3138,-1.3952,-2.2578,0.4911
283041.0,-14.2263,9.1722,28.6945,-1.4266,-2.9926,0.6673
283051.0,-14.37,9.074,27.4687,-1.4601,-3.8339,0.8189
283061.0,-15.1505,8.4276,25.4049,-1.7075,-4.78,0.9222
283071.0,-15.3325,7.5585,23.2501,-1.9587,-5.7074,0.97
283081.0,-15.093,6.9623,20.3028,-1.8613,-6.3763,1.0355
283091.0,-15.4857,6.2513,17.5591,-1.6581,-6.8536,1.1382
283101.0,-15.3564,5.387,14.5232,-1.4527,-7.2862,1.2505
283111.0,-14.7866,4.7453,10.6159,-1.3931,-7.6667,1.3292
283121.0,-13.951,3.6847,7.3023,-1.5607,-7.8928,1.3526
283131.0,-12.7539,2.8611,4.6471,-1.7256,-7.8854,1.3154
283141.0,-11.6837,2.4493,2.2146,-1.9199,-7.8034,1.2329
283151.0,-10.3932,2.0111,0.1437,-2.1577,-7.7002,1.127
283161.0,-8.8346,1.664,-1.324,-2.2801,-7.4597,1.0195
283171.0,-7.434,1.3408,-1.9896,-2.2264,-7.0712,0.9275
283181.0,-6.2489,0.7446,-2.0207,-2.0289,-6.6754,0.8716
283191.0,-5.2433,0.146,-2.241,-1.6256,-6.3103,0.8524
283201.0,-4.5155,-0.1484,-3.2537,-1.1802,-5.9895,0.8546
283211.0,-3.7421,-0.735,-3.9696,-0.8413,-5.6542,0.8806
283221.0,-2.5809,-1.3886,-4.7621,-0.5502,-5.2684,0.9158
283231.0,-1.2641,-2.0734,-5.6575,-0.4257,-4.9034,0.9099
283241.0,-0.2227,-2.6336,-6.0406,-0.4188,-4.499,0.8519
283251.0,0.8499,-3.0742,-6.0837,-0.4656,-4.0712,0.7599
283261.0,1.6209,-3.3878,-5.94,-0.563,-3.6881,0.629
283271.0,2.162,-3.8355,-5.4612,-0.6369,-3.3406,0.48
283281.0,2.9712,-4.2234,-4.7501,-0.5906,-3.0208,0.315
283291.0,3.62,-4.063,-4.549,-0.398,-2.743,0.1421
283301.0,4.0486,-3.4884,-4.774,-0.1761,-2.4722,-0.0128
283311.0,4.3455,-2.8563,-4.5921,0.0394,-2.1375,-0.1235
283321.0,4.6471,-2.2027,-4.3383,0.2155,-1.814,-0.1884
283331.0,4.8674,-1.6999,-4.1994,0.3171,-1.558,-0.2118
283341.0,5.0518,-1.2689,-4.0606,0.3709,-1.2845,-0.2001
283351.0,5.2457,-0.8787,-3.7804,0.3565,-0.9977,-0.1692
283361.0,5.3463,-0.5842,-3.5506,0.1846,-0.7913,-0.1378
283371.0,5.3391,-0.4477,-3.3495,-0.1437,-0.679,-0.116
283381.0,5.1427,-0.407,-3.304,-0.5507,-0.6263,-0.1059
283391.0,5.2337,-0.7374,-3.2896,-0.9386,-0.6008,-0.0995
283401.0,5.2888,-1.2713,-3.5961,-1.2068,-0.5561,-0.1064
283411.0,5.2553,-1.8794,-4.0366,-1.3266,-0.4619,-0.1341
283421.0,5.5043,-2.5594,-4.4963,-1.2776,-0.2857,-0.1857
283431.0,5.5115,-2.8419,-5.1691,-1.1052,-0.016,-0.2735
283441.0,4.9847,-2.6001,-5.9256,-1.0153,0.2011,-0.4119
283451.0,4.6304,-2.2386,-7.2161,-0.9871,0.406,-0.5502
283461.0,4.1013,-1.5419,-8.8897,-1.0201,0.7199,-0.6763
283471.0,3.5602,-0.917,-10.3549,-1.2489,1.1052,-0.7944
283481.0,2.909,-0.3472,-10.8625,-1.508,1.6362,-0.8961
283491.0,1.8627,0.4573,-10.4818,-1.6378,2.2711,-0.9605
283501.0,0.8212,1.221,-9.1794,-1.5506,2.8995,-0.9562
283511.0,-0.5722,2.1476,-7.9871,-1.1047,3.5056,-0.8695
283521.0,-1.6065,2.9137,-6.9647,-0.3879,4.0632,-0.7125
283531.0,-2.9664,3.6344,-6.8953,0.5481,4.6448,-0.5066
283541.0,-3.5314,3.3591,-7.2233,1.4037,5.212,-0.299
283551.0,-4.0677,3.0382,-8.0613,2.0534,5.8277,-0.1878
