time_ms,ax,ay,az,gx,gy,gz
176921.0,0.2035,-0.2562,3.7206,0.506,-1.7985,0.8019
176931.0,0.498,-0.6656,3.1364,0.5933,-1.6293,0.886
176941.0,0.7302,-1.1229,2.6312,0.5848,-1.4692,0.9408
176951.0,1.0247,-1.7885,2.4157,0.531,-1.2962,0.9668
176961.0,1.4078,-2.4373,2.3463,0.5082,-1.1174,0.9626
176971.0,1.81,-2.9401,2.2577,0.5236,-0.9647,0.9216
176981.0,2.2218,-3.371,2.1548,0.5906,-0.8226,0.854
176991.0,2.4205,-3.6224,1.834,0.6997,-0.6614,0.7588
177001.0,2.7701,-3.7637,1.4317,0.7758,-0.5385,0.6311
177011.0,3.0502,-3.7661,0.8715,0.8461,-0.4033,0.4858
177021.0,3.1819,-3.6871,0.419,0.928,-0.2341,0.3294
177031.0,3.4548,-3.6081,0.012,1.0131,-0.0537,0.1586
177041.0,3.4931,-3.3136,-0.5938,1.1361,0.1862,-0.0144
177051.0,3.5506,-2.9377,-0.8787,1.2755,0.4757,-0.1761
177061.0,3.3303,-2.4804,-1.0439,1.4729,0.8136,-0.3124
177071.0,2.9568,-1.9585,-1.3838,1.7272,1.168,-0.4166
177081.0,2.5666,-1.4269,-1.9728,2.0289,1.5745,-0.4917
177091.0,2.2601,-1.0295,-2.5379,2.3636,2.0939,-0.5385
177101.0,1.834,-0.7422,-2.7102,2.7085,2.742,-0.5773
177111.0,1.3384,-0.3376,-2.6839,3.0176,3.4348,-0.621
177121.0,0.6201,0.0862,-2.2266,3.2331,4.135,-0.6864
177131.0,-0.9122,0.905,-1.7358,3.3576,4.8534,-0.7732
177141.0,-2.9736,1.822,-0.6081,3.2901,5.5606,-0.8689
177151.0,-4.6448,2.9257,0.4286,2.975,6.1922,-0.9615
177161.0,-6.5649,3.6583,2.5881,2.2423,6.7818,-1.0499
177171.0,-8.7077,3.9456,6.1579,1.1111,7.2181,-1.1302
177181.0,-10.7188,3.5243,11.7651,-0.149,7.4113,-1.1887
177191.0,-11.643,2.8563,17.0707,-1.1339,7.2793,-1.1738
177201.0,-12.2799,1.7358,22.46,-1.781,6.934,-1.093
177211.0,-12.3397,0.7278,26.8079,-2.1061,6.3029,-0.986
177221.0,-12.6222,-0.5387,30.459,-2.254,5.3797,-0.9131
177231.0,-12.323,-1.3815,32.384,-2.2434,4.1308,-0.8998
177241.0,-11.4634,-2.1859,33.0232,-2.0497,2.7739,-0.9009
177251.0,-10.8625,-2.1787,32.0464,-1.5474,1.549,-0.9009
177261.0,-10.5345,-1.4605,29.9395,-0.8743,0.4869,-0.8812
177271.0,-10.252,-0.328,26.9228,-0.157,-0.4044,-0.8179
177281.0,-9.5984,0.7015,23.353,0.4672,-1.0919,-0.7093
177291.0,-8.6814,1.4198,19.7402,0.9349,-1.5022,-0.5662
177301.0,-7.5585,1.8004,16.6828,1.2212,-1.6437,-0.4166
177311.0,-6.426,2.0207,14.3652,1.3351,-1.5862,-0.2841
177321.0,-5.3702,2.1021,12.6917,1.268,-1.4213,-0.1761
177331.0,-4.6184,1.9249,11.7316,1.0068,-1.2537,-0.1043
177341.0,-3.9887,1.6305,11.1091,0.6332,-1.1318,-0.075
177351.0,-3.474,1.1947,10.75,0.2293,-1.0137,-0.0793
177361.0,-2.8443,0.9553,10.4291,-0.141,-0.8892,-0.1128
177371.0,-2.8108,0.8021,10.5273,-0.4869,-0.7466,-0.1586
177381.0,-3.0837,0.6536,10.9319,-0.7822,-0.6657,-0.1953
177391.0,-3.3758,0.5195,11.406,-0.9376,-0.6226,-0.215
177401.0,-3.5219,0.395,11.8537,-0.9099,-0.5699,-0.2102
177411.0,-3.6248,0.4525,12.1961,-0.7487,-0.4943,-0.1857
177421.0,-3.869,0.6177,12.4953,-0.5859,-0.4539,-0.1564
177431.0,-4.1755,0.9361,12.7779,-0.5156,-0.5007,-0.1362
177441.0,-4.3455,1.3264,12.8209,-0.4981,-0.5869,-0.1059
177451.0,-4.5346,1.3671,13.1178,-0.5497,-0.6912,-0.0553
177461.0,-4.628,1.1109,13.5296,-0.5741,-0.8024,0.0037
177471.0,-4.707,0.7709,13.8648,-0.5209,-0.9237,0.0575
177481.0,-4.6256,0.3831,14.2287,-0.4055,-1.0717,0.0958
177491.0,-4.3191,0.2179,14.2766,-0.2517,-1.251,0.1133
177501.0,-4.2186,0.1987,13.8744,-0.149,-1.4644,0.1128
177511.0,-4.0749,0.328,13.3333,-0.1314,-1.6916,0.0979
177521.0,-3.9097,0.5028,12.8281,-0.1463,-1.8576,0.0857
177531.0,-3.881,0.7326,12.2607,-0.1804,-1.9981,0.0835
177541.0,-3.8475,0.6991,11.7244,-0.2692,-2.1577,0.0851
177551.0,-3.6272,0.6393,11.0732,-0.3214,-2.2828,0.0942
177561.0,-3.158,0.577,10.2711,-0.3272,-2.3471,0.1064
177571.0,-2.7222,0.3112,9.8928,-0.3539,-2.353,0.1187
177581.0,-2.2601,0.1413,9.6319,-0.3533,-2.2945,0.1256
177591.0,-2.138,0.0934,9.4619,-0.4369,-2.304,0.1054
177601.0,-2.083,0.0551,9.0908,-0.6439,-2.4498,0.0665
177611.0,-1.7933,-0.1915,8.6622,-0.8365,-2.5866,0.0239
177621.0,-1.3815,-0.3711,8.1977,-0.8993,-2.6345,-0.0096
177631.0,-1.0894,-0.5124,7.8243,-0.8328,-2.6196,-0.0303
177641.0,-0.7901,-0.6249,7.8578,-0.6556,-2.5728,-0.0383
177651.0,-0.4573,-0.5459,7.5537,-0.3645,-2.5329,-0.0282
177661.0,-0.3759,-0.5004,6.9168,-0.1176,-2.5611,-0.008
177671.0,0.0168,-0.4286,5.7054,0.0857,-2.5978,0.0229
177681.0,0.4764,-0.6393,4.6328,0.2389,-2.5185,0.0543
177691.0,1.0678,-0.7997,3.4453,0.3044,-2.3993,0.0676
177701.0,1.6592,-1.0343,2.3942,0.2629,-2.2301,0.0537
177711.0,2.1979,-1.1971,1.4174,0.1474,-2.0162,0.0122
177721.0,2.5642,-1.391,0.6033,-0.009,-1.748,-0.049
177731.0,2.715,-1.5179,0.4118,-0.1634,-1.4165,-0.1187
177741.0,2.7438,-1.5634,0.5842,-0.2182,-1.0504,-0.183
177751.0,2.7007,-1.5754,1.1037,-0.1543,-0.7088,-0.2267
177761.0,2.7342,-1.6017,1.2761,0.0788,-0.397,-0.2421
177771.0,2.8659,-1.7885,1.2737,0.448,-0.0623,-0.2368
177781.0,3.2082,-1.8172,0.7087,0.8785,0.3347,-0.241
177791.0,3.2058,-1.7382,0.2131,1.1781,0.7694,-0.2831
177801.0,3.0454,-1.5203,-0.3328,1.2702,1.2036,-0.364
177811.0,2.7653,-1.2258,-0.2634,1.1467,1.6522,-0.4789
177821.0,2.1237,-0.7685,0.3879,0.879,2.0838,-0.6071
177831.0,1.391,-0.3496,1.5443,0.5374,2.4243,-0.7258
177841.0,0.7638,0.17,2.5786,0.2501,2.6797,-0.8115
177851.0,0.1149,0.6249,3.62,0.0623,2.917,-0.8519
177861.0,-0.4238,1.0319,4.6304,-0.0404,3.1256,-0.8503
177871.0,-0.9074,1.4605,5.6407,-0.0681,3.3129,-0.8131
177881.0,-1.3527,1.9249,6.5745,-0.067,3.4625,-0.7471
177891.0,-1.9369,2.2673,7.762,-0.0777,3.5976,-0.6614
177901.0,-2.6217,2.7557,8.5329,-0.1144,3.6551,-0.5619
177911.0,-3.3136,2.873,9.3901,-0.3129,3.5934,-0.455
177921.0,-3.5889,2.66,10.2903,-0.5582,3.4928,-0.3411
177931.0,-3.7948,2.1404,11.6119,-0.7322,3.4433,-0.2277
177941.0,-4.0749,1.6999,13.1729,-0.8003,3.3725,-0.1245
177951.0,-4.4221,1.4126,14.6381,-0.7875,3.2054,-0.0335
177961.0,-4.81,1.2163,15.8783,-0.7497,2.9085,0.0479
177971.0,-5.0494,1.0008,16.5775,-0.6391,2.5515,0.1373
177981.0,-5.2816,0.6512,16.7618,-0.4299,2.2354,0.2299
177991.0,-5.2122,0.2155,16.5966,-0.1995,1.9805,0.3097
178001.0,-5.126,-0.3041,16.3045,-0.0756,1.7762,0.3448
178011.0,-5.1643,-0.6321,16.1202,-0.1064,1.6001,0.3235
178021.0,-5.43,-0.9673,16.2782,-0.2889,1.4181,0.2586
178031.0,-5.7293,-1.312,17.0635,-0.4842,1.2153,0.1767
178041.0,-5.8419,-1.4796,17.8679,-0.5241,0.9887,0.1043
178051.0,-5.7269,-1.6161,18.3204,-0.3996,0.7189,0.0591
178061.0,-5.4755,-1.6568,18.2175,-0.1501,0.4438,0.0346
178071.0,-5.3271,-1.4413,17.6692,0.0899,0.1905,0.0016
178081.0,-5.1188,-1.2354,17.0228,0.1799,-0.0745,-0.0404
178091.0,-4.8961,-0.9625,16.3955,0.1655,-0.3209,-0.0878
178101.0,-4.5394,-0.7829,15.919,0.1032,-0.4933,-0.1282
178111.0,-4.4125,-0.6225,15.6461,0.0266,-0.6109,-0.1607
178121.0,-4.3814,-0.3998,15.4402,-0.0878,-0.7636,-0.1926
178131.0,-4.2617,-0.2418,15.0595,-0.1926,-0.9498,-0.2086
178141.0,-4.0701,-0.2059,14.7698,-0.2389,-1.0876,-0.2001
178151.0,-3.62,-0.249,14.4155,-0.216,-1.1706,-0.1708
178161.0,-3.3782,-0.2107,14.0372,-0.1969,-1.218,-0.1421
178171.0,-3.3471,-0.012,13.7403,-0.2512,-1.2696,-0.1261
178181.0,-3.4333,0.146,13.4961,-0.4071,-1.3409,-0.1144
178191.0,-3.4141,0.1628,13.5991,-0.6151,-1.4484,-0.0979
178201.0,-3.2106,0.0503,14.0947,-0.7354,-1.5234,-0.0639
178211.0,-3.1196,-0.067,15.1266,-0.6439,-1.5197,-0.0021
178221.0,-3.4333,0.2274,15.9214,-0.4523,-1.6017,0.0734
178231.0,-3.6966,0.4693,16.2925,-0.3581,-1.8975,0.1527
178241.0,-3.735,0.407,15.7443,-0.365,-2.3349,0.2272
178251.0,-3.735,0.2705,14.5927,-0.4528,-2.7984,0.2762
178261.0,-3.6559,0.0766,12.9335,-0.5204,-3.1719,0.3081
178271.0,-3.2609,-0.2394,11.1019,-0.5279,-3.4002,0.3379
178281.0,-2.5283,-0.6656,9.1051,-0.4975,-3.5141,0.3602
178291.0,-1.6759,-1.087,7.3191,-0.4172,-3.4891,0.3714
178301.0,-0.6919,-1.4533,5.8347,-0.2256,-3.2773,0.3773
178311.0,-0.0263,-1.7286,5.0374,0.0016,-2.9197,0.373
178321.0,0.5507,-1.8148,4.2808,0.1937,-2.5818,0.3491
178331.0,1.0175,-1.8483,3.6751,0.3108,-2.2594,0.3012
178341.0,1.5179,-1.7526,3.0789,0.3847,-1.8895,0.2421
178351.0,1.8579,-1.6496,2.9856,0.3751,-1.4596,0.1676
178361.0,2.0494,-1.4006,3.3758,0.2852,-1.0201,0.0809
178371.0,1.8866,-1.1468,4.2593,0.0958,-0.6486,-0.0112
178381.0,1.6328,-1.0032,5.4971,-0.1362,-0.4177,-0.0947
178391.0,1.5802,-1.008,6.7445,-0.2921,-0.2905,-0.1623
178401.0,1.324,-1.0415,7.8578,-0.2985,-0.1804,-0.2054
178411.0,1.391,-0.972,8.4851,-0.2506,-0.1676,-0.2442
178421.0,1.4605,-1.0127,8.9759,-0.224,-0.2107,-0.2772
178431.0,1.5251,-0.8428,9.1913,-0.1884,-0.2756,-0.3124
178441.0,1.4748,-0.6369,9.3709,-0.1378,-0.3235,-0.3374
178451.0,1.4461,-0.3591,9.4978,-0.0686,-0.3778,-0.3443
178461.0,1.4389,0.0479,9.323,0.0309,-0.4294,-0.3326
178471.0,1.4174,0.3256,8.8873,0.0809,-0.4933,-0.2996
178481.0,1.6616,0.4405,8.2839,0.0984,-0.5396,-0.2538
178491.0,1.9178,0.4453,7.7021,0.1171,-0.4986,-0.2065
178501.0,2.1572,0.4453,7.2089,0.1155,-0.4055,-0.1634
178511.0,2.3607,0.2825,6.9767,0.0798,-0.2724,-0.1282
178521.0,2.4157,0.2418,6.8307,0.049,-0.1107,-0.0995
178531.0,2.387,0.0958,7.1419,-0.0043,0.0484,-0.0809
178541.0,2.3727,-0.0215,7.5465,-0.0245,0.1942,-0.0623
178551.0,2.1524,-0.2179,8.0517,-0.0192,0.3124,-0.0452
178561.0,2.1069,-0.5674,8.5712,0.0074,0.4033,-0.0388
178571.0,2.2984,-0.8116,9.0237,0.0628,0.4986,-0.0511
178581.0,2.3918,-0.814,9.3996,0.0612,0.5646,-0.091
178591.0,2.1907,-0.6608,9.9623,-0.0245,0.5944,-0.1469
178601.0,1.9537,-0.3879,10.6207,-0.1208,0.6008,-0.1932
178611.0,1.7717,-0.0742,11.382,-0.2043,0.5667,-0.2166
178621.0,1.4245,0.2155,11.88,-0.2698,0.473,-0.2144
178631.0,1.3192,0.3615,12.0716,-0.331,0.3108,-0.1884
178641.0,1.2905,0.3567,11.9758,-0.3751,0.1517,-0.1458
178651.0,1.3024,0.0646,12.1458,-0.3996,0.0314,-0.0947
178661.0,1.2881,-0.4166,12.809,-0.3017,-0.0016,-0.0372
178671.0,1.1971,-0.8571,13.8169,-0.0974,-0.0346,0.0064
178681.0,1.2043,-1.008,14.5041,0.1304,-0.2283,0.0277
178691.0,1.0127,-1.0822,14.7172,0.3038,-0.5667,0.0298
178701.0,1.0104,-1.0295,14.4107,0.5231,-0.9365,0.0309
178711.0,1.1732,-0.8021,13.2926,0.8179,-1.2606,0.0426
178721.0,1.5514,-0.5459,11.4371,1.0972,-1.4926,0.0639
178731.0,1.9561,-0.2801,9.4523,1.2861,-1.5453,0.0846
178741.0,2.3343,-0.1101,8.1666,1.3297,-1.4037,0.0952
178751.0,2.5187,0.1628,7.4771,1.218,-1.1818,0.0825
178761.0,2.4708,0.4334,7.1539,0.8844,-1.0642,0.0357
178771.0,2.3942,0.6321,6.6702,0.4305,-1.0472,-0.0218
178781.0,2.4349,0.7159,6.1842,-0.0085,-1.0068,-0.0724
178791.0,2.5618,0.6416,5.7221,-0.3656,-0.9195,-0.1096
178801.0,2.8299,0.4286,5.4827,-0.6231,-0.812,-0.1336
178811.0,3.0813,0.2179,5.1811,-0.738,-0.7003,-0.141
178821.0,3.3279,0.103,4.6471,-0.7311,-0.5869,-0.1362
178831.0,3.5913,0.0072,4.0007,-0.6465,-0.439,-0.1229
178841.0,3.8283,0.0575,3.2394,-0.5151,-0.2363,-0.1006
178851.0,3.881,0.0335,2.6217,-0.3837,0.0213,-0.0708
178861.0,3.9816,0.1077,1.9848,-0.2682,0.3081,-0.0383
178871.0,3.9337,0.2298,1.3671,-0.2081,0.6103,-0.0085
178881.0,3.7326,0.4669,0.5219,-0.2293,0.9051,0.0208
178891.0,3.5793,0.668,-0.7111,-0.3751,1.1999,0.0607
178901.0,3.3208,0.5291,-1.664,-0.621,1.5782,0.1133
178911.0,2.8563,0.2466,-2.0255,-0.7849,2.154,0.1777
178921.0,2.0446,-0.2298,-1.1564,-0.7928,2.8202,0.2437
178931.0,0.9194,-0.5387,-0.0814,-0.5582,3.4715,0.315
178941.0,-0.182,-0.7709,1.0558,-0.141,4.0813,0.3767
178951.0,-1.3767,-0.9002,2.083,0.3586,4.6629,0.415
178961.0,-2.897,-0.5938,3.2777,0.8588,5.2275,0.4071
178971.0,-4.391,0.2155,4.4891,1.2611,5.742,0.3586
178981.0,-5.7197,0.8667,5.9616,1.3957,6.1528,0.3097
178991.0,-6.9049,0.8356,8.1714,1.1621,6.429,0.2538
179001.0,-7.7357,0.4908,11.1618,0.6635,6.5503,0.157
179011.0,-8.6862,-0.1796,15.1146,0.0521,6.5093,0.0362
179021.0,-9.3589,-0.9266,18.7634,-0.6008,6.1416,-0.0984
179031.0,-9.6486,-1.9609,22.4672,-1.2467,5.5153,-0.2501
179041.0,-9.4236,-2.5809,25.2852,-1.7123,4.6831,-0.4023
179051.0,-9.4786,-3.2489,27.9403,-1.9651,3.7705,-0.5337
179061.0,-9.6391,-3.158,29.4367,-1.9236,2.7074,-0.6492
179071.0,-9.4739,-2.7078,29.7192,-1.641,1.5181,-0.7146
179081.0,-9.1459,-1.9632,28.3976,-1.0898,0.389,-0.6902
179091.0,-8.6957,-1.166,25.8119,-0.4065,-0.5752,-0.5912
179101.0,-8.1523,-0.5148,22.5845,0.2485,-1.3308,-0.4464
179111.0,-7.501,0.0551,19.1464,0.8051,-1.8198,-0.2852
179121.0,-6.6439,0.3519,16.0986,1.2148,-2.0587,-0.1208
179131.0,-5.679,0.4381,13.5129,1.4702,-2.0907,0.0346
179141.0,-4.7788,0.3328,11.4156,1.591,-1.9529,0.1618
179151.0,-3.5961,0.2346,9.4547,1.5346,-1.7214,0.2453
179161.0,-2.8323,0.0575,8.4276,1.2664,-1.3606,0.2682
179171.0,-2.3822,0.0,8.1116,0.8046,-0.9908,0.232
179181.0,-2.5043,-0.1221,8.8633,0.2384,-0.6753,0.1564
179191.0,-2.806,-0.2035,10.0652,-0.2528,-0.4518,0.0729
179201.0,-3.0957,-0.2634,11.5185,-0.5672,-0.3134,0.0074
179211.0,-3.316,-0.2274,12.8305,-0.6545,-0.2288,-0.025
179221.0,-3.5841,-0.067,13.8552,-0.6098,-0.2198,-0.0223
179231.0,-3.9624,-0.0215,14.7219,-0.5539,-0.3124,-0.0064
179241.0,-4.2641,0.0551,15.3684,-0.5225,-0.4981,0.0144
179251.0,-4.3191,0.0024,15.7371,-0.506,-0.7221,0.0367
179261.0,-4.367,-0.1317,15.9095,-0.5491,-1.0211,0.0516
179271.0,-4.3694,-0.3448,15.6892,-0.6242,-1.3846,0.0484
179281.0,-4.2856,-0.4788,15.2343,-0.6476,-1.7246,0.0394
179291.0,-3.8978,-0.5004,14.3006,-0.5837,-2.0045,0.0388
179301.0,-3.5171,-0.5626,13.1274,-0.5358,-2.2508,0.0383
179311.0,-3.213,-0.51,11.6622,-0.497,-2.4371,0.033
179321.0,-2.7749,-0.4525,10.1778,-0.4858,-2.5414,0.0229
179331.0,-2.2721,-0.3855,8.8705,-0.4826,-2.543,0.0133
179341.0,-1.8531,-0.3376,7.9009,-0.4736,-2.4573,0.0101
179351.0,-1.482,-0.2346,7.2616,-0.4507,-2.3376,0.0122
179361.0,-1.2354,-0.1101,6.7947,-0.3789,-2.1875,0.0319
179371.0,-1.0151,-0.1508,6.4931,-0.2927,-2.0524,0.066
179381.0,-0.8452,-0.2586,6.1746,-0.1453,-1.8954,0.1043
179391.0,-0.5698,-0.4357,5.9328,0.041,-1.7219,0.1389
179401.0,-0.1796,-0.6225,5.6288,0.2528,-1.5367,0.1681
179411.0,0.3543,-0.7614,5.1906,0.4262,-1.3335,0.1783
179421.0,0.7661,-0.8667,4.7166,0.5082,-1.1148,0.1644
179431.0,0.9792,-0.9481,4.7405,0.4805,-0.8721,0.1224
179441.0,0.9577,-0.7374,4.9536,0.4087,-0.6236,0.0564
179451.0,0.6919,-0.3663,5.6599,0.3214,-0.3964,-0.0059
179461.0,0.5339,-0.067,6.3782,0.257,-0.2389,-0.0351
179471.0,0.565,0.0599,7.0222,0.2097,-0.1554,-0.0378
179481.0,0.6704,0.0838,7.3047,0.182,-0.1112,-0.0261
179491.0,0.893,-0.0814,7.5322,0.1309,-0.0835,-0.0154
179501.0,1.0439,-0.2514,7.7405,0.0596,-0.0511,-0.0197
179511.0,0.9816,-0.3591,8.1355,-0.0261,-0.0357,-0.0378
179521.0,0.8236,-0.3639,8.4755,-0.0835,-0.0537,-0.0532
179531.0,0.7494,-0.3496,8.7484,-0.0532,-0.0745,-0.0506
179541.0,0.7063,-0.3639,8.9854,0.0708,-0.0654,-0.0287
179551.0,0.7398,-0.3591,9.1363,0.2666,-0.0447,0.0064
179561.0,0.9074,-0.4142,9.0908,0.4667,-0.0197,0.0463
179571.0,1.0918,-0.3879,8.7771,0.6039,-0.0005,0.0718
179581.0,1.3264,-0.3615,8.4659,0.6226,0.0394,0.0766
179591.0,1.4605,-0.2298,8.2959,0.5342,0.1203,0.0633
179601.0,1.3551,-0.1389,8.5401,0.3304,0.2091,0.0367
179611.0,1.1277,-0.0886,8.9519,0.0591,0.2533,0.0069
179621.0,0.8835,-0.2346,9.5002,-0.2054,0.2485,-0.017
179631.0,0.7398,-0.4645,10.2879,-0.3539,0.2277,-0.0335
179641.0,0.7757,-0.6201,10.8577,-0.3054,0.2038,-0.0335
179651.0,0.8667,-0.7422,11.1139,-0.1229,0.1767,-0.0192
179661.0,0.9266,-0.7207,10.9583,0.0968,0.1644,-0.0021
179671.0,1.0439,-0.6776,10.7787,0.2059,0.1681,-0.0032
179681.0,1.087,-0.5842,10.8362,0.1905,0.1974,-0.0239
179691.0,0.8859,-0.3615,11.1546,0.0261,0.1804,-0.067
179701.0,0.6464,-0.2586,11.6646,-0.2293,0.0862,-0.1112
179711.0,0.4166,-0.3903,12.5049,-0.4156,-0.009,-0.1336
179721.0,0.2777,-0.5411,13.3309,-0.4512,-0.1389,-0.1378
179731.0,0.1676,-0.589,13.69,-0.3602,-0.3629,-0.1309
179741.0,0.182,-0.577,13.3237,-0.1745,-0.6263,-0.1139
179751.0,0.4549,-0.5746,12.7755,0.1027,-0.7726,-0.0878
179761.0,0.7159,-0.3639,12.0811,0.381,-0.8184,-0.0639
179771.0,0.9744,-0.0838,11.5664,0.5092,-0.8684,-0.0532
179781.0,1.154,0.2562,10.6901,0.4422,-0.9706,-0.0623
179791.0,1.2809,0.5962,9.7181,0.1815,-1.102,-0.0867
179801.0,1.3791,0.7733,8.8585,-0.1373,-1.1653,-0.1016
179811.0,1.6999,0.8308,8.1594,-0.4039,-1.1621,-0.0963
179821.0,1.9178,0.7901,7.4388,-0.5694,-1.1047,-0.0676
179831.0,2.1691,0.6823,6.6535,-0.6556,-1.028,-0.0234
179841.0,2.3559,0.4741,5.8107,-0.6912,-0.9088,0.0314
179851.0,2.4924,0.2203,5.1811,-0.6843,-0.7295,0.0862
179861.0,2.7438,-0.0838,4.6495,-0.6423,-0.531,0.1362
179871.0,2.9018,-0.4214,4.2665,-0.5885,-0.332,0.1724
179881.0,2.9233,-0.644,3.8451,-0.5156,-0.1224,0.1948
179891.0,2.8323,-0.7901,3.383,-0.4241,0.1101,0.2091
179901.0,2.8108,-1.0056,3.1005,-0.323,0.3645,0.2139
179911.0,2.7629,-0.9912,2.6887,-0.1804,0.6635,0.2091
179921.0,2.6121,-0.8212,2.4684,-0.0591,0.9817,0.2001
179931.0,2.2936,-0.4022,2.2817,0.0516,1.326,0.1963
179941.0,1.9225,0.1987,1.9034,0.1139,1.6682,0.2134
179951.0,1.494,0.8547,1.5754,0.067,2.0055,0.2506
179961.0,0.8308,1.3048,1.6496,-0.0692,2.3477,0.3225
179971.0,0.1006,1.4485,2.0949,-0.2315,2.6872,0.4262
179981.0,-0.6321,1.3958,3.1556,-0.2804,3.0352,0.5577
179991.0,-1.3695,1.0894,4.3048,-0.133,3.3747,0.7231
180001.0,-2.2529,0.5315,5.6719,0.2118,3.7306,0.8955
180011.0,-3.055,0.2897,6.7756,0.7168,4.0824,1.0291
180021.0,-3.9385,0.1484,7.6902,1.2074,4.4107,1.1121
180031.0,-4.6687,-0.067,8.3582,1.4947,4.6634,1.1249
180041.0,-5.4803,-0.2394,9.165,1.5224,4.8795,1.0451
180051.0,-6.4236,-0.1484,10.4052,1.2925,5.0764,0.8822
180061.0,-7.9009,-0.249,12.8138,0.8657,5.2658,0.6886
180071.0,-9.2225,-0.5842,15.9334,0.2735,5.2711,0.4741
180081.0,-9.5505,-1.5275,19.8551,-0.3986,4.9838,0.2395
180091.0,-9.5241,-3.0861,23.2262,-0.9232,4.35,0.0032
180101.0,-9.8665,-4.5394,26.7001,-1.0142,3.5918,-0.2155
180111.0,-10.896,-3.4668,27.5118,-0.3347,2.9644,-0.4635
180121.0,-11.0588,-1.7454,27.8446,0.0968,2.03,-0.7093
180131.0,-10.7811,-0.4693,26.5852,0.116,0.8684,-0.854
180141.0,-10.2663,0.4022,25.1104,-0.0995,-0.2123,-0.9589
180151.0,-9.5888,1.6472,22.7162,-0.2804,-1.0993,-1.0052
180161.0,-8.9304,2.3703,20.6596,-0.4417,-1.765,-0.9668
180171.0,-8.102,2.8084,18.4617,-0.4911,-2.2695,-0.8514
180181.0,-7.3191,2.8659,16.3811,-0.4369,-2.6286,-0.6864
180191.0,-6.5625,2.8252,14.1066,-0.281,-2.8558,-0.4853
180201.0,-5.7126,2.4948,12.0644,-0.0984,-2.9474,-0.2724
180211.0,-5.0254,2.0016,10.3022,0.1016,-2.8942,-0.0617
180221.0,-4.1994,1.312,8.8753,0.2783,-2.7611,0.1171
180231.0,-3.3854,0.6919,7.6902,0.4305,-2.5451,0.2506
180241.0,-2.5259,0.146,6.7253,0.4938,-2.2774,0.3235
180251.0,-1.8531,-0.3759,6.2704,0.4033,-1.9954,0.3299
180261.0,-1.3647,-0.6416,6.3351,0.2559,-1.6948,0.2863
180271.0,-1.0989,-0.7398,6.7636,0.0835,-1.3936,0.215
180281.0,-1.312,-0.7326,7.4364,-0.1197,-1.1621,0.1282
180291.0,-1.4988,-0.6201,8.2025,-0.3294,-1.0227,0.0367
180301.0,-1.6807,-0.4286,8.8657,-0.4949,-0.9344,-0.041
180311.0,-1.8938,-0.4142,9.5529,-0.6529,-0.9083,-0.1032
180321.0,-2.2649,-0.589,10.1227,-0.7572,-0.9408,-0.149
180331.0,-2.1883,-0.9313,10.8577,-0.7418,-0.9711,-0.1772
180341.0,-1.9369,-1.0726,11.2934,-0.6125,-1.0131,-0.2001
180351.0,-1.6975,-1.1612,11.5424,-0.4954,-1.1222,-0.2288
180361.0,-1.5778,-1.0223,11.2791,-0.4087,-1.2835,-0.2607
180371.0,-1.5347,-0.7925,10.9367,-0.3411,-1.4239,-0.2841
180381.0,-1.4533,-0.5962,10.6063,-0.2395,-1.5298,-0.2841
180391.0,-1.4389,-0.4046,10.1394,-0.0968,-1.6171,-0.2575
180401.0,-1.257,-0.2562,9.347,0.1016,-1.6772,-0.2112
180411.0,-0.8428,-0.1628,8.351,0.3251,-1.673,-0.1527
180421.0,-0.3807,-0.0982,7.2305,0.5385,-1.5756,-0.0889
180431.0,0.0599,-0.0766,6.2537,0.6619,-1.4117,-0.0367
180441.0,0.5195,-0.1125,5.6312,0.6981,-1.1829,-0.0043
180451.0,0.7661,-0.0096,5.2433,0.6609,-0.9253,0.0048
180461.0,0.8859,0.1006,5.1116,0.5571,-0.6657,-0.0016
180471.0,0.9337,0.2035,5.1858,0.4092,-0.414,-0.0154
180481.0,0.9242,0.1939,5.5713,0.2251,-0.1799,-0.0325
180491.0,0.8954,0.1652,6.0669,0.0548,0.0165,-0.05
180501.0,0.8571,0.0934,6.596,-0.0729,0.1788,-0.066
180511.0,0.7781,-0.0766,7.1443,-0.1431,0.3437,-0.0745
180521.0,0.7207,-0.2227,7.9057,-0.1618,0.4954,-0.0835
180531.0,0.5746,-0.3089,8.7101,-0.1453,0.6109,-0.1
180541.0,0.4381,-0.2346,9.3661,-0.1123,0.6619,-0.1208
180551.0,0.2179,-0.146,9.7683,-0.1027,0.6518,-0.1421
180561.0,0.0982,-0.0694,10.0796,-0.125,0.5992,-0.158
180571.0,-0.0072,0.0311,10.2831,-0.1511,0.5475,-0.1703
180581.0,-0.1508,0.0359,10.556,-0.1639,0.5082,-0.1735
180591.0,-0.2634,-0.012,10.8409,-0.141,0.4805,-0.1676
180601.0,-0.3424,-0.012,11.0995,-0.0809,0.4496,-0.1591
180611.0,-0.3208,0.0192,11.2815,-0.025,0.3847,-0.1485
180621.0,-0.2634,0.1245,11.2863,0.0213,0.3081,-0.1389
180631.0,-0.2562,0.2586,11.1235,0.0452,0.2395,-0.1293
180641.0,-0.261,0.4525,11.0038,0.0351,0.1963,-0.1192
180651.0,-0.3472,0.6416,10.975,-0.0096,0.1687,-0.1011
180661.0,-0.498,0.7207,11.0373,-0.0681,0.1517,-0.0718
180671.0,-0.6488,0.6608,11.169,-0.1032,0.1399,-0.0341
180681.0,-0.6536,0.3783,11.3892,-0.1245,0.1064,0.0043
180691.0,-0.5411,0.0215,11.5424,-0.1064,0.0708,0.0325
180701.0,-0.3184,-0.2705,11.7316,-0.0447,0.0644,0.0463
180711.0,-0.1891,-0.4166,11.9973,0.0144,0.0596,0.0394
180721.0,-0.2274,-0.4094,12.1194,0.0,-0.0027,0.0112
180731.0,-0.2921,-0.2825,12.0668,-0.0979,-0.1373,-0.0309
180741.0,-0.3256,-0.1101,11.8848,-0.2347,-0.29,-0.0676
180751.0,-0.395,-0.0192,11.7843,-0.3214,-0.4023,-0.0803
180761.0,-0.3256,-0.1628,11.9447,-0.2889,-0.4401,-0.0612
180771.0,-0.4022,-0.249,12.1218,-0.1165,-0.415,-0.0213
180781.0,-0.3663,-0.3615,12.3684,0.0532,-0.4475,0.0133
180791.0,-0.2969,-0.407,12.2775,0.1756,-0.5507,0.033
180801.0,-0.2227,-0.4286,11.7531,0.1532,-0.7295,0.0229
180811.0,0.0958,-0.4836,10.829,-0.0021,-0.9392,-0.0122
180821.0,0.3759,-0.5195,9.9671,-0.183,-1.0642,-0.0591
180831.0,0.6608,-0.4741,9.1028,-0.3076,-1.0839,-0.1048
180841.0,0.8715,-0.3687,8.351,-0.3634,-1.0275,-0.1341
180851.0,1.0439,-0.103,7.4101,-0.3634,-0.9323,-0.1442
180861.0,1.0367,0.1077,6.5266,-0.3581,-0.7854,-0.1346
180871.0,1.1013,0.2729,5.5593,-0.356,-0.6135,-0.1117
180881.0,1.2186,0.2825,4.5586,-0.3852,-0.4241,-0.0819
180891.0,1.415,0.0838,3.6799,-0.4198,-0.1788,-0.0516
180901.0,1.6161,-0.1101,2.8156,-0.4417,0.1368,-0.0277
180911.0,1.8555,-0.3304,2.3248,-0.4432,0.5502,-0.0128
180921.0,1.8938,-0.4046,2.0399,-0.4459,0.9865,-0.0059
180931.0,1.6712,-0.5962,2.5211,-0.5044,1.4037,-0.0117
180941.0,1.1851,-0.5602,3.2058,-0.5108,1.8113,-0.0165
180951.0,0.4812,-0.3903,3.9313,-0.4954,2.1402,-0.017
180961.0,-0.158,-0.249,4.4484,-0.5098,2.3546,-0.0096
180971.0,-0.8595,-0.103,4.8219,-0.5444,2.5275,0.0117
180981.0,-1.4198,-0.0263,5.3846,-0.5726,2.6999,0.0415
180991.0,-1.968,-0.2346,6.6152,-0.5545,2.8809,0.091
181001.0,-2.5331,-0.3639,7.841,-0.4161,3.033,0.1517
181011.0,-2.9185,-0.486,9.1506,-0.2336,3.0932,0.2054
181021.0,-3.2729,-0.656,10.4818,-0.0367,3.0687,0.2485
181031.0,-3.644,-0.6776,11.2551,0.1836,2.9889,0.2804
181041.0,-4.0007,-0.6536,11.8633,0.3139,2.859,0.2857
181051.0,-4.2737,-0.5962,12.4403,0.3304,2.6983,0.2682
181061.0,-4.7645,-0.5076,13.0556,0.2432,2.5164,0.2373
181071.0,-5.102,-0.4788,13.6996,0.0665,2.246,0.1948
181081.0,-5.2648,-0.5866,14.1856,-0.107,1.9199,0.1634
181091.0,-5.3319,-0.9505,14.9207,-0.1692,1.6288,0.1431
181101.0,-5.272,-1.1229,15.4115,-0.0069,1.3968,0.1368
181111.0,-5.138,-1.2258,15.8065,0.281,1.1659,0.1378
181121.0,-5.2146,-1.1085,15.4115,0.6327,0.944,0.1389
181131.0,-5.1834,-0.9002,14.9015,0.8769,0.7556,0.1187
181141.0,-5.2577,-0.5124,14.4993,0.9786,0.6508,0.0761
181151.0,-5.3989,-0.0311,14.54,0.9408,0.5741,0.0223
181161.0,-5.6072,0.3926,14.8417,0.7923,0.4688,-0.0245
181171.0,-5.7628,0.6393,15.263,0.6258,0.3533,-0.0521
181181.0,-5.8347,0.8763,15.6533,0.5199,0.2373,-0.0601
181191.0,-5.7581,1.0989,15.8424,0.4432,0.1048,-0.0521
181201.0,-5.7317,1.1085,15.931,0.3257,-0.0479,-0.0341
181211.0,-5.6312,1.0343,16.0196,0.157,-0.2261,-0.025
181221.0,-5.4636,0.9002,16.1872,-0.0181,-0.414,-0.0266
181231.0,-5.4899,0.7422,16.2399,-0.1575,-0.6114,-0.0287
181241.0,-5.6479,0.4501,16.2471,-0.2607,-0.8104,-0.0319
181251.0,-5.636,0.1604,16.4218,-0.2586,-0.9541,-0.0346
181261.0,-5.7988,-0.0359,16.5894,-0.1809,-1.0701,-0.0415
181271.0,-5.7676,-0.0982,16.836,-0.1176,-1.2473,-0.0654
181281.0,-5.5857,0.1077,16.6182,-0.107,-1.5123,-0.0995
181291.0,-5.2912,0.2682,15.9478,-0.2389,-1.8677,-0.1453
181301.0,-4.968,0.4836,14.8991,-0.4523,-2.2285,-0.1963
181311.0,-4.695,0.5555,14.042,-0.6699,-2.5169,-0.2293
181321.0,-4.3622,0.6105,13.1298,-0.7737,-2.7398,-0.2363
181331.0,-4.1156,0.6129,12.0644,-0.7466,-2.9192,-0.2112
181341.0,-3.7373,0.6057,10.6997,-0.6321,-3.0708,-0.1681
181351.0,-3.2585,0.6967,8.995,-0.4709,-3.1661,-0.1128
181361.0,-2.7222,0.7709,7.2209,-0.3235,-3.1655,-0.0521
181371.0,-2.1452,0.7518,5.6336,-0.1809,-3.0336,0.016
181381.0,-1.3886,0.7039,4.2976,-0.0569,-2.7808,0.0878
181391.0,-0.7254,0.5938,3.2681,-0.0165,-2.4727,0.1543
181401.0,-0.0622,0.3136,2.6025,-0.0788,-2.1646,0.2006
181411.0,0.5459,-0.0886,2.4038,-0.2075,-1.847,0.2219
181421.0,1.0056,-0.5315,2.3631,-0.3363,-1.5282,0.2198
181431.0,1.3048,-0.9457,2.6049,-0.439,-1.2329,0.1985
181441.0,1.5419,-1.3001,2.9281,-0.4826,-0.9775,0.1607
181451.0,1.834,-1.6065,3.3591,-0.4385,-0.7359,0.1155
181461.0,2.0614,-1.7717,3.6512,-0.3219,-0.5039,0.0697
181471.0,2.1093,-1.7454,3.8642,-0.165,-0.2852,0.0234
181481.0,2.1045,-1.6305,4.0654,0.0074,-0.0654,-0.0165
181491.0,1.8938,-1.4102,4.2401,0.1564,0.1586,-0.049
181501.0,1.6807,-1.3001,4.719,0.2464,0.3688,-0.0734
181511.0,1.5874,-1.1899,5.2122,0.3086,0.5678,-0.0958
181521.0,1.336,-1.0367,5.9017,0.3331,0.7476,-0.1229
181531.0,1.0319,-0.8045,6.7086,0.3453,0.895,-0.1437
181541.0,0.8691,-0.5411,7.3526,0.3379,1.0233,-0.1543
181551.0,0.6249,-0.3759,8.3342,0.2698,1.1323,-0.1628
181561.0,0.2658,-0.1844,9.3637,0.1538,1.1701,-0.1745
181571.0,0.012,-0.0766,10.331,0.0218,1.1318,-0.1852
181581.0,-0.2562,0.0335,11.2336,-0.0575,1.0632,-0.1878
181591.0,-0.4884,0.1173,11.9231,-0.0484,0.9839,-0.1772
181601.0,-0.7302,0.2538,12.4522,0.0335,0.8971,-0.1527
181611.0,-0.8404,0.3304,12.864,0.1538,0.8024,-0.1197
181621.0,-0.9529,0.3903,12.9598,0.2762,0.7093,-0.0835
181631.0,-0.9912,0.4286,13.113,0.356,0.6173,-0.0559
181641.0,-0.9601,0.5555,13.1226,0.3927,0.5209,-0.0388
181651.0,-1.0319,0.7159,13.1418,0.3645,0.4097,-0.0309
181661.0,-1.0989,0.8954,13.0077,0.2905,0.2969,-0.0255
181671.0,-1.1564,1.0463,12.9119,0.1937,0.1995,-0.0165
181681.0,-1.1923,1.1899,12.7874,0.0974,0.1128,0.0032
181691.0,-1.1827,1.2115,12.6797,0.0176,0.033,0.0388
181701.0,-1.1971,1.0343,12.5863,-0.0261,-0.0404,0.0841
181711.0,-1.0223,0.7853,12.4403,-0.0351,-0.1176,0.1266
181721.0,-0.8116,0.5555,12.1482,-0.0261,-0.19,0.158
181731.0,-0.5866,0.3424,11.8058,-0.0202,-0.2517,0.1772
181741.0,-0.395,0.17,11.4467,-0.0325,-0.2975,0.182
181751.0,-0.249,0.0263,11.0588,-0.0527,-0.3288,0.1767
181761.0,-0.1413,-0.1101,10.6638,-0.0867,-0.3453,0.165
181771.0,-0.0359,-0.1963,10.422,-0.1165,-0.3395,0.1469
181781.0,0.0359,-0.261,10.1251,-0.1469,-0.3177,0.124
181791.0,0.1053,-0.2897,9.9288,-0.1799,-0.2948,0.1027
181801.0,0.1484,-0.2538,9.7348,-0.2001,-0.2554,0.0851
181811.0,0.1125,-0.2179,9.5768,-0.2043,-0.2033,0.075
181821.0,0.0383,-0.261,9.5433,-0.2144,-0.1506,0.0676
181831.0,0.0287,-0.3783,9.505,-0.2272,-0.1133,0.0575
181841.0,0.1484,-0.4357,9.5026,-0.2309,-0.0809,0.0415
181851.0,0.2538,-0.4166,9.3541,-0.2389,-0.0452,0.0218
181861.0,0.2969,-0.3352,9.3254,-0.2873,-0.0032,-0.0027
181871.0,0.1963,-0.2442,9.3494,-0.3794,0.0351,-0.0287
181881.0,0.103,-0.2346,9.6798,-0.4922,0.0362,-0.0506
181891.0,0.0766,-0.2658,9.9311,-0.5545,0.0138,-0.0601
181901.0,0.0215,-0.2729,10.0652,-0.5454,-0.025,-0.0569
181911.0,0.0479,-0.3112,10.1299,-0.4885,-0.0782,-0.042
181921.0,0.0575,-0.328,10.0628,-0.3799,-0.1208,-0.0202
181931.0,0.079,-0.3352,10.0365,-0.2384,-0.1501,0.0069
181941.0,0.0694,-0.2801,9.8881,-0.0713,-0.1756,0.0383
181951.0,0.1293,-0.2107,9.56,0.075,-0.2166,0.0681
181961.0,0.249,-0.0311,9.0812,0.1676,-0.2538,0.0915
181971.0,0.2921,0.2873,8.0014,0.1421,-0.3193,0.1059
181981.0,0.395,0.7015,6.2632,-0.0378,-0.4081,0.116
181991.0,0.4357,0.9481,4.1827,-0.3725,-0.4358,0.133
182001.0,0.6225,0.8308,2.4636,-0.7716,-0.3219,0.1639
182011.0,1.0654,0.3783,1.3096,-1.0749,-0.0607,0.2182
182021.0,1.3551,0.0287,-0.5507,-1.2398,0.281,0.2746
182031.0,1.5562,-0.5004,-2.0806,-1.4372,0.7125,0.3049
182041.0,1.1899,-0.8835,-2.6935,-1.4516,1.4798,0.3384
182051.0,0.2801,-1.1756,-1.0391,-1.3,2.4669,0.3688
182061.0,-1.1061,-1.3695,1.9321,-0.9738,3.3087,0.4007
182071.0,-2.1931,-1.4413,4.7453,-0.489,3.8855,0.4411
182081.0,-2.6983,-1.3431,6.5984,-0.0048,4.2803,0.4778
182091.0,-3.5338,-1.2115,8.6119,0.1916,4.4932,0.4688
182101.0,-4.6615,-1.2354,10.7188,0.0128,4.4197,0.4124
182111.0,-5.6288,-1.8076,12.8856,-0.3485,4.1755,0.3485
182121.0,-6.3135,-2.6647,15.5479,-0.6566,3.8844,0.2645
182131.0,-6.5242,-3.067,17.8536,-0.7604,3.4859,0.1623
182141.0,-6.8402,-3.1891,19.4313,-0.7029,2.9729,0.067
182151.0,-7.3358,-3.134,20.413,-0.5502,2.3743,-0.008
182161.0,-7.4029,-3.0167,20.5782,-0.3656,1.6815,-0.0734
182171.0,-7.4148,-2.8946,20.3028,-0.1197,1.0733,-0.1266
182181.0,-7.4771,-2.5307,20.1065,0.2214,0.5912,-0.1596
182191.0,-7.5561,-1.9082,20.1544,0.6859,0.2309,-0.1618
182201.0,-7.8314,-0.8859,19.8575,1.2137,-0.099,-0.1165
182211.0,-7.8482,0.1006,18.9094,1.6017,-0.5146,-0.0372
182221.0,-7.4484,0.6584,17.3891,1.7687,-0.9519,0.0639
182231.0,-6.4356,0.6776,15.6341,1.7272,-1.2989,0.1543
182241.0,-5.4205,0.5531,13.9055,1.5213,-1.5149,0.207
182251.0,-4.6112,0.3017,12.5049,1.2058,-1.6102,0.2219
182261.0,-3.8188,0.0575,11.5065,0.8562,-1.5937,0.2091
182271.0,-3.3399,-0.1891,11.2073,0.5193,-1.5091,0.1756
182281.0,-2.976,-0.4717,11.4323,0.249,-1.4452,0.1325
182291.0,-2.7461,-0.6919,11.813,0.1298,-1.4021,0.0942
182301.0,-2.7845,-0.8811,12.1673,0.1277,-1.383,0.0681
182311.0,-2.8371,-1.0654,12.5552,0.1921,-1.3782,0.0442
182321.0,-3.0909,-1.1205,13.0915,0.2804,-1.3888,0.0154
182331.0,-3.2178,-1.0247,13.3812,0.2916,-1.5176,-0.0303
182341.0,-3.3016,-0.8284,13.4554,0.1894,-1.7794,-0.0968
182351.0,-3.4333,-0.5938,13.2902,0.0931,-2.054,-0.1532
182361.0,-3.5147,-0.3041,12.9407,0.0873,-2.2806,-0.1772
182371.0,-3.5195,-0.158,12.6031,0.1937,-2.4387,-0.1655
182381.0,-3.3734,-0.0646,12.1913,0.4193,-2.5414,-0.1165
182391.0,-3.1292,-0.0359,11.5688,0.6886,-2.6457,-0.0553
182401.0,-2.5115,0.0646,10.5489,0.9355,-2.734,0.0021
182411.0,-1.8124,0.2251,9.2081,1.1036,-2.7095,0.0431
182421.0,-1.3024,0.4812,8.0732,1.0775,-2.6153,0.0559
182431.0,-0.8787,0.7039,7.3143,0.8397,-2.5137,0.0362
182441.0,-0.3424,0.8619,6.8211,0.5076,-2.3993,-0.0053
182451.0,0.079,0.9529,6.505,0.158,-2.2844,-0.0532
182461.0,0.4597,1.087,6.1316,-0.1171,-2.1694,-0.0931
182471.0,0.8667,1.1013,5.8012,-0.2522,-1.997,-0.1075
182481.0,1.1444,1.1516,5.4181,-0.2458,-1.7624,-0.0963
182491.0,1.5634,1.154,5.0637,-0.1719,-1.492,-0.0692
182501.0,1.9417,1.0534,4.9033,-0.0825,-1.1967,-0.0388
182511.0,2.1668,1.0654,4.7357,-0.0096,-0.9009,-0.0186
182521.0,2.3296,1.1756,4.6807,-0.0043,-0.6194,-0.0096
182531.0,2.3224,1.3001,4.8147,-0.0442,-0.3432,-0.0021
182541.0,2.1189,1.4054,5.2457,-0.1203,-0.0942,0.0101
182551.0,1.9297,1.2594,5.8466,-0.1916,0.1208,0.0362
182561.0,1.8148,0.9816,6.4667,-0.2001,0.3102,0.0697
182571.0,1.9417,0.6321,7.1491,-0.1708,0.4715,0.0931
182581.0,1.9106,0.3711,7.7764,-0.1192,0.6103,0.1006
182591.0,1.8387,0.3017,8.5234,-0.0761,0.7093,0.0921
182601.0,1.664,0.4357,9.0381,-0.0617,0.7466,0.0734
182611.0,1.312,0.5171,9.7468,-0.0984,0.7466,0.0575
182621.0,0.9936,0.668,10.3262,-0.1336,0.6832,0.0436
182631.0,0.5578,0.7063,10.884,-0.1346,0.6024,0.0474
182641.0,0.4334,0.5531,11.2025,-0.0404,0.5263,0.0718
182651.0,0.6129,0.2203,11.5831,0.1229,0.4789,0.0921
182661.0,0.8667,0.0551,11.4658,0.2948,0.4289,0.0851
182671.0,1.1157,0.0072,11.2695,0.3688,0.3821,0.0463
182681.0,1.233,0.1939,10.9487,0.3129,0.3437,-0.0202
182691.0,1.0894,0.4405,11.0133,0.1357,0.3246,-0.0979
182701.0,0.8475,0.7685,11.315,-0.066,0.3038,-0.1628
182711.0,0.6704,1.063,11.6909,-0.2341,0.2448,-0.1958
182721.0,0.5291,1.1325,11.7723,-0.3432,0.1437,-0.191
182731.0,0.6369,1.0774,11.6191,-0.3709,0.0596,-0.1676
182741.0,0.826,0.9697,11.3964,-0.3437,0.0261,-0.1357
182751.0,0.8811,0.8188,11.3437,-0.3166,0.0096,-0.107
182761.0,0.9266,0.6321,11.4179,-0.2927,-0.0144,-0.0873
182771.0,1.0151,0.5578,11.4395,-0.2639,-0.0681,-0.0761
182781.0,1.0798,0.5291,11.3509,-0.2198,-0.1293,-0.067
182791.0,1.1612,0.5435,11.0325,-0.1623,-0.1761,-0.0527
182801.0,1.2043,0.6225,10.6781,-0.1128,-0.2075,-0.0388
182811.0,1.2306,0.6847,10.2903,-0.0862,-0.2155,-0.0202
182821.0,1.3384,0.6847,9.9216,-0.0905,-0.1979,-0.0032
182831.0,1.4269,0.7422,9.6438,-0.1256,-0.166,0.0037
182841.0,1.4581,0.7853,9.5481,-0.1873,-0.1187,0.0117
182851.0,1.4293,0.7638,9.651,-0.2517,-0.0745,0.0223
182861.0,1.3647,0.7039,9.7731,-0.2708,-0.0383,0.0383
182871.0,1.3551,0.6823,9.8593,-0.2432,-0.0192,0.0607
182881.0,1.2809,0.5339,9.8306,-0.1916,0.0043,0.0867
182891.0,1.3862,0.3591,9.8043,-0.1431,0.041,0.1011
182901.0,1.4724,0.316,9.7707,-0.1171,0.066,0.0984
182911.0,1.4748,0.2945,9.7061,-0.1346,0.0862,0.0862
182921.0,1.4485,0.3472,9.505,-0.1878,0.099,0.0676
182931.0,1.3862,0.4286,9.3757,-0.2788,0.1165,0.0468
182941.0,1.3623,0.4477,9.3422,-0.3831,0.1346,0.0314
182951.0,1.3072,0.4621,9.3829,-0.4661,0.1437,0.0234
182961.0,1.2929,0.4501,9.3494,-0.5002,0.1463,0.0245
182971.0,1.2617,0.4645,9.2584,-0.4784,0.1485,0.0357
182981.0,1.2857,0.6416,9.1171,-0.4129,0.1564,0.0548
182991.0,1.2402,0.9936,8.7388,-0.3326,0.1697,0.0862
183001.0,1.1684,1.4317,8.3246,-0.2772,0.1841,0.1373
183011.0,1.2426,1.5921,8.0972,-0.2528,0.2214,0.2097
183021.0,1.4724,1.6975,7.5034,-0.2554,0.2208,0.2921
183031.0,1.6233,1.4581,6.9097,-0.3182,0.2256,0.3688
183041.0,1.6185,1.2785,5.952,-0.4156,0.2687,0.4294
183051.0,1.4892,0.972,5.43,-0.5821,0.3842,0.473
183061.0,1.2498,0.6033,5.3223,-0.7508,0.5332,0.5124
183071.0,1.1301,0.0551,5.5378,-0.8801,0.6497,0.5481
183081.0,0.929,-0.51,5.8395,-0.9046,0.7173,0.5736
183091.0,0.6967,-1.0606,5.9927,-0.7769,0.77,0.5885
183101.0,0.5028,-1.3599,5.9065,-0.4518,0.8668,0.589
183111.0,0.4908,-1.3312,5.4324,0.0176,1.0179,0.5726
183121.0,0.4717,-0.9409,4.3981,0.514,1.2473,0.5539
183131.0,0.2921,-0.5531,3.4357,0.862,1.5511,0.5364
183141.0,-0.091,-0.0622,2.4612,1.003,1.898,0.5103
183151.0,-0.7829,-0.0479,2.5139,0.9163,2.3131,0.4794
183161.0,-1.506,-0.2274,3.2729,0.8019,2.7622,0.4438
183171.0,-2.0351,-0.3663,3.8307,0.6838,3.1219,0.3863
183181.0,-2.7892,-0.4118,3.7733,0.4757,3.381,0.299
183191.0,-3.553,-0.5124,3.3208,0.1841,3.6897,0.1937
183201.0,-4.7142,-1.1157,4.2665,-0.1421,4.2234,0.0809
183211.0,-5.849,-1.8411,6.5553,-0.4177,4.8103,-0.0479
183221.0,-6.8929,-2.4301,10.3214,-0.6343,5.2461,-0.2054
183231.0,-8.0804,-2.4277,13.6374,-0.6997,5.4009,-0.3565
183241.0,-8.9519,-2.6073,17.0204,-0.7928,5.2482,-0.4895
183251.0,-10.0054,-2.5618,20.0754,-0.7689,4.9763,-0.6018
183261.0,-10.8816,-2.5187,23.1711,-0.7492,4.5416,-0.6976
183271.0,-11.4539,-2.1476,25.7975,-0.8072,3.7966,-0.8141
183281.0,-11.5257,-1.6855,27.7153,-0.9147,2.792,-0.9126
183291.0,-11.2671,-1.245,28.5054,-1.0493,1.6299,-0.961
183301.0,-10.7212,-0.7925,27.7608,-1.0882,0.4432,-0.9541
183311.0,-10.3477,-0.1915,25.9771,-0.9599,-0.5965,-0.8902
183321.0,-9.9024,0.4645,23.6308,-0.7019,-1.4553,-0.771
183331.0,-9.414,0.9697,21.0283,-0.3528,-2.1077,-0.5949
183341.0,-8.7628,1.257,18.4665,0.0452,-2.5744,-0.3762
183351.0,-7.8985,1.3096,15.943,0.4661,-2.8628,-0.1336
183361.0,-6.948,1.1061,13.9486,0.8716,-2.9367,0.1192
183371.0,-6.0645,0.7973,12.3493,1.202,-2.8665,0.3464
183381.0,-5.3008,0.4477,11.1713,1.3037,-2.8213,0.5087
183391.0,-4.5514,-0.012,9.9479,1.1579,-2.8532,0.596
183401.0,-3.6033,-0.51,8.9016,0.8748,-2.8521,0.613
183411.0,-2.8323,-0.9098,8.0541,0.6087,-2.6999,0.5805
183421.0,-2.3822,-1.3288,8.3366,0.3783,-2.4062,0.5167
183431.0,-2.3511,-1.3958,9.1267,0.2022,-2.1322,0.422
183441.0,-2.6767,-1.3384,9.833,-0.0388,-2.0912,0.3017
183451.0,-2.6887,-1.3862,10.0293,-0.2847,-2.2258,0.1862
183461.0,-2.6671,-1.5874,9.9455,-0.4044,-2.3456,0.0867
183471.0,-2.4205,-1.8387,10.0006,-0.3368,-2.3583,0.0106
183481.0,-2.1811,-1.7621,10.1634,-0.0676,-2.2907,-0.0378
183491.0,-2.0207,-1.4078,9.9982,0.2139,-2.3062,-0.0724
183501.0,-1.9178,-1.1037,9.2656,0.4257,-2.3881,-0.0899
183511.0,-1.7741,-0.9697,8.3917,0.5672,-2.4078,-0.0947
183521.0,-1.3001,-0.8691,7.6998,0.654,-2.344,-0.1054
183531.0,-0.7685,-0.7398,6.9983,0.6476,-2.2721,-0.1341
183541.0,-0.3089,-0.6823,6.4643,0.5768,-2.1982,-0.1719
183551.0,0.1389,-0.5818,5.9185,0.5433,-2.0295,-0.207
183561.0,0.4477,-0.3903,5.6671,0.505,-1.8076,-0.2442
183571.0,0.7015,-0.1053,5.3534,0.439,-1.6033,-0.2831
183581.0,1.0056,0.1413,5.0542,0.3086,-1.4346,-0.3187
183591.0,1.1229,0.3256,4.7166,0.1713,-1.2462,-0.3427
183601.0,1.3431,0.431,4.6711,0.0809,-0.9929,-0.3544
183611.0,1.5227,0.4046,4.9392,0.0479,-0.7024,-0.3555
183621.0,1.6879,0.3855,5.3558,0.0543,-0.4491,-0.3528
183631.0,1.7286,0.3926,5.6455,0.0788,-0.2299,-0.3544
183641.0,1.7454,0.4884,5.8754,0.0883,-0.0303,-0.3634
183651.0,1.6999,0.6512,6.2201,0.0676,0.1687,-0.3751
183661.0,1.4676,0.9026,6.7564,0.0287,0.3608,-0.3831
183671.0,1.2522,1.0558,7.4986,-0.0314,0.5183,-0.3751
183681.0,1.087,1.2234,8.1954,-0.0708,0.6247,-0.3581
183691.0,0.9673,1.3168,8.7795,-0.0878,0.6875,-0.3299
183701.0,0.7901,1.2905,9.5553,-0.0591,0.7673,-0.29
183711.0,0.6225,1.3001,10.3573,0.0149,0.8258,-0.2442
183721.0,0.3711,1.1851,11.3725,0.0841,0.8141,-0.2017
183731.0,0.4046,1.2115,11.8321,0.1777,0.7125,-0.1687
183741.0,0.3448,1.2402,11.9782,0.2331,0.5795,-0.1421
183751.0,0.4381,1.4078,11.8441,0.2629,0.4762,-0.124
183761.0,0.3472,1.7789,11.7819,0.2112,0.3986,-0.1165
183771.0,0.1652,2.1691,11.6957,0.0628,0.298,-0.0995
183781.0,0.0072,2.2841,11.8633,-0.1469,0.1719,-0.0617
183791.0,-0.0239,2.1668,11.801,-0.3065,0.0463,-0.0074
183801.0,0.0862,1.7454,11.8369,-0.3858,-0.0649,0.0585
183811.0,0.1604,1.3264,11.5424,-0.348,-0.149,0.1224
183821.0,0.2897,0.7805,11.3294,-0.2581,-0.1878,0.1745
183831.0,0.68,0.3448,11.0229,-0.1373,-0.1963,0.2038
183841.0,0.9266,0.0455,10.8697,-0.0367,-0.1953,0.2043
183851.0,1.0487,-0.0718,10.671,0.058,-0.1772,0.1884
183861.0,1.0223,0.0048,10.5273,0.1442,-0.1394,0.1634
183871.0,0.929,0.1628,10.4459,0.1878,-0.1112,0.1368
183881.0,0.8691,0.2562,10.4818,0.182,-0.1022,0.1133
183891.0,0.9337,0.3184,10.3573,0.1564,-0.1128,0.0931
183901.0,0.9266,0.3232,10.3477,0.125,-0.1235,0.0756
183911.0,1.0271,0.4477,10.0604,0.1,-0.1219,0.0617
183921.0,1.0582,0.4693,9.9551,0.0271,-0.1123,0.0463
183931.0,1.0606,0.4932,9.7588,-0.0777,-0.1059,0.0271
183941.0,0.9649,0.4286,9.7564,-0.1921,-0.0867,0.009
183951.0,1.0008,0.3184,9.9311,-0.2698,-0.0607,-0.008
183961.0,1.0965,0.1963,10.0772,-0.3006,-0.0383,-0.0218
183971.0,1.1061,0.1484,10.2544,-0.3001,-0.0378,-0.0372
183981.0,1.0942,0.2466,10.252,-0.2591,-0.0452,-0.0516
183991.0,1.0534,0.34,10.2041,-0.1948,-0.0431,-0.0575
184001.0,1.0463,0.5291,10.0078,-0.1224,-0.042,-0.0521
184011.0,1.008,0.656,9.8043,-0.0803,-0.0431,-0.0426
184021.0,1.0391,0.7494,9.5984,-0.0681,-0.0394,-0.0287
184031.0,1.0702,0.7278,9.4236,-0.0766,-0.0223,-0.0133
184041.0,1.1133,0.6967,9.2871,-0.1101,-0.016,-0.0037
184051.0,1.1708,0.6416,9.0884,-0.1559,-0.0218,0.0048
184061.0,1.1899,0.5315,8.8346,-0.1836,-0.0101,0.0122
184071.0,1.2091,0.4525,8.6215,-0.1873,0.0223,0.016
184081.0,1.233,0.3663,8.4348,-0.1602,0.0697,0.0202
184091.0,1.2282,0.3759,8.2121,-0.1016,0.1298,0.0208
184101.0,1.2689,0.4118,8.0038,-0.0367,0.2022,0.0234
184111.0,1.3048,0.5076,7.6974,0.009,0.2794,0.0223
184121.0,1.324,0.6512,7.3574,0.0069,0.3555,0.0197
184131.0,1.336,0.838,6.8905,-0.0367,0.4411,0.0192
184141.0,1.3479,1.0151,6.462,-0.1192,0.5507,0.0223
184151.0,1.336,1.2354,5.7988,-0.2389,0.6784,0.0282
184161.0,1.0989,1.506,5.0661,-0.4124,0.8381,0.0399
184171.0,0.7422,1.6424,4.3287,-0.6486,1.0392,0.0601
184181.0,0.316,1.5706,3.9025,-0.9142,1.3005,0.0926
184191.0,0.1053,1.3216,3.7421,-1.1531,1.5974,0.1368
184201.0,-0.1987,0.9457,3.7134,-1.3431,1.9209,0.1873
184211.0,-0.644,0.5052,3.8475,-1.4835,2.2466,0.2336
184221.0,-1.1588,0.0383,4.0989,-1.5884,2.5643,0.2724
184231.0,-1.6161,-0.1891,3.7278,-1.707,2.7989,0.2969
184241.0,-2.138,-0.5794,3.2609,-1.9278,3.0187,0.3054
184251.0,-2.6312,-1.1205,3.7565,-2.1061,3.3688,0.3161
184261.0,-3.5554,-1.5443,4.8195,-2.1237,3.8067,0.3363
184271.0,-4.5155,-2.0686,6.3853,-2.071,4.151,0.357
184281.0,-5.5809,-2.6217,8.0565,-1.9768,4.3825,0.3714
184291.0,-6.2369,-3.2298,9.7229,-1.9055,4.4607,0.3624
184301.0,-6.4212,-3.9456,11.6119,-1.8757,4.3968,0.3235
184311.0,-6.8163,-4.7405,13.8744,-1.7049,4.3649,0.2735
184321.0,-7.0174,-5.4971,16.6349,-1.4362,4.2633,0.1974
184331.0,-7.0844,-5.6814,18.9166,-1.1855,3.9057,0.0788
184341.0,-7.4005,-5.6096,20.9995,-1.0754,3.2432,-0.0788
184351.0,-7.6782,-4.9608,21.6125,-0.9977,2.3471,-0.2272
184361.0,-7.8673,-4.2904,21.6436,-0.8833,1.4229,-0.3219
184371.0,-7.9631,-3.4644,20.9588,-0.547,0.6561,-0.3288
184381.0,-8.3031,-2.6049,20.3244,-0.0176,0.0814,-0.2613
184391.0,-8.4994,-1.6879,19.6157,0.6635,-0.3751,-0.1224
184401.0,-8.6933,-0.8811,18.7346,1.4048,-0.7572,0.0766
184411.0,-8.5162,-0.3591,17.4872,2.0795,-1.0919,0.3182
184421.0,-8.1116,-0.2849,16.0866,2.5696,-1.3377,0.5534
184431.0,-7.3861,-0.3543,14.7818,2.7936,-1.4974,0.7322
184441.0,-6.6559,-0.4094,13.8457,2.7414,-1.5782,0.8349
184451.0,-6.0573,-0.5555,13.3357,2.4435,-1.624,0.8642
184461.0,-5.5545,-0.7757,13.2471,2.0066,-1.6788,0.8381
184471.0,-5.1858,-1.063,13.4363,1.5282,-1.7831,0.7652
184481.0,-4.8315,-1.3671,13.4363,1.0951,-1.9603,0.6683
184491.0,-4.5418,-1.506,13.2543,0.7875,-2.1598,0.5635
184501.0,-4.2162,-1.4844,12.6294,0.6407,-2.3307,0.4715
184511.0,-3.9744,-1.3623,11.9566,0.6353,-2.4131,0.4033
184521.0,-3.8068,-1.0391,11.0014,0.7205,-2.4275,0.3549
184531.0,-3.5865,-0.7901,9.9766,0.7466,-2.4227,0.3124
184541.0,-3.3327,-0.6177,8.9735,0.6902,-2.3759,0.274
184551.0,-2.9281,-0.577,8.3175,0.5795,-2.2583,0.2325
184561.0,-2.4493,-0.6512,8.0254,0.439,-2.0885,0.1825
184571.0,-2.1763,-0.656,7.9033,0.2724,-1.9193,0.1176
184581.0,-2.0518,-0.4836,7.865,0.0899,-1.7794,0.0383
184591.0,-2.0159,-0.3687,7.9751,-0.0718,-1.6591,-0.0341
184601.0,-1.8723,-0.2777,8.0541,-0.1623,-1.5277,-0.0915
184611.0,-1.5706,-0.1844,8.2313,-0.1963,-1.3915,-0.1352
184621.0,-1.3838,-0.2035,8.4276,-0.2352,-1.2904,-0.1697
184631.0,-1.336,-0.0766,8.7269,-0.2432,-1.2068,-0.2001
184641.0,-1.2546,0.2466,8.849,-0.2283,-1.1706,-0.223
184651.0,-1.2498,0.3376,8.8777,-0.2315,-1.1728,-0.2235
184661.0,-1.2809,0.4238,8.9376,-0.2001,-1.1451,-0.2097
184671.0,-1.1851,0.5722,9.1698,-0.1171,-1.0908,-0.1873
184681.0,-1.0894,0.6632,9.3613,-0.0511,-1.0866,-0.1575
184691.0,-0.917,0.8236,8.9711,-0.0287,-1.1552,-0.1266
184701.0,-0.6393,0.7925,8.4372,-0.0654,-1.2063,-0.0952
184711.0,-0.419,0.6943,7.9895,-0.1123,-1.1871,-0.0692
184721.0,-0.1077,0.5267,7.8195,-0.1458,-1.1031,-0.0458
184731.0,0.1221,0.3759,7.6878,-0.1623,-1.0222,-0.0303
184741.0,0.3184,0.2059,7.5178,-0.1692,-0.9621,-0.0239
184751.0,0.3735,0.0958,7.4268,-0.1133,-0.8572,-0.0165
184761.0,0.498,-0.0886,7.5609,0.009,-0.7019,-0.0048
184771.0,0.6656,-0.1963,7.9703,0.1708,-0.5257,0.0043
184781.0,0.826,-0.2514,8.26,0.2911,-0.4166,-0.0005
184791.0,0.972,-0.1891,8.2121,0.3134,-0.3906,-0.0245
184801.0,1.1396,-0.1245,7.9392,0.2352,-0.3719,-0.0623
184811.0,1.2402,-0.0646,7.6974,0.0894,-0.3129,-0.1107
184821.0,1.2163,-0.0072,7.7812,-0.0968,-0.2283,-0.1618
184831.0,1.1492,-0.0048,8.1451,-0.2714,-0.1644,-0.2065
184841.0,1.142,0.0239,8.4228,-0.3491,-0.1144,-0.2341
184851.0,1.0942,0.0742,8.5042,-0.3272,-0.0591,-0.2416
184861.0,1.0774,0.1006,8.6048,-0.224,0.0303,-0.2336
184871.0,0.9697,0.1341,8.7149,-0.0766,0.1522,-0.2198
184881.0,1.063,0.1077,8.9423,0.0575,0.2751,-0.2075
184891.0,1.1301,0.2131,9.098,0.124,0.3741,-0.2139
184901.0,1.0918,0.407,9.402,0.0527,0.4278,-0.2395
184911.0,0.9625,0.6201,9.7085,-0.1027,0.4555,-0.2687
184921.0,0.7542,0.7566,10.2065,-0.29,0.4534,-0.29
184931.0,0.589,0.826,10.7045,-0.4347,0.4129,-0.2921
184941.0,0.4477,0.7973,11.1211,-0.4805,0.364,-0.2682
184951.0,0.4405,0.7709,11.327,-0.4225,0.3124,-0.2235
184961.0,0.4142,0.6345,11.4084,-0.3225,0.2618,-0.1729
184971.0,0.4118,0.4381,11.4586,-0.2325,0.2054,-0.124
184981.0,0.4525,0.2203,11.5353,-0.1602,0.1527,-0.0883
184991.0,0.51,0.067,11.6693,-0.1006,0.083,-0.0644
185001.0,0.5602,0.0192,11.5855,-0.0569,-0.0266,-0.0527
185011.0,0.5746,0.0024,11.2743,-0.009,-0.132,-0.0436
185021.0,0.577,0.0886,10.8673,0.0617,-0.1804,-0.0394
185031.0,0.577,0.182,10.6207,0.1543,-0.166,-0.0271
185041.0,0.5171,0.3017,10.5129,0.2474,-0.1155,-0.0128
185051.0,0.5052,0.328,10.4914,0.3145,-0.0569,-0.0027
185061.0,0.5602,0.34,10.5441,0.331,-0.009,-0.0027
185071.0,0.6273,0.316,10.5082,0.2506,-0.0122,-0.0192
185081.0,0.6177,0.2753,10.41,0.0803,-0.0569,-0.0569
185091.0,0.6369,0.1437,10.3094,-0.1011,-0.0851,-0.099
185101.0,0.6608,-0.0048,10.2927,-0.2437,-0.0947,-0.1399
185111.0,0.7087,-0.2035,10.2735,-0.3235,-0.1128,-0.1756
185121.0,0.8308,-0.2945,10.058,-0.3421,-0.1405,-0.2091
185131.0,0.9673,-0.3759,9.5936,-0.3421,-0.1639,-0.24
185141.0,1.0127,-0.4286,9.1195,-0.3411,-0.1554,-0.2719
185151.0,1.0678,-0.5076,8.7077,-0.3618,-0.1213,-0.3049
185161.0,1.2306,-0.5818,8.3893,-0.4028,-0.0905,-0.3395
185171.0,1.3479,-0.5962,8.0349,-0.4284,-0.0553,-0.3709
185181.0,1.403,-0.4525,7.5681,-0.4294,-0.0069,-0.3948
185191.0,1.4509,-0.2059,6.9384,-0.4166,0.0617,-0.4055
185201.0,1.4485,0.0311,6.3518,-0.4145,0.1506,-0.3986
185211.0,1.4317,0.2634,5.6479,-0.4284,0.2565,-0.3735
185221.0,1.4796,0.5076,4.7597,-0.4832,0.357,-0.3336
185231.0,1.4676,0.4956,3.9385,-0.6013,0.4864,-0.2857
185241.0,1.4796,0.2538,3.1891,-0.7577,0.647,-0.2426
185251.0,1.2186,-0.0287,2.6935,-0.9589,0.8163,-0.2198
185261.0,0.8882,-0.261,2.8706,-1.0605,1.0424,-0.216
185271.0,0.4812,-0.2083,3.5123,-0.8955,1.3585,-0.2001
185281.0,0.2107,-0.1437,4.2114,-0.4864,1.6719,-0.1485
185291.0,0.0072,-0.1293,4.5059,0.0649,1.9433,-0.0692
185301.0,-0.0263,0.0814,3.8092,0.5954,2.1849,0.0032
185311.0,-0.3496,0.4142,2.8443,0.8833,2.4578,0.0388
185321.0,-1.245,0.8475,2.0183,0.9174,2.7888,0.049
185331.0,-2.5402,1.3312,0.7278,0.6912,3.0953,0.0399
185341.0,-3.7326,1.2498,-0.2586,0.2783,3.5215,0.0314
185351.0,-4.8674,0.7997,-0.2969,-0.0585,4.3096,0.0404
185361.0,-6.857,-0.0718,1.8172,-0.4294,5.311,0.0399
185371.0,-9.1339,-1.1708,5.1212,-0.9658,6.0719,-0.0122
185381.0,-10.7787,-2.8515,10.5082,-1.591,6.5844,-0.1091
185391.0,-12.536,-4.1611,16.927,-1.8768,6.9164,-0.223
185401.0,-13.6015,-4.8794,23.626,-1.9965,6.6924,-0.3778
185411.0,-14.0635,-5.3056,29.0201,-2.0124,5.8729,-0.5401
185421.0,-14.0659,-5.1882,32.8293,-1.9842,4.5533,-0.7194
185431.0,-13.5488,-5.0733,34.5388,-1.8964,2.966,-0.8477
185441.0,-12.8904,-4.7932,34.273,-1.6022,1.3941,-0.9317
185451.0,-12.5073,-3.5937,32.0368,-1.1488,-0.067,-1.0169
185461.0,-12.1218,-1.8627,28.0984,-0.7764,-1.4415,-1.06
185471.0,-11.5568,-0.4812,23.7505,-0.5183,-2.5509,-1.0296
185481.0,-10.5872,0.4836,19.3116,-0.257,-3.2725,-0.9184
185491.0,-9.5098,1.0415,15.6461,0.0346,-3.6168,-0.7455
185501.0,-8.26,1.4485,12.5313,0.3783,-3.6982,-0.5252
185511.0,-7.0629,1.5179,10.0413,0.6896,-3.6099,-0.2783
185521.0,-5.8538,1.3503,8.0852,0.9551,-3.4082,-0.0223
185531.0,-4.7166,0.9074,6.7253,1.1302,-3.1187,0.2155
185541.0,-3.8762,0.3998,5.8083,1.2191,-2.7915,0.4087
185551.0,-3.0502,-0.0551,5.2289,1.1818,-2.4929,0.5438
185561.0,-2.4852,-0.4884,4.9584,1.0584,-2.2136,0.6178
185571.0,-2.2434,-0.7805,4.9584,0.9168,-1.9358,0.6513
185581.0,-2.1907,-1.0702,5.521,0.8099,-1.6549,0.6678
185591.0,-2.1332,-1.3288,6.2273,0.7694,-1.4319,0.6737
185601.0,-1.9848,-1.5945,6.6655,0.7604,-1.3154,0.6614
185611.0,-1.7957,-1.8028,6.7612,0.7599,-1.2505,0.6284
185621.0,-1.7406,-1.913,6.7181,0.7274,-1.1765,0.5704
185631.0,-1.6376,-1.9082,6.9504,0.6811,-1.0525,0.5007
185641.0,-1.7095,-1.7262,7.4891,0.6263,-0.9115,0.4252
185651.0,-1.8148,-1.5131,8.1235,0.5603,-0.8333,0.3539
185661.0,-2.047,-1.2809,8.6167,0.5348,-0.7966,0.299
185671.0,-2.1907,-1.0678,9.0573,0.5486,-0.7668,0.2629
185681.0,-2.217,-1.0511,9.6558,0.5928,-0.7396,0.2442
185691.0,-2.0375,-1.0582,10.0844,0.6678,-0.7535,0.2288
185701.0,-1.7861,-1.0127,10.2496,0.7583,-0.8093,0.2059
185711.0,-1.585,-0.893,10.1682,0.861,-0.8306,0.1825
185721.0,-1.403,-0.6656,9.9695,0.8961,-0.8344,0.1511
185731.0,-1.2498,-0.3424,9.6271,0.7934,-0.8631,0.1043
185741.0,-1.1564,-0.0311,9.4188,0.5811,-0.8881,0.0527
185751.0,-1.1181,0.249,9.3877,0.3485,-0.8844,0.0106
185761.0,-1.0223,0.3639,9.6127,0.1846,-0.8498,-0.0085
185771.0,-0.8667,0.5028,9.754,0.1341,-0.8147,-0.0005
185781.0,-0.7518,0.6273,9.7252,0.1394,-0.7998,0.0239
185791.0,-0.4429,0.6393,9.5002,0.1724,-0.7817,0.0591
185801.0,-0.3041,0.7614,9.1626,0.2091,-0.7301,0.0963
185811.0,-0.182,0.8523,8.9136,0.1979,-0.6678,0.1357
185821.0,-0.1365,0.814,8.6431,0.1495,-0.5933,0.1777
185831.0,-0.1173,0.5507,8.6048,0.0718,-0.4997,0.2176
185841.0,-0.0622,0.0838,8.6407,-0.0192,-0.4156,0.241
185851.0,0.0718,-0.5052,8.8777,-0.1133,-0.3602,0.2336
185861.0,0.2394,-0.9505,9.1363,-0.165,-0.3102,0.1916
185871.0,0.3256,-1.1923,9.3948,-0.1511,-0.2432,0.1245
185881.0,0.2753,-1.221,9.833,-0.0718,-0.1554,0.049
185891.0,0.1891,-0.8571,10.1754,0.0442,-0.0825,-0.0255
185901.0,0.0311,-0.2849,10.3118,0.1043,-0.0788,-0.091
185911.0,-0.091,0.1748,10.2472,0.0527,-0.1373,-0.1415
185921.0,-0.1508,0.6129,10.1251,-0.0506,-0.1852,-0.1713
185931.0,-0.2083,0.8332,10.1227,-0.1532,-0.2059,-0.1767
185941.0,-0.3448,0.9002,10.0987,-0.2187,-0.2187,-0.1628
185951.0,-0.3256,0.9529,10.1323,-0.1953,-0.2081,-0.1346
185961.0,-0.1891,0.8619,10.0628,-0.1,-0.1596,-0.0942
185971.0,0.0239,0.7398,9.9599,0.0053,-0.1043,-0.0596
185981.0,0.103,0.5914,9.9958,0.0644,-0.0516,-0.0458
185991.0,0.1844,0.6009,10.1347,0.0846,-0.0128,-0.0521
186001.0,0.2179,0.7063,10.24,0.0745,0.0122,-0.067
186011.0,0.1365,0.8499,10.3238,0.0309,0.0101,-0.0814
186021.0,-0.0096,0.984,10.422,-0.0144,-0.0005,-0.0889
186031.0,-0.067,1.008,10.6039,-0.0362,0.0096,-0.0798
186041.0,-0.1748,0.9888,10.7739,-0.042,0.0032,-0.066
186051.0,-0.1772,0.8859,10.9271,-0.0239,-0.0144,-0.0474
186061.0,-0.1484,0.7542,10.8002,0.0112,-0.0335,-0.033
186071.0,0.0048,0.6488,10.8074,-0.0021,-0.0676,-0.0351
186081.0,0.1245,0.6057,10.7356,-0.0372,-0.0974,-0.0495
186091.0,0.1508,0.6488,10.6662,-0.0963,-0.1235,-0.0692
186101.0,0.0527,0.7302,10.5896,-0.1548,-0.1506,-0.0803
186111.0,0.0096,0.7494,10.5872,-0.1692,-0.1655,-0.0756
186121.0,0.0287,0.7159,10.5273,-0.1224,-0.157,-0.0553
186131.0,0.0599,0.5938,10.4339,-0.066,-0.1389,-0.0346
186141.0,0.1556,0.4884,10.4459,-0.0378,-0.1245,-0.0298
186151.0,0.2131,0.4214,10.5105,-0.0266,-0.1,-0.0399
186161.0,0.2298,0.4717,10.6207,-0.0713,-0.1128,-0.0591
186171.0,0.2155,0.5746,10.6279,-0.1591,-0.1735,-0.0772
186181.0,0.1772,0.5818,10.5177,-0.24,-0.2341,-0.0803
186191.0,0.2298,0.4717,10.4004,-0.2804,-0.2788,-0.0686
186201.0,0.3903,0.249,10.1778,-0.2762,-0.3134,-0.0553
186211.0,0.5483,0.0479,9.7109,-0.248,-0.3517,-0.0585
186221.0,0.8068,-0.0718,9.0142,-0.2277,-0.3815,-0.0851
186231.0,1.0918,-0.0742,8.1116,-0.2485,-0.3821,-0.1288
186241.0,1.3312,0.0287,7.1467,-0.3299,-0.3219,-0.1857
186251.0,1.4533,0.1796,6.3135,-0.473,-0.2049,-0.2416
186261.0,1.4341,0.3304,5.6407,-0.6545,-0.0362,-0.2927
186271.0,1.2953,0.4812,5.3103,-0.8493,0.1793,-0.3288
186281.0,1.0846,0.565,5.3989,-1.0286,0.4081,-0.3411
186291.0,0.8356,0.6105,5.6264,-1.135,0.6173,-0.3278
186301.0,0.6393,0.5914,5.7604,-1.1824,0.7811,-0.2895
186311.0,0.5674,0.5507,5.5665,-1.2143,0.8913,-0.2373
186321.0,0.6033,0.4764,5.1308,-1.2861,0.9727,-0.1846
186331.0,0.6009,0.4669,4.4029,-1.4101,1.0477,-0.1314
186341.0,0.4836,0.5938,3.4165,-1.6192,1.1031,-0.0756
186351.0,0.1269,0.5842,2.4852,-1.8704,1.1813,0.0048
186361.0,-0.2274,0.4788,1.6472,-2.0465,1.3276,0.1224
186371.0,-0.7326,0.2298,1.0942,-2.0609,1.5894,0.2746
186381.0,-1.3503,-0.2346,0.8739,-1.9082,1.9151,0.4459
186391.0,-2.083,-0.9098,1.4293,-1.532,2.3509,0.6173
186401.0,-2.5714,-1.4629,2.6528,-0.8386,2.8958,0.7662
186411.0,-3.0454,-1.9225,4.3,0.1064,3.4678,0.8865
186421.0,-3.5314,-2.1093,5.8658,1.2244,4.0419,0.9663
186431.0,-4.3838,-1.7478,7.6495,2.3424,4.623,0.9823
186441.0,-5.6479,-0.7135,8.9567,3.1187,4.9912,0.9253
186451.0,-7.2568,0.644,10.0604,3.2544,5.0625,0.795
186461.0,-9.1913,1.9273,11.5616,2.7345,4.9838,0.6226
186471.0,-10.5297,2.5498,14.3173,1.7602,4.8747,0.4571
186481.0,-11.315,1.9632,18.7442,0.6194,4.7092,0.3246
186491.0,-11.8417,0.5483,23.6427,-0.4858,4.2191,0.1873
186501.0,-11.9806,-1.4006,28.4048,-1.3388,3.2762,0.0255
186511.0,-11.6478,-2.7701,31.1294,-1.6112,2.047,-0.1288
186521.0,-11.1594,-3.2657,31.613,-1.2936,0.754,-0.2501
186531.0,-10.8002,-2.6312,29.7001,-0.5954,-0.4555,-0.3209
186541.0,-10.3645,-1.5874,26.3721,0.1016,-1.5165,-0.34
186551.0,-9.5864,-0.5171,22.3666,0.6412,-2.3386,-0.3113
186561.0,-9.5864,-0.5171,22.3666,0.6412,-2.3386,-0.3113
186571.0,-8.7604,0.3352,18.4904,0.9413,-2.8952,-0.2543
186581.0,-7.8386,0.8811,15.3013,1.0738,-3.206,-0.1735
186591.0,-6.9647,1.1301,12.7731,1.1494,-3.2932,-0.0628
186601.0,-6.1579,1.1636,10.6997,1.2052,-3.2475,0.0708
186611.0,-5.1906,0.9649,8.8801,1.2297,-3.123,0.2054
186621.0,-4.2282,0.5962,7.2185,1.2132,-2.9245,0.3092
186631.0,-3.3112,0.1963,5.8347,1.1307,-2.6403,0.364
186641.0,-2.5738,-0.1269,5.0326,1.0057,-2.2546,0.3634
186651.0,-2.0039,-0.3879,4.8459,0.853,-1.8129,0.315
186661.0,-1.6735,-0.6177,5.3056,0.6864,-1.3574,0.2293
186671.0,-1.5467,-0.5698,6.1076,0.5114,-0.9679,0.1165
186681.0,-1.5443,-0.4262,6.7947,0.2597,-0.7173,-0.0144
186691.0,-1.6712,-0.2562,7.4484,-0.0846,-0.5906,-0.1543
186701.0,-1.9489,-0.0551,8.1403,-0.4363,-0.5279,-0.2879
186711.0,-2.2841,0.2107,9.0118,-0.6816,-0.4736,-0.3922
186721.0,-2.4876,0.4262,9.9862,-0.7684,-0.4528,-0.448
186731.0,-2.5953,0.6704,10.6207,-0.6971,-0.4848,-0.4592
186741.0,-2.5331,0.8308,10.9032,-0.5523,-0.5757,-0.4379
186751.0,-2.4277,1.0726,10.7332,-0.3895,-0.6902,-0.398
186761.0,-2.3128,1.2402,10.568,-0.2543,-0.8072,-0.3411
186771.0,-2.1644,1.4245,10.2328,-0.1229,-0.8987,-0.2671
186781.0,-2.0159,1.4126,9.9551,-0.0106,-0.9786,-0.1793
186791.0,-1.913,1.482,9.651,0.1575,-1.0105,-0.083
186801.0,-1.7861,1.5778,9.4188,0.3608,-0.9817,0.0239
186811.0,-1.4916,1.561,9.3518,0.5279,-0.97,0.1421
186821.0,-1.391,1.3599,9.232,0.6604,-0.977,0.2528
186831.0,-1.2498,1.2019,8.8945,0.7476,-1.0174,0.3421
186841.0,-1.1133,0.9385,8.5353,0.8024,-1.0429,0.4087
186851.0,-0.8571,0.6991,8.1092,0.8599,-1.0217,0.4502
186861.0,-0.6177,0.5339,7.8721,0.9317,-0.9381,0.4667
186871.0,-0.2897,0.4597,7.6231,0.9823,-0.8296,0.4608
186881.0,-0.0575,0.4501,7.2951,0.9663,-0.7215,0.4252
186891.0,0.0239,0.5459,7.0844,0.8567,-0.5954,0.365
186901.0,-0.0192,0.7183,7.0461,0.6524,-0.4709,0.2847
186911.0,-0.0239,0.7422,7.2999,0.3868,-0.3666,0.1926
186921.0,-0.0958,0.8068,7.8123,0.1735,-0.2613,0.1022
186931.0,-0.0479,1.008,8.2073,0.0474,-0.1666,0.025
186941.0,-0.0575,1.1564,8.6263,-0.0399,-0.0905,-0.0346
186951.0,-0.146,1.3838,9.0022,-0.083,-0.0245,-0.0756
186961.0,-0.2849,1.652,9.3134,-0.0942,0.0388,-0.1022
186971.0,-0.3711,1.8507,9.7061,-0.1032,0.0873,-0.1086
186981.0,-0.4381,2.0231,9.9168,-0.1181,0.1133,-0.1011
186991.0,-0.5459,2.0566,10.2879,-0.1602,0.1123,-0.0857
187001.0,-0.5818,2.071,10.5943,-0.182,0.1022,-0.0633
187011.0,-0.6201,2.0111,10.8529,-0.1804,0.0761,-0.0346
187021.0,-0.6201,1.9082,11.078,-0.1522,0.0383,-0.0005
187031.0,-0.589,1.7526,11.3892,-0.0819,0.0165,0.0357
187041.0,-0.5459,1.6592,11.5017,0.0005,-0.0239,0.0644
187051.0,-0.5124,1.6257,11.5712,0.0617,-0.0926,0.0841
187061.0,-0.4214,1.6807,11.4586,0.0931,-0.1628,0.0958
187071.0,-0.3903,1.7071,11.1163,0.0878,-0.2251,0.1048
187081.0,-0.3543,1.6903,10.7835,0.0372,-0.2703,0.108
187091.0,-0.2586,1.64,10.6135,-0.0314,-0.2799,0.1038
187101.0,-0.2251,1.5874,10.4339,-0.1149,-0.2804,0.0984
187111.0,-0.2442,1.4964,10.2951,-0.2091,-0.2911,0.0889
187121.0,-0.2466,1.3767,10.173,-0.2602,-0.2772,0.0809
187131.0,-0.249,1.2234,10.1921,-0.2565,-0.2309,0.0777
187141.0,-0.2083,1.0511,10.3693,-0.2033,-0.1793,0.0745
187151.0,-0.1293,0.9864,10.4315,-0.1293,-0.1506,0.0639
187161.0,0.0048,0.996,10.4196,-0.0788,-0.1543,0.0474
187171.0,0.0838,1.0822,10.2855,-0.0394,-0.1527,0.0282
187181.0,0.0814,1.2665,10.1299,-0.0399,-0.1463,0.0117
187191.0,0.079,1.3838,10.0078,-0.0931,-0.1559,0.0
187201.0,0.0814,1.4676,9.7636,-0.1692,-0.1756,-0.0043
187211.0,0.1437,1.3575,9.4427,-0.2512,-0.1884,-0.0021
187221.0,0.2753,1.245,9.0501,-0.3363,-0.1958,-0.0027
187231.0,0.4286,1.0391,8.6215,-0.4257,-0.1777,-0.0112
187241.0,0.5148,0.8859,8.3222,-0.5023,-0.1224,-0.0261
187251.0,0.5531,0.7159,8.1547,-0.5396,-0.0367,-0.0415
187261.0,0.6009,0.6153,7.9248,-0.5295,0.0591,-0.0612
187271.0,0.5626,0.589,7.774,-0.5013,0.1676,-0.0803
187281.0,0.5507,0.6704,7.5848,-0.4901,0.282,-0.1
187291.0,0.4334,0.7446,7.5537,-0.5092,0.4081,-0.1213
187301.0,0.249,0.7207,7.5944,-0.5598,0.5119,-0.1357
187311.0,0.2155,0.5698,7.331,-0.6455,0.5651,-0.158
187321.0,0.4214,0.4453,6.201,-0.7976,0.6039,-0.2043
187331.0,0.5411,0.3352,5.1044,-1.0765,0.7508,-0.2756
187341.0,0.4884,0.2729,4.2976,-1.5048,0.9966,-0.3666
187351.0,0.2801,0.1963,4.0941,-2.0571,1.2446,-0.4555
187361.0,-0.1484,0.0479,3.9624,-2.6398,1.4473,-0.5183
187371.0,-0.5555,-0.2107,3.9672,-3.1687,1.6203,-0.539
187381.0,-1.0582,-0.6081,3.9361,-3.5471,1.7858,-0.5124
187391.0,-1.3288,-1.1851,4.2641,-3.7445,1.9401,-0.4448
187401.0,-1.5299,-1.743,4.9249,-3.6279,2.1497,-0.3411
187411.0,-1.7909,-2.2266,6.1387,-3.1687,2.4254,-0.2097
187421.0,-2.2697,-2.466,7.6806,-2.3876,2.7202,-0.0596
187431.0,-2.7773,-2.3439,9.153,-1.392,2.9458,0.1011
187441.0,-3.383,-1.9992,10.3046,-0.3847,3.0458,0.249
187451.0,-3.6655,-1.5658,10.7907,0.4305,2.9335,0.365
187461.0,-3.9049,-1.2857,10.975,1.0052,2.7606,0.4555
187471.0,-4.2569,-1.1013,11.0397,1.3723,2.6105,0.5177
187481.0,-4.6256,-1.0343,11.1115,1.5011,2.4477,0.5316
187491.0,-4.877,-0.9218,11.0109,1.376,2.2274,0.5018
187501.0,-5.1332,-0.9361,10.6303,1.0222,1.9624,0.4321
187511.0,-5.5593,-1.0965,10.6015,0.6215,1.8102,0.3432
187521.0,-5.7628,-1.2737,11.2025,0.3331,1.7991,0.2618
187531.0,-6.1076,-1.4437,12.4929,0.1873,1.8204,0.1953
187541.0,-6.5242,-1.5083,13.7547,0.1969,1.74,0.1469
187551.0,-6.9097,-1.4269,14.5879,0.3379,1.5532,0.1123
187561.0,-6.9839,-1.2474,14.959,0.5672,1.3415,0.0878
187571.0,-7.0509,-0.8667,14.9374,0.7907,1.1611,0.0713
187581.0,-7.173,-0.4357,14.7818,0.8998,0.9855,0.0527
187591.0,-7.1754,0.0072,14.4394,0.8264,0.7918,0.025
187601.0,-7.1323,0.2227,14.3868,0.6236,0.6401,-0.0032
187611.0,-7.2137,0.395,14.7579,0.3773,0.5353,-0.025
187621.0,-7.2856,0.4764,15.3971,0.1266,0.406,-0.0357
187631.0,-7.2544,0.3328,16.0196,-0.0963,0.1905,-0.0287
187641.0,-7.1826,0.0192,16.2614,-0.2975,-0.1117,-0.0202
187651.0,-7.0461,-0.431,16.2471,-0.4427,-0.4438,-0.017
187661.0,-6.8067,-0.7278,16.0076,-0.472,-0.7317,-0.0181
187671.0,-6.5601,-0.8547,15.6198,-0.4278,-0.9716,-0.016
187681.0,-6.5386,-0.929,15.3013,-0.3634,-1.1786,-0.0117
187691.0,-6.5122,-0.9122,15.0763,-0.2517,-1.3505,0.0037
187701.0,-6.4093,-0.8595,14.9877,-0.1091,-1.5085,0.0314
187711.0,-6.2824,-0.9098,14.6956,-0.0165,-1.7469,0.0559
187721.0,-6.1842,-1.1756,14.188,0.017,-2.0359,0.0718
187731.0,-5.8514,-1.4533,13.3046,0.0596,-2.2764,0.0681
187741.0,-5.2864,-1.5682,12.2846,0.0702,-2.494,0.0367
187751.0,-4.7238,-1.5562,11.0181,0.0569,-2.6654,-0.0101
187761.0,-4.1563,-1.3815,9.6582,0.042,-2.7138,-0.0601
187771.0,-3.5793,-1.1181,8.6503,0.0053,-2.6643,-0.108
187781.0,-3.2585,-0.7877,7.944,-0.0676,-2.5706,-0.1479
187791.0,-3.0861,-0.5076,7.4579,-0.1325,-2.4892,-0.1697
187801.0,-2.7773,-0.3256,6.5338,-0.1298,-2.4115,-0.1676
187811.0,-2.3607,-0.2346,5.3415,-0.0857,-2.2812,-0.1548
187821.0,-1.8483,-0.2155,4.1875,-0.0479,-2.0385,-0.1458
187831.0,-1.142,-0.1844,3.3878,-0.0415,-1.6671,-0.1458
187841.0,-0.6536,-0.1867,3.316,-0.0857,-1.2153,-0.1522
187851.0,-0.3424,-0.1676,3.6607,-0.2011,-0.8157,-0.1687
187861.0,-0.2993,-0.1844,4.4053,-0.3698,-0.513,-0.1857
187871.0,-0.4142,-0.1844,5.3247,-0.4986,-0.2953,-0.191
187881.0,-0.4286,-0.2274,6.1316,-0.5028,-0.1304,-0.1697
187891.0,-0.5052,-0.3424,6.8019,-0.398,0.0027,-0.1272
187901.0,-0.5626,-0.4597,7.2233,-0.2373,0.1086,-0.0782
187911.0,-0.7135,-0.6153,7.6974,-0.0548,0.2171,-0.0282
187921.0,-0.7183,-0.7733,8.2313,0.1101,0.2921,0.008
187931.0,-0.7661,-0.8452,8.7005,0.2251,0.3203,0.0234
187941.0,-0.9074,-0.8715,9.1985,0.2799,0.3299,0.0229
187951.0,-1.0678,-0.7446,9.821,0.2916,0.3124,0.0117
187961.0,-1.2905,-0.5531,10.2903,0.2975,0.2458,0.0069
187971.0,-1.4078,-0.3711,10.4339,0.2879,0.1421,0.0096
187981.0,-1.561,-0.2921,10.3789,0.2331,0.0394,0.0149
187991.0,-1.5921,-0.1987,10.3022,0.1458,-0.0383,0.0181
188001.0,-1.6568,-0.3184,10.5249,0.0633,-0.0814,0.0255
188011.0,-1.6472,-0.4549,10.9223,0.049,-0.1171,0.0383
188021.0,-1.5538,-0.589,11.2623,0.1144,-0.1676,0.0532
