time_ms,ax,ay,az,gx,gy,gz
217311.0,-1.2881,0.0886,8.5736,0.2469,-0.3868,0.1171
217321.0,-1.257,0.0527,8.5641,0.2554,-0.3161,0.1197
217331.0,-1.2043,-0.0144,8.5114,0.265,-0.2501,0.1187
217341.0,-1.0989,-0.091,8.4851,0.2613,-0.182,0.1107
217351.0,-1.0415,-0.1341,8.4635,0.249,-0.107,0.0905
217361.0,-0.9984,-0.1341,8.521,0.2261,-0.0319,0.0654
217371.0,-1.0151,-0.0934,8.6287,0.1958,0.0388,0.0399
217381.0,-1.1181,-0.0742,8.7364,0.1591,0.1075,0.0101
217391.0,-1.1899,0.0239,8.9016,0.1346,0.174,-0.0202
217401.0,-1.2785,0.1125,9.0429,0.1213,0.2501,-0.0399
217411.0,-1.3815,0.1891,9.1985,0.1075,0.3182,-0.0532
217421.0,-1.4198,0.2035,9.4427,0.0713,0.3693,-0.0697
217431.0,-1.4245,0.2729,9.7372,0.016,0.3991,-0.0867
217441.0,-1.4676,0.2562,9.9671,-0.0521,0.4076,-0.1011
217451.0,-1.5538,0.2705,10.3166,-0.1043,0.4033,-0.1112
217461.0,-1.6496,0.3041,10.5967,-0.1219,0.3916,-0.1171
217471.0,-1.7166,0.3783,10.8194,-0.1032,0.3666,-0.1149
217481.0,-1.7789,0.4573,11.0014,-0.0521,0.3411,-0.1038
217491.0,-1.8004,0.6129,10.9894,0.0128,0.3139,-0.0905
217501.0,-1.8028,0.6943,11.0109,0.0575,0.2921,-0.0708
217511.0,-1.8244,0.7111,11.0109,0.0793,0.2591,-0.049
217521.0,-1.9752,0.7446,11.1474,0.091,0.2506,-0.0319
217531.0,-2.0279,0.9098,11.2623,0.1086,0.2469,-0.0154
217541.0,-2.0207,0.9529,11.4156,0.0937,0.2304,0.009
217551.0,-2.0423,0.8835,11.6334,0.0676,0.2086,0.0346
217561.0,-2.0135,0.7805,11.8393,0.0383,0.1687,0.0527
217571.0,-2.1045,0.7326,12.0668,0.0037,0.125,0.0607
217581.0,-2.2194,0.7494,12.1482,-0.0282,0.0702,0.0649
217591.0,-2.4014,0.68,12.3086,-0.0819,0.0112,0.0644
217601.0,-2.5163,0.6033,12.3972,-0.1155,-0.042,0.0633
217611.0,-2.5977,0.5028,12.6198,-0.1628,-0.1027,0.0564
217621.0,-2.5929,0.3735,12.7802,-0.2192,-0.1846,0.0404
217631.0,-2.5762,0.2418,12.9071,-0.2597,-0.2762,0.0176
217641.0,-2.6935,0.1484,12.9024,-0.2804,-0.3555,-0.0096
217651.0,-2.897,-0.1245,13.0556,-0.3044,-0.406,-0.0378
217661.0,-3.0023,-0.5219,13.5033,-0.3251,-0.431,-0.0761
217671.0,-2.8778,-0.9529,14.3293,-0.3597,-0.4789,-0.1394
217681.0,-2.6743,-1.2617,15.0164,-0.4672,-0.6646,-0.2426
217691.0,-2.3727,-1.3791,15.2606,-0.7013,-1.0195,-0.3927
217701.0,-2.2122,-1.2498,14.9614,-0.9956,-1.4415,-0.5646
217711.0,-2.1093,-0.9457,14.4059,-1.2664,-1.8544,-0.7242
217721.0,-2.0614,-0.5602,13.7619,-1.3681,-2.1684,-0.8232
217731.0,-2.0063,-0.0048,12.8856,-1.2388,-2.3519,-0.8524
217741.0,-1.8866,0.589,11.9495,-0.9589,-2.452,-0.8093
217751.0,-1.7621,1.0894,11.0061,-0.6055,-2.4818,-0.7003
217761.0,-1.6305,1.4485,10.2161,-0.24,-2.4461,-0.5444
217771.0,-1.391,1.7502,9.5098,0.0915,-2.3839,-0.364
217781.0,-1.154,1.7382,8.8921,0.3336,-2.3269,-0.1772
217791.0,-0.7805,1.5443,8.3629,0.4826,-2.2918,-0.0053
217801.0,-0.2298,1.1732,7.8769,0.6024,-2.2242,0.1453
217811.0,0.3615,0.8284,7.4699,0.7306,-2.0912,0.2724
217821.0,0.8763,0.4621,7.1491,0.8184,-1.9427,0.3581
217831.0,1.2594,0.2346,6.699,0.8232,-1.8188,0.4017
217841.0,1.6233,0.0766,6.2345,0.7269,-1.6799,0.4081
217851.0,1.8196,0.0599,5.9592,0.5428,-1.532,0.3778
217861.0,1.8699,0.1101,5.8299,0.2735,-1.4101,0.3214
217871.0,1.8675,0.1939,5.7221,-0.0527,-1.3537,0.2517
217881.0,1.9058,0.1891,5.4468,-0.3193,-1.3042,0.1963
217891.0,1.9896,0.1317,5.1858,-0.455,-1.1776,0.1634
217901.0,2.1213,-0.0263,5.138,-0.4677,-0.9653,0.1442
217911.0,2.2434,-0.1748,5.3079,-0.4172,-0.7215,0.1309
217921.0,2.2529,-0.1963,5.5067,-0.3597,-0.5326,0.108
217931.0,2.5067,-0.1149,5.5952,-0.3272,-0.4177,0.0798
217941.0,2.7845,-0.2227,5.7485,-0.2916,-0.3124,0.0639
217951.0,2.8706,-0.2322,5.8275,-0.2256,-0.2086,0.0532
217961.0,2.8467,-0.146,5.928,-0.1687,-0.133,0.0404
217971.0,2.7198,-0.0287,5.9448,-0.1362,-0.1187,0.0415
217981.0,2.66,-0.0024,5.8442,-0.1123,-0.1628,0.0607
217991.0,2.4588,-0.0335,5.4851,-0.0415,-0.2017,0.091
218001.0,2.3918,-0.0718,5.0566,0.1027,-0.2166,0.1192
218011.0,2.4134,-0.1269,4.5562,0.3592,-0.1511,0.1596
218021.0,2.4948,-0.2753,4.1563,0.7093,-0.0027,0.2128
218031.0,2.6432,-0.4405,3.6655,1.1174,0.2187,0.2618
218041.0,2.8419,-0.6823,3.3567,1.5415,0.5087,0.2905
218051.0,2.9568,-0.8116,2.8036,1.9502,0.8429,0.2884
218061.0,3.1532,-0.9026,2.1452,2.2221,1.1903,0.2341
218071.0,3.1125,-0.8571,1.3815,2.336,1.6022,0.1266
218081.0,2.8156,-0.4932,0.4214,2.2572,2.0375,-0.0372
218091.0,2.4493,-0.1197,-0.7638,1.9103,2.4483,-0.2448
218101.0,1.6017,0.2442,-2.071,1.3989,2.9548,-0.4667
218111.0,-0.2562,0.9122,-2.9904,0.8397,3.6647,-0.6971
218121.0,-2.3248,1.5826,-2.1356,0.3044,4.5714,-0.8924
218131.0,-4.5538,2.3391,-0.0622,-0.0979,5.5542,-1.0009
218141.0,-6.3015,2.7605,2.2817,-0.564,6.3109,-1.027
218151.0,-8.0828,2.6815,5.4971,-1.1323,6.9547,-0.9956
218161.0,-10.0245,1.9321,10.3717,-1.765,7.4331,-0.9461
218171.0,-11.4299,1.3144,15.1529,-2.3706,7.4581,-0.8945
218181.0,-13.1777,-0.2921,20.1855,-2.8383,7.2107,-0.7934
218191.0,-13.4339,-2.4181,25.029,-3.0272,6.6759,-0.7082
218201.0,-13.5512,-4.3359,30.0855,-2.9101,5.8788,-0.7035
218211.0,-12.7874,-5.375,33.265,-2.5717,4.5916,-0.7849
218221.0,-11.5999,-5.7054,34.3352,-2.1731,3.0064,-0.9094
218231.0,-10.8409,-5.454,33.8636,-1.6256,1.4793,-1.0105
218241.0,-10.6446,-3.8044,31.479,-0.8759,0.1511,-1.0679
218251.0,-10.8146,-1.5227,28.1103,-0.2086,-0.9695,-1.0557
218261.0,-10.9391,0.3472,24.3754,0.199,-1.9513,-0.9605
218271.0,-10.3789,1.6137,20.3938,0.4385,-2.7287,-0.7998
218281.0,-9.2991,2.1979,17.0491,0.6167,-3.1762,-0.5837
218291.0,-8.1092,2.229,14.3293,0.8461,-3.3177,-0.3166
218301.0,-6.8738,2.0446,12.0668,1.1925,-3.2203,-0.0303
218311.0,-5.8586,1.5754,10.307,1.5378,-2.9867,0.2416
218321.0,-4.9177,1.0104,8.6335,1.823,-2.6813,0.4715
218331.0,-3.5674,0.4046,6.924,1.931,-2.3333,0.6215
218341.0,-2.5546,-0.1317,6.0334,1.8012,-1.8608,0.6689
218351.0,-1.9178,-0.2227,5.964,1.4207,-1.3904,0.6077
218361.0,-1.8579,-0.3615,7.0964,0.7902,-1.0701,0.4704
218371.0,-1.8914,-0.3065,8.5258,0.2219,-0.8849,0.3097
218381.0,-1.9082,-0.2059,9.7851,-0.1708,-0.7886,0.1666
218391.0,-2.0518,-0.0335,10.7069,-0.4071,-0.7774,0.0559
218401.0,-2.1237,0.1915,11.3653,-0.5071,-0.7897,-0.0218
218411.0,-2.2529,0.577,11.825,-0.531,-0.8173,-0.0681
218421.0,-2.3296,0.996,12.0093,-0.572,-0.9019,-0.0921
218431.0,-2.4062,1.2665,12.1123,-0.663,-1.044,-0.0937
218441.0,-2.5235,1.4676,12.1099,-0.7593,-1.2042,-0.074
218451.0,-2.4493,1.4916,11.9207,-0.8163,-1.3686,-0.033
218461.0,-2.3511,1.1851,12.0404,-0.7891,-1.499,0.0341
218471.0,-2.2745,1.0534,12.0045,-0.5965,-1.5894,0.1123
218481.0,-2.1356,0.9601,11.7292,-0.3246,-1.6863,0.1979
218491.0,-1.9178,0.8212,11.1163,-0.0777,-1.8124,0.2873
218501.0,-1.6041,0.6512,10.2975,0.1107,-1.9257,0.3634
218511.0,-1.221,0.5698,9.2871,0.2208,-1.9869,0.4198
218521.0,-0.8236,0.4764,8.3797,0.2187,-2.0007,0.4539
218531.0,-0.4717,0.3855,7.6016,0.1075,-1.9784,0.4677
218541.0,-0.2083,0.1628,7.1443,-0.0793,-1.9385,0.4619
218551.0,0.0742,-0.1365,6.6391,-0.2325,-1.8847,0.4427
218561.0,0.4573,-0.486,6.2584,-0.3081,-1.7895,0.4129
218571.0,0.9337,-0.7494,5.7413,-0.2613,-1.6022,0.3815
218581.0,1.3431,-1.0056,5.5569,-0.1815,-1.3308,0.339
218591.0,1.6233,-1.0463,5.4253,-0.1256,-1.0403,0.2724
218601.0,1.6448,-0.8212,5.5138,-0.1543,-0.7593,0.19
218611.0,1.5371,-0.5842,5.7844,-0.307,-0.5263,0.1032
218621.0,1.4629,-0.3759,6.3973,-0.5364,-0.3363,0.0202
218631.0,1.3384,-0.249,7.1826,-0.7487,-0.1921,-0.0458
218641.0,1.0582,-0.1173,8.0972,-0.8524,-0.0697,-0.0766
218651.0,0.7877,-0.1077,8.9783,-0.8141,0.0213,-0.0654
218661.0,0.668,-0.2634,9.6989,-0.6529,0.0623,-0.0261
218671.0,0.7422,-0.5124,10.0676,-0.4156,0.0724,0.0213
218681.0,0.8619,-0.7494,10.3046,-0.2001,0.0633,0.0527
218691.0,0.972,-0.8356,10.4339,-0.0516,0.0341,0.0569
218701.0,1.0247,-0.7207,10.5512,0.0282,-0.0192,0.0383
218711.0,1.0391,-0.4501,10.5608,0.0585,-0.0883,0.017
218721.0,0.9577,-0.1413,10.319,0.0388,-0.1538,0.0053
218731.0,0.9002,0.0239,10.3908,-0.0064,-0.2001,0.0106
218741.0,0.8547,0.2035,10.3908,-0.0106,-0.2171,0.0357
218751.0,0.8164,0.261,10.3453,-0.0144,-0.2501,0.0697
218761.0,0.8475,0.1987,10.1586,-0.0287,-0.2889,0.1086
218771.0,0.9553,0.0048,10.0413,-0.0548,-0.307,0.1399
218781.0,1.0918,-0.2658,10.0556,-0.0527,-0.2948,0.1602
218791.0,1.2091,-0.3615,10.0796,-0.008,-0.2794,0.1703
218801.0,1.3288,-0.3759,9.8234,0.0234,-0.2783,0.174
218811.0,1.4461,-0.4238,9.6989,-0.0309,-0.2847,0.1655
218821.0,1.5419,-0.498,9.6271,-0.1197,-0.2783,0.1474
218831.0,1.494,-0.577,9.7779,-0.199,-0.2724,0.1277
218841.0,1.5012,-0.6129,9.7468,-0.2347,-0.2799,0.1133
218851.0,1.5012,-0.723,9.6031,-0.2352,-0.2863,0.1032
218861.0,1.6281,-0.8547,9.4355,-0.2192,-0.273,0.0942
218871.0,1.7071,-1.0008,9.3781,-0.2081,-0.2453,0.0803
218881.0,1.731,-1.1516,9.3637,-0.2081,-0.2277,0.0569
218891.0,1.8316,-1.2713,9.3374,-0.2128,-0.2214,0.0293
218901.0,1.9201,-1.3048,9.3541,-0.2192,-0.2246,-0.0069
218911.0,1.8364,-1.2019,9.3111,-0.2182,-0.223,-0.0404
218921.0,1.7573,-1.087,9.3877,-0.2176,-0.2299,-0.0713
218931.0,1.7741,-0.9313,9.3877,-0.19,-0.2405,-0.0894
218941.0,1.81,-0.7853,9.2464,-0.1447,-0.2442,-0.0926
218951.0,1.8387,-0.6895,9.1051,-0.1293,-0.2554,-0.0894
218961.0,1.8531,-0.6919,8.8849,-0.1357,-0.2666,-0.0803
218971.0,1.8172,-0.7207,8.7293,-0.1394,-0.282,-0.0702
218981.0,1.8076,-0.8859,8.5808,-0.1075,-0.2847,-0.0591
218991.0,1.9178,-1.1253,8.4108,-0.0112,-0.257,-0.0532
219001.0,2.0997,-1.2713,8.1163,0.1101,-0.2123,-0.0601
219011.0,2.1572,-1.2019,7.8123,0.2054,-0.1602,-0.0841
219021.0,2.1189,-1.0918,7.6231,0.2432,-0.0974,-0.1187
219031.0,2.1237,-0.9697,7.5154,0.2336,-0.0474,-0.1548
219041.0,2.1811,-0.8571,7.4915,0.2267,0.009,-0.1825
219051.0,2.162,-0.6967,7.3598,0.215,0.0527,-0.1979
219061.0,2.1404,-0.5698,7.0533,0.1612,0.0575,-0.2049
219071.0,2.1332,-0.4573,6.45,0.0921,0.067,-0.1974
219081.0,1.889,-0.6225,6.1507,0.0223,0.1368,-0.182
219091.0,1.8435,-0.905,5.9209,0.0548,0.2512,-0.1692
219101.0,1.8771,-1.0558,5.5067,0.2363,0.422,-0.1596
219111.0,1.9249,-1.1396,4.8818,0.4981,0.6651,-0.157
219121.0,2.1141,-1.0487,4.0079,0.7056,0.9674,-0.1799
219131.0,2.083,-0.6823,2.9975,0.7391,1.2914,-0.2331
219141.0,1.7957,-0.3304,2.3607,0.5715,1.6506,-0.3022
219151.0,1.2186,-0.1484,2.8467,0.3735,2.1492,-0.3608
219161.0,0.4094,0.2514,4.1444,0.2724,2.6749,-0.4049
219171.0,-0.3783,0.838,4.8411,0.1862,3.0027,-0.4268
219181.0,-1.0606,1.4389,4.6855,0.009,3.1586,-0.4299
219191.0,-1.4581,1.7095,4.2425,-0.2097,3.4023,-0.406
219201.0,-2.1955,1.6855,4.4388,-0.381,3.8722,-0.3533
219211.0,-3.3399,1.3791,6.0932,-0.5342,4.4474,-0.2959
219221.0,-4.6711,1.0415,8.157,-0.7396,4.864,-0.2565
219231.0,-5.5833,0.2298,10.4387,-1.1265,4.9306,-0.2543
219241.0,-6.1339,-0.8763,12.8209,-1.4644,4.855,-0.2703
219251.0,-6.5003,-1.7406,15.3923,-1.5298,4.8332,-0.2964
219261.0,-6.8929,-2.1979,18.3348,-1.4165,4.7528,-0.339
219271.0,-7.422,-2.2482,20.9636,-1.2638,4.4096,-0.4007
219281.0,-7.8314,-1.9704,23.0274,-1.2052,3.7461,-0.4927
219291.0,-8.0158,-1.257,23.7385,-1.2185,2.8473,-0.5763
219301.0,-7.8314,-0.7997,23.851,-1.2568,1.9012,-0.6071
219311.0,-7.2808,-0.3519,23.2477,-1.1339,1.1025,-0.5587
219321.0,-7.1563,-0.1963,22.7832,-0.8631,0.4704,-0.4454
219331.0,-7.5585,0.486,21.3778,-0.4326,-0.0921,-0.2911
219341.0,-7.944,1.1684,19.7091,-0.0367,-0.5986,-0.107
219351.0,-7.5369,1.245,17.8823,0.2277,-1.0855,0.1133
219361.0,-6.6798,0.656,16.1297,0.4284,-1.4431,0.3326
219371.0,-5.8299,-0.182,14.5615,0.6508,-1.6128,0.5247
219381.0,-5.2026,-0.9864,13.3477,0.8423,-1.6522,0.6593
219391.0,-4.64,-1.6185,12.5049,0.9876,-1.6357,0.7274
219401.0,-4.1635,-2.1045,11.9519,1.0653,-1.6059,0.7348
219411.0,-3.8116,-2.4636,11.5424,1.0706,-1.5825,0.6949
219421.0,-3.395,-2.6432,11.1977,1.0248,-1.5527,0.6125
219431.0,-3.1484,-2.5666,11.1163,0.9599,-1.4809,0.5013
219441.0,-3.0933,-2.296,11.2982,0.8599,-1.4144,0.3778
219451.0,-3.0933,-1.9154,11.5784,0.7189,-1.409,0.2543
219461.0,-3.1627,-1.4485,11.8705,0.5662,-1.458,0.141
219471.0,-3.2226,-0.9337,11.9638,0.431,-1.5453,0.0479
219481.0,-3.2082,-0.4525,11.8465,0.3288,-1.6522,-0.0117
219491.0,-3.2394,-0.0527,11.5616,0.2506,-1.7597,-0.042
219501.0,-2.9999,0.2442,11.0947,0.1937,-1.8555,-0.0468
219511.0,-2.8276,0.3735,10.6398,0.1655,-1.9076,-0.0293
219521.0,-2.4325,0.3639,10.2424,0.1841,-1.8986,0.0032
219531.0,-2.2003,0.3543,9.8497,0.2097,-1.8619,0.0357
219541.0,-1.7861,0.3256,9.4834,0.2219,-1.8289,0.0612
219551.0,-1.4988,0.3567,9.0022,0.2203,-1.7762,0.0841
219561.0,-1.1564,0.3567,8.8418,0.1921,-1.6985,0.1043
219571.0,-0.972,0.4022,8.7819,0.1612,-1.5958,0.1219
219581.0,-0.8356,0.4214,8.7652,0.0995,-1.5224,0.1298
219591.0,-0.6153,0.4525,8.7221,0.0261,-1.474,0.1378
219601.0,-0.4741,0.395,8.655,-0.0676,-1.4484,0.1389
219611.0,-0.2418,0.3903,8.5329,-0.1352,-1.4271,0.1314
219621.0,0.0838,0.3998,8.4563,-0.157,-1.3867,0.1277
219631.0,0.3663,0.4453,8.1355,-0.1485,-1.317,0.1362
219641.0,0.4286,0.4812,7.9559,-0.1447,-1.2116,0.1437
219651.0,0.5195,0.5818,7.8697,-0.1634,-1.1111,0.1511
219661.0,0.6009,0.51,7.9607,-0.199,-1.0137,0.1623
219671.0,0.6393,0.4357,8.1307,-0.2336,-0.9445,0.174
219681.0,0.7494,0.3615,8.1379,-0.2565,-0.9104,0.1846
219691.0,0.905,0.1748,8.193,-0.2299,-0.8466,0.2017
219701.0,1.1444,-0.067,8.2049,-0.1405,-0.7524,0.2235
219711.0,1.4054,-0.3472,8.3534,-0.0394,-0.6465,0.2352
219721.0,1.9417,-0.7494,8.418,0.0367,-0.589,0.2309
219731.0,2.3032,-1.482,8.4755,0.0724,-0.5646,0.207
219741.0,2.3104,-1.7933,8.4108,0.1719,-0.5039,0.132
219751.0,1.8938,-1.4102,8.2025,0.3257,-0.3741,0.0298
219761.0,1.6352,-1.1684,8.497,0.3868,-0.2884,-0.0521
219771.0,1.3862,-0.9601,8.5114,0.4033,-0.2762,-0.1203
219781.0,1.245,-0.6991,8.2097,0.3698,-0.2975,-0.1932
219791.0,1.0894,-0.3376,7.8123,0.2969,-0.2661,-0.2645
219801.0,1.1325,-0.0072,7.6303,0.1836,-0.183,-0.3241
219811.0,1.3575,0.1341,7.8171,0.0144,-0.0819,-0.3688
219821.0,1.6999,0.1748,8.2025,-0.183,-0.0101,-0.4007
219831.0,1.9106,0.1173,8.6718,-0.3688,0.0314,-0.4241
219841.0,1.8747,0.1676,9.2057,-0.4645,0.0718,-0.439
219851.0,1.6352,0.3926,9.6702,-0.4246,0.1357,-0.4278
219861.0,1.3288,0.6464,9.9934,-0.3054,0.1687,-0.3863
219871.0,1.2354,0.7518,10.2208,-0.1697,0.1532,-0.323
219881.0,1.3599,0.7446,10.2065,-0.0245,0.1325,-0.2512
219891.0,1.5131,0.6632,9.9838,0.0846,0.1144,-0.1916
219901.0,1.6759,0.565,9.9168,0.1442,0.116,-0.1517
219911.0,1.6855,0.6393,10.003,0.2022,0.1713,-0.1245
219921.0,1.6233,0.7518,10.137,0.2075,0.2198,-0.1086
219931.0,1.4581,0.8667,10.3286,0.1346,0.2049,-0.1006
219941.0,1.3096,0.9816,10.4555,0.0261,0.1522,-0.099
219951.0,1.3384,1.0127,10.5321,-0.0782,0.1123,-0.0899
219961.0,1.3719,0.9553,10.7452,-0.1697,0.0963,-0.0766
219971.0,1.3001,0.917,11.0828,-0.2224,0.0676,-0.0575
219981.0,1.2139,0.8499,11.2599,-0.2368,0.0059,-0.033
219991.0,1.1516,0.68,11.3725,-0.2208,-0.0724,-0.0069
220001.0,1.2067,0.5674,11.3126,-0.1564,-0.1336,0.0223
220011.0,1.3408,0.4525,11.3222,-0.0686,-0.1697,0.0484
220021.0,1.3288,0.4381,11.2312,0.0011,-0.2059,0.0713
220031.0,1.3048,0.3663,11.1833,-0.0064,-0.2778,0.0814
220041.0,1.324,0.3304,11.0181,-0.0346,-0.3496,0.0862
220051.0,1.3503,0.237,10.908,-0.1038,-0.4337,0.0782
220061.0,1.4198,0.1556,10.7835,-0.1628,-0.5231,0.0692
220071.0,1.4557,0.0742,10.6757,-0.1788,-0.5976,0.0623
220081.0,1.5131,0.0622,10.3741,-0.1245,-0.6476,0.0623
220091.0,1.5754,0.0359,10.319,0.0245,-0.6332,0.0761
220101.0,1.6233,0.1293,10.3334,0.2426,-0.5768,0.1006
220111.0,1.6448,0.2562,10.2185,0.4193,-0.5635,0.125
220121.0,1.6568,0.3615,9.8354,0.48,-0.63,0.1399
220131.0,1.8052,0.431,9.1459,0.4342,-0.7205,0.1394
220141.0,2.0016,0.4286,8.4515,0.3331,-0.7482,0.1383
220151.0,2.1715,0.3376,7.9464,0.2336,-0.6923,0.1383
220161.0,2.308,0.2179,7.7572,0.1687,-0.5699,0.1341
220171.0,2.3655,0.1891,7.5705,0.1293,-0.4539,0.1219
220181.0,2.49,0.1556,7.3406,0.0788,-0.364,0.1048
220191.0,2.5881,0.1652,7.1419,0.0351,-0.249,0.0857
220201.0,2.7007,0.2274,7.0294,-0.0181,-0.1298,0.0639
220211.0,2.7174,0.2729,6.9671,-0.1054,-0.0404,0.0378
220221.0,2.6959,0.3567,6.857,-0.1995,0.0181,0.0144
220231.0,2.7031,0.4812,6.6152,-0.2607,0.0814,0.0
220241.0,2.5857,0.644,6.3973,-0.2708,0.1761,-0.0037
220251.0,2.5474,0.8715,6.3087,-0.207,0.3129,0.0059
220261.0,2.4684,1.0702,6.2513,-0.083,0.4789,0.0383
220271.0,2.3367,1.2881,6.0693,0.0724,0.6343,0.0857
220281.0,2.3224,1.3551,5.7221,0.2059,0.7801,0.141
220291.0,2.3822,1.2402,5.3582,0.3166,0.9594,0.2006
220301.0,2.3463,1.0582,5.0877,0.3778,1.1691,0.2442
220311.0,2.2649,0.8045,4.6998,0.3358,1.3627,0.2634
220321.0,2.0782,0.3903,4.4317,0.1985,1.5341,0.2517
220331.0,1.6807,0.0048,4.1204,0.0484,1.7118,0.2049
220341.0,1.2594,-0.3065,4.1875,0.0122,1.9454,0.1261
220351.0,0.8787,-0.3759,4.1108,0.207,2.2801,0.0426
220361.0,0.6776,-0.2897,3.5243,0.5332,2.6707,-0.0474
220371.0,0.2753,0.0048,2.4804,0.7918,3.1288,-0.1639
220381.0,-0.5602,0.4238,1.8627,0.8402,3.7131,-0.3113
220391.0,-1.7741,0.8356,2.5019,0.6369,4.4128,-0.4784
220401.0,-3.2394,1.2713,4.604,0.1974,5.1077,-0.638
220411.0,-5.0805,1.5921,8.1642,-0.4065,5.6505,-0.7668
220421.0,-6.7373,1.6951,12.5648,-1.0717,5.8548,-0.8487
220431.0,-7.999,1.5467,16.6996,-1.6453,5.7356,-0.8562
220441.0,-8.9447,1.0175,20.6979,-2.0422,5.386,-0.7992
220451.0,-9.4475,0.3783,24.2269,-2.2386,4.7528,-0.7215
220461.0,-9.3374,-0.3136,27.0449,-2.2072,3.8913,-0.6428
220471.0,-9.0525,-0.644,28.7352,-1.9348,2.8676,-0.5683
220481.0,-8.7005,-0.7422,28.9363,-1.5016,1.7586,-0.481
220491.0,-8.3629,-0.4764,27.8087,-0.9839,0.6907,-0.3831
220501.0,-8.1187,0.0551,25.8574,-0.5135,-0.2794,-0.2794
220511.0,-7.7548,0.7015,23.1926,-0.1383,-1.1254,-0.1548
220521.0,-7.3023,1.0894,20.4201,0.1325,-1.7922,-0.0106
220531.0,-6.6415,1.2282,17.6333,0.381,-2.2402,0.1543
220541.0,-5.9735,1.1109,15.3756,0.6109,-2.4568,0.3278
220551.0,-5.3367,0.9625,13.4698,0.8333,-2.5094,0.4975
220561.0,-4.7357,0.6369,12.0141,0.9865,-2.4935,0.6508
220571.0,-4.0342,0.1556,10.7715,1.0775,-2.4232,0.7748
220581.0,-3.3686,-0.3543,10.0317,1.1057,-2.2849,0.8477
220591.0,-2.66,-0.8212,9.4068,1.0706,-2.1237,0.8642
220601.0,-2.0494,-1.0798,9.007,0.9509,-1.963,0.8248
220611.0,-1.7861,-1.2402,8.9232,0.7519,-1.815,0.7434
220621.0,-1.5131,-1.312,8.9663,0.5034,-1.7299,0.6295
220631.0,-1.1133,-1.2905,8.8274,0.281,-1.6751,0.5028
220641.0,-0.9816,-1.1779,8.6814,0.0974,-1.5772,0.3746
220651.0,-0.8978,-0.9505,8.8992,-0.0559,-1.4473,0.2549
220661.0,-1.0008,-0.6512,9.0644,-0.1995,-1.3574,0.1442
220671.0,-1.075,-0.3998,9.0932,-0.3874,-1.3659,0.0447
220681.0,-0.9266,-0.2682,9.007,-0.5491,-1.3654,-0.0372
220691.0,-0.7638,-0.1652,9.256,-0.5944,-1.2659,-0.0899
220701.0,-0.7039,-0.0048,9.6391,-0.5875,-1.184,-0.1282
220711.0,-0.7518,0.1652,9.8426,-0.5752,-1.1909,-0.1522
220721.0,-0.7733,0.3759,10.0197,-0.5268,-1.2435,-0.1623
220731.0,-0.6704,0.5459,9.8282,-0.4087,-1.2994,-0.141
220741.0,-0.5243,0.6369,9.6654,-0.2075,-1.3175,-0.0952
220751.0,-0.3041,0.7566,9.3589,0.0468,-1.3111,-0.0261
220761.0,-0.0814,0.7901,8.9615,0.3198,-1.2882,0.0585
220771.0,0.1939,0.7446,8.406,0.5726,-1.2537,0.141
220781.0,0.5124,0.7422,7.7357,0.7817,-1.1914,0.2107
220791.0,0.8595,0.7614,7.094,0.9168,-1.0807,0.2591
220801.0,1.0822,0.747,6.6152,0.977,-0.9163,0.2847
220811.0,1.2522,0.7805,6.3135,0.9727,-0.7333,0.2841
220821.0,1.4557,0.9122,5.9544,0.8966,-0.5385,0.2602
220831.0,1.5921,1.0582,5.7126,0.7173,-0.3294,0.2176
220841.0,1.7741,1.0965,5.7533,0.456,-0.1043,0.1634
220851.0,1.7334,1.1612,6.0765,0.166,0.149,0.1032
220861.0,1.5682,1.1923,6.7732,-0.1314,0.3837,0.0452
220871.0,1.3001,1.1516,7.8219,-0.4087,0.5582,-0.0048
220881.0,0.9816,1.1205,8.8538,-0.6157,0.654,-0.042
220891.0,0.7063,0.9912,9.8545,-0.7311,0.6667,-0.0569
220901.0,0.5507,0.8475,10.5249,-0.7199,0.6359,-0.0468
220911.0,0.5028,0.6488,11.0564,-0.6173,0.5816,-0.0208
220921.0,0.4741,0.4932,11.4251,-0.4699,0.5103,0.0069
220931.0,0.4405,0.3903,11.7172,-0.3097,0.414,0.0303
220941.0,0.431,0.4262,11.7316,-0.166,0.2905,0.0474
220951.0,0.3879,0.431,11.6095,-0.0537,0.1564,0.0601
220961.0,0.5339,0.5531,11.327,0.0293,0.0234,0.0654
220971.0,0.5052,0.7661,10.8409,0.0686,-0.0702,0.0782
220981.0,0.5459,0.7614,10.4698,0.0335,-0.1527,0.0926
220991.0,0.5794,0.7374,10.0269,-0.0069,-0.191,0.1027
221001.0,0.6823,0.6105,9.8833,-0.0431,-0.1958,0.1091
221011.0,0.8116,0.51,9.7348,-0.0234,-0.1729,0.1171
221021.0,0.8404,0.4046,9.6965,0.0325,-0.1181,0.124
221031.0,0.8308,0.3232,9.6798,0.1117,-0.0537,0.124
221041.0,0.8212,0.2777,9.6989,0.1878,0.0048,0.1144
221051.0,0.8499,0.2729,9.6199,0.2325,0.0617,0.0937
221061.0,0.9313,0.3687,9.5505,0.2208,0.1282,0.058
221071.0,0.8739,0.4501,9.5864,0.1245,0.1974,0.0112
221081.0,0.7542,0.5507,9.7636,-0.0357,0.2549,-0.0458
221091.0,0.6632,0.656,10.1897,-0.2219,0.2959,-0.1022
221101.0,0.51,0.6656,10.7069,-0.3895,0.2969,-0.1474
221111.0,0.4645,0.6704,11.1905,-0.4837,0.2538,-0.1756
221121.0,0.431,0.6393,11.3725,-0.4949,0.191,-0.1825
221131.0,0.4621,0.589,11.5017,-0.4422,0.1362,-0.1761
221141.0,0.4812,0.6153,11.5233,-0.3512,0.0931,-0.1671
221151.0,0.5148,0.6369,11.4634,-0.265,0.0388,-0.1538
221161.0,0.51,0.6919,11.3964,-0.1969,-0.0298,-0.1362
221171.0,0.5722,0.7207,11.1977,-0.1501,-0.1027,-0.1187
221181.0,0.589,0.6847,11.0229,-0.1245,-0.1713,-0.0979
221191.0,0.6584,0.6057,10.8386,-0.0995,-0.2219,-0.0772
221201.0,0.7997,0.4836,10.5632,-0.0777,-0.2469,-0.0617
221211.0,0.893,0.3807,10.4459,-0.0814,-0.2788,-0.0569
221221.0,0.9553,0.3376,10.1251,-0.1054,-0.3246,-0.0654
221231.0,1.0726,0.2777,9.8186,-0.1282,-0.3544,-0.0777
221241.0,1.1708,0.2753,9.4858,-0.1282,-0.3512,-0.0835
221251.0,1.221,0.2969,9.2632,-0.1027,-0.3161,-0.0867
221261.0,1.2689,0.2849,9.0046,-0.0591,-0.2559,-0.0846
221271.0,1.2761,0.2945,8.8801,-0.0186,-0.182,-0.0825
221281.0,1.2737,0.3184,8.7771,0.0117,-0.1165,-0.083
221291.0,1.2929,0.316,8.7125,0.0282,-0.0686,-0.0889
221301.0,1.2977,0.3543,8.5329,0.0458,-0.0181,-0.0958
221311.0,1.3096,0.4262,8.418,0.0729,0.0495,-0.1011
221321.0,1.233,0.5363,8.3965,0.1096,0.1298,-0.1
221331.0,1.1756,0.6919,8.3749,0.1564,0.2059,-0.0905
221341.0,1.1253,0.7302,8.3845,0.2027,0.265,-0.0692
221351.0,1.257,0.723,8.2768,0.2235,0.2905,-0.0442
221361.0,1.336,0.6488,8.0756,0.2001,0.2932,-0.0234
221371.0,1.3671,0.565,7.7716,0.1165,0.2783,-0.0138
221381.0,1.2929,0.5004,7.4627,-0.0016,0.2634,-0.0154
221391.0,1.1803,0.4884,7.1156,-0.0952,0.2661,-0.0154
221401.0,1.257,0.5004,6.6008,-0.1415,0.2889,-0.0074
221411.0,1.3575,0.4932,5.7628,-0.1522,0.3549,0.0043
221421.0,1.4629,0.5291,4.8961,-0.1751,0.4901,0.0202
221431.0,1.3982,0.6177,4.039,-0.2384,0.6795,0.0266
221441.0,1.2857,0.9074,3.2992,-0.34,0.9168,0.0202
221451.0,0.8667,1.4054,2.7078,-0.4347,1.2249,0.0239
221461.0,0.6728,2.0231,1.7549,-0.5481,1.5554,0.0575
221471.0,0.0982,2.0255,1.5347,-0.6955,1.9986,0.1346
221481.0,-0.6776,1.7286,2.2338,-0.7455,2.5488,0.2246
221491.0,-1.6209,1.3815,3.62,-0.6598,3.0916,0.3124
221501.0,-2.1787,1.0056,4.9201,-0.5247,3.4827,0.397
221511.0,-2.7892,0.5578,6.4021,-0.357,3.8168,0.4603
221521.0,-3.5147,0.3711,8.0062,-0.132,4.1468,0.4965
221531.0,-4.2497,0.4932,9.9431,0.0702,4.4304,0.5007
221541.0,-5.2768,0.723,11.8992,0.0841,4.5113,0.4762
221551.0,-6.3566,0.759,13.4387,-0.1352,4.3122,0.4273
221561.0,-7.2209,0.2586,14.9949,-0.4736,4.0084,0.3586
221571.0,-7.7141,-0.5411,16.4338,-0.737,3.7056,0.2751
221581.0,-7.6327,-1.2378,17.7123,-0.9371,3.3204,0.1586
221591.0,-7.4364,-2.1835,18.4569,-1.0813,2.8287,0.017
221601.0,-7.4579,-2.5402,18.998,-1.0382,2.4046,-0.1623
221611.0,-7.4819,-2.071,19.1201,-0.8264,2.0657,-0.3379
221621.0,-7.6662,-1.3599,19.472,-0.6284,1.7139,-0.4789
221631.0,-7.8626,-0.4429,19.2781,-0.4715,1.292,-0.5726
221641.0,-7.8721,0.3663,18.9262,-0.4166,0.8099,-0.6215
221651.0,-7.7333,1.0319,18.3109,-0.4129,0.3283,-0.6242
221661.0,-7.5729,1.6209,17.5758,-0.3842,-0.0676,-0.572
221671.0,-7.4747,2.0973,16.9126,-0.3225,-0.4012,-0.4693
221681.0,-7.3646,2.3727,16.2016,-0.2426,-0.7157,-0.3251
221691.0,-7.0916,2.2841,15.3564,-0.1495,-1.0073,-0.1538
221701.0,-6.517,1.8771,14.4873,-0.042,-1.2728,0.0239
221711.0,-5.9233,1.2258,13.6278,0.0809,-1.4745,0.1846
221721.0,-5.3654,0.6943,12.7491,0.2182,-1.6203,0.3145
221731.0,-4.956,0.2394,11.9519,0.332,-1.7267,0.4081
221741.0,-4.6064,-0.2035,11.2097,0.4305,-1.7938,0.4741
221751.0,-4.3048,-0.5555,10.7069,0.5284,-1.8023,0.513
221761.0,-3.9672,-0.8116,10.24,0.6151,-1.7842,0.5236
221771.0,-3.7062,-0.996,9.8019,0.6449,-1.7863,0.505
221781.0,-3.3806,-1.1612,9.5433,0.6364,-1.7948,0.4608
221791.0,-3.055,-1.1013,9.2153,0.6779,-1.7294,0.4087
221801.0,-2.9353,-0.9697,9.2129,0.7348,-1.591,0.3592
221811.0,-2.8084,-0.8212,9.414,0.7168,-1.5006,0.3006
221821.0,-2.8108,-0.5602,9.4786,0.638,-1.4676,0.2315
221831.0,-2.7126,-0.3304,9.4739,0.497,-1.4644,0.158
221841.0,-2.5522,-0.1149,9.4332,0.3203,-1.4559,0.0825
221851.0,-2.3846,0.0311,9.4954,0.1213,-1.4473,0.009
221861.0,-2.2122,0.1125,9.4547,-0.0772,-1.4825,-0.0569
221871.0,-2.047,0.1389,9.244,-0.224,-1.5107,-0.1096
221881.0,-1.7933,0.1891,8.9088,-0.2735,-1.491,-0.1426
221891.0,-1.7406,0.2705,8.7771,-0.2389,-1.3941,-0.1559
221901.0,-1.6257,0.3232,8.9471,-0.158,-1.2909,-0.1532
221911.0,-1.3886,0.4573,8.928,-0.0516,-1.2244,-0.1405
221921.0,-1.2426,0.5938,8.7388,0.0521,-1.1781,-0.1165
221931.0,-1.0008,0.6201,8.5114,0.1346,-1.1244,-0.0857
221941.0,-0.8092,0.6057,8.4372,0.2081,-1.0445,-0.058
221951.0,-0.6369,0.5986,8.4443,0.2826,-0.9615,-0.0346
221961.0,-0.498,0.5602,8.3821,0.3523,-0.8838,-0.0154
221971.0,-0.3855,0.5363,8.2768,0.4135,-0.8179,-0.0016
221981.0,-0.2993,0.5076,8.0445,0.455,-0.7492,0.0032
221991.0,-0.2035,0.5531,7.7237,0.4661,-0.6625,-0.0027
222001.0,-0.0048,0.5818,7.3885,0.4278,-0.5449,-0.017
222011.0,0.0551,0.656,7.1682,0.3299,-0.4049,-0.0447
222021.0,0.1556,0.7159,7.082,0.1756,-0.2724,-0.0793
222031.0,0.1915,0.6967,7.1347,-0.0059,-0.1293,-0.1171
222041.0,0.1556,0.5962,7.5154,-0.1804,0.0208,-0.1532
222051.0,0.0814,0.498,7.9966,-0.3108,0.1336,-0.1889
222061.0,0.0239,0.3065,8.3893,-0.3916,0.1942,-0.2182
222071.0,0.0311,0.1796,8.5497,-0.4103,0.2272,-0.2453
222081.0,-0.0287,0.1389,8.6766,-0.389,0.2724,-0.2724
222091.0,-0.1413,0.1891,8.7891,-0.3437,0.3225,-0.2953
222101.0,-0.2801,0.2682,8.9663,-0.2884,0.3656,-0.315
222111.0,-0.3879,0.3591,9.1506,-0.2214,0.406,-0.3288
222121.0,-0.3926,0.4094,9.3565,-0.1442,0.4411,-0.3342
222131.0,-0.4262,0.486,9.5792,-0.0692,0.4672,-0.3368
222141.0,-0.5171,0.6033,9.7229,-0.0096,0.4821,-0.3395
222151.0,-0.5698,0.7925,9.8497,0.0341,0.4949,-0.34
222161.0,-0.6776,0.9529,10.0461,0.0447,0.5119,-0.3368
222171.0,-0.7973,1.1636,10.2951,0.0192,0.5151,-0.3342
222181.0,-0.8978,1.3958,10.5273,-0.0458,0.4879,-0.3257
222191.0,-1.0104,1.4269,10.8338,-0.133,0.4395,-0.3102
222201.0,-1.0846,1.4461,11.169,-0.1703,0.3906,-0.2873
222211.0,-1.0606,1.482,11.4132,-0.141,0.3475,-0.2533
222221.0,-1.0678,1.482,11.4682,-0.0857,0.2959,-0.2144
222231.0,-1.0774,1.494,11.3557,-0.0569,0.2405,-0.1799
222241.0,-1.1061,1.561,11.3006,-0.0793,0.1926,-0.1538
222251.0,-1.1444,1.6376,11.3509,-0.1256,0.1735,-0.1293
222261.0,-1.2689,1.6759,11.5472,-0.1868,0.1506,-0.1032
222271.0,-1.3288,1.6376,11.7579,-0.2437,0.1,-0.0708
222281.0,-1.403,1.5131,11.8992,-0.2607,0.0372,-0.0287
222291.0,-1.3216,1.2617,11.971,-0.2309,-0.0293,0.0154
222301.0,-1.1995,1.0343,11.8848,-0.1634,-0.091,0.0532
222311.0,-1.075,0.838,11.71,-0.0825,-0.1506,0.0814
222321.0,-0.9074,0.7063,11.3533,-0.0266,-0.2075,0.0979
222331.0,-0.7614,0.5339,11.1139,-0.0101,-0.249,0.1016
222341.0,-0.6129,0.4669,10.8505,-0.008,-0.2655,0.0942
222351.0,-0.5626,0.4932,10.7452,-0.0154,-0.2655,0.0809
222361.0,-0.5243,0.5267,10.6494,-0.0271,-0.2602,0.0697
222371.0,-0.4573,0.6249,10.477,-0.0591,-0.2607,0.0591
222381.0,-0.4405,0.7422,10.3477,-0.1155,-0.2724,0.0479
222391.0,-0.3256,0.7853,10.2568,-0.1963,-0.2836,0.0415
222401.0,-0.2729,0.8428,10.2975,-0.2719,-0.2692,0.0394
222411.0,-0.2897,0.9146,10.4339,-0.3597,-0.2841,0.0362
222421.0,-0.3711,0.9433,10.4435,-0.4459,-0.3475,0.042
222431.0,-0.395,0.8882,10.4507,-0.4842,-0.4103,0.0617
222441.0,-0.3112,0.747,10.4579,-0.4337,-0.4321,0.0947
222451.0,-0.2059,0.5986,10.5608,-0.3118,-0.423,0.1346
222461.0,-0.2035,0.4381,10.7739,-0.1745,-0.4241,0.1681
222471.0,-0.3089,0.3567,11.1785,-0.0537,-0.4619,0.1857
222481.0,-0.589,0.4645,11.6669,0.0809,-0.5225,0.1932
222491.0,-0.9936,0.6273,11.904,0.1995,-0.6566,0.1974
222501.0,-1.0223,0.7805,11.2695,0.2299,-0.9371,0.1852
222511.0,-0.6584,0.7925,9.7516,0.1426,-1.2372,0.1506
222521.0,-0.1293,0.8452,7.9607,-0.0032,-1.3707,0.0979
222531.0,0.4477,1.0056,6.8307,-0.1447,-1.2749,0.0447
222541.0,0.6752,1.3001,6.5098,-0.2208,-1.0413,0.0181
222551.0,0.6033,1.6807,6.5841,-0.257,-0.8333,0.025
222561.0,0.5339,1.9656,6.5769,-0.2767,-0.7354,0.074
222571.0,0.5483,2.1284,6.1723,-0.2724,-0.6976,0.1681
222581.0,0.6656,2.0255,5.5474,-0.2363,-0.6268,0.3022
222591.0,0.9146,1.6089,5.035,-0.1756,-0.4879,0.4571
222601.0,1.1947,1.0056,4.7333,-0.1117,-0.315,0.6034
222611.0,1.4317,0.3711,4.5131,-0.0607,-0.1415,0.7231
222621.0,1.4916,-0.1963,4.1683,-0.0027,0.0314,0.8051
222631.0,1.5179,-0.6919,3.8044,0.0708,0.2065,0.8413
222641.0,1.5107,-1.0247,2.9928,0.1894,0.4172,0.8344
222651.0,1.5826,-1.4269,1.9561,0.3411,0.7263,0.7897
222661.0,1.6951,-1.64,0.6943,0.522,1.1829,0.6923
222671.0,1.4964,-1.8316,-0.1484,0.654,1.8092,0.5481
222681.0,0.905,-1.8914,-0.6752,0.6439,2.4935,0.357
222691.0,-0.0766,-1.9082,-0.431,0.4699,3.1634,0.1197
222701.0,-1.3671,-1.6831,0.3903,0.2964,3.8568,-0.1341
222711.0,-3.0335,-1.2713,1.8483,0.1985,4.5421,-0.3602
222721.0,-4.707,-0.8404,3.4357,0.1639,5.1514,-0.5433
222731.0,-6.256,-0.419,5.3798,0.149,5.709,-0.6923
222741.0,-7.6543,0.2059,7.4579,0.067,6.181,-0.8115
222751.0,-9.5385,0.4262,10.7978,-0.2304,6.5333,-0.9088
222761.0,-11.066,0.4812,13.9151,-0.8168,6.5115,-1.0078
222771.0,-12.0787,-0.2418,17.4561,-1.7113,6.1177,-1.1137
222781.0,-12.2392,-1.3455,20.8176,-2.5611,5.4978,-1.2036
222791.0,-11.8968,-2.4684,23.7912,-3.1671,4.6975,-1.2632
222801.0,-11.4371,-3.4453,26.0465,-3.3779,3.7823,-1.2856
222811.0,-11.1833,-3.4022,27.0569,-3.1198,2.8362,-1.2813
222821.0,-11.0516,-2.7557,26.918,-2.6153,1.831,-1.2302
222831.0,-10.7739,-1.9968,25.8598,-2.0023,0.82,-1.1164
222841.0,-10.5273,-1.2091,24.2796,-1.2978,-0.0644,-0.9514
222851.0,-10.1634,-0.4166,22.3211,-0.5869,-0.8184,-0.7434
222861.0,-9.8785,0.2203,20.3316,0.0426,-1.4527,-0.505
222871.0,-9.5098,0.6488,18.16,0.5513,-2.0093,-0.249
222881.0,-9.0453,0.723,16.1944,0.9599,-2.4302,0.0165
222891.0,-8.4156,0.498,14.2934,1.3212,-2.7031,0.2762
222901.0,-7.7931,-0.079,12.7635,1.5979,-2.8686,0.5028
222911.0,-7.0126,-0.6991,11.303,1.8406,-2.9277,0.6806
222921.0,-6.2441,-1.3312,10.1251,1.9991,-2.8888,0.7923
222931.0,-5.3606,-1.8507,9.2057,2.0465,-2.8154,0.8328
222941.0,-4.5657,-2.2458,8.327,1.9619,-2.7202,0.795
222951.0,-3.6272,-2.3631,7.4962,1.7475,-2.6036,0.6891
222961.0,-3.1675,-2.2146,7.2568,1.4633,-2.3892,0.539
222971.0,-3.1388,-1.7645,7.4436,1.1573,-2.1774,0.3751
222981.0,-3.0335,-1.3336,7.5681,0.8503,-2.0752,0.2187
222991.0,-2.7533,-0.9242,7.1539,0.5949,-1.9965,0.0835
223001.0,-2.5043,-0.565,6.7157,0.3847,-1.8416,-0.0335
223011.0,-2.3104,-0.2227,6.5841,0.1889,-1.6229,-0.1368
223021.0,-2.0758,0.1317,6.7181,0.009,-1.4064,-0.2219
223031.0,-1.9441,0.4238,7.0557,-0.1559,-1.2058,-0.2826
223041.0,-1.9249,0.6584,7.4579,-0.2996,-1.0355,-0.3198
223051.0,-1.8986,0.7183,7.8985,-0.4198,-0.9083,-0.3331
223061.0,-1.798,0.7135,8.2384,-0.4853,-0.8115,-0.3257
223071.0,-1.6831,0.5986,8.4539,-0.5161,-0.7428,-0.3086
223081.0,-1.5323,0.4549,8.5569,-0.5321,-0.6933,-0.2921
223091.0,-1.4102,0.3232,8.7173,-0.5279,-0.6268,-0.2783
223101.0,-1.3384,0.2777,8.8609,-0.5082,-0.5635,-0.2671
223111.0,-1.3216,0.182,9.0309,-0.4736,-0.5252,-0.2549
223121.0,-1.2091,0.146,9.1123,-0.4049,-0.5044,-0.2379
223131.0,-1.1229,0.1532,8.9016,-0.3315,-0.4975,-0.2171
223141.0,-1.0415,0.1867,8.4659,-0.2804,-0.4933,-0.1958
223151.0,-0.9313,0.1844,7.9895,-0.2432,-0.4432,-0.1777
223161.0,-0.7374,0.1197,7.58,-0.2357,-0.3549,-0.1676
223171.0,-0.5411,0.0527,7.276,-0.249,-0.2293,-0.1676
223181.0,-0.5315,0.0192,7.1275,-0.2879,-0.074,-0.1761
223191.0,-0.6728,0.0287,7.3382,-0.3347,0.1054,-0.1868
223201.0,-0.8116,0.0239,7.8578,-0.3799,0.2836,-0.19
223211.0,-1.0056,-0.067,8.5808,-0.4204,0.4092,-0.1894
223221.0,-1.1372,-0.1604,9.1889,-0.4746,0.4528,-0.1921
223231.0,-1.1277,-0.2705,9.6558,-0.5412,0.4305,-0.1985
223241.0,-1.233,-0.4142,9.991,-0.5938,0.3879,-0.2086
223251.0,-1.4006,-0.4477,10.5896,-0.5976,0.3443,-0.2203
223261.0,-1.5706,-0.3831,11.054,-0.4991,0.3166,-0.2134
223271.0,-1.6759,-0.2634,11.5161,-0.3565,0.2522,-0.1878
223281.0,-1.8076,-0.17,11.7771,-0.207,0.1383,-0.1517
223291.0,-1.8531,-0.067,11.7699,-0.0718,-0.0064,-0.1107
223301.0,-1.7837,-0.0024,11.6622,0.0351,-0.1437,-0.0654
223311.0,-1.731,-0.0168,11.6765,0.1272,-0.2389,-0.0186
223321.0,-1.7119,-0.0192,11.7244,0.1836,-0.348,0.0223
223331.0,-1.7119,-0.0527,11.6669,0.2208,-0.4954,0.0607
223341.0,-1.7142,-0.1197,11.4323,0.2804,-0.6364,0.0979
223351.0,-1.5562,-0.1772,10.999,0.3778,-0.7434,0.1352
223361.0,-1.3551,-0.2729,10.58,0.4922,-0.7881,0.1687
223371.0,-1.1995,-0.3328,10.1418,0.5869,-0.787,0.1916
223381.0,-1.0415,-0.3807,9.7803,0.5981,-0.7928,0.1958
223391.0,-0.8308,-0.4405,9.4379,0.5502,-0.7928,0.1836
223401.0,-0.5938,-0.5291,9.086,0.4635,-0.7742,0.1591
223411.0,-0.4381,-0.5794,8.9591,0.3629,-0.7375,0.125
223421.0,-0.3496,-0.6105,8.8346,0.2953,-0.6784,0.0905
223431.0,-0.2634,-0.5483,8.7556,0.281,-0.6103,0.0591
223441.0,-0.3184,-0.4597,8.6574,0.3177,-0.5268,0.0378
223451.0,-0.3065,-0.3232,8.4276,0.3826,-0.4353,0.0287
223461.0,-0.1891,-0.2634,8.2049,0.4284,-0.3352,0.0239
223471.0,-0.1149,-0.2179,7.9775,0.4374,-0.224,0.0138
223481.0,0.0215,-0.1963,7.8314,0.3852,-0.1112,-0.008
223491.0,0.0215,-0.1508,7.8506,0.281,0.0027,-0.0388
223501.0,-0.0287,-0.0359,7.9416,0.1501,0.1059,-0.0708
223511.0,-0.0694,-0.0551,8.1379,0.0048,0.1724,-0.1011
223521.0,-0.1365,-0.1484,8.4372,-0.1123,0.2128,-0.1261
223531.0,-0.1341,-0.2011,8.5305,-0.1415,0.2565,-0.1474
223541.0,-0.1341,-0.2107,8.6048,-0.1171,0.2927,-0.1666
223551.0,0.0144,-0.1269,8.4922,-0.0607,0.3198,-0.1862
223561.0,0.0503,-0.067,8.3653,-0.0112,0.3491,-0.2054
223571.0,0.1149,0.1772,8.0756,0.0223,0.3741,-0.2251
223581.0,0.1173,0.3783,7.683,0.008,0.4044,-0.2379
223591.0,0.1125,0.7039,6.948,-0.0559,0.4236,-0.2426
223601.0,0.1317,1.0008,6.0693,-0.19,0.4566,-0.2384
223611.0,0.0239,1.2953,5.1427,-0.365,0.5481,-0.216
223621.0,0.1508,1.5658,4.0558,-0.5571,0.6737,-0.1687
223631.0,0.0287,1.6041,3.292,-0.7354,0.8977,-0.0931
223641.0,-0.1987,1.6568,2.6049,-0.8413,1.1941,0.0069
223651.0,-0.4908,1.6209,2.4756,-0.9057,1.5256,0.1208
223661.0,-0.7661,1.6281,2.3104,-0.9041,1.8757,0.2538
223671.0,-1.0798,1.4748,2.1883,-0.9104,2.2343,0.4028
223681.0,-1.4006,1.1971,2.3631,-1.0264,2.593,0.5428
223691.0,-2.0973,0.7326,3.0095,-1.2765,2.9192,0.6646
223701.0,-3.225,0.0239,3.881,-1.6315,3.1235,0.7513
223711.0,-4.6831,-0.984,6.0214,-1.8251,3.3683,0.8093
223721.0,-5.7724,-1.8507,8.3582,-1.5931,3.6519,0.8759
223731.0,-6.4763,-3.0095,10.8673,-1.0578,3.8802,0.9349
223741.0,-6.4141,-4.2449,13.1873,-0.3672,3.9903,0.9307
223751.0,-6.5314,-4.9057,14.8345,0.3161,3.9829,0.8104
223761.0,-7.3933,-4.9847,16.6397,0.7779,3.8466,0.563
223771.0,-8.078,-4.142,17.4849,0.9865,3.4928,0.2357
223781.0,-8.9399,-3.0789,18.1241,0.9041,3.1038,-0.1038
223791.0,-9.5816,-1.9824,18.3875,0.5481,2.6882,-0.4156
223801.0,-9.9718,-1.1779,19.3954,-0.0649,2.2679,-0.6971
223811.0,-10.2544,-0.4908,20.6476,-0.6854,1.781,-0.9222
223821.0,-10.3908,0.1341,21.6651,-1.1643,1.1722,-1.0546
223831.0,-10.3932,0.6704,22.0362,-1.3776,0.5044,-1.0749
223841.0,-10.149,1.1827,21.7609,-1.2776,-0.1266,-0.9839
223851.0,-9.7013,1.5299,20.9948,-0.9551,-0.6987,-0.8035
223861.0,-9.1937,1.7765,19.5008,-0.539,-1.2297,-0.5688
223871.0,-8.655,1.7789,17.6524,-0.1666,-1.6974,-0.3166
223881.0,-8.0445,1.5179,15.8424,0.1133,-2.0806,-0.0676
223891.0,-7.5346,1.0032,14.2383,0.3283,-2.3482,0.1634
223901.0,-7.0054,0.3783,13.0053,0.5369,-2.4775,0.3645
223911.0,-6.5194,-0.2705,12.2176,0.7285,-2.5206,0.5321
223921.0,-6.0693,-0.8308,11.5568,0.8684,-2.5717,0.6497
223931.0,-5.7533,-1.4245,10.9415,0.9408,-2.6494,0.7168
223941.0,-5.3367,-1.9656,10.4674,0.9998,-2.6999,0.7402
223951.0,-4.8004,-2.3942,10.1203,1.086,-2.6808,0.7269
223961.0,-4.2952,-2.66,9.9192,1.1552,-2.6696,0.6811
223971.0,-3.9145,-2.6719,9.3972,1.1728,-2.7111,0.5997
223981.0,-3.5602,-2.5091,8.8178,1.1206,-2.7707,0.4933
223991.0,-3.3279,-2.1237,8.0278,1.0695,-2.7787,0.3842
224001.0,-2.9736,-1.5419,7.1395,1.0137,-2.7095,0.2895
224011.0,-2.6719,-1.0295,6.4428,0.928,-2.5478,0.2144
224021.0,-2.411,-0.5531,6.1555,0.8258,-2.3174,0.1554
224031.0,-2.2673,-0.17,6.2704,0.6987,-2.0896,0.1075
224041.0,-1.9225,0.1341,6.3734,0.5795,-1.9082,0.0745
224051.0,-1.6281,0.2849,6.4189,0.497,-1.7389,0.0543
224061.0,-1.2713,0.3759,6.3063,0.4363,-1.5719,0.0394
224071.0,-0.9361,0.3998,6.1387,0.3911,-1.3659,0.0255
224081.0,-0.6369,0.4477,6.1316,0.3347,-1.1281,0.0053
224091.0,-0.4525,0.5315,6.2872,0.257,-0.895,-0.0208
224101.0,-0.3974,0.5914,6.6128,0.1458,-0.6923,-0.0521
224111.0,-0.3831,0.6321,6.8953,0.025,-0.5193,-0.0835
224121.0,-0.2322,0.6297,7.2209,-0.1171,-0.3789,-0.1133
224131.0,-0.2538,0.5171,7.5465,-0.2772,-0.2687,-0.1421
224141.0,-0.2466,0.3831,8.0254,-0.3948,-0.1586,-0.1767
224151.0,-0.3184,0.3496,8.6455,-0.4321,-0.049,-0.2011
224161.0,-0.2658,0.237,9.2273,-0.4156,0.0192,-0.2171
224171.0,-0.316,0.1724,9.6486,-0.3608,0.042,-0.2304
224181.0,-0.3136,0.2035,9.8761,-0.274,0.042,-0.2464
224191.0,-0.2921,0.2658,10.0245,-0.1884,0.042,-0.2591
224201.0,-0.2777,0.3472,10.1155,-0.1288,0.0426,-0.2687
224211.0,-0.2514,0.4573,10.1083,-0.1171,0.0319,-0.2815
224221.0,-0.249,0.5148,10.2065,-0.1666,0.0117,-0.299
224231.0,-0.2274,0.6033,10.3286,-0.2389,-0.0085,-0.3139
224241.0,-0.2562,0.6632,10.5848,-0.3065,-0.0335,-0.3219
224251.0,-0.2251,0.6895,10.8122,-0.3342,-0.0686,-0.3198
224261.0,-0.2035,0.7709,10.9271,-0.2937,-0.1038,-0.307
224271.0,-0.249,0.8978,10.9295,-0.2235,-0.1405,-0.2783
224281.0,-0.1844,0.9601,10.9319,-0.141,-0.1756,-0.2325
224291.0,-0.1269,1.0367,10.8409,-0.0559,-0.2006,-0.1868
224301.0,-0.1796,1.1013,10.6662,-0.0271,-0.2341,-0.1447
224311.0,-0.182,1.0487,10.726,-0.0383,-0.2597,-0.1048
224321.0,-0.1604,0.9553,10.9702,-0.0239,-0.2751,-0.0649
224331.0,-0.1293,0.8332,11.0421,0.0229,-0.3054,-0.0266
224341.0,0.0072,0.6847,11.145,0.1091,-0.3288,0.009
224351.0,0.1125,0.6704,11.0899,0.2075,-0.3443,0.0357
224361.0,0.146,0.7087,10.92,0.2379,-0.3884,0.0495
224371.0,0.1245,0.644,10.7117,0.1985,-0.4475,0.0521
224381.0,0.261,0.5578,10.5967,0.1628,-0.4736,0.0452
224391.0,0.395,0.565,10.4196,0.1352,-0.481,0.0351
224401.0,0.4669,0.5818,10.2065,0.0532,-0.5082,0.0192
224411.0,0.4621,0.5698,9.9575,-0.0442,-0.5263,0.0032
224421.0,0.4573,0.4669,9.8569,-0.1155,-0.5146,-0.0101
224431.0,0.565,0.2705,10.0365,-0.1,-0.4571,-0.016
224441.0,0.6536,0.1844,10.2232,0.0011,-0.3858,-0.0186
224451.0,0.7326,0.1867,10.1993,0.0814,-0.3682,-0.0303
224461.0,0.8045,0.2562,10.082,0.1149,-0.3778,-0.0543
224471.0,0.8523,0.3974,9.8761,0.1022,-0.3709,-0.0793
224481.0,0.8978,0.5267,9.7947,0.0516,-0.3517,-0.1016
224491.0,0.929,0.6345,9.8497,-0.0112,-0.3155,-0.1197
224501.0,0.9409,0.7781,9.8426,-0.0766,-0.2932,-0.1282
224511.0,0.9433,0.8571,9.8497,-0.1543,-0.2959,-0.1272
224521.0,0.9361,0.9361,9.7731,-0.2251,-0.3076,-0.116
224531.0,0.929,0.9888,9.6798,-0.2677,-0.3145,-0.091
224541.0,0.9601,0.9553,9.6726,-0.2692,-0.3155,-0.0474
224551.0,0.9385,0.8906,9.5217,-0.2192,-0.3118,0.0069
224561.0,0.917,0.7374,9.335,-0.1591,-0.3139,0.0617
224571.0,1.0151,0.5315,9.1554,-0.0968,-0.3155,0.1107
224581.0,1.1396,0.2945,9.074,-0.0351,-0.2975,0.1469
224591.0,1.2617,0.0455,9.0214,-0.0011,-0.2847,0.1639
224601.0,1.3192,-0.17,8.9471,-0.0096,-0.3129,0.1501
224611.0,1.3527,-0.2442,8.8035,-0.0213,-0.3437,0.1149
224621.0,1.3934,-0.2274,8.5976,0.0074,-0.3475,0.0756
224631.0,1.4078,-0.1484,8.4324,0.0857,-0.3161,0.0447
224641.0,1.4102,0.0694,8.1139,0.1995,-0.257,0.0202
224651.0,1.4365,0.2993,7.7907,0.2911,-0.1783,0.0059
224661.0,1.4365,0.4884,7.5872,0.3331,-0.0889,-0.0005
224671.0,1.4748,0.6249,7.3885,0.2985,-0.0112,-0.0074
224681.0,1.4988,0.6201,7.3334,0.2043,0.042,-0.016
224691.0,1.561,0.577,7.2377,0.0963,0.0814,-0.0218
224701.0,1.5443,0.4812,7.1874,0.0117,0.1187,-0.025
224711.0,1.5036,0.316,7.173,-0.0335,0.1644,-0.0218
224721.0,1.4006,-0.0072,7.3957,-0.0202,0.2347,-0.0165
224731.0,1.3838,-0.4645,7.9152,0.0639,0.323,-0.0181
224741.0,1.4006,-0.8092,8.2935,0.1586,0.3453,-0.049
224751.0,1.4868,-0.9433,8.3965,0.1815,0.2347,-0.1219
224761.0,1.5179,-0.7901,7.8626,0.1543,0.0734,-0.2118
224771.0,1.403,-0.5435,7.0366,0.083,-0.0474,-0.2959
224781.0,1.2043,-0.2107,6.2896,0.0537,-0.0628,-0.3507
224791.0,0.9864,0.0934,5.5593,0.0926,0.0149,-0.3666
224801.0,0.747,0.1915,4.9656,0.1655,0.132,-0.3581
224811.0,0.759,0.2274,4.4005,0.3235,0.3044,-0.3432
224821.0,0.7039,0.2921,3.869,0.6018,0.5981,-0.3278
224831.0,0.5004,0.3352,3.644,0.9615,1.002,-0.3177
224841.0,0.3879,0.5243,3.4931,1.3755,1.4606,-0.3384
224851.0,0.2705,1.0606,2.8754,1.7342,1.9305,-0.3964
224861.0,0.0192,1.47,2.1428,1.8778,2.4392,-0.4805
224871.0,-0.5914,1.9585,0.996,1.7347,2.9671,-0.6162
224881.0,-1.6879,2.4565,-0.0742,1.1802,3.4949,-0.8141
224891.0,-2.9377,2.4181,-0.5435,0.3177,4.1031,-1.0312
224901.0,-4.6184,2.399,0.1389,-0.712,4.8034,-1.2388
224911.0,-7.2185,1.6927,2.3248,-1.6825,5.5425,-1.3744
224921.0,-9.7229,0.893,5.3774,-2.3541,6.2209,-1.4452
224931.0,-11.813,-0.1652,10.4028,-2.6164,6.893,-1.4516
224941.0,-13.5895,-0.996,15.5503,-2.4871,7.2559,-1.4128
224951.0,-14.4634,-1.8316,20.3962,-2.2684,7.1404,-1.3798
224961.0,-14.4346,-2.1907,23.8798,-2.0869,6.644,-1.3776
224971.0,-14.0085,-2.7629,27.8398,-2.1716,5.8234,-1.4473
224981.0,-13.3213,-2.9018,30.6506,-2.3589,4.6459,-1.558
224991.0,-12.7611,-3.1436,33.2267,-2.4919,3.2746,-1.6394
225001.0,-12.572,-2.3176,33.617,-2.2625,1.8427,-1.6501
225011.0,-12.7324,-1.0582,32.8149,-1.8619,0.4033,-1.5947
225021.0,-12.7802,0.328,30.5692,-1.3377,-1.0211,-1.4479
225031.0,-12.7587,1.3431,27.6243,-0.7348,-2.2423,-1.2106
225041.0,-12.4331,2.1404,24.0617,-0.0176,-3.1959,-0.8876
225051.0,-12.0021,2.4349,20.9924,0.7285,-3.8536,-0.5055
225061.0,-11.4156,2.5402,17.9254,1.4819,-4.2973,-0.0883
225071.0,-10.5656,2.1931,15.1697,2.1157,-4.6134,0.3257
225081.0,-9.4667,1.6472,12.4139,2.6324,-4.7853,0.7072
225091.0,-8.1786,1.0822,10.0149,3.0075,-4.7683,1.0323
225101.0,-6.8594,0.51,8.1379,3.2023,-4.5836,1.284
225111.0,-5.4851,-0.0215,6.79,3.1783,-4.3149,1.4473
225121.0,-4.3239,-0.4501,5.9256,2.9282,-4.0244,1.5038
225131.0,-3.3184,-0.7877,5.2648,2.4977,-3.7572,1.4585
225141.0,-2.2577,-0.9313,4.9201,1.9417,-3.4928,1.3266
225151.0,-1.573,-0.8428,4.9297,1.3697,-3.2012,1.1478
225161.0,-1.2019,-0.759,5.2744,0.8397,-2.9564,0.9578
225171.0,-0.9673,-0.5004,5.545,0.448,-2.7633,0.7774
225181.0,-0.7015,-0.2155,5.545,0.2123,-2.5738,0.6274
225191.0,-0.4645,0.0287,5.466,0.0841,-2.3727,0.5071
225201.0,-0.2251,0.2873,5.2864,0.0048,-2.187,0.4076
225211.0,0.103,0.498,4.968,-0.0601,-2.0087,0.3214
225221.0,0.395,0.747,4.6304,-0.1213,-1.806,0.2543
225231.0,0.6201,0.9337,4.3239,-0.1942,-1.5756,0.2043
225241.0,0.8356,1.0367,4.2808,-0.2533,-1.3154,0.1687
225251.0,1.0151,1.1157,4.276,-0.3017,-1.0451,0.1474
225261.0,1.0965,1.1325,4.3311,-0.3549,-0.7875,0.1341
225271.0,1.1492,1.1349,4.4245,-0.4033,-0.5353,0.1272
225281.0,1.2067,0.9816,4.7477,-0.4358,-0.2655,0.1187
225291.0,1.2234,0.9026,5.2146,-0.448,-0.0101,0.1091
225301.0,1.1636,0.8787,5.6767,-0.4704,0.1937,0.0942
225311.0,1.0894,0.7542,6.3949,-0.4938,0.3459,0.0793
225321.0,1.0774,0.6776,6.9887,-0.4715,0.4683,0.0702
225331.0,0.9002,0.5866,7.5393,-0.4065,0.5582,0.0633
225341.0,0.8236,0.5602,7.8817,-0.298,0.6146,0.0559
225351.0,0.7302,0.6273,8.1403,-0.1623,0.6753,0.0532
225361.0,0.6177,0.6632,8.3725,-0.041,0.7556,0.0506
225371.0,0.5124,0.7111,8.6191,0.0239,0.8184,0.0341
225381.0,0.4549,0.8045,8.7556,-0.0096,0.8274,0.0048
225391.0,0.3184,0.7925,8.8897,-0.1346,0.8221,-0.0346
225401.0,0.2466,0.7135,9.0644,-0.3001,0.8248,-0.0803
225411.0,0.1365,0.6488,9.4715,-0.4544,0.8397,-0.1272
225421.0,0.0096,0.5866,9.8689,-0.5518,0.8418,-0.1628
225431.0,-0.1939,0.4286,10.2232,-0.5917,0.8242,-0.1884
225441.0,-0.2873,0.3376,10.3693,-0.5795,0.7907,-0.2144
225451.0,-0.3184,0.3065,10.3741,-0.5295,0.7758,-0.2437
225461.0,-0.3232,0.4022,10.3932,-0.448,0.8024,-0.2666
225471.0,-0.3855,0.5722,10.5752,-0.3613,0.8535,-0.2794
225481.0,-0.5459,0.8428,10.908,-0.2975,0.8886,-0.2831
225491.0,-0.68,1.0798,11.1713,-0.2692,0.8806,-0.273
225501.0,-0.893,1.2186,11.3318,-0.2959,0.8296,-0.2533
225511.0,-0.9816,1.2498,11.4179,-0.3475,0.7492,-0.2246
225521.0,-1.0032,1.0894,11.6358,-0.3991,0.6683,-0.1942
225531.0,-1.0056,0.9385,11.9351,-0.3714,0.6284,-0.1554
225541.0,-1.0726,0.8045,12.3253,-0.2762,0.597,-0.1133
225551.0,-1.1803,0.7135,12.6055,-0.1692,0.5087,-0.0766
225561.0,-1.221,0.735,12.6965,-0.0692,0.3741,-0.0479
225571.0,-1.1756,0.6847,12.4594,0.0096,0.2309,-0.0271
225581.0,-1.0606,0.668,12.0955,0.049,0.107,-0.0149
225591.0,-0.9577,0.6776,11.6071,0.0431,0.0245,-0.017
225601.0,-0.8404,0.7015,11.2216,-0.0218,-0.0282,-0.0319
225611.0,-0.8236,0.7135,10.9966,-0.1304,-0.067,-0.0543
225621.0,-0.8356,0.7542,10.9152,-0.2272,-0.0915,-0.075
225631.0,-0.8404,0.8691,10.8338,-0.2597,-0.0894,-0.083
225641.0,-0.8811,0.9337,10.8338,-0.2469,-0.0798,-0.0729
225651.0,-0.9122,0.972,10.8002,-0.1916,-0.0649,-0.0516
225661.0,-0.8667,0.9768,10.7524,-0.1117,-0.0484,-0.0213
225671.0,-0.7805,0.9002,10.6614,-0.0527,-0.0431,0.009
225681.0,-0.7254,0.8188,10.556,-0.025,-0.0431,0.0271
225691.0,-0.6321,0.7614,10.3956,-0.0341,-0.0357,0.0346
225701.0,-0.6345,0.6704,10.4363,-0.0803,-0.0277,0.0282
225711.0,-0.5578,0.5938,10.5393,-0.125,-0.0154,0.0138
225721.0,-0.5674,0.5746,10.5967,-0.1639,-0.0106,-0.0027
225731.0,-0.6416,0.5866,10.7476,-0.2198,-0.0309,-0.0186
225741.0,-0.7207,0.6033,10.8864,-0.2496,-0.0516,-0.0298
225751.0,-0.7877,0.6393,10.9463,-0.2405,-0.0676,-0.0314
225761.0,-0.8523,0.6536,11.0421,-0.2123,-0.0878,-0.0255
225771.0,-0.8715,0.6225,11.0325,-0.1719,-0.1123,-0.0165
225781.0,-0.826,0.6273,10.975,-0.141,-0.1442,-0.0112
225791.0,-0.7422,0.5866,10.8912,-0.1304,-0.1735,-0.0074
225801.0,-0.7207,0.5267,10.7739,-0.1453,-0.2038,-0.009
225811.0,-0.6464,0.4884,10.726,-0.1969,-0.2517,-0.0181
225821.0,-0.565,0.3855,10.5991,-0.2458,-0.3028,-0.0282
225831.0,-0.5076,0.2825,10.4555,-0.2852,-0.3544,-0.0404
225841.0,-0.4118,0.1341,10.1825,-0.3166,-0.3954,-0.0527
225851.0,-0.2682,0.0024,9.9192,-0.3427,-0.4103,-0.0654
225861.0,-0.1221,-0.1221,9.754,-0.3837,-0.4166,-0.0883
225871.0,0.0168,-0.1748,9.5313,-0.4337,-0.4315,-0.1155
225881.0,0.0742,-0.158,9.3206,-0.4651,-0.4374,-0.141
225891.0,0.1077,-0.1269,9.1674,-0.4613,-0.4257,-0.1575
225901.0,0.0622,-0.0862,9.0166,-0.4166,-0.3943,-0.1623
225911.0,0.0646,-0.0335,8.8585,-0.3368,-0.3555,-0.1586
225921.0,0.1245,-0.0192,8.8083,-0.2309,-0.306,-0.1485
225931.0,0.2179,-0.079,8.7364,-0.1075,-0.2363,-0.1362
225941.0,0.3639,-0.091,8.6383,-0.0053,-0.1841,-0.1346
225951.0,0.4812,-0.0575,8.4755,0.041,-0.1607,-0.1447
225961.0,0.6225,0.0599,8.1092,0.0239,-0.1559,-0.165
225971.0,0.7278,0.2562,7.5896,-0.0665,-0.1602,-0.1932
225981.0,0.7566,0.4238,7.0174,-0.2049,-0.1399,-0.2144
225991.0,0.8021,0.565,6.5817,-0.3475,-0.0724,-0.2203
226001.0,0.7733,0.6416,6.2321,-0.4693,0.0388,-0.2075
226011.0,0.6369,0.6704,5.9999,-0.58,0.1602,-0.183
226021.0,0.4501,0.6536,5.9017,-0.6609,0.2719,-0.1479
226031.0,0.2873,0.5866,5.9185,-0.6497,0.4129,-0.1038
226041.0,0.2155,0.6416,6.0142,-0.5193,0.5821,-0.0458
226051.0,0.1149,0.6177,6.2704,-0.298,0.7652,0.0314
226061.0,0.1125,0.6656,6.4452,-0.0005,0.9519,0.1192
226071.0,0.0048,0.814,6.1316,0.3017,1.1222,0.2049
226081.0,-0.0287,1.0295,5.3271,0.4736,1.2451,0.2639
226091.0,-0.237,1.4964,4.1922,0.5273,1.4282,0.2996
226101.0,-0.6536,1.9321,3.1173,0.4608,1.7262,0.3272
226111.0,-1.4389,1.9968,2.5642,0.3097,2.1455,0.3624
226121.0,-2.3296,1.5826,3.3112,0.1745,2.6999,0.3895
226131.0,-3.3088,1.0774,4.7429,0.1692,3.2842,0.3996
226141.0,-4.1037,0.3472,6.9623,0.2017,3.7477,0.3714
226151.0,-4.8483,-0.0742,8.8514,0.3166,4.0701,0.3065
226161.0,-5.7102,-0.3472,10.9583,0.3831,4.2941,0.1974
226171.0,-6.3255,-0.2322,13.3333,0.3927,4.4314,0.0607
226181.0,-6.869,0.2993,15.9214,0.2815,4.4304,-0.0814
226191.0,-7.5226,0.7494,18.4784,-0.0708,4.1473,-0.2054
226201.0,-8.0493,0.8356,20.7434,-0.6311,3.5976,-0.3124
226211.0,-8.2528,0.8619,22.2661,-1.2473,2.842,-0.3954
226221.0,-8.3031,0.4405,23.5063,-1.7836,1.9842,-0.4278
226231.0,-8.272,-0.0335,23.9947,-2.0178,1.1217,-0.4001
226241.0,-8.1475,-0.34,23.7768,-1.8986,0.3081,-0.3262
226251.0,-7.8745,-0.4573,22.8407,-1.5181,-0.464,-0.2118
226261.0,-7.5776,-0.4741,21.2054,-0.969,-1.1563,-0.0649
226271.0,-7.2137,-0.4597,18.9956,-0.3304,-1.7155,0.1027
226281.0,-6.608,-0.5435,16.7259,0.2943,-2.112,0.2719
226291.0,-6.0334,-0.5435,14.4682,0.8594,-2.3136,0.431
226301.0,-5.4755,-0.6105,12.5767,1.2702,-2.378,0.5635
226311.0,-4.9656,-0.6895,10.999,1.5022,-2.3647,0.6598
226321.0,-4.3072,-0.9218,9.7396,1.5516,-2.3184,0.7077
226331.0,-3.644,-1.1947,8.6431,1.4904,-2.2019,0.704
226341.0,-3.0023,-1.3982,7.8985,1.3372,-2.0268,0.647
226351.0,-2.3798,-1.4844,7.3071,1.1079,-1.8172,0.5385
226361.0,-1.9345,-1.3527,7.1251,0.8434,-1.5511,0.3964
226371.0,-1.7262,-1.1325,7.3694,0.5656,-1.2946,0.2485
226381.0,-1.6831,-0.8787,7.6591,0.2857,-1.1041,0.1027
226391.0,-1.664,-0.6009,7.8697,0.0521,-0.9562,-0.0325
226401.0,-1.6305,-0.328,8.0134,-0.1336,-0.8093,-0.1517
226411.0,-1.6568,-0.0838,8.3653,-0.2905,-0.6449,-0.2533
226421.0,-1.6831,0.2179,8.7412,-0.4278,-0.5018,-0.3406
226431.0,-1.8076,0.4717,9.0357,-0.5965,-0.4188,-0.4135
226441.0,-2.0327,0.6369,9.4236,-0.7689,-0.3586,-0.4688
226451.0,-2.1931,0.8021,9.9838,-0.8796,-0.2804,-0.505
226461.0,-2.241,0.9098,10.6518,-0.9381,-0.2389,-0.5161
226471.0,-2.2482,0.9194,11.2001,-0.9658,-0.2623,-0.5066
226481.0,-2.2577,0.8667,11.5496,-0.9551,-0.3219,-0.4864
226491.0,-2.1308,1.0008,11.6765,-0.9317,-0.3911,-0.4672
226501.0,-2.2218,1.0702,11.9423,-0.9349,-0.4677,-0.4331
226511.0,-2.1955,1.0367,12.0859,-0.9897,-0.6348,-0.3964
226521.0,-2.2122,0.9936,12.074,-1.019,-0.8269,-0.3565
226531.0,-2.2242,0.9266,11.9112,-0.9727,-0.9897,-0.3017
226541.0,-2.0111,0.8116,11.6143,-0.8306,-1.1249,-0.224
226551.0,-1.7669,0.6536,11.212,-0.6141,-1.2313,-0.1336
226561.0,-1.5754,0.5411,10.5728,-0.3656,-1.318,-0.0426
226571.0,-1.2737,0.4238,9.7181,-0.1346,-1.3611,0.0415
226581.0,-0.9553,0.3759,8.9328,0.0495,-1.3473,0.1149
226591.0,-0.7087,0.3232,8.3438,0.1554,-1.2936,0.1729
226601.0,-0.4573,0.1867,7.92,0.2054,-1.2127,0.2176
226611.0,-0.2634,0.0575,7.5848,0.2336,-1.1089,0.2464
226621.0,-0.0694,-0.0862,7.2856,0.2442,-0.9998,0.2618
226631.0,0.1101,-0.2801,7.0006,0.2448,-0.879,0.265
226641.0,0.2658,-0.4932,6.6056,0.2373,-0.7322,0.2458
226651.0,0.4956,-0.6632,6.1723,0.2166,-0.539,0.2001
226661.0,0.7278,-0.8045,5.8538,0.1383,-0.3033,0.1277
226671.0,0.7566,-0.8021,5.7628,-0.0069,-0.0335,0.0341
226681.0,0.6345,-0.8308,6.0908,-0.2208,0.2277,-0.0702
226691.0,0.4764,-0.9433,6.9025,-0.4656,0.4459,-0.1719
226701.0,0.3687,-1.0606,7.8626,-0.68,0.5789,-0.2623
226711.0,0.2274,-1.1277,8.6479,-0.8189,0.6327,-0.3379
226721.0,-0.0455,-1.0798,9.3925,-0.8546,0.647,-0.3874
226731.0,-0.328,-0.9433,10.0604,-0.7732,0.647,-0.4097
226741.0,-0.51,-0.7374,10.5153,-0.5896,0.6385,-0.3959
226751.0,-0.6991,-0.5339,10.7595,-0.3757,0.605,-0.3576
226761.0,-0.8068,-0.4238,10.884,-0.2022,0.5523,-0.3081
226771.0,-0.8356,-0.3663,10.9319,-0.0814,0.5007,-0.2543
226781.0,-0.8428,-0.3232,11.0181,-0.0234,0.4395,-0.2054
226791.0,-0.7973,-0.3232,11.0828,-0.0394,0.3597,-0.1671
226801.0,-0.7877,-0.2969,11.1594,-0.0878,0.274,-0.133
226811.0,-0.7805,-0.3017,11.2527,-0.1532,0.1868,-0.099
226821.0,-0.7638,-0.3184,11.3054,-0.207,0.0926,-0.0623
226831.0,-0.735,-0.3974,11.3437,-0.2315,-0.0064,-0.0213
226841.0,-0.723,-0.5028,11.2097,-0.2097,-0.1038,0.0208
226851.0,-0.6991,-0.6369,11.0684,-0.1346,-0.1745,0.0639
226861.0,-0.5387,-0.7422,10.7739,-0.016,-0.2187,0.1027
226871.0,-0.328,-0.8284,10.3334,0.0974,-0.2453,0.132
226881.0,-0.1867,-0.8523,9.9144,0.1729,-0.2368,0.1442
226891.0,-0.091,-0.8188,9.6151,0.1953,-0.1926,0.1415
226901.0,-0.0814,-0.735,9.5193,0.1751,-0.1309,0.1293
226911.0,-0.1221,-0.6393,9.5026,0.1288,-0.0756,0.1155
226921.0,-0.1772,-0.5195,9.5265,0.0692,-0.0213,0.1032
226931.0,-0.2562,-0.4262,9.5984,0.0213,0.0388,0.0974
226941.0,-0.3831,-0.4357,9.7851,-0.0239,0.1,0.0968
226951.0,-0.419,-0.5124,10.0533,-0.0623,0.149,0.0937
226961.0,-0.395,-0.5602,10.3621,-0.0958,0.1777,0.0899
226971.0,-0.407,-0.5962,10.671,-0.1197,0.1969,0.0814
226981.0,-0.4477,-0.5818,10.9271,-0.1543,0.2033,0.0708
226991.0,-0.5626,-0.5578,11.224,-0.2144,0.1745,0.0623
227001.0,-0.6512,-0.5602,11.5089,-0.3102,0.1139,0.0511
227011.0,-0.7111,-0.6129,11.7699,-0.4172,0.0154,0.0404
227021.0,-0.7254,-0.7518,11.8992,-0.5039,-0.1112,0.0325
227031.0,-0.644,-0.8595,12.0093,-0.5177,-0.2155,0.0293
227041.0,-0.5698,-0.9242,12.0668,-0.4603,-0.2692,0.0367
227051.0,-0.5722,-0.9577,12.2056,-0.4278,-0.3432,0.0394
227061.0,-0.565,-0.9744,12.1745,-0.4656,-0.5034,0.0282
227071.0,-0.5986,-0.9912,12.1649,-0.5167,-0.6891,0.0181
227081.0,-0.5722,-1.0726,11.8848,-0.514,-0.8785,0.0186
227091.0,-0.5483,-1.2594,11.5401,-0.4097,-1.0153,0.0303
227101.0,-0.5148,-1.5467,11.3413,-0.1809,-1.0493,0.0575
227111.0,-0.431,-1.9297,11.382,0.1213,-1.0259,0.0819
227121.0,-0.1389,-2.3224,11.7675,0.4268,-0.9956,0.0825
227131.0,0.0766,-2.4612,12.0021,0.655,-1.0488,0.0431
227141.0,0.1556,-2.3415,11.8824,0.7008,-1.2638,-0.0436
227151.0,0.1915,-1.9609,11.1594,0.6226,-1.5719,-0.157
227161.0,0.3208,-1.5443,10.1155,0.5114,-1.839,-0.2634
227171.0,0.7278,-1.2641,8.9088,0.4597,-1.9901,-0.3406
227181.0,1.1732,-0.9792,7.5896,0.4603,-2.0401,-0.3991
227191.0,1.6975,-0.5866,6.3518,0.4816,-2.0199,-0.4475
227201.0,1.9776,-0.1149,5.1978,0.5002,-1.9401,-0.4746
227211.0,2.1356,0.4166,3.8618,0.4906,-1.8475,-0.4778
227221.0,2.1308,0.9481,2.624,0.4959,-1.6618,-0.4417
227231.0,2.3008,1.4509,1.6209,0.5981,-1.3367,-0.3634
227241.0,2.4086,1.8866,1.0487,0.8088,-0.8679,-0.2421
227251.0,2.4924,2.2194,0.5746,1.0397,-0.3624,-0.0841
227261.0,2.66,2.32,-0.0551,1.2116,0.1501,0.0889
227271.0,2.6767,2.241,-0.589,1.292,0.7178,0.2458
227281.0,2.5043,2.0087,-0.7829,1.2047,1.3031,0.3597
227291.0,2.2386,1.6113,-0.3687,0.9738,1.8986,0.4294
227301.0,1.6927,1.0942,0.6369,0.6795,2.4339,0.4544
227311.0,1.1396,0.5986,1.4653,0.4007,2.8351,0.4347
227321.0,0.419,0.1867,1.9944,0.2485,3.2241,0.3868
227331.0,-0.4262,-0.0862,2.6073,0.2634,3.7008,0.3267
227341.0,-1.4892,-0.2897,3.7302,0.4033,4.2495,0.2506
227351.0,-2.5809,-0.261,5.1188,0.6045,4.7762,0.1501
227361.0,-3.8595,-0.091,7.1012,0.7891,5.2562,0.0303
227371.0,-5.5785,0.2634,9.5864,0.9073,5.609,-0.1123
227381.0,-6.9432,0.6249,12.2703,0.8961,5.742,-0.2698
227391.0,-6.9049,0.6393,15.2822,0.7684,5.7569,-0.4129
227401.0,-7.3023,-0.0192,18.1935,0.4273,5.584,-0.5444
227411.0,-8.3342,-0.4956,21.7537,-0.1107,5.145,-0.7402
227421.0,-9.8857,0.7805,23.8079,-0.5901,4.499,-0.9892
227431.0,-10.7332,1.4245,25.9292,-1.4266,3.4263,-1.1808
227441.0,-10.9822,1.3815,26.9252,-2.1652,2.1934,-1.234
227451.0,-10.4555,1.1516,27.3945,-2.4647,1.077,-1.1898
227461.0,-9.4571,1.1779,26.59,-2.2764,0.0681,-1.0557
227471.0,-8.8107,1.3072,24.9069,-1.7922,-0.828,-0.8524
227481.0,-8.3294,1.6305,22.2804,-1.1111,-1.5469,-0.6082
227491.0,-7.8889,2.0111,19.4266,-0.3964,-2.0651,-0.3326
227501.0,-7.2951,2.0255,16.7546,0.232,-2.4147,-0.0341
227511.0,-6.45,1.798,14.1737,0.7795,-2.5919,0.2607
227521.0,-5.6431,1.4269,12.1482,1.2063,-2.6127,0.5268
227531.0,-4.7238,0.8978,10.489,1.5,-2.5329,0.7508
227541.0,-3.9504,0.2155,9.3063,1.6474,-2.3791,0.9062
227551.0,-3.0454,-0.4453,8.3151,1.6613,-2.1998,0.9812
227561.0,-2.138,-0.9792,7.6447,1.5293,-1.9837,0.9642
227571.0,-1.4054,-1.2833,7.2089,1.2606,-1.7725,0.8679
227581.0,-0.9625,-1.4269,7.0006,0.8695,-1.599,0.7098
227591.0,-0.68,-1.3719,6.9001,0.4417,-1.4367,0.5151
227601.0,-0.6129,-1.2186,6.9145,0.0415,-1.2739,0.3097
227611.0,-0.6584,-0.9074,7.1371,-0.2772,-1.1126,0.1192
227621.0,-0.7733,-0.4932,7.3574,-0.4778,-0.9418,-0.0362
227631.0,-0.9002,-0.1437,7.6351,-0.5795,-0.7769,-0.1506
227641.0,-1.0415,0.2059,7.7812,-0.6114,-0.6252,-0.2272
227651.0,-1.154,0.5148,7.9895,-0.6343,-0.4805,-0.2762
227661.0,-1.2354,0.6728,8.2815,-0.6572,-0.348,-0.3001
227671.0,-1.3743,0.7614,8.746,-0.6721,-0.2309,-0.306
227681.0,-1.4317,0.8021,9.3015,-0.6694,-0.1421,-0.3006
227691.0,-1.4293,0.8452,9.7779,-0.6423,-0.0825,-0.2868
227701.0,-1.4222,0.8284,10.3118,-0.6141,-0.0665,-0.2655
227711.0,-1.4844,0.8739,10.7476,-0.5922,-0.0947,-0.241
227721.0,-1.6161,0.8811,11.1259,-0.5827,-0.1735,-0.2155
227731.0,-1.6424,0.8667,11.4179,-0.5539,-0.2783,-0.182
227741.0,-1.5826,0.8475,11.5879,-0.4651,-0.3879,-0.1389
227751.0,-1.5107,0.7781,11.5305,-0.3288,-0.4965,-0.0867
227761.0,-1.391,0.723,11.2192,-0.1825,-0.6034,-0.0341
227771.0,-1.2617,0.6871,10.7452,-0.0458,-0.6848,0.0112
227781.0,-1.008,0.656,10.3358,0.0564,-0.7152,0.049
227791.0,-0.8643,0.6009,9.9551,0.1117,-0.7061,0.0745
227801.0,-0.6967,0.5722,9.7085,0.1064,-0.696,0.0883
227811.0,-0.5818,0.5243,9.517,0.0649,-0.6795,0.0937
227821.0,-0.4764,0.4405,9.3518,-0.0048,-0.6619,0.0894
227831.0,-0.3256,0.3615,9.1746,-0.0883,-0.6492,0.0772
227841.0,-0.1389,0.3089,9.0237,-0.1623,-0.6178,0.0585
227851.0,-0.0168,0.3112,8.8226,-0.2272,-0.5646,0.0383
227861.0,-0.0192,0.3376,8.7173,-0.3054,-0.5066,0.0186
227871.0,-0.0575,0.3041,8.6455,-0.3916,-0.4544,0.0037
227881.0,-0.1101,0.1413,8.7149,-0.4677,-0.4129,-0.0064
227891.0,0.012,-0.1365,8.8155,-0.4954,-0.373,-0.0122
227901.0,0.2203,-0.3711,8.8729,-0.4374,-0.3203,-0.0186
227911.0,0.4118,-0.51,8.8131,-0.3251,-0.2533,-0.0298
227921.0,0.5124,-0.5578,8.667,-0.2006,-0.1634,-0.0447
227931.0,0.5315,-0.4381,8.5018,-0.107,-0.0548,-0.0702
227941.0,0.4334,-0.2873,8.3342,-0.0921,0.0479,-0.0995
227951.0,0.3687,-0.1245,8.43,-0.1538,0.1394,-0.1293
227961.0,0.3065,-0.0311,8.5545,-0.2416,0.224,-0.1548
227971.0,0.2274,-0.0192,8.6622,-0.3549,0.2905,-0.1767
227981.0,0.2298,-0.0814,8.9088,-0.473,0.3363,-0.1969
227991.0,0.2035,-0.2298,9.153,-0.5561,0.3884,-0.2134
228001.0,0.1748,-0.2753,9.5553,-0.5837,0.4459,-0.2267
228011.0,0.0024,-0.2825,9.8928,-0.5683,0.4959,-0.2336
228021.0,-0.1532,-0.2586,10.1083,-0.5374,0.5231,-0.2347
228031.0,-0.2586,-0.2586,10.2544,-0.5135,0.5268,-0.2293
228041.0,-0.3328,-0.3184,10.4603,-0.5087,0.5167,-0.2235
228051.0,-0.3831,-0.4118,10.6973,-0.5002,0.5039,-0.2214
228061.0,-0.4884,-0.4429,10.9295,-0.464,0.4949,-0.2192
228071.0,-0.5914,-0.4286,11.248,-0.4113,0.4704,-0.216
228081.0,-0.6608,-0.3783,11.4227,-0.3411,0.4204,-0.2091
228091.0,-0.7542,-0.2562,11.5496,-0.2623,0.3608,-0.1921
228101.0,-0.8116,-0.1532,11.6502,-0.1857,0.2927,-0.1666
228111.0,-0.8595,-0.0599,11.6262,-0.1208,0.2203,-0.133
228121.0,-0.8715,0.0,11.5281,-0.0883,0.1405,-0.0942
228131.0,-0.8452,-0.0287,11.4922,-0.0766,0.0548,-0.0527
228141.0,-0.8284,-0.091,11.3437,-0.0676,-0.033,-0.0144
228151.0,-0.7374,-0.1796,11.0828,-0.0452,-0.1107,0.0239
228161.0,-0.6273,-0.316,10.8769,-0.0037,-0.1703,0.0585
228171.0,-0.4764,-0.407,10.6518,0.0649,-0.2038,0.0862
228181.0,-0.3519,-0.4693,10.4315,0.1559,-0.2134,0.1112
228191.0,-0.2634,-0.4357,10.2472,0.2538,-0.2182,0.133
228201.0,-0.158,-0.3807,9.9838,0.3379,-0.2256,0.1527
228211.0,-0.0934,-0.2897,9.7013,0.406,-0.2235,0.1719
228221.0,-0.0192,-0.2514,9.4715,0.447,-0.2038,0.1884
228231.0,0.0622,-0.1676,9.177,0.4592,-0.1724,0.1963
228241.0,0.1221,-0.1006,8.9974,0.4331,-0.1341,0.1995
228251.0,0.1508,-0.0311,8.8729,0.3719,-0.1011,0.1953
228261.0,0.1915,-0.0263,8.7987,0.2927,-0.0665,0.1905
228271.0,0.2227,-0.012,8.7867,0.2246,-0.033,0.1841
228281.0,0.2035,0.0024,8.7436,0.1415,-0.0128,0.1767
228291.0,0.1963,-0.0287,8.6838,0.0692,0.0074,0.1703
228301.0,0.2873,-0.1149,8.7987,0.0277,0.0479,0.1666
228311.0,0.2682,-0.0958,8.9352,0.0351,0.0974,0.1671
228321.0,0.1963,-0.1149,9.2392,0.0357,0.1171,0.1681
228331.0,0.103,-0.1245,9.6151,0.0575,0.1133,0.174
228341.0,-0.0527,-0.0072,9.8785,0.1208,0.0766,0.1841
228351.0,-0.079,0.0838,10.082,0.2033,-0.0037,0.1995
228361.0,-0.103,0.1939,10.0748,0.3214,-0.0905,0.2272
228371.0,-0.1125,0.328,9.9,0.4677,-0.1703,0.2639
228381.0,-0.1006,0.4214,9.5217,0.6114,-0.2565,0.307
228391.0,0.0335,0.4597,9.3158,0.7625,-0.29,0.3528
228401.0,-0.0359,0.6009,9.1913,0.9333,-0.2368,0.3986
228411.0,-0.1341,0.6584,9.1291,0.9919,-0.2331,0.431
228421.0,-0.1844,0.6512,9.0261,0.8939,-0.3134,0.4305
228431.0,-0.1556,0.6512,9.0764,0.6694,-0.4278,0.3922
228441.0,0.0982,0.51,9.5361,0.4145,-0.5805,0.3315
228451.0,0.3639,0.3735,9.9407,0.2921,-0.7668,0.2714
228461.0,0.7494,0.3448,9.6391,0.3645,-0.9887,0.2283
228471.0,1.0367,0.4429,8.3917,0.5683,-1.1909,0.2112
228481.0,1.0654,0.6177,6.2297,0.8455,-1.2616,0.2214
228491.0,1.1157,0.5674,3.5195,1.0962,-1.1313,0.2341
228501.0,1.2115,0.498,0.8715,1.2553,-0.7215,0.2033
228511.0,1.549,0.4453,-0.9816,1.3431,0.0293,0.1176
228521.0,1.573,0.3807,-1.6975,1.2989,1.0046,-0.0213
228531.0,1.2617,0.1652,-1.2617,0.9913,1.9353,-0.2176
228541.0,0.5219,0.1221,-0.893,0.4778,2.7308,-0.4619
228551.0,-0.7183,0.0838,-0.0934,-0.2112,3.4609,-0.7354
228561.0,-2.5235,0.2059,1.2761,-0.9434,4.1877,-0.9892
228571.0,-4.2856,0.4357,3.1077,-1.6714,4.7848,-1.1861
228581.0,-6.1579,0.5267,4.8435,-2.2748,5.2408,-1.2914
228591.0,-8.0996,0.577,7.1778,-2.6574,5.6723,-1.2941
228601.0,-9.7755,0.1796,11.9375,-2.5823,6.3258,-1.1632
228611.0,-11.0732,0.3089,16.7618,-2.2242,6.653,-0.9865
228621.0,-11.327,-0.1197,21.409,-2.0838,6.2624,-0.8221
228631.0,-11.5951,-0.6201,24.0976,-1.9981,5.4738,-0.68
228641.0,-11.5305,-1.1444,26.839,-1.98,4.5171,-0.6066
228651.0,-11.2312,-1.2977,28.5341,-1.831,3.4715,-0.5374
228661.0,-10.8553,-1.3791,29.3481,-1.6416,2.3216,-0.4576
228671.0,-10.6111,-1.4653,29.2021,-1.4,1.1015,-0.3773
228681.0,-10.5201,-1.1588,27.7249,-1.0648,-0.0883,-0.2932
228691.0,-10.3645,-0.6991,25.4839,-0.6832,-1.1637,-0.1878
228701.0,-9.9982,-0.2442,22.3858,-0.2847,-2.1077,-0.0527
228711.0,-9.4116,-0.2035,19.1369,0.1203,-2.8229,0.1101
228721.0,-8.6431,-0.2155,15.7634,0.5773,-3.2576,0.2804
228731.0,-7.6447,-0.3855,12.548,0.9956,-3.4348,0.4417
228741.0,-6.5314,-0.6225,9.8378,1.3207,-3.389,0.5757
228751.0,-5.3391,-0.8356,7.6519,1.5,-3.1687,0.6635
228761.0,-4.4173,-1.0319,5.9927,1.4904,-2.8399,0.6923
228771.0,-3.2106,-1.1205,4.5131,1.2616,-2.4914,0.6556
228781.0,-2.3918,-1.1181,3.9935,0.8711,-2.0305,0.5598
228791.0,-1.8818,-1.1349,4.1132,0.3868,-1.5782,0.4268
228801.0,-1.6352,-1.1875,4.7932,-0.1506,-1.2616,0.2671
228811.0,-1.6735,-1.2043,5.4061,-0.5949,-1.0121,0.1091
228821.0,-1.7717,-1.233,6.2872,-0.8732,-0.7641,-0.0266
228831.0,-1.8172,-1.2091,7.3239,-0.9658,-0.5417,-0.1325
228841.0,-1.9178,-1.1133,8.3031,-0.928,-0.3778,-0.2091
228851.0,-2.1931,-0.9529,9.1243,-0.8248,-0.2756,-0.265
228861.0,-2.3224,-0.7039,9.7013,-0.7215,-0.2538,-0.3038
228871.0,-2.4373,-0.5171,10.1299,-0.6566,-0.2826,-0.3272
228881.0,-2.5043,-0.3903,10.5752,-0.6119,-0.3347,-0.3379
228891.0,-2.4924,-0.1724,10.8936,-0.5683,-0.4092,-0.34
228901.0,-2.5618,0.0215,11.0085,-0.5507,-0.5295,-0.3267
228911.0,-2.6432,0.1125,11.0516,-0.5422,-0.6625,-0.299
228921.0,-2.6815,0.2586,11.0325,-0.4922,-0.7737,-0.2575
228931.0,-2.66,0.2993,11.0229,-0.4124,-0.8806,-0.2006
228941.0,-2.5977,0.2274,10.8864,-0.2932,-0.9849,-0.1288
228951.0,-2.5762,0.2322,10.8194,-0.1378,-1.0706,-0.0548
228961.0,-2.4373,0.1101,10.647,0.0851,-1.1275,0.0383
228971.0,-2.2146,-0.0694,10.4267,0.3496,-1.1526,0.1293
228981.0,-1.9369,-0.1604,9.924,0.5859,-1.1531,0.2049
228991.0,-1.6448,-0.2777,9.5337,0.7168,-1.1297,0.2538
229001.0,-1.4126,-0.3232,9.1985,0.7359,-1.0967,0.274
229011.0,-1.2282,-0.3926,9.019,0.6481,-1.0722,0.2666
229021.0,-1.0295,-0.4693,8.8897,0.5385,-1.0318,0.2437
229031.0,-0.7805,-0.5435,8.8035,0.4406,-0.9637,0.2112
229041.0,-0.6033,-0.5531,8.6646,0.3278,-0.8982,0.1708
229051.0,-0.4621,-0.5842,8.5784,0.1788,-0.8386,0.1192
229061.0,-0.2945,-0.51,8.5114,0.0442,-0.7551,0.0644
229071.0,-0.1317,-0.3998,8.5832,-0.0702,-0.6646,0.0181
229081.0,-0.0814,-0.2442,8.6933,-0.1564,-0.5699,-0.017
229091.0,-0.1053,-0.0431,8.8585,-0.2112,-0.4699,-0.0351
229101.0,-0.1365,0.1748,9.1075,-0.2458,-0.3863,-0.0314
229111.0,-0.158,0.2993,9.2967,-0.2804,-0.3352,-0.0106
229121.0,-0.1844,0.2825,9.3829,-0.3214,-0.3155,0.0239
229131.0,-0.2322,0.1652,9.5122,-0.3331,-0.2932,0.0654
229141.0,-0.1317,-0.0527,9.7085,-0.2953,-0.2559,0.1101
229151.0,-0.091,-0.2658,9.7636,-0.2246,-0.224,0.1474
229161.0,-0.0838,-0.4621,9.9814,-0.1554,-0.2022,0.1719
229171.0,-0.0359,-0.6129,10.1897,-0.0654,-0.1756,0.1852
229181.0,-0.0168,-0.6919,10.3645,0.0176,-0.165,0.1868
229191.0,-0.0263,-0.7422,10.3597,0.0585,-0.1921,0.1751
229201.0,0.0982,-0.7661,10.4363,0.0713,-0.2198,0.1527
229211.0,0.1987,-0.6967,10.3214,0.0601,-0.2336,0.125
229221.0,0.2179,-0.5914,10.2328,-0.0043,-0.2618,0.0937
229231.0,0.146,-0.4238,10.1993,-0.1006,-0.2948,0.066
229241.0,0.0766,-0.3304,10.1873,-0.1889,-0.3193,0.0532
229251.0,0.0192,-0.3041,10.2663,-0.2341,-0.3347,0.0527
229261.0,0.1269,-0.3855,10.3669,-0.2118,-0.3363,0.0649
229271.0,0.261,-0.5171,10.4531,-0.1373,-0.3193,0.083
229281.0,0.3974,-0.5746,10.4507,-0.0766,-0.3272,0.091
229291.0,0.4884,-0.5387,10.228,-0.0947,-0.3799,0.0846
229301.0,0.5507,-0.565,9.9072,-0.1857,-0.4566,0.0686
229311.0,0.6895,-0.6081,9.73,-0.306,-0.5247,0.0516
229321.0,0.7709,-0.6393,9.4427,-0.389,-0.5672,0.0442
229331.0,0.8356,-0.7063,9.177,-0.4039,-0.5859,0.05
229341.0,0.838,-0.7925,8.8418,-0.357,-0.5843,0.0692
229351.0,0.8811,-1.0056,8.5904,-0.2756,-0.563,0.0942
229361.0,0.9912,-1.3024,8.4539,-0.1666,-0.5209,0.1117
