time_ms,ax,ay,az,gx,gy,gz
197241.0,-0.3232,0.9529,9.9072,-0.1719,0.1873,-0.1123
197251.0,-0.3065,0.9864,9.9288,-0.1937,0.1799,-0.0942
197261.0,-0.328,0.9984,10.0006,-0.2102,0.1745,-0.0729
197271.0,-0.3304,0.9433,10.0987,-0.2166,0.1676,-0.0521
197281.0,-0.3615,0.8715,10.1083,-0.1974,0.166,-0.0287
197291.0,-0.4022,0.7949,10.137,-0.1602,0.1639,-0.0069
197301.0,-0.4286,0.723,10.1562,-0.1059,0.1687,0.0117
197311.0,-0.4477,0.6871,10.1658,-0.0341,0.1868,0.0271
197321.0,-0.4645,0.6776,10.1873,0.025,0.2001,0.0378
197331.0,-0.4956,0.6536,10.1514,0.0468,0.2033,0.0452
197341.0,-0.565,0.6416,10.1778,0.0463,0.2054,0.0474
197351.0,-0.6105,0.6297,10.137,0.0319,0.2128,0.0463
197361.0,-0.6895,0.6105,10.1107,0.0096,0.2166,0.0484
197371.0,-0.8284,0.6584,10.0269,-0.0202,0.2224,0.05
197381.0,-0.826,0.6249,9.991,-0.0702,0.2347,0.0484
197391.0,-0.9002,0.589,10.0221,-0.1336,0.2506,0.0474
197401.0,-0.9409,0.4645,10.1323,-0.1862,0.2623,0.049
197411.0,-0.9122,0.2634,10.319,-0.1969,0.2831,0.0521
197421.0,-0.8835,0.0742,10.4435,-0.1777,0.2932,0.0516
197431.0,-0.8308,-0.0311,10.4651,-0.1463,0.2826,0.0436
197441.0,-0.7661,-0.1173,10.3597,-0.1426,0.2661,0.0245
197451.0,-0.6584,-0.2227,10.3022,-0.1745,0.2432,-0.0027
197461.0,-0.6464,-0.2346,10.2256,-0.2054,0.232,-0.0362
197471.0,-0.6416,-0.2131,10.1873,-0.2352,0.2144,-0.0702
197481.0,-0.6105,-0.1389,10.0963,-0.2448,0.2065,-0.1006
197491.0,-0.6105,-0.0096,10.1083,-0.2251,0.2208,-0.124
197501.0,-0.5842,0.1365,10.1658,-0.1761,0.248,-0.1341
197511.0,-0.5962,0.3639,10.24,-0.1011,0.2868,-0.132
197521.0,-0.6871,0.5602,10.3884,-0.0442,0.3161,-0.1235
197531.0,-0.6895,0.6823,10.5728,0.0,0.332,-0.1101
197541.0,-0.6847,0.7183,10.8194,0.0277,0.3448,-0.0947
197551.0,-0.6393,0.747,10.999,0.0447,0.3464,-0.0862
197561.0,-0.6656,0.8116,11.303,0.0415,0.3358,-0.0835
197571.0,-0.7566,0.9577,11.5544,0.0383,0.3161,-0.0798
197581.0,-0.893,1.1253,11.8752,0.0394,0.2799,-0.0681
197591.0,-0.9529,1.233,12.1123,0.0585,0.2384,-0.0474
197601.0,-1.0032,1.3264,12.2583,0.0793,0.19,-0.0223
197611.0,-1.063,1.3934,12.3637,0.0857,0.1394,0.0032
197621.0,-1.1109,1.5012,12.5313,0.0756,0.091,0.0255
197631.0,-1.2163,1.5897,12.7419,0.0607,0.0436,0.049
197641.0,-1.2929,1.6568,12.876,0.0527,-0.0133,0.0772
197651.0,-1.312,1.7166,12.9598,0.0521,-0.075,0.1101
197661.0,-1.3288,1.7861,12.9766,0.0474,-0.1261,0.1474
197671.0,-1.3551,1.719,13.1274,0.0027,-0.1873,0.183
197681.0,-1.3719,1.5802,13.2375,-0.075,-0.2863,0.2182
197691.0,-1.3671,1.3791,13.2687,-0.166,-0.4331,0.2453
197701.0,-1.3024,1.1372,13.0436,-0.2293,-0.5922,0.2634
197711.0,-1.2689,1.0032,12.8425,-0.2304,-0.7141,0.2826
197721.0,-1.1947,0.8571,12.5504,-0.1953,-0.8093,0.3033
197731.0,-1.1037,0.893,11.7316,-0.1932,-0.9637,0.3171
197741.0,-0.9553,0.929,10.4938,-0.2932,-1.1701,0.3198
197751.0,-0.68,0.8954,8.9447,-0.4129,-1.2819,0.3251
197761.0,-0.3089,0.7614,7.6974,-0.5114,-1.242,0.3411
197771.0,-0.1317,0.5938,6.9815,-0.5518,-1.0813,0.364
197781.0,-0.0192,0.4693,6.4572,-0.5422,-0.9035,0.3927
197791.0,0.0886,0.2921,6.043,-0.5252,-0.745,0.4177
197801.0,0.2777,0.1149,5.6503,-0.5098,-0.5997,0.4374
197811.0,0.4741,-0.0575,5.3822,-0.5002,-0.4528,0.4496
197821.0,0.6943,-0.2562,5.2265,-0.4768,-0.2959,0.4576
197831.0,0.8906,-0.3687,5.2385,-0.4268,-0.1378,0.4587
197841.0,0.9912,-0.3304,5.2625,-0.3379,0.0117,0.4576
197851.0,1.063,-0.3136,5.3367,-0.2288,0.1378,0.4576
197861.0,1.0295,-0.2897,5.3917,-0.1149,0.2448,0.4613
197871.0,1.0151,-0.2753,5.3989,-0.0245,0.3139,0.4555
197881.0,1.0032,-0.2777,5.3271,0.0782,0.3757,0.4454
197891.0,0.9266,-0.2179,5.2385,0.1974,0.4448,0.4326
197901.0,0.723,0.012,5.0135,0.3549,0.5364,0.4198
197911.0,0.6416,0.3687,4.458,0.5172,0.6311,0.4209
197921.0,0.5746,0.5339,3.5147,0.5763,0.721,0.4432
197931.0,0.5986,0.3136,2.6671,0.5098,0.8849,0.4704
197941.0,0.4717,0.1365,1.8364,0.3272,1.1095,0.4757
197951.0,0.2227,-0.0479,1.2258,0.009,1.3282,0.4566
197961.0,-0.0215,-0.4549,0.4597,-0.3549,1.582,0.4299
197971.0,-0.6033,-1.1181,0.5363,-0.6572,1.9763,0.397
197981.0,-1.2522,-1.9704,1.9896,-0.7636,2.4637,0.3379
197991.0,-1.8028,-2.3152,4.2593,-0.48,2.9788,0.2522
198001.0,-2.5259,-1.6568,6.5745,0.2373,3.5205,0.1713
198011.0,-3.7014,-0.1652,8.6072,1.1653,4.0148,0.1293
198021.0,-4.9775,1.5251,10.6734,1.9385,4.3628,0.1346
198031.0,-6.256,3.1508,12.6294,2.3743,4.5496,0.1692
198041.0,-7.3861,4.3048,14.4945,2.2232,4.4437,0.1868
198051.0,-7.8171,4.4197,15.8951,1.5181,4.0435,0.1692
198061.0,-7.7309,3.565,17.1114,0.4879,3.5072,0.1128
198071.0,-7.7931,2.071,16.7714,-0.5805,2.9378,0.0037
198081.0,-8.0325,0.6081,16.6086,-1.5484,2.6036,-0.1756
198091.0,-8.2839,-0.5459,17.1138,-2.3461,2.4312,-0.373
198101.0,-8.3582,-1.7119,18.3516,-2.9942,2.1593,-0.564
198111.0,-8.3701,-2.4708,19.3906,-3.2725,1.7836,-0.7077
198121.0,-8.4108,-2.6121,20.0036,-3.0921,1.425,-0.7881
198131.0,-8.3773,-2.2529,20.1807,-2.527,1.1222,-0.7875
198141.0,-8.2839,-1.5969,19.7665,-1.8118,0.8115,-0.7199
198151.0,-8.0086,-0.996,18.9046,-1.202,0.423,-0.6135
198161.0,-7.6183,-0.5938,17.6141,-0.7859,0.0059,-0.4927
198171.0,-7.1275,-0.5291,16.2997,-0.5577,-0.3672,-0.3746
198181.0,-6.5984,-0.6728,15.3732,-0.439,-0.6774,-0.2661
198191.0,-6.2704,-0.9146,14.5783,-0.298,-0.9163,-0.166
198201.0,-5.9783,-1.0726,13.7978,-0.1054,-1.1233,-0.0729
198211.0,-5.6958,-1.3336,12.9694,0.1383,-1.2824,0.016
198221.0,-5.4516,-1.6209,12.1961,0.3991,-1.3883,0.0894
198231.0,-5.1547,-1.7933,11.236,0.6242,-1.483,0.1309
198241.0,-4.6663,-1.9058,10.1323,0.7662,-1.541,0.1314
198251.0,-4.1563,-1.9273,9.1913,0.7875,-1.5123,0.0937
198261.0,-4.0677,-1.834,8.8298,0.6832,-1.408,0.0181
198271.0,-4.1611,-1.5107,9.098,0.5454,-1.2904,-0.0788
198281.0,-4.3311,-0.9816,9.6319,0.4603,-1.1994,-0.1575
198291.0,-4.4748,-0.5243,10.1011,0.4358,-1.1797,-0.1969
198301.0,-4.5562,-0.2035,10.2855,0.4667,-1.2265,-0.2027
198311.0,-4.5107,0.0646,10.0126,0.522,-1.2952,-0.1878
198321.0,-4.288,0.1796,9.7037,0.5614,-1.3473,-0.1666
198331.0,-3.9792,0.1772,9.335,0.6008,-1.3404,-0.1442
198341.0,-3.7421,0.2179,9.1961,0.6316,-1.2675,-0.1309
198351.0,-3.6727,0.3352,9.2967,0.6556,-1.1589,-0.1229
198361.0,-3.6296,0.4501,9.7181,0.6641,-1.0637,-0.1155
198371.0,-3.5243,0.4884,10.0963,0.647,-1.0296,-0.1107
198381.0,-3.4477,0.5722,10.1514,0.5901,-1.0509,-0.1144
198391.0,-3.1077,0.5483,9.9934,0.4518,-1.0818,-0.1346
198401.0,-2.8347,0.5339,10.0963,0.215,-1.0818,-0.1777
198411.0,-2.6432,0.5291,10.3549,-0.0793,-1.1079,-0.2405
198421.0,-2.6887,0.6416,10.6686,-0.3272,-1.1462,-0.3001
198431.0,-2.7509,0.8356,11.0373,-0.4624,-1.1834,-0.3326
198441.0,-2.6815,0.9816,11.3389,-0.4528,-1.2159,-0.3209
198451.0,-2.6983,1.0439,11.4491,-0.332,-1.2563,-0.2703
198461.0,-2.6264,1.0846,11.3437,-0.158,-1.3095,-0.1995
198471.0,-2.3703,1.0271,11.1929,0.0271,-1.3564,-0.1171
198481.0,-2.1596,0.9098,10.8864,0.1846,-1.4,-0.0341
198491.0,-1.9585,0.723,10.6231,0.2985,-1.4426,0.0335
198501.0,-1.6568,0.6297,10.2113,0.3799,-1.4654,0.0857
198511.0,-1.3958,0.4501,9.8282,0.397,-1.4798,0.1208
198521.0,-0.9146,0.34,9.505,0.3719,-1.4697,0.133
198531.0,-0.5626,0.3208,9.3518,0.3139,-1.3941,0.1245
198541.0,-0.4956,0.4334,9.2177,0.1623,-1.3297,0.1011
198551.0,-0.5578,0.5195,9.2105,-0.1235,-1.3548,0.0564
198561.0,-0.5124,0.5746,9.1243,-0.4225,-1.4229,0.009
198571.0,-0.3184,0.5004,8.9543,-0.6141,-1.458,-0.017
198581.0,-0.158,0.3567,8.7939,-0.6497,-1.4335,-0.0181
198591.0,-0.0575,0.34,8.734,-0.5273,-1.3462,0.0021
198601.0,0.1341,0.431,8.5545,-0.3028,-1.2345,0.0426
198611.0,0.2634,0.4238,8.4659,-0.0889,-1.1435,0.0979
198621.0,0.2993,0.3496,8.2815,0.0947,-1.0664,0.1554
198631.0,0.4884,0.2418,8.2337,0.2453,-0.9727,0.2011
198641.0,0.7063,0.1652,8.2839,0.3656,-0.8695,0.2315
198651.0,0.8811,0.1724,8.1858,0.4113,-0.7971,0.2464
198661.0,0.9816,0.1963,8.0828,0.3608,-0.7492,0.2442
198671.0,1.0534,0.2705,8.0278,0.2559,-0.6933,0.2352
198681.0,1.0463,0.3208,8.2791,0.124,-0.6258,0.2299
198691.0,0.8978,0.2322,8.7915,0.0325,-0.5635,0.2432
198701.0,0.7925,0.0527,9.4164,0.066,-0.5167,0.2751
198711.0,0.8092,-0.1748,9.845,0.2267,-0.4997,0.3171
198721.0,0.9625,-0.5243,9.8833,0.4438,-0.5098,0.3555
198731.0,1.3048,-0.7638,9.5481,0.6359,-0.5188,0.3592
198741.0,1.6305,-0.8739,9.086,0.7066,-0.5108,0.3219
198751.0,1.8435,-0.8978,8.7053,0.6306,-0.4938,0.2458
198761.0,1.9632,-0.8092,8.4635,0.447,-0.4725,0.141
198771.0,2.0039,-0.668,8.3175,0.2081,-0.4587,0.025
198781.0,2.0351,-0.4741,8.2672,-0.016,-0.4427,-0.0899
198791.0,2.0111,-0.1508,8.1187,-0.1602,-0.4081,-0.1825
198801.0,1.9393,0.1317,7.9847,-0.2395,-0.357,-0.248
198811.0,2.0087,0.4357,7.8578,-0.2363,-0.2692,-0.281
198821.0,1.9848,0.7949,7.8003,-0.1894,-0.1442,-0.2863
198831.0,1.9417,1.0965,7.7213,-0.1389,-0.0106,-0.2666
198841.0,1.9249,1.2426,7.8985,-0.1235,0.132,-0.2304
198851.0,1.7478,1.2785,8.3151,-0.1596,0.249,-0.1948
198861.0,1.7262,1.2019,8.7125,-0.265,0.274,-0.1634
198871.0,1.7813,0.917,9.0166,-0.3948,0.2331,-0.1415
198881.0,1.8866,0.6416,9.0932,-0.4794,0.1862,-0.1309
198891.0,1.9968,0.4262,9.2368,-0.4874,0.1655,-0.1261
198901.0,2.0351,0.3041,9.3709,-0.4071,0.1729,-0.1229
198911.0,1.8675,0.3879,9.5313,-0.2772,0.1905,-0.1165
198921.0,1.6424,0.4669,9.9072,-0.1399,0.2086,-0.1038
198931.0,1.4054,0.5315,10.5848,0.0128,0.2309,-0.0857
198941.0,1.2522,0.6033,11.1259,0.1219,0.1788,-0.0702
198951.0,1.1037,0.644,11.5257,0.0873,-0.0176,-0.0772
198961.0,1.087,0.8092,11.3365,-0.0734,-0.3262,-0.1091
198971.0,0.9122,0.7925,10.9008,-0.2788,-0.6449,-0.1304
198981.0,0.9457,0.4884,10.41,-0.4347,-0.9349,-0.1415
198991.0,1.1636,0.0503,9.8569,-0.4432,-1.1126,-0.1474
199001.0,1.3958,-0.3136,9.2847,-0.406,-1.2739,-0.1745
199011.0,1.6735,-0.4405,8.1906,-0.4677,-1.5697,-0.2485
199021.0,1.7166,-0.1556,6.5338,-0.5901,-1.8858,-0.3464
199031.0,2.0375,0.4788,4.6974,-0.7333,-2.1002,-0.4236
199041.0,1.7813,1.3479,3.2633,-0.8104,-2.113,-0.4289
199051.0,1.1684,1.8004,2.5474,-0.7609,-1.9848,-0.3177
199061.0,0.7925,1.6352,2.4277,-0.4991,-1.8023,-0.1213
199071.0,0.7254,1.1181,1.8028,0.0277,-1.6086,0.1187
199081.0,1.3623,0.1891,0.5555,0.6907,-1.4005,0.3544
199091.0,2.6264,-0.7326,-2.9425,1.3803,-1.0946,0.5321
199101.0,4.7333,-1.8651,-8.4443,1.6868,-0.5598,0.6002
199111.0,4.6855,-1.3192,-14.0468,1.5022,0.5577,0.4991
199121.0,3.7781,-0.2538,-16.9629,0.5608,2.1263,0.364
199131.0,2.2984,-1.7909,-16.7355,-1.0813,3.6466,0.1421
199141.0,-0.8308,-2.0638,-13.058,-2.1753,5.5122,-0.1086
199151.0,-5.7509,-2.0614,-7.1347,-2.5956,7.141,-0.232
199161.0,-9.8665,-1.5562,-1.4198,-2.0279,8.533,-0.1873
199171.0,-13.8217,-0.3496,3.395,-0.5699,9.8595,-0.0777
199181.0,-17.0204,1.4916,8.3917,1.0525,10.9674,0.0032
199191.0,-22.5462,5.0254,14.0348,2.2641,11.7506,0.0718
199201.0,-25.5054,5.9903,20.8583,2.0843,11.458,0.1623
199211.0,-24.6555,3.6368,27.9523,1.1153,10.6917,0.2208
199221.0,-21.7896,-0.5674,37.9625,-0.2389,9.5232,0.0319
199231.0,-18.7418,-4.1515,47.1754,-1.3846,7.697,-0.2953
199241.0,-17.5687,-5.9376,52.3157,-2.1545,5.1876,-0.679
199251.0,-17.1329,-5.7772,52.2175,-2.6058,2.1364,-1.0701
199261.0,-16.9055,-4.0223,47.1227,-2.6526,-0.862,-1.3808
199271.0,-16.6445,-1.8052,39.6336,-2.2993,-3.3459,-1.5234
199281.0,-16.0699,0.4094,30.7775,-1.4761,-5.0423,-1.4537
199291.0,-14.9662,1.7765,22.8143,-0.4406,-5.9341,-1.2164
199301.0,-13.1729,2.5762,15.6365,0.7189,-6.1741,-0.8482
199311.0,-11.0349,2.5714,10.1203,1.7475,-5.9804,-0.3954
199321.0,-8.3821,2.2529,5.5282,2.5541,-5.5377,0.0894
199331.0,-5.8969,1.4437,2.162,3.0714,-4.839,0.5587
199341.0,-2.9401,0.3855,-0.9002,3.1927,-4.0361,0.9296
199351.0,-1.0798,-0.8428,-2.0279,2.9123,-2.991,1.1121
199361.0,0.0215,-1.6712,-1.6568,2.2668,-1.997,1.0642
199371.0,0.3783,-2.2769,0.0527,1.3329,-1.2877,0.8317
199381.0,0.146,-2.5762,2.0183,0.4555,-0.8168,0.5284
199391.0,0.0622,-2.7174,3.7302,-0.1884,-0.5076,0.2203
199401.0,-0.0551,-2.6983,5.2744,-0.4773,-0.1953,-0.0527
199411.0,-0.2849,-2.387,6.9504,-0.4842,0.0952,-0.2751
199421.0,-0.9673,-1.6975,8.6646,-0.282,0.3283,-0.4512
199431.0,-1.5778,-0.6919,9.6247,-0.0074,0.406,-0.5757
199441.0,-2.1907,0.3687,10.3453,0.2421,0.4337,-0.6423
199451.0,-2.557,1.4389,10.9559,0.3895,0.422,-0.6566
199461.0,-2.6959,2.2577,11.3701,0.3714,0.3347,-0.6332
199471.0,-2.7294,2.7964,11.7675,0.1889,0.1703,-0.5864
199481.0,-2.7174,3.1077,12.0117,-0.0846,-0.0314,-0.5236
199491.0,-2.7581,3.1053,12.2823,-0.3767,-0.2453,-0.447
199501.0,-2.8204,3.0023,12.5193,-0.5954,-0.4555,-0.3613
199511.0,-2.9209,2.8994,12.5815,-0.655,-0.6391,-0.2554
199521.0,-2.8922,2.6408,12.5863,-0.6029,-0.8296,-0.1304
199531.0,-2.7294,2.229,12.1697,-0.4209,-1.0046,0.0048
199541.0,-2.4014,1.7621,11.6095,-0.1724,-1.1456,0.1298
199551.0,-1.8483,1.3815,10.6997,0.1075,-1.2313,0.232
199561.0,-1.3934,1.0582,9.8162,0.3395,-1.2356,0.306
199571.0,-1.008,0.8452,9.098,0.4736,-1.2052,0.3453
199581.0,-0.6704,0.7374,8.4659,0.5295,-1.1462,0.3539
199591.0,-0.4429,0.7254,7.865,0.522,-1.0509,0.3437
199601.0,-0.2753,0.6512,7.513,0.4518,-0.9253,0.323
199611.0,-0.158,0.5602,7.422,0.3485,-0.7806,0.2932
199621.0,-0.1006,0.5962,7.4699,0.2448,-0.6279,0.2528
199631.0,0.0287,0.6273,7.7261,0.1288,-0.4975,0.2054
199641.0,0.1437,0.7326,7.8961,0.0197,-0.389,0.1697
199651.0,0.0383,0.6895,8.2696,-0.1181,-0.3033,0.1383
199661.0,-0.0383,0.747,8.5377,-0.2187,-0.2368,0.1117
199671.0,-0.0718,0.7254,9.1554,-0.2836,-0.183,0.0905
199681.0,-0.0575,0.7398,9.4834,-0.273,-0.1532,0.083
199691.0,-0.1604,0.6416,9.8641,-0.2591,-0.1469,0.0825
199701.0,-0.2897,0.6369,10.2065,-0.2017,-0.1447,0.0814
199711.0,-0.2322,0.6991,10.3406,-0.1229,-0.1548,0.0846
199721.0,-0.2155,0.5914,10.5249,-0.0835,-0.1926,0.0899
199731.0,-0.158,0.5938,10.58,-0.0431,-0.2251,0.0883
199741.0,-0.0886,0.6393,10.6207,-0.0213,-0.2533,0.0809
199751.0,-0.0646,0.7111,10.5776,-0.042,-0.3086,0.0734
199761.0,-0.0575,0.759,10.4411,-0.0777,-0.3634,0.0665
199771.0,-0.0407,0.7685,10.3693,-0.1144,-0.3959,0.0644
199781.0,0.0359,0.7087,10.3717,-0.1293,-0.4097,0.0654
199791.0,0.0215,0.6967,10.3741,-0.1048,-0.4177,0.0697
199801.0,0.0096,0.6632,10.3286,-0.0724,-0.4353,0.074
199811.0,0.1365,0.6153,10.0628,-0.0325,-0.4443,0.0745
199821.0,0.2729,0.6297,9.8617,0.0053,-0.4172,0.0692
199831.0,0.4741,0.6321,9.5337,-0.0181,-0.3863,0.0527
199841.0,0.5531,0.644,9.347,-0.125,-0.3544,0.0239
199851.0,0.565,0.723,9.2656,-0.2692,-0.3076,-0.0128
199861.0,0.5052,0.7733,9.5289,-0.4071,-0.2655,-0.0415
199871.0,0.4166,0.7877,9.8809,-0.4746,-0.2379,-0.0537
199881.0,0.3926,0.7877,10.1155,-0.448,-0.2277,-0.0474
199891.0,0.3711,0.7661,10.2615,-0.3453,-0.2123,-0.0229
199901.0,0.3136,0.7087,10.3214,-0.2214,-0.191,0.0064
199911.0,0.2945,0.5986,10.4531,-0.132,-0.1926,0.0293
199921.0,0.498,0.51,10.501,-0.0899,-0.2198,0.0388
199931.0,0.5866,0.5171,10.3358,-0.1123,-0.257,0.033
199941.0,0.6536,0.4908,10.2017,-0.2437,-0.3177,0.0096
199951.0,0.7207,0.4525,10.0509,-0.4347,-0.3964,-0.0255
199961.0,0.6776,0.3974,9.9958,-0.6236,-0.4645,-0.0607
199971.0,0.7063,0.2777,10.2065,-0.7141,-0.4922,-0.083
199981.0,0.6704,0.1915,10.5848,-0.6513,-0.48,-0.0846
199991.0,0.5626,0.2179,10.726,-0.5172,-0.5348,-0.0772
200001.0,0.6464,0.2921,10.3597,-0.3586,-0.6391,-0.0564
200011.0,0.7925,0.316,9.7636,-0.2049,-0.705,-0.0298
200021.0,1.0534,0.3998,9.0573,-0.1075,-0.7221,-0.0101
200031.0,1.1947,0.4597,8.418,-0.0995,-0.7029,-0.0032
200041.0,1.2665,0.5578,7.9918,-0.1463,-0.6577,-0.0037
200051.0,1.3838,0.5962,7.6064,-0.1916,-0.5906,-0.0021
200061.0,1.4485,0.6129,7.3837,-0.1825,-0.4736,0.0112
200071.0,1.4389,0.5962,7.3454,-0.1096,-0.2996,0.0388
200081.0,1.4868,0.5387,7.3741,-0.0277,-0.1272,0.0686
200091.0,1.5131,0.4501,7.3694,-0.0192,-0.0335,0.0857
200101.0,1.5275,0.3065,7.173,-0.0702,0.0266,0.0862
200111.0,1.5921,0.0742,7.0509,-0.1309,0.1054,0.0777
200121.0,1.5347,-0.1508,7.003,-0.1666,0.2118,0.0601
200131.0,1.47,-0.2897,7.0988,-0.1602,0.3267,0.033
200141.0,1.4078,-0.3089,7.0892,-0.0819,0.4603,0.0053
200151.0,1.3192,-0.3017,7.0006,0.0293,0.6013,-0.0181
200161.0,1.2905,-0.1987,6.6822,0.1144,0.738,-0.0447
200171.0,1.1995,0.0982,6.2513,0.125,0.8939,-0.0814
200181.0,1.0032,0.3424,5.9664,0.0176,1.0685,-0.1144
200191.0,0.7973,0.5052,6.0669,-0.1538,1.2702,-0.1378
200201.0,0.4884,0.68,6.4284,-0.3288,1.4665,-0.1431
200211.0,0.2705,0.9673,6.1483,-0.5204,1.5543,-0.1314
200221.0,-0.0479,1.0558,5.4516,-0.7726,1.6096,-0.1022
200231.0,-0.4214,0.7254,5.0494,-0.9998,1.7911,-0.0511
200241.0,-0.7757,0.2538,5.3774,-1.0951,2.0997,0.0037
200251.0,-0.9792,0.0287,5.466,-1.0775,2.3652,0.0426
200261.0,-1.1756,-0.2035,5.4444,-1.0653,2.5845,0.0654
200271.0,-1.5131,-0.2251,5.2577,-1.0211,2.8851,0.0851
200281.0,-2.0351,-0.4214,5.8802,-1.0243,3.2783,0.1048
200291.0,-2.7485,-0.565,7.2592,-1.0887,3.6466,0.1171
200301.0,-3.7302,-0.6057,8.7963,-1.2515,3.8685,0.1224
200311.0,-4.6831,-0.9697,10.4028,-1.5612,3.8658,0.1181
200321.0,-5.3295,-1.6735,11.6957,-1.9209,3.6939,0.1054
200331.0,-5.8371,-2.7198,13.6996,-2.1444,3.5471,0.0894
200341.0,-6.2225,-3.2801,16.5344,-2.0178,3.4428,0.0873
200351.0,-6.5146,-3.8188,18.8352,-1.5644,3.1916,0.0979
200361.0,-6.4356,-3.6655,20.1257,-0.969,2.7345,0.0633
200371.0,-6.6008,-3.1053,20.334,-0.464,2.1497,0.0261
200381.0,-6.6463,-2.7007,20.0538,-0.1564,1.4846,0.0
200391.0,-6.5841,-2.3511,19.5175,0.0569,0.9009,-0.017
200401.0,-6.5912,-1.8747,18.9333,0.2464,0.4214,-0.0255
200411.0,-6.699,-1.3503,18.2438,0.4049,-0.0112,-0.0138
200421.0,-6.7684,-0.8164,17.3604,0.5561,-0.3986,0.0255
200431.0,-6.6248,-0.4405,16.3644,0.6949,-0.737,0.0921
200441.0,-6.2106,-0.3926,15.4354,0.829,-1.0057,0.1783
200451.0,-5.7724,-0.5794,14.4825,0.961,-1.1994,0.2703
200461.0,-5.0949,-0.826,13.1561,1.0552,-1.3564,0.3374
200471.0,-4.5059,-1.0295,11.7531,1.0653,-1.4324,0.3672
200481.0,-3.8666,-1.2043,10.4435,0.9637,-1.4319,0.3592
200491.0,-3.3447,-1.3216,9.6127,0.7806,-1.3431,0.3161
200501.0,-3.0239,-1.3671,9.3134,0.5704,-1.2047,0.2512
200511.0,-2.8395,-1.3503,9.335,0.3767,-1.0871,0.1815
200521.0,-2.8108,-1.3958,9.4379,0.2246,-0.9998,0.1181
200531.0,-2.8012,-1.4269,9.5888,0.1458,-0.9195,0.0623
200541.0,-2.7916,-1.4557,9.8378,0.1405,-0.829,0.0154
200551.0,-2.6887,-1.4269,9.9695,0.1655,-0.7657,-0.0303
200561.0,-2.6624,-1.3575,10.149,0.1724,-0.7285,-0.0766
200571.0,-2.739,-1.1468,10.3286,0.149,-0.7093,-0.1272
200581.0,-2.8515,-0.9026,10.5848,0.1133,-0.7152,-0.174
200591.0,-2.9353,-0.6345,10.8745,0.0857,-0.7513,-0.2043
200601.0,-2.8778,-0.395,10.963,0.0979,-0.8077,-0.2155
200611.0,-2.8994,-0.1604,10.9391,0.1373,-0.8647,-0.2065
200621.0,-2.7916,0.0383,10.8122,0.1942,-0.9195,-0.1846
200631.0,-2.6671,0.1532,10.6303,0.2687,-0.9551,-0.1495
200641.0,-2.4852,0.2011,10.3358,0.3342,-0.986,-0.108
200651.0,-2.2338,0.1987,9.8952,0.365,-1.0142,-0.0718
200661.0,-2.0351,0.1891,9.3757,0.3528,-1.0115,-0.0495
200671.0,-1.7813,0.1724,8.9639,0.2948,-0.9594,-0.0404
200681.0,-1.652,0.2203,8.8538,0.2123,-0.8663,-0.0436
200691.0,-1.4988,0.3256,8.9926,0.1336,-0.7726,-0.0463
200701.0,-1.494,0.4166,9.1985,0.0841,-0.6875,-0.0426
200711.0,-1.5012,0.5698,9.3589,0.0734,-0.622,-0.0282
200721.0,-1.3767,0.5746,9.4858,0.0718,-0.5662,-0.0005
200731.0,-1.3479,0.6393,9.651,0.0654,-0.5156,0.0298
200741.0,-1.2186,0.6249,9.7612,0.0479,-0.4853,0.0596
200751.0,-1.1444,0.6009,10.0102,0.016,-0.472,0.0841
200761.0,-1.1396,0.5818,10.252,0.0069,-0.4635,0.1096
200771.0,-0.9888,0.5722,10.5082,0.0218,-0.4661,0.1405
200781.0,-0.8739,0.5578,10.7883,0.0745,-0.4757,0.1772
200791.0,-0.8356,0.4573,10.9247,0.1399,-0.5098,0.2171
200801.0,-1.1085,0.3974,10.9942,0.2081,-0.5566,0.2517
200811.0,-1.2258,0.3926,10.7476,0.281,-0.6146,0.2772
200821.0,-1.1396,0.3711,10.5034,0.2916,-0.6843,0.2863
200831.0,-0.8308,0.2993,10.0844,0.2363,-0.7396,0.2799
200841.0,-0.4764,0.1748,9.8689,0.125,-0.7657,0.2607
200851.0,-0.3136,0.103,9.6917,0.017,-0.763,0.2325
200861.0,-0.3136,0.103,9.6917,0.017,-0.763,0.2325
200871.0,-0.2921,0.1125,9.6031,-0.0724,-0.7412,0.2049
200881.0,-0.2777,0.0694,9.8067,-0.1245,-0.6673,0.1809
200891.0,-0.2777,0.0694,9.8067,-0.1245,-0.6673,0.1809
200901.0,-0.2346,0.0239,9.7803,-0.1133,-0.6726,0.1809
200911.0,-0.1556,-0.0814,9.6534,-0.0788,-0.6689,0.1836
200921.0,-0.0431,-0.237,9.7851,-0.0128,-0.6242,0.1846
200931.0,0.067,-0.2777,9.7947,0.0617,-0.5869,0.1804
200941.0,0.1484,-0.4022,9.8019,0.0905,-0.5906,0.1681
200951.0,0.2849,-0.4477,9.7181,0.099,-0.6141,0.1458
200961.0,0.3831,-0.407,9.5026,0.0889,-0.6268,0.1187
200971.0,0.486,-0.3352,9.3302,0.0697,-0.6284,0.0937
200981.0,0.4764,-0.2634,9.2201,0.0686,-0.6093,0.0756
200991.0,0.4812,-0.1221,9.1746,0.108,-0.5773,0.0702
201001.0,0.498,0.0359,9.1459,0.2059,-0.5257,0.0788
201011.0,0.4693,0.182,9.1123,0.3443,-0.4571,0.1011
201021.0,0.5267,0.3543,9.1363,0.5055,-0.3789,0.1277
201031.0,0.7015,0.51,8.9783,0.6502,-0.2996,0.1559
201041.0,0.9457,0.6129,8.7173,0.7003,-0.2288,0.1751
201051.0,1.0487,0.7159,8.4228,0.6274,-0.1532,0.1708
201061.0,1.1564,0.8619,8.2672,0.4379,-0.0623,0.1421
201071.0,1.0223,0.9529,8.5138,0.1522,0.0319,0.1022
201081.0,0.8547,0.9313,8.9639,-0.1346,0.1038,0.066
201091.0,0.6871,0.8116,9.5385,-0.3507,0.1474,0.0378
201101.0,0.5722,0.6129,10.0892,-0.4597,0.1719,0.0229
201111.0,0.5507,0.407,10.6111,-0.4576,0.1767,0.0144
201121.0,0.5962,0.2945,10.9391,-0.3725,0.157,0.0112
201131.0,0.644,0.2993,11.0253,-0.2597,0.1197,0.0101
201141.0,0.6177,0.3807,10.9822,-0.1591,0.0846,0.0112
201151.0,0.5483,0.4693,10.8098,-0.1038,0.0537,0.016
201161.0,0.4956,0.5459,10.7907,-0.1,0.0154,0.0197
201171.0,0.4812,0.5291,10.7571,-0.1219,-0.0298,0.0255
201181.0,0.4764,0.486,10.7021,-0.1431,-0.0713,0.0325
201191.0,0.5842,0.4429,10.5489,-0.1314,-0.0889,0.0388
201201.0,0.6416,0.3376,10.5249,-0.1096,-0.0841,0.0468
201211.0,0.7111,0.2658,10.3837,-0.1027,-0.0942,0.0447
201221.0,0.7973,0.2538,10.2759,-0.1032,-0.1091,0.0372
201231.0,0.8619,0.2538,10.0652,-0.1117,-0.1149,0.0309
201241.0,0.9433,0.2394,9.9168,-0.124,-0.116,0.0261
201251.0,1.0175,0.1867,9.6917,-0.1447,-0.1128,0.0197
201261.0,1.0223,0.1341,9.5337,-0.174,-0.1064,0.0112
201271.0,1.0822,0.103,9.402,-0.1905,-0.0835,0.0016
201281.0,1.1013,0.0766,9.3398,-0.1926,-0.0532,-0.0053
201291.0,1.1061,0.0024,9.1818,-0.2001,-0.0261,-0.0112
201301.0,1.0846,-0.0622,9.0477,-0.2155,-0.0085,-0.0223
201311.0,1.1085,-0.146,8.9591,-0.2309,0.0106,-0.0394
201321.0,1.0989,-0.1891,8.9663,-0.2304,0.0442,-0.0601
201331.0,1.0223,-0.0862,8.8538,-0.1937,0.0889,-0.0803
201341.0,0.905,0.0311,8.8035,-0.1277,0.1399,-0.0899
201351.0,0.7685,0.1365,8.7125,-0.0564,0.1937,-0.0873
201361.0,0.7159,0.1628,8.5952,-0.0096,0.2341,-0.0825
201371.0,0.7494,0.1269,8.4779,0.008,0.2639,-0.0873
201381.0,0.7853,0.079,8.4659,0.0085,0.2937,-0.1054
201391.0,0.8068,0.1101,8.497,0.0144,0.3235,-0.1352
201401.0,0.7709,0.2705,8.521,0.0404,0.3533,-0.1666
201411.0,0.7709,0.5411,8.6119,0.099,0.4065,-0.1878
201421.0,0.7063,0.8356,8.6862,0.1628,0.4544,-0.1916
201431.0,0.6943,1.0702,8.5281,0.1612,0.4486,-0.1852
201441.0,0.7566,1.3001,8.1451,0.0697,0.3991,-0.1756
201451.0,0.7925,1.4341,7.6399,-0.0958,0.3496,-0.158
201461.0,0.7997,1.4293,7.1922,-0.2857,0.3336,-0.1293
201471.0,0.6201,1.2881,6.766,-0.4571,0.3576,-0.091
201481.0,0.1724,1.0415,6.8714,-0.564,0.4087,-0.0617
201491.0,-0.1796,1.0606,7.0461,-0.4385,0.5209,-0.0282
201501.0,-0.3735,1.1157,7.264,-0.108,0.6832,0.0378
201511.0,-0.1915,1.0534,7.4053,0.3304,0.854,0.1362
201521.0,0.1197,1.0008,6.9887,0.7615,1.0185,0.2416
201531.0,0.1748,0.9553,6.3494,1.0009,1.168,0.3182
201541.0,0.2969,0.9313,5.5043,0.9982,1.3063,0.3549
201551.0,0.0599,1.0104,4.3167,0.7673,1.4633,0.3586
201561.0,-0.2705,0.7422,2.8778,0.2639,1.6245,0.332
201571.0,-0.9481,-0.0168,2.3463,-0.406,1.8959,0.2645
201581.0,-1.4916,-0.3591,2.296,-0.9184,2.3397,0.1586
201591.0,-2.1907,-0.6512,3.5099,-1.1994,2.9314,0.0612
201601.0,-2.8611,-0.6704,4.9392,-1.2414,3.5114,-0.0016
201611.0,-3.8092,-0.5315,6.6295,-1.2111,4.0265,-0.0394
201621.0,-4.956,-0.3089,8.837,-1.2584,4.4235,-0.0718
201631.0,-6.3518,0.2035,11.1737,-1.4452,4.6384,-0.1107
201641.0,-8.0996,0.5243,13.8912,-1.7804,4.7033,-0.1304
201651.0,-9.4212,-0.0862,17.8703,-2.1907,4.6358,-0.1155
201661.0,-9.9455,-1.2426,21.6316,-2.4818,4.2745,-0.0931
201671.0,-9.9072,-2.7701,25.3857,-2.6074,3.6343,-0.1027
201681.0,-9.3278,-3.8307,27.428,-2.5078,2.6728,-0.1447
201691.0,-8.8226,-4.6256,27.9762,-2.2402,1.5692,-0.2043
201701.0,-8.406,-4.4365,26.1854,-1.7634,0.522,-0.2634
201711.0,-8.1044,-4.1707,24.3969,-1.3106,-0.3352,-0.3235
201721.0,-7.5633,-3.1196,21.7633,-0.7891,-1.0036,-0.3469
201731.0,-7.2496,-2.2721,19.6013,-0.3852,-1.5165,-0.3225
201741.0,-6.8211,-1.4868,17.255,-0.0154,-1.9151,-0.2357
201751.0,-6.5122,-1.0295,15.4594,0.356,-2.1258,-0.099
201761.0,-5.8897,-0.9002,13.8912,0.7327,-2.2519,0.0745
201771.0,-5.2361,-1.087,12.4211,1.0706,-2.3211,0.257
201781.0,-4.6807,-1.4317,11.0564,1.375,-2.3168,0.415
201791.0,-3.8738,-1.8411,9.9096,1.649,-2.2168,0.5358
201801.0,-3.2513,-2.2721,9.0932,1.8645,-2.0353,0.6045
201811.0,-2.5594,-2.6145,8.3917,1.9608,-1.8533,0.6077
201821.0,-1.9776,-2.794,7.5513,1.9071,-1.666,0.5332
201831.0,-1.3958,-2.5786,6.8929,1.6708,-1.4186,0.3789
201841.0,-1.2713,-2.1213,7.1251,1.2148,-1.1291,0.1724
201851.0,-1.4533,-1.6496,8.0254,0.6215,-0.9594,-0.05
201861.0,-1.731,-1.1277,8.9088,0.0639,-0.9174,-0.2549
201871.0,-1.9082,-0.7087,9.4188,-0.3528,-0.9413,-0.4124
201881.0,-1.8699,-0.3879,9.56,-0.5832,-0.9599,-0.5156
201891.0,-1.8507,-0.0718,9.6295,-0.6572,-0.936,-0.5704
201901.0,-1.8699,0.2873,9.572,-0.6268,-0.8881,-0.5853
201911.0,-1.8627,0.6057,9.4499,-0.5672,-0.8471,-0.5726
201921.0,-1.8148,0.8978,9.232,-0.4874,-0.7902,-0.53
201931.0,-1.7454,0.9481,9.3063,-0.4166,-0.7136,-0.4597
201941.0,-1.5993,0.8978,9.4403,-0.34,-0.6407,-0.3773
201951.0,-1.4892,0.7638,9.7252,-0.2708,-0.5827,-0.2969
201961.0,-1.4078,0.6033,10.0916,-0.2097,-0.5571,-0.2246
201971.0,-1.3647,0.3974,10.5991,-0.1304,-0.5438,-0.1596
201981.0,-1.3647,0.2586,11.1306,-0.0298,-0.563,-0.0963
201991.0,-1.3791,0.1221,11.6095,0.0681,-0.6385,-0.041
202001.0,-1.5275,0.0407,11.8968,0.1485,-0.7732,0.008
202011.0,-1.6424,-0.2586,12.0141,0.1793,-0.9764,0.0537
202021.0,-1.4557,-0.7422,11.8537,0.2192,-1.1946,0.0772
202031.0,-1.2713,-1.0558,11.3772,0.2778,-1.3883,0.0702
202041.0,-0.9002,-1.2737,10.6805,0.3352,-1.5421,0.0463
202051.0,-0.6584,-1.4317,9.9695,0.3922,-1.6224,0.0122
202061.0,-0.3184,-1.3408,9.2919,0.4677,-1.624,-0.0346
202071.0,-0.2514,-1.0726,8.7077,0.539,-1.5272,-0.0814
202081.0,-0.1101,-0.8212,8.3318,0.5114,-1.4149,-0.125
202091.0,0.0622,-0.5962,8.2145,0.3821,-1.2941,-0.1772
202101.0,-0.0263,-0.3424,8.2935,0.1517,-1.1818,-0.2442
202111.0,-0.0958,-0.1437,8.588,-0.1719,-1.1201,-0.3219
202121.0,-0.0024,0.0239,9.1267,-0.4991,-1.0999,-0.3932
202131.0,-0.0168,0.1796,9.6654,-0.7513,-1.1307,-0.4406
202141.0,0.1293,0.2562,9.8713,-0.8493,-1.1914,-0.4443
202151.0,0.2059,0.3208,9.9311,-0.7705,-1.2191,-0.4055
202161.0,0.3519,0.3256,9.7731,-0.5369,-1.2031,-0.3299
202171.0,0.5698,0.2777,9.4786,-0.2261,-1.1595,-0.2341
202181.0,0.7159,0.1915,9.2512,0.0809,-1.0972,-0.1421
202191.0,1.0654,0.091,9.1099,0.3682,-1.0142,-0.0559
202201.0,1.324,0.0862,8.6933,0.5608,-0.9504,0.0074
202211.0,1.652,0.1149,8.3462,0.588,-0.9339,0.0399
202221.0,1.8459,0.2179,7.9272,0.5337,-0.8881,0.0532
202231.0,1.9513,0.3591,7.683,0.431,-0.8067,0.0559
202241.0,1.968,0.5698,7.5417,0.3288,-0.7066,0.0601
202251.0,1.9992,0.7566,7.4484,0.2591,-0.5853,0.0793
202261.0,1.9273,0.7973,7.5106,0.2293,-0.4395,0.1171
202271.0,1.9872,0.6728,7.7979,0.2309,-0.2645,0.1602
202281.0,2.0111,0.5052,8.0852,0.2336,-0.1133,0.1932
202291.0,2.1691,0.2729,8.4563,0.1878,-0.0192,0.2022
202301.0,2.2266,0.1365,8.746,0.1144,0.0521,0.1926
202311.0,2.2386,0.0287,9.0405,0.0016,0.0947,0.1671
202321.0,2.1979,0.0096,9.414,-0.1298,0.1101,0.132
202331.0,2.083,0.0048,9.8043,-0.2522,0.1107,0.1032
202341.0,1.9178,0.0622,10.1634,-0.3565,0.0798,0.0846
202351.0,1.7717,0.0072,10.647,-0.4156,0.0378,0.083
202361.0,1.6831,-0.079,11.0875,-0.4182,-0.0202,0.0968
202371.0,1.6735,-0.2274,11.2384,-0.4374,-0.1751,0.1054
202381.0,1.719,-0.3855,11.0109,-0.4608,-0.3794,0.1101
202391.0,1.7837,-0.5124,10.5393,-0.4411,-0.5539,0.1144
202401.0,1.8723,-0.6057,9.9671,-0.3693,-0.6891,0.1192
202411.0,2.0255,-0.6584,9.2201,-0.2246,-0.763,0.1282
202421.0,2.2075,-0.6536,8.406,-0.0255,-0.7609,0.141
202431.0,2.4134,-0.668,7.6303,0.1836,-0.6923,0.1559
202441.0,2.6073,-0.6919,7.1347,0.3704,-0.5763,0.1666
202451.0,2.6671,-0.6273,6.5146,0.4874,-0.4656,0.1628
202461.0,2.8012,-0.5842,5.9304,0.5007,-0.3799,0.141
202471.0,2.8515,-0.4956,5.454,0.4709,-0.2559,0.108
202481.0,2.8778,-0.407,4.9656,0.3964,-0.1197,0.0692
202491.0,2.8228,-0.3017,4.6471,0.3076,0.0367,0.0309
202501.0,2.7821,-0.1724,4.4365,0.2192,0.2102,-0.0011
202511.0,2.6169,-0.1197,4.2856,0.1442,0.3986,-0.0218
202521.0,2.5187,-0.1628,4.3263,0.1155,0.5976,-0.0388
202531.0,2.5666,-0.1245,4.4484,0.183,0.82,-0.0516
202541.0,2.5953,0.0599,4.2497,0.3177,1.0477,-0.0559
202551.0,2.5379,0.4142,3.7493,0.4241,1.2595,-0.0537
202561.0,2.4277,0.8643,3.1603,0.4938,1.5224,-0.0415
202571.0,2.1572,1.4916,2.478,0.5257,1.8459,-0.0064
202581.0,1.7047,2.047,2.0207,0.4608,2.2013,0.0532
202591.0,0.9816,2.4014,2.1715,0.3592,2.6015,0.1362
202601.0,0.103,2.6217,2.8515,0.3193,3.0208,0.2442
202611.0,-0.9529,2.5929,3.6847,0.3773,3.4295,0.3714
202621.0,-2.0566,2.2098,4.8866,0.5161,3.8227,0.4959
202631.0,-2.8108,1.8507,5.8945,0.7311,4.1819,0.58
202641.0,-3.3064,1.324,7.003,0.8652,4.4724,0.6093
202651.0,-3.7158,0.6847,8.5617,0.8892,4.7299,0.5869
202661.0,-4.3551,0.0599,10.6734,0.828,4.9401,0.505
202671.0,-4.8123,-0.3711,12.8856,0.6204,4.9662,0.3544
202681.0,-5.5474,-0.3615,15.0212,0.2778,4.8162,0.1575
202691.0,-6.2321,-0.2322,16.9318,-0.1979,4.4788,-0.0474
202701.0,-7.1611,-0.3184,18.5407,-0.7428,4.0244,-0.2224
202711.0,-7.8075,-0.7015,20.0634,-1.2856,3.4236,-0.381
202721.0,-7.9727,-1.142,21.4616,-1.5942,2.7728,-0.5204
202731.0,-7.7692,-0.9457,22.0243,-1.5043,2.1582,-0.6146
202741.0,-7.865,-0.419,21.9453,-1.1754,1.5857,-0.6433
202751.0,-7.9727,0.3448,21.2054,-0.6843,1.102,-0.6039
202761.0,-8.0948,1.2785,20.1759,-0.1724,0.7189,-0.5188
202771.0,-8.0445,1.9273,18.9166,0.1932,0.3544,-0.4012
202781.0,-7.8195,2.1045,17.8224,0.3959,0.0585,-0.2703
202791.0,-7.4268,2.083,16.8241,0.5007,-0.1341,-0.1522
202801.0,-7.1084,1.8627,16.1393,0.5225,-0.2474,-0.0612
202811.0,-6.6535,1.5682,15.7155,0.4566,-0.3246,0.0011
202821.0,-6.1052,1.1133,15.4857,0.265,-0.4337,0.0239
202831.0,-5.5929,0.6584,15.1505,-0.0436,-0.6311,-0.0032
202841.0,-5.1164,0.1365,14.6884,-0.415,-0.8759,-0.0692
202851.0,-4.7573,-0.2729,14.1904,-0.7146,-1.0738,-0.1517
202861.0,-4.4053,-0.4453,13.8193,-0.8578,-1.1983,-0.2309
202871.0,-4.391,-0.4214,13.4387,-0.8375,-1.2744,-0.2921
202881.0,-4.2713,-0.1748,12.8617,-0.7184,-1.3409,-0.3267
202891.0,-4.2353,0.1053,12.2368,-0.5843,-1.3851,-0.34
202901.0,-4.0989,0.3065,11.789,-0.4778,-1.3888,-0.3331
202911.0,-3.9265,0.4764,11.7053,-0.4124,-1.3558,-0.3171
202921.0,-3.8092,0.5842,11.8298,-0.4475,-1.3947,-0.3033
202931.0,-3.7517,0.565,11.9375,-0.538,-1.5192,-0.2905
202941.0,-3.6296,0.5076,11.8872,-0.5859,-1.657,-0.2756
202951.0,-3.4117,0.5435,11.5544,-0.5624,-1.7826,-0.2506
202961.0,-3.2585,0.4956,11.2049,-0.4816,-1.8895,-0.2017
202971.0,-3.0047,0.419,10.738,-0.3443,-1.988,-0.1405
202981.0,-2.7581,0.3496,10.0987,-0.1628,-2.0492,-0.0718
202991.0,-2.3798,0.2897,9.3757,0.0452,-2.072,0.0016
203001.0,-1.9345,0.1844,8.5114,0.2299,-2.0673,0.0734
203011.0,-1.47,0.0862,7.7381,0.3661,-2.0109,0.132
203021.0,-1.0415,-0.0263,7.0749,0.4571,-1.881,0.1735
203031.0,-0.6728,-0.1676,6.687,0.4677,-1.7209,0.1948
203041.0,-0.4717,-0.3519,6.4979,0.4017,-1.5788,0.1889
203051.0,-0.2203,-0.5291,6.292,0.3028,-1.4532,0.1618
203061.0,0.1125,-0.8021,5.9903,0.1905,-1.3255,0.1149
203071.0,0.5435,-1.0271,5.5138,0.0686,-1.176,0.042
203081.0,0.929,-1.0343,5.1308,-0.0644,-0.9504,-0.0532
203091.0,1.0942,-0.9984,5.2122,-0.2639,-0.6779,-0.1607
203101.0,0.9529,-0.8571,5.8802,-0.4965,-0.422,-0.2698
203111.0,0.7518,-0.6416,6.6726,-0.687,-0.2517,-0.364
203121.0,0.6105,-0.3998,7.2808,-0.7982,-0.1575,-0.4204
203131.0,0.3903,-0.2801,7.6758,-0.8359,-0.0857,-0.4401
203141.0,0.3472,-0.2921,8.102,-0.8099,-0.0239,-0.4337
203151.0,0.3448,-0.3639,8.4803,-0.7279,0.041,-0.4135
203161.0,0.3448,-0.3807,8.8442,-0.6279,0.0825,-0.3932
203171.0,0.2921,-0.3974,9.098,-0.5247,0.0889,-0.3719
203181.0,0.1484,-0.3687,9.3039,-0.4241,0.0809,-0.3517
203191.0,0.0599,-0.2705,9.3565,-0.3044,0.0835,-0.3315
203201.0,0.0168,-0.1867,9.4643,-0.1761,0.1197,-0.3049
203211.0,-0.0479,-0.1484,9.596,-0.0782,0.1506,-0.2783
203221.0,-0.0934,-0.1437,9.7324,-0.0223,0.1692,-0.2565
203231.0,-0.1149,-0.0527,9.912,0.0027,0.1862,-0.2442
203241.0,-0.0599,0.079,10.1466,-0.0154,0.1932,-0.2336
203251.0,-0.1006,0.1317,10.4052,-0.0702,0.1836,-0.2219
203261.0,-0.1269,0.2418,10.6063,-0.1357,0.1463,-0.2107
203271.0,-0.1149,0.3567,10.6997,-0.1852,0.1059,-0.1921
203281.0,-0.1987,0.431,10.7619,-0.2288,0.0607,-0.158
203291.0,-0.2705,0.3615,10.9056,-0.2474,0.0197,-0.1155
203301.0,-0.17,0.3089,10.9343,-0.223,-0.0128,-0.0633
203311.0,-0.0814,0.2011,10.9511,-0.1857,-0.0495,-0.0069
203321.0,-0.0431,0.0335,10.8888,-0.1469,-0.0905,0.0463
203331.0,-0.0311,-0.1652,10.7069,-0.1128,-0.1282,0.0921
203341.0,0.0575,-0.4453,10.5608,-0.0926,-0.1666,0.1229
203351.0,0.1556,-0.6105,10.3645,-0.0569,-0.182,0.1394
203361.0,0.2227,-0.7638,10.3597,-0.0053,-0.1596,0.1458
203371.0,0.2131,-0.8739,10.3908,0.0548,-0.1336,0.1463
203381.0,0.249,-0.8882,10.4842,0.1054,-0.1245,0.1415
203391.0,0.2658,-0.8164,10.4962,0.1527,-0.1213,0.1341
203401.0,0.2969,-0.7542,10.5321,0.1729,-0.1282,0.1277
203411.0,0.3256,-0.7374,10.5872,0.1437,-0.1538,0.1208
203421.0,0.2873,-0.7039,10.5728,0.0788,-0.2081,0.1059
203431.0,0.1987,-0.6967,10.3765,-0.0021,-0.2804,0.0862
203441.0,0.237,-0.8452,10.0389,-0.0639,-0.3342,0.0617
203451.0,0.4214,-0.9601,9.6989,-0.074,-0.3145,0.0351
203461.0,0.6249,-1.0918,9.5433,-0.0708,-0.24,0.0021
203471.0,0.747,-1.1133,9.5912,-0.0788,-0.1421,-0.0415
203481.0,0.6847,-1.008,9.8354,-0.1171,-0.0745,-0.0921
203491.0,0.6105,-0.8212,10.0652,-0.2038,-0.0851,-0.141
203501.0,0.5483,-0.6201,10.2041,-0.2847,-0.1325,-0.1761
203511.0,0.5578,-0.3807,10.1801,-0.3219,-0.1788,-0.1868
203521.0,0.5267,-0.1628,10.1394,-0.3049,-0.2081,-0.1671
203531.0,0.5315,-0.1006,9.8713,-0.2554,-0.241,-0.1224
203541.0,0.6321,-0.2011,9.4451,-0.2139,-0.2724,-0.0692
203551.0,0.7973,-0.4836,9.0309,-0.1878,-0.2687,-0.025
203561.0,1.0295,-0.8523,8.7173,-0.1564,-0.2224,-0.0005
203571.0,1.2426,-1.166,8.5234,-0.1288,-0.1671,-0.0016
203581.0,1.4317,-1.3288,8.3031,-0.1038,-0.107,-0.0282
203591.0,1.5083,-1.3838,8.0421,-0.0841,-0.0452,-0.067
203601.0,1.5514,-1.3264,7.8314,-0.074,0.025,-0.1171
203611.0,1.5538,-1.1133,7.6902,-0.0649,0.1006,-0.1628
203621.0,1.4605,-0.8571,7.5657,-0.0654,0.1655,-0.1969
203631.0,1.3647,-0.6297,7.4292,-0.0665,0.2198,-0.215
203641.0,1.3312,-0.3903,7.2042,-0.0612,0.2799,-0.2198
203651.0,1.2977,-0.2562,6.9887,-0.0692,0.3523,-0.216
203661.0,1.2689,-0.1341,6.7995,-0.0889,0.4395,-0.2065
203671.0,1.2043,0.0144,6.5601,-0.1282,0.5177,-0.1937
203681.0,1.0199,0.1437,6.4859,-0.1916,0.5954,-0.1745
203691.0,0.7111,0.3017,6.4189,-0.2373,0.6843,-0.1383
203701.0,0.3304,0.2466,6.6367,-0.2267,0.7976,-0.0814
203711.0,-0.182,0.0263,7.0605,-0.1235,0.9227,-0.0085
203721.0,-0.2634,-0.328,7.5776,0.0702,1.0413,0.0612
203731.0,-0.2993,-0.668,8.0038,0.3374,1.151,0.1144
203741.0,-0.2753,-0.9385,8.157,0.5848,1.2223,0.1415
203751.0,-0.2394,-1.1205,8.1379,0.7285,1.2574,0.1304
203761.0,-0.1556,-1.221,7.8961,0.7199,1.267,0.0814
203771.0,-0.1676,-1.1301,7.5776,0.5518,1.26,-0.0005
203781.0,-0.146,-1.0487,7.3454,0.257,1.243,-0.0926
203791.0,-0.8523,-1.0151,7.355,-0.0686,1.2686,-0.1783
203801.0,-1.3934,-1.0056,7.8314,-0.2645,1.3255,-0.248
203811.0,-1.8028,-0.8667,8.3031,-0.2219,1.4314,-0.2788
203821.0,-1.913,-0.7997,8.6622,-0.0436,1.5149,-0.274
203831.0,-1.9225,-0.7853,8.4228,0.19,1.5766,-0.2506
203841.0,-1.8818,-0.6488,7.7165,0.3704,1.6533,-0.2442
203851.0,-2.0207,-0.4262,6.8809,0.4188,1.7996,-0.2623
203861.0,-2.873,-0.237,6.4045,0.2937,2.03,-0.2943
203871.0,-3.5937,-0.1796,6.8977,0.1091,2.3195,-0.3358
203881.0,-4.4149,-0.067,7.9416,0.0144,2.6669,-0.3629
203891.0,-5.0996,-0.1676,9.4954,-0.0325,2.9373,-0.3725
203901.0,-5.8873,-0.1389,11.4036,0.0761,3.1458,-0.3709
203911.0,-6.3231,0.3065,12.8808,0.3347,3.2725,-0.3576
203921.0,-6.6319,0.8643,13.9486,0.5582,3.3177,-0.3203
203931.0,-7.118,1.1779,14.8991,0.563,3.256,-0.2857
203941.0,-7.7117,1.3743,15.9238,0.3693,3.1294,-0.2746
203951.0,-8.3606,1.6041,17.4418,0.0335,2.9681,-0.2836
203961.0,-8.5305,1.2953,19.1129,-0.3805,2.6893,-0.2703
203971.0,-8.7077,0.5555,20.99,-0.7881,2.2689,-0.2645
203981.0,-9.0453,0.1604,22.4241,-1.0105,1.7634,-0.265
203991.0,-9.2584,0.0239,23.2501,-1.1153,1.1334,-0.2645
204001.0,-8.9687,-0.2346,23.2405,-1.1653,0.3645,-0.2458
204011.0,-8.4755,-0.5578,22.448,-1.0876,-0.3852,-0.2043
204021.0,-7.8721,-0.6536,20.8487,-0.8663,-1.0238,-0.149
204031.0,-7.367,-0.5794,18.8591,-0.5784,-1.5038,-0.0825
204041.0,-6.9887,-0.4166,16.6924,-0.3017,-1.8342,-0.0011
204051.0,-6.5434,-0.3998,14.7267,-0.1048,-2.0433,0.0803
204061.0,-6.0885,-0.4645,13.0771,0.0309,-2.1396,0.1522
204071.0,-5.5593,-0.6105,11.7316,0.1117,-2.1471,0.2086
204081.0,-4.9177,-0.8667,10.5345,0.1591,-2.0859,0.2453
204091.0,-4.2473,-1.1229,9.8019,0.1878,-1.9443,0.2549
204101.0,-3.6512,-1.3001,9.3877,0.1767,-1.782,0.2384
204111.0,-3.3208,-1.4509,9.2799,0.1155,-1.6442,0.1958
204121.0,-3.1771,-1.4629,9.4116,0.0676,-1.5261,0.1362
204131.0,-3.0837,-1.3431,9.7516,0.0665,-1.4314,0.075
204141.0,-3.0239,-1.142,9.8881,0.1261,-1.376,0.025
204151.0,-2.8443,-0.9816,9.809,0.1884,-1.35,-0.0112
204161.0,-2.6983,-0.8308,9.675,0.2176,-1.3196,-0.0516
204171.0,-2.557,-0.656,9.6031,0.1724,-1.2824,-0.1006
204181.0,-2.5067,-0.5052,9.6558,0.0399,-1.2749,-0.1527
204191.0,-2.5546,-0.3879,9.7612,-0.133,-1.3117,-0.2091
204201.0,-2.5594,-0.2131,9.8019,-0.2559,-1.3516,-0.249
204211.0,-2.5857,-0.1245,9.9335,-0.3161,-1.3776,-0.2639
204221.0,-2.5091,-0.0359,9.9934,-0.3049,-1.4096,-0.2613
204231.0,-2.2434,0.1197,9.8881,-0.2283,-1.4463,-0.24
204241.0,-1.9465,0.1987,9.4762,-0.1575,-1.4963,-0.2001
204251.0,-1.5754,0.146,8.8849,-0.1517,-1.5527,-0.1607
204261.0,-1.2833,0.0431,8.2863,-0.1958,-1.5836,-0.1346
204271.0,-0.996,-0.0215,7.7668,-0.249,-1.5777,-0.1176
204281.0,-0.8308,-0.091,7.5369,-0.2794,-1.5351,-0.1011
204291.0,-0.7685,-0.1413,7.3981,-0.2533,-1.4692,-0.0756
204301.0,-0.7518,-0.182,7.4651,-0.1394,-1.3856,-0.0436
204311.0,-0.6057,-0.2227,7.3813,0.0591,-1.2978,0.0053
204321.0,-0.2682,-0.5243,6.8833,0.2772,-1.2249,0.0623
204331.0,0.3304,-0.9649,5.9328,0.415,-1.1318,0.091
204341.0,0.9577,-1.3192,4.8291,0.3948,-0.9684,0.0585
204351.0,1.3312,-1.573,4.2928,0.1809,-0.6992,-0.0399
204361.0,1.4341,-1.6161,4.4197,-0.1692,-0.4012,-0.1783
204371.0,1.257,-1.6496,5.2936,-0.5859,-0.1575,-0.3283
204381.0,0.9816,-1.4892,6.2273,-0.8977,0.0005,-0.455
204391.0,0.7877,-1.2258,7.0222,-1.0472,0.1101,-0.538
204401.0,0.6009,-0.9529,7.7572,-1.0126,0.2352,-0.5603
204411.0,0.4549,-0.6464,8.4898,-0.854,0.3368,-0.5332
204421.0,0.3615,-0.328,9.1028,-0.6444,0.3879,-0.4725
204431.0,0.1772,-0.0048,9.5409,-0.422,0.3975,-0.3826
204441.0,-0.0503,0.1652,9.8785,-0.2325,0.3688,-0.2735
204451.0,-0.0934,0.1484,10.2615,-0.0665,0.323,-0.1559
204461.0,-0.1006,-0.0048,10.568,0.0968,0.2671,-0.0394
204471.0,-0.0263,-0.1772,10.7212,0.2506,0.1921,0.0644
204481.0,0.091,-0.3974,10.5608,0.3709,0.107,0.1474
204491.0,0.1269,-0.6057,10.3501,0.4268,0.0447,0.2033
204501.0,0.1365,-0.7135,10.228,0.423,0.0144,0.2272
204511.0,0.0814,-0.7159,10.228,0.3922,-0.0005,0.2341
204521.0,0.0455,-0.7374,10.331,0.3528,-0.0298,0.2357
204531.0,0.0096,-0.7949,10.2783,0.3411,-0.0575,0.2373
204541.0,0.0527,-0.8691,10.1969,0.3618,-0.0596,0.2347
204551.0,0.1939,-0.905,10.1131,0.4017,-0.0319,0.224
204561.0,0.2801,-0.8356,10.0628,0.4198,0.0074,0.2022
204571.0,0.17,-0.6967,10.0197,0.3874,0.0346,0.1724
204581.0,0.0575,-0.5363,10.0892,0.3198,0.0569,0.141
204591.0,-0.0311,-0.407,10.1059,0.2379,0.0814,0.1149
204601.0,-0.0335,-0.3807,10.2161,0.1399,0.0974,0.0921
204611.0,-0.0455,-0.4381,10.3358,0.042,0.1208,0.0692
204621.0,-0.0407,-0.5243,10.5919,-0.041,0.1394,0.0474
204631.0,-0.0575,-0.5722,10.8242,-0.1032,0.1394,0.0277
204641.0,-0.158,-0.6105,11.0205,-0.1346,0.1203,0.0096
204651.0,-0.1724,-0.565,11.1235,-0.1181,0.1,-0.0021
204661.0,-0.2562,-0.4956,11.2767,-0.0734,0.0851,-0.0021
204671.0,-0.2538,-0.5052,11.303,-0.0335,0.0537,0.0032
204681.0,-0.2849,-0.4501,11.4227,0.0112,0.0197,0.009
204691.0,-0.2969,-0.3591,11.485,0.0718,-0.0144,0.0218
204701.0,-0.2586,-0.3376,11.5017,0.1378,-0.0612,0.0404
204711.0,-0.2658,-0.3376,11.3485,0.1932,-0.116,0.058
204721.0,-0.2346,-0.3639,11.2168,0.2363,-0.1692,0.0702
204731.0,-0.1341,-0.3567,10.884,0.2831,-0.2027,0.0729
204741.0,-0.0287,-0.3448,10.489,0.3028,-0.2192,0.0692
204751.0,0.2155,-0.3663,10.0365,0.2735,-0.2059,0.0527
204761.0,0.3112,-0.3543,9.6438,0.1777,-0.157,0.0239
204771.0,0.34,-0.3496,9.5074,0.0223,-0.1038,-0.0144
204781.0,0.3232,-0.2993,9.5505,-0.1458,-0.0516,-0.0521
204791.0,0.2562,-0.2729,9.8857,-0.29,-0.0112,-0.0788
204801.0,0.2251,-0.2682,10.137,-0.3656,0.0021,-0.0899
204811.0,0.2107,-0.3112,10.3765,-0.3672,0.0,-0.0841
204821.0,0.2658,-0.3663,10.4483,-0.3177,-0.0144,-0.066
204831.0,0.3639,-0.3759,10.4172,-0.2554,-0.0372,-0.0474
204841.0,0.4286,-0.3687,10.2448,-0.2166,-0.0734,-0.0309
204851.0,0.5004,-0.3639,10.058,-0.2304,-0.132,-0.0197
204861.0,0.5555,-0.407,9.7468,-0.2714,-0.2011,-0.0122
204871.0,0.6273,-0.4812,9.3925,-0.3108,-0.2597,-0.0037
204881.0,0.656,-0.5914,9.0884,-0.3108,-0.2911,0.0048
204891.0,0.7326,-0.6823,8.7508,-0.2496,-0.2884,0.016
204901.0,0.8571,-0.7877,8.3821,-0.1383,-0.2671,0.0271
204911.0,1.1205,-0.8739,8.0158,0.0133,-0.2081,0.033
204921.0,1.494,-0.9002,7.9033,0.1783,-0.1133,0.0282
204931.0,1.652,-0.7973,7.9559,0.3421,0.0176,0.0117
204941.0,1.5251,-0.3352,7.8913,0.4448,0.1027,-0.0197
204951.0,1.2641,0.3065,7.252,0.3837,0.0873,-0.0633
204961.0,1.1803,0.6704,6.1411,0.1341,0.05,-0.1096
204971.0,1.087,0.8739,5.3247,-0.2559,0.0772,-0.157
204981.0,0.9481,1.1732,4.707,-0.63,0.1974,-0.1889
204991.0,0.7494,1.1827,4.6998,-0.9504,0.3539,-0.174
205001.0,0.4381,1.063,4.6926,-1.102,0.5183,-0.1011
205011.0,0.0407,0.8332,4.3958,-1.1084,0.6726,0.0021
205021.0,-0.2969,0.3472,4.1683,-1.0233,0.8306,0.1192
205031.0,-0.6752,-0.2083,4.5681,-0.7721,1.0743,0.223
205041.0,-0.7422,-0.4525,4.9967,-0.2692,1.3771,0.3145
205051.0,-0.6321,-0.4908,4.9201,0.3618,1.6852,0.4044
205061.0,-0.656,-0.4741,4.4604,0.9179,2.0029,0.473
205071.0,-0.9577,-0.1748,3.3998,1.2318,2.3429,0.5007
205081.0,-1.5586,0.0958,1.9154,1.0972,2.6366,0.4784
205091.0,-1.7861,-0.1508,0.1221,0.4417,2.858,0.397
205101.0,-2.1428,-0.8763,-1.2617,-0.5098,3.3151,0.282
205111.0,-3.6607,-1.9082,0.0383,-1.5681,4.1052,0.1389
205121.0,-5.9616,-2.7916,3.3447,-2.5483,4.797,-0.0117
205131.0,-7.3981,-3.8618,7.3957,-3.272,5.1168,-0.1101
205141.0,-8.8729,-4.8123,12.7084,-3.372,5.385,-0.1304
205151.0,-9.3709,-5.1044,17.0898,-2.8872,5.2823,-0.1022
205161.0,-9.7564,-5.0613,20.1281,-2.0683,4.922,-0.0383
205171.0,-10.094,-4.2832,21.5502,-1.1685,4.4176,0.0239
205181.0,-10.489,-3.4884,22.4289,-0.5715,3.7583,0.0559
205191.0,-10.501,-2.5139,22.4049,-0.3283,2.9138,0.0569
205201.0,-9.6989,-2.4972,22.2421,-0.3778,2.0204,0.0745
205211.0,-9.5816,-2.8395,21.567,-0.4044,1.2414,0.1171
205221.0,-10.2639,-2.4277,20.7889,-0.2187,0.679,0.1442
205231.0,-10.6422,-1.4461,19.5056,0.0192,0.174,0.1932
205241.0,-9.9551,-1.561,18.8184,0.0984,-0.3991,0.2873
205251.0,-8.9136,-2.1332,17.8991,0.2996,-0.8626,0.4033
205261.0,-8.0397,-2.5235,17.0946,0.6694,-1.1547,0.497
205271.0,-7.58,-2.308,16.0555,1.1297,-1.3234,0.572
205281.0,-7.3933,-1.8124,15.2175,1.4857,-1.4649,0.6343
205291.0,-7.1395,-1.3096,14.5089,1.6559,-1.6378,0.6933
205301.0,-6.6367,-1.0822,13.9175,1.6543,-1.8337,0.745
205311.0,-6.1052,-1.1325,13.3501,1.5644,-2.0055,0.7886
205321.0,-5.782,-1.3431,13.0987,1.5016,-2.0625,0.821
205331.0,-5.5809,-1.5275,13.1394,1.4532,-2.1125,0.829
205341.0,-5.3032,-1.7909,12.8952,1.3446,-2.2684,0.7987
205351.0,-4.9488,-1.9944,12.1123,1.2084,-2.4318,0.7285
205361.0,-4.6519,-2.0303,11.3437,1.0248,-2.5105,0.6135
205371.0,-4.4412,-1.8794,10.7739,0.7753,-2.5494,0.4635
205381.0,-4.2593,-1.6424,10.2639,0.4975,-2.6004,0.3012
205391.0,-4.051,-1.403,9.8713,0.2916,-2.618,0.1543
205401.0,-3.711,-1.1612,9.5672,0.2352,-2.5611,0.0458
205411.0,-3.4979,-0.8667,9.3039,0.3049,-2.4413,-0.0223
205421.0,-3.2872,-0.5555,9.153,0.4353,-2.2998,-0.0585
205431.0,-3.0263,-0.1508,8.6048,0.5385,-2.1966,-0.0772
205441.0,-2.6264,0.0431,7.9655,0.5013,-2.1418,-0.0984
205451.0,-2.3224,0.2346,7.3502,0.4108,-2.0247,-0.1282
205461.0,-1.9656,0.3903,7.2472,0.3241,-1.8172,-0.1628
205471.0,-1.7262,0.5291,7.4651,0.2708,-1.5889,-0.1884
205481.0,-1.5083,0.7063,7.774,0.2618,-1.3925,-0.1974
205491.0,-1.2809,0.7925,7.841,0.2613,-1.2568,-0.1958
205501.0,-0.9242,0.814,7.6686,0.2474,-1.1318,-0.1894
205511.0,-0.6752,0.8356,7.4771,0.1671,-0.9998,-0.1932
205521.0,-0.5028,0.826,7.422,-0.0037,-0.87,-0.2112
205531.0,-0.4405,0.838,7.6614,-0.2304,-0.7524,-0.2389
205541.0,-0.2753,0.8236,8.011,-0.4635,-0.6651,-0.2629
205551.0,-0.2658,0.7638,8.418,-0.6497,-0.6013,-0.2746
205561.0,-0.2729,0.6321,8.9759,-0.7306,-0.5534,-0.2677
205571.0,-0.2155,0.4956,9.4068,-0.6816,-0.5231,-0.241
205581.0,0.0168,0.3759,9.6438,-0.5523,-0.5268,-0.2038
205591.0,0.103,0.3184,9.6414,-0.3725,-0.5263,-0.1596
205601.0,0.2346,0.2729,9.3422,-0.2293,-0.5396,-0.1187
205611.0,0.3783,0.3017,8.9926,-0.1697,-0.5545,-0.083
205621.0,0.4405,0.3089,8.6766,-0.1932,-0.5529,-0.058
205631.0,0.4717,0.3065,8.6287,-0.249,-0.5257,-0.0378
205641.0,0.4573,0.2418,8.679,-0.2794,-0.4885,-0.0112
205651.0,0.498,0.146,8.7005,-0.273,-0.4576,0.0213
205661.0,0.5722,0.0072,8.6383,-0.2192,-0.4225,0.0548
205671.0,0.6273,-0.1556,8.6311,-0.1426,-0.3693,0.0825
205681.0,0.7326,-0.3424,8.6981,-0.0596,-0.3022,0.1022
205691.0,0.8571,-0.5171,8.7532,0.0005,-0.2485,0.1086
205701.0,0.996,-0.6081,8.5808,-0.0101,-0.2448,0.0915
205711.0,1.0271,-0.6393,8.3677,-0.0761,-0.2352,0.0585
205721.0,1.063,-0.565,8.3127,-0.1559,-0.1825,0.0181
205731.0,1.0391,-0.4453,8.4252,-0.2171,-0.0979,-0.0154
205741.0,0.8691,-0.3304,8.7652,-0.2575,-0.0223,-0.0351
205751.0,0.7326,-0.2322,9.0621,-0.2677,0.0335,-0.0452
205761.0,0.6393,-0.1437,9.3996,-0.2315,0.0772,-0.0383
205771.0,0.5674,-0.2442,9.7205,-0.1783,0.1011,-0.0229
205781.0,0.6608,-0.2849,9.8378,-0.1208,0.1016,-0.0128
205791.0,0.7135,-0.3065,10.0006,-0.0857,0.0926,-0.0096
205801.0,0.7039,-0.2682,10.0173,-0.0931,0.0665,-0.0112
205811.0,0.6057,-0.2562,10.0844,-0.1282,0.0266,-0.0122
205821.0,0.5315,-0.2586,10.1227,-0.1522,-0.0208,-0.0069
205831.0,0.5267,-0.3376,10.0748,-0.1378,-0.0607,0.0037
205841.0,0.6009,-0.4381,9.9599,-0.0793,-0.0851,0.0213
205851.0,0.7135,-0.5076,9.6486,0.0005,-0.0878,0.0357
205861.0,0.747,-0.5291,9.3829,0.0569,-0.074,0.0383
205871.0,0.7638,-0.5866,9.1674,0.0654,-0.0495,0.0277
205881.0,0.7614,-0.5866,9.0166,0.05,-0.0074,0.0101
205891.0,0.7614,-0.5555,9.098,0.016,0.0351,-0.0117
205901.0,0.7685,-0.5076,9.1554,-0.0085,0.0692,-0.0319
205911.0,0.6943,-0.4214,9.2225,0.0,0.1048,-0.0468
205921.0,0.6033,-0.2251,9.2991,0.0388,0.1421,-0.049
205931.0,0.4884,-0.0215,9.4044,0.0947,0.174,-0.0362
205941.0,0.4286,0.1269,9.414,0.1431,0.1921,-0.0122
205951.0,0.407,0.1604,9.426,0.1767,0.2011,0.0186
205961.0,0.4381,0.1796,9.4403,0.1926,0.2049,0.0506
205971.0,0.4549,0.1197,9.505,0.1884,0.1958,0.075
205981.0,0.5195,0.1915,9.493,0.1921,0.1756,0.0926
205991.0,0.6847,0.2562,9.3948,0.1942,0.1501,0.1123
206001.0,0.7781,0.2538,9.1554,0.1783,0.1107,0.1394
206011.0,0.8164,0.2274,8.8538,0.1532,0.0718,0.1655
206021.0,0.7685,0.1053,8.4946,0.1203,0.0399,0.1857
206031.0,0.8068,-0.0072,8.1379,0.1091,0.017,0.1985
206041.0,0.8739,-0.1317,7.6519,0.1591,0.0335,0.2011
206051.0,1.0319,-0.2059,6.9336,0.2432,0.0905,0.1958
206061.0,1.1205,-0.1915,6.2034,0.3257,0.2107,0.1719
206071.0,1.1253,0.067,5.6862,0.3858,0.3842,0.1325
206081.0,1.2019,0.5387,5.2122,0.423,0.5965,0.0984
206091.0,1.0463,1.0175,4.7214,0.4044,0.8429,0.0851
206101.0,0.7398,1.4293,4.7022,0.298,1.1073,0.0867
206111.0,0.4238,1.9824,4.4604,0.1713,1.3505,0.1032
206121.0,0.0192,2.4924,3.9528,-0.0372,1.5495,0.1447
206131.0,-0.7733,2.6671,3.0765,-0.3294,1.7608,0.2112
206141.0,-1.5083,1.9752,3.3255,-0.6534,2.0736,0.2927
206151.0,-2.2434,0.8811,5.3247,-0.7162,2.5451,0.3704
206161.0,-2.4732,-0.0599,7.501,-0.4065,2.9442,0.4257
206171.0,-2.5067,-0.7805,9.3206,0.1181,3.2203,0.4496
206181.0,-2.9904,-0.8882,10.6159,0.6987,3.4502,0.422
206191.0,-3.5075,-0.5459,11.3342,1.0073,3.4774,0.3214
206201.0,-4.0342,-0.2274,11.8585,0.9344,3.3874,0.1783
206211.0,-4.5155,-0.0024,12.5049,0.5236,3.2278,0.0085
206221.0,-4.774,0.1413,12.7611,-0.1761,2.9005,-0.1788
206231.0,-4.7214,-0.079,12.6701,-1.0472,2.4616,-0.3501
206241.0,-4.81,-0.4142,12.1458,-1.7969,2.137,-0.4699
206251.0,-5.1715,-0.8859,11.8106,-2.3392,1.9534,-0.5396
206261.0,-5.6838,-1.3264,12.0021,-2.6313,1.8267,-0.5688
206271.0,-5.8419,-1.6544,11.9471,-2.5733,1.7193,-0.5433
206281.0,-5.6767,-2.1859,11.8872,-2.2434,1.6506,-0.4789
206291.0,-5.6096,-2.3727,11.8657,-1.6746,1.6847,-0.4124
206301.0,-6.0501,-1.8579,11.6047,-0.9711,1.7868,-0.3544
206311.0,-6.031,-1.4629,11.8968,-0.3762,1.8464,-0.2911
206321.0,-6.5027,-0.6345,11.327,0.1517,1.9241,-0.2219
206331.0,-6.7445,-0.3543,10.9846,0.2879,1.9278,-0.1767
206341.0,-6.9312,-0.3376,10.8074,0.0559,1.8837,-0.1713
206351.0,-7.446,-0.826,11.8058,-0.3618,1.881,-0.2102
206361.0,-7.8602,-1.3815,13.5632,-0.7146,1.8496,-0.2629
206371.0,-8.0924,-1.9489,15.7586,-0.8567,1.7315,-0.3124
206381.0,-8.2959,-2.1237,17.3508,-0.7859,1.4378,-0.3544
206391.0,-8.3917,-1.9225,18.3061,-0.5752,1.0217,-0.3831
206401.0,-8.43,-1.5586,18.646,-0.2682,0.6002,-0.3719
206411.0,-8.4827,-0.8212,18.4737,0.0048,0.166,-0.3464
206421.0,-8.43,-0.1891,17.9876,0.1101,-0.3171,-0.2953
206431.0,-8.3246,0.2274,17.2335,0.0921,-0.8258,-0.2219
206441.0,-8.1858,0.4908,16.4673,0.0851,-1.242,-0.125
206451.0,-8.023,0.6416,15.84,0.19,-1.5351,0.0059
206461.0,-7.9033,0.5842,15.445,0.3863,-1.7507,0.1639
206471.0,-7.7548,0.3663,15.2247,0.6619,-1.9273,0.3384
206481.0,-7.3741,-0.0527,15.2032,0.9849,-2.0726,0.513
206491.0,-7.0581,-0.3663,15.0021,1.2547,-2.2492,0.6545
206501.0,-6.6942,-0.6273,14.5903,1.3351,-2.5547,0.7354
206511.0,-6.2608,-0.8571,13.6541,1.2904,-2.9128,0.7636
206521.0,-5.9448,-1.0511,12.4953,1.21,-3.1932,0.7572
206531.0,-5.4899,-1.087,11.3605,1.1669,-3.3401,0.7295
206541.0,-4.9273,-0.9361,10.2855,1.1621,-3.3715,0.6955
206551.0,-4.4819,-0.8547,9.2632,1.1281,-3.3614,0.6588
206561.0,-3.9456,-0.8428,8.5473,1.0935,-3.2821,0.6188
206571.0,-3.4979,-0.8332,7.9607,1.0946,-3.1389,0.5821
206581.0,-2.9185,-0.9146,7.6327,1.0988,-2.9809,0.5459
206591.0,-2.2577,-0.9146,6.9168,1.0658,-2.8628,0.4938
206601.0,-1.6233,-0.8978,6.0214,0.9307,-2.751,0.4129
206611.0,-1.1947,-0.6967,5.0015,0.7194,-2.5776,0.3118
206621.0,-0.747,-0.577,4.5083,0.4401,-2.3221,0.1969
206631.0,-0.4788,-0.4262,4.5203,0.1905,-1.9949,0.0841
206641.0,-0.1891,-0.2993,4.7908,-0.0069,-1.6964,-0.0176
206651.0,0.0599,-0.1891,4.9057,-0.1586,-1.4415,-0.1059
206661.0,0.2394,-0.1053,5.1332,-0.2751,-1.202,-0.1777
206671.0,0.4477,-0.0862,5.4492,-0.3507,-0.9493,-0.2331
206681.0,0.4956,-0.0599,6.0142,-0.3996,-0.7189,-0.2762
206691.0,0.4262,-0.0646,6.4763,-0.447,-0.5598,-0.3155
206701.0,0.4262,-0.0982,6.9959,-0.4672,-0.4512,-0.3528
206711.0,0.4717,-0.0718,7.4675,-0.397,-0.3342,-0.381
206721.0,0.5459,0.1341,7.7548,-0.2613,-0.2187,-0.3938
206731.0,0.5076,0.4022,7.9535,-0.1304,-0.1197,-0.3938
206741.0,0.4381,0.644,8.2863,-0.0442,-0.0325,-0.3837
206751.0,0.3376,0.9984,8.6766,0.0176,0.0532,-0.3592
206761.0,0.1915,1.2833,9.1123,0.0085,0.0915,-0.323
206771.0,0.1293,1.3886,9.4451,-0.1059,0.0245,-0.2863
206781.0,0.1413,1.3072,9.6175,-0.2395,-0.0718,-0.2496
206791.0,0.1532,1.1923,9.7683,-0.323,-0.1469,-0.2091
206801.0,0.1963,1.0175,9.8976,-0.331,-0.2038,-0.1676
206811.0,0.261,0.9457,9.8497,-0.2368,-0.2251,-0.1229
206821.0,0.3112,0.929,9.7157,-0.0921,-0.2155,-0.0761
206831.0,0.3926,0.9218,9.5864,0.0527,-0.1948,-0.0303
206841.0,0.5052,0.9481,9.4188,0.1628,-0.157,0.0069
206851.0,0.5435,0.8643,9.2751,0.1873,-0.132,0.0351
206861.0,0.6321,0.7398,9.1913,0.1485,-0.1197,0.0468
206871.0,0.7087,0.6416,9.1004,0.1006,-0.0947,0.0442
206881.0,0.7183,0.5746,8.9854,0.0426,-0.0559,0.0309
206891.0,0.7446,0.4764,8.9447,-0.0197,-0.0027,0.0106
206901.0,0.7111,0.4118,9.0932,-0.0654,0.0798,-0.0128
206911.0,0.6249,0.3615,9.4571,-0.1213,0.1453,-0.0426
206921.0,0.5818,0.4022,9.754,-0.1618,0.1751,-0.0708
206931.0,0.498,0.3974,10.1538,-0.1713,0.1932,-0.0883
206941.0,0.4812,0.407,10.4363,-0.1559,0.1878,-0.0979
206951.0,0.5267,0.4381,10.4986,-0.141,0.1532,-0.1054
206961.0,0.4717,0.5076,10.4651,-0.1346,0.1139,-0.1086
206971.0,0.3926,0.5507,10.4531,-0.1336,0.0825,-0.1075
206981.0,0.3089,0.6464,10.4507,-0.1139,0.0697,-0.1011
206991.0,0.2394,0.723,10.4698,-0.074,0.0692,-0.0867
207001.0,0.2897,0.723,10.4339,-0.0287,0.0692,-0.0681
207011.0,0.34,0.6895,10.4387,0.0138,0.0756,-0.0479
207021.0,0.4429,0.5555,10.4914,0.0176,0.0724,-0.0325
207031.0,0.4884,0.4693,10.4507,-0.0096,0.0447,-0.0309
207041.0,0.5028,0.3903,10.41,-0.0404,0.0149,-0.0383
207051.0,0.565,0.3352,10.3789,-0.0431,-0.0027,-0.05
207061.0,0.5794,0.3926,10.1658,-0.0234,-0.0059,-0.0569
207071.0,0.5195,0.4214,10.094,-0.0106,-0.0043,-0.0654
207081.0,0.4717,0.5459,9.9718,0.0064,0.0154,-0.0745
207091.0,0.4453,0.68,10.0748,0.0144,0.0426,-0.0766
207101.0,0.4238,0.8452,10.0533,0.0202,0.0654,-0.0724
207111.0,0.4429,0.9026,10.1059,-0.0069,0.0601,-0.0633
207121.0,0.5028,0.9529,10.0293,-0.0521,0.041,-0.049
207131.0,0.5674,0.9074,10.0006,-0.1006,0.0218,-0.0314
207141.0,0.5962,0.8643,9.8689,-0.1192,0.0128,-0.0074
207151.0,0.577,0.8021,9.809,-0.1038,0.0192,0.0192
207161.0,0.5866,0.7638,9.7636,-0.0468,0.0458,0.0516
207171.0,0.577,0.7063,9.6726,0.0309,0.0777,0.083
207181.0,0.6249,0.6081,9.5337,0.108,0.107,0.1128
207191.0,0.68,0.4812,9.3565,0.1612,0.1352,0.1357
207201.0,0.7494,0.3519,9.1123,0.1713,0.1575,0.1421
207211.0,0.8284,0.2562,8.8442,0.1325,0.1873,0.1272
207221.0,0.8356,0.2107,8.6407,0.0575,0.2251,0.0979
207231.0,0.8188,0.1915,8.5425,-0.0516,0.2533,0.0623
207241.0,0.7518,0.1796,8.5569,-0.1469,0.2778,0.0261
207251.0,0.735,0.2322,8.4515,-0.1948,0.306,-0.0011
207261.0,0.68,0.2322,8.406,-0.2166,0.3241,-0.0197
207271.0,0.7087,0.2658,8.1642,-0.2208,0.3278,-0.0287
207281.0,0.7901,0.2418,7.7572,-0.2267,0.3278,-0.0367
207291.0,0.8212,0.2658,7.1682,-0.2501,0.3533,-0.0442
207301.0,0.814,0.3424,6.6439,-0.3251,0.4044,-0.0537
207311.0,0.7326,0.3974,6.3877,-0.4443,0.4789,-0.058
207321.0,0.5914,0.3136,6.5266,-0.5731,0.5587,-0.0521
207331.0,0.3807,0.146,6.8714,-0.6486,0.6077,-0.0319
207341.0,0.2155,-0.0479,7.1539,-0.6353,0.6135,0.0032
207351.0,0.0024,-0.3256,7.0844,-0.5204,0.5917,0.0458
207361.0,-0.1844,-0.5578,6.6966,-0.3272,0.5917,0.0734
207371.0,-0.237,-0.7374,6.1579,-0.0915,0.6321,0.0782
207381.0,-0.2059,-0.735,5.2026,0.158,0.7375,0.0564
207391.0,-0.2586,-0.68,4.446,0.3586,0.9493,0.009
207401.0,-0.4142,-0.5267,3.9169,0.5044,1.2526,-0.0506
207411.0,-0.9361,-0.4956,3.6943,0.5523,1.5969,-0.1181
207421.0,-1.3384,-0.5555,3.1388,0.4832,1.8847,-0.2075
207431.0,-1.6376,-0.5866,2.1093,0.2581,2.1545,-0.3416
207441.0,-2.3008,-0.5339,0.7997,-0.1176,2.5329,-0.5103
207451.0,-3.4524,-0.644,1.0582,-0.6055,3.1086,-0.7024
207461.0,-4.8387,-0.4286,2.8228,-0.9647,3.7849,-0.8796
207471.0,-6.3542,0.1293,5.0015,-1.1579,4.3069,-1.0052
207481.0,-7.92,0.5626,7.4939,-1.1605,4.6986,-1.0387
207491.0,-9.0884,0.6823,10.4148,-0.8939,5.0657,-0.9844
207501.0,-9.9168,0.7542,13.5248,-0.4369,5.3286,-0.887
207511.0,-10.9152,0.9457,16.2183,0.0106,5.3669,-0.7966
207521.0,-12.0237,0.8787,18.8519,0.249,5.1498,-0.737
207531.0,-12.56,0.3065,21.5239,0.2927,4.7475,-0.7077
207541.0,-11.9303,-1.0774,25.3211,0.1894,4.1611,-0.7215
207551.0,-11.2144,-2.1045,28.5652,0.0952,3.2289,-0.7881
207561.0,-10.7141,-2.0614,29.8389,0.0915,1.9896,-0.8865
207571.0,-10.6853,-1.221,28.9722,0.1107,0.6268,-0.9871
207581.0,-10.884,0.2011,26.2812,0.1032,-0.6561,-1.044
207591.0,-10.4722,1.2857,23.0538,0.0059,-1.7421,-1.0115
207601.0,-9.8617,1.9656,19.7665,-0.0362,-2.5041,-0.9014
207611.0,-9.0812,2.4157,16.5894,0.075,-2.9399,-0.7317
207621.0,-8.2169,2.6791,13.7619,0.323,-3.1102,-0.5119
207631.0,-7.3454,2.7509,11.3294,0.6529,-3.0639,-0.2559
207641.0,-6.3853,2.569,9.2225,0.977,-2.8825,0.0112
207651.0,-5.4899,2.1452,7.5776,1.2196,-2.6084,0.2559
207661.0,-4.561,1.6281,6.1076,1.3441,-2.2716,0.4491
207671.0,-3.8283,0.9577,5.3295,1.3313,-1.8182,0.572
207681.0,-3.2082,0.3926,5.3726,1.202,-1.3425,0.6087
207691.0,-2.8156,-0.0479,6.043,0.9807,-0.9296,0.571
207701.0,-2.7677,-0.2921,6.8761,0.7184,-0.6151,0.4842
207711.0,-2.6911,-0.4741,7.8793,0.4241,-0.3831,0.3677
207721.0,-2.8659,-0.4453,9.0764,0.1038,-0.2267,0.2277
207731.0,-3.2202,-0.1413,10.3142,-0.2277,-0.1937,0.0766
207741.0,-3.5602,0.2993,11.236,-0.5071,-0.2565,-0.0527
207751.0,-4.0558,0.7254,12.1194,-0.7104,-0.3421,-0.1389
207761.0,-4.3191,1.1133,12.967,-0.8163,-0.4629,-0.1799
207771.0,-4.4005,1.3096,13.4841,-0.8508,-0.654,-0.1804
207781.0,-4.5203,1.3599,13.5943,-0.8567,-0.9174,-0.157
207791.0,-4.4412,1.2953,13.4794,-0.804,-1.185,-0.1117
207801.0,-4.3167,1.1516,13.1442,-0.6753,-1.4053,-0.0527
207811.0,-4.1252,1.0199,12.7826,-0.4699,-1.5676,0.0144
207821.0,-3.8762,1.0056,12.2056,-0.2187,-1.6756,0.0894
207831.0,-3.7781,0.8954,11.8776,-0.0074,-1.7491,0.1634
207841.0,-3.5482,0.7949,11.6813,0.1788,-1.8071,0.2288
207851.0,-3.2106,0.814,11.6023,0.3278,-1.8816,0.2815
207861.0,-2.9305,0.8571,11.1019,0.406,-2.0172,0.3267
207871.0,-2.6719,0.8188,10.3645,0.4161,-2.154,0.364
207881.0,-2.2577,0.6584,9.6271,0.4097,-2.2189,0.3938
207891.0,-1.8364,0.5722,9.0046,0.4097,-2.1918,0.414
207901.0,-1.4868,0.5243,8.4491,0.3911,-2.1226,0.4262
207911.0,-1.1636,0.4286,7.9918,0.3379,-2.0316,0.4305
207921.0,-0.8835,0.3304,7.7333,0.2432,-1.9438,0.4214
207931.0,-0.5818,0.2083,7.4508,0.1165,-1.8762,0.4039
207941.0,-0.2514,-0.0239,7.2329,-0.0208,-1.8134,0.381
207951.0,0.1844,-0.2705,7.1275,-0.1336,-1.7448,0.3491
207961.0,0.4884,-0.4477,6.9288,-0.1889,-1.6586,0.3171
207971.0,0.6536,-0.6033,6.9288,-0.1873,-1.557,0.2868
207981.0,0.7542,-0.6177,7.082,-0.0915,-1.4234,0.2634
207991.0,0.8236,-0.5028,7.1323,0.0458,-1.3015,0.2464
208001.0,0.8284,-0.3256,7.0533,0.2006,-1.2042,0.2363
208011.0,0.8811,-0.1652,6.7947,0.3539,-1.1079,0.2341
208021.0,1.0894,-0.0407,6.4236,0.5023,-0.97,0.2309
208031.0,1.3982,0.1053,5.9903,0.6018,-0.7806,0.2134
208041.0,1.561,0.3639,5.8538,0.6114,-0.53,0.1788
208051.0,1.5275,0.7566,6.2369,0.4986,-0.2719,0.125
208061.0,1.4629,1.1444,6.8618,0.3139,-0.0718,0.0713
208071.0,1.2929,1.3767,7.4795,0.0921,0.0697,0.0383
208081.0,1.2067,1.4509,8.09,-0.1298,0.165,0.0229
208091.0,1.0678,1.3192,8.8705,-0.3326,0.232,0.0149
208101.0,1.0558,1.1277,9.6079,-0.4736,0.2453,0.009
208111.0,1.0534,1.0175,10.1658,-0.505,0.2315,0.0149
208121.0,0.984,0.9505,10.501,-0.4619,0.1995,0.0319
208131.0,0.984,0.9553,10.6662,-0.3831,0.1596,0.0543
208141.0,0.893,0.9888,10.7141,-0.3092,0.1112,0.0814
208151.0,0.7518,0.9433,10.7093,-0.2836,0.041,0.1091
208161.0,0.7709,0.8068,10.7715,-0.2389,-0.0112,0.1421
208171.0,0.8428,0.6201,10.8026,-0.1756,-0.0601,0.1756
208181.0,0.9481,0.4286,10.7093,-0.1091,-0.1213,0.1969
208191.0,1.0415,0.3735,10.319,-0.0383,-0.1618,0.2097
208201.0,1.1325,0.2586,10.0509,-0.0192,-0.1841,0.2118
208211.0,1.1947,0.1915,9.7516,-0.0319,-0.1937,0.2027
208221.0,1.1827,0.0766,9.6582,-0.0511,-0.1846,0.1884
208231.0,1.2522,-0.0431,9.6391,-0.0495,-0.165,0.1676
208241.0,1.3527,-0.0742,9.5577,-0.0144,-0.1293,0.1437
208251.0,1.3647,-0.091,9.493,0.0261,-0.0905,0.1181
208261.0,1.4102,-0.067,9.3781,0.0596,-0.0426,0.0873
208271.0,1.4437,0.0168,9.3182,0.0676,0.0074,0.05
208281.0,1.5251,0.1891,9.2991,0.05,0.0649,0.0085
208291.0,1.4964,0.4262,9.2656,-0.0053,0.1298,-0.0282
208301.0,1.3815,0.6584,9.3781,-0.1352,0.1681,-0.0575
208311.0,1.2785,0.7374,9.5792,-0.306,0.1697,-0.0777
208321.0,1.2043,0.7326,9.8186,-0.4464,0.1506,-0.0846
208331.0,1.1803,0.5626,10.0149,-0.505,0.1352,-0.0793
208341.0,1.2067,0.4836,10.0652,-0.4576,0.1437,-0.0633
208351.0,1.2354,0.407,10.1275,-0.3698,0.1596,-0.0468
208361.0,1.2258,0.4405,10.07,-0.2634,0.1745,-0.0309
208371.0,1.1899,0.5076,10.0413,-0.1671,0.1942,-0.016
208381.0,1.1732,0.5483,10.0078,-0.107,0.1969,0.0005
208391.0,1.221,0.5411,9.8737,-0.0825,0.1825,0.0106
208401.0,1.2737,0.5339,9.6295,-0.0915,0.1687,0.0144
208411.0,1.324,0.5219,9.4571,-0.1203,0.183,0.0138
208421.0,1.2929,0.5435,9.3398,-0.1442,0.216,0.0149
208431.0,1.2905,0.577,9.2919,-0.1692,0.2389,0.0149
208441.0,1.3144,0.5986,9.1698,-0.1783,0.2517,0.0165
208451.0,1.3072,0.6512,8.9519,-0.1708,0.2746,0.0223
208461.0,1.2857,0.7111,8.7604,-0.1501,0.3171,0.033
208471.0,1.2426,0.8164,8.6024,-0.1133,0.3773,0.0484
208481.0,1.2713,0.9361,8.2959,-0.0745,0.4432,0.0713
208491.0,1.2689,1.0199,7.9559,-0.0649,0.505,0.0979
208501.0,1.2474,1.0989,7.5896,-0.0979,0.5651,0.1224
208511.0,1.2426,1.0918,7.1275,-0.1777,0.629,0.1458
208521.0,1.2234,1.0104,6.8474,-0.2714,0.7146,0.1644
208531.0,1.154,0.9625,6.608,-0.332,0.821,0.1815
208541.0,1.0295,0.9098,6.426,-0.3512,0.936,0.1953
208551.0,0.8571,0.9313,6.2465,-0.2996,1.0759,0.2118
208561.0,0.5986,1.008,5.9664,-0.1937,1.2526,0.232
208571.0,0.3639,1.0104,5.6862,-0.0761,1.4575,0.2533
208581.0,0.1365,1.0702,5.351,0.0213,1.6969,0.274
208591.0,-0.1149,1.0894,5.0374,0.0314,1.9497,0.2857
208601.0,-0.3639,1.0894,4.6974,-0.0942,2.1785,0.2772
208611.0,-0.7997,1.0271,4.5155,-0.3496,2.4227,0.2591
208621.0,-1.4174,0.7781,4.9991,-0.6737,2.7042,0.2416
208631.0,-2.1668,0.4549,5.9759,-0.9786,2.966,0.2272
208641.0,-2.9042,0.1221,6.7349,-1.2553,3.0996,0.2198
208651.0,-3.5291,-0.5004,7.3119,-1.5085,3.1352,0.2235
208661.0,-3.9768,-1.3623,8.3007,-1.6049,3.2235,0.2325
