time_ms,ax,ay,az,gx,gy,gz
58901.0,-0.577,0.7757,10.2376,-0.0654,0.0362,0.0197
58911.0,-0.6153,0.747,10.1945,-0.0644,0.0394,0.0197
58921.0,-0.5818,0.6847,10.1801,-0.0548,0.0484,0.0186
58931.0,-0.5555,0.6608,10.1155,-0.0426,0.0569,0.0122
58941.0,-0.589,0.7254,10.0987,-0.0346,0.0729,0.0032
58951.0,-0.6416,0.7781,10.1825,-0.0357,0.0883,-0.0074
58961.0,-0.656,0.8092,10.252,-0.0362,0.0958,-0.0133
58971.0,-0.6847,0.8811,10.2711,-0.0303,0.1038,-0.0165
58981.0,-0.7159,0.9529,10.343,-0.0197,0.1096,-0.0149
58991.0,-0.7494,0.9864,10.3884,-0.0069,0.1059,-0.0106
59001.0,-0.7302,1.0199,10.3262,-0.0016,0.0979,-0.0053
59011.0,-0.7518,1.0271,10.3166,-0.0181,0.0963,-0.0011
59021.0,-0.7614,0.9888,10.3908,-0.0367,0.099,0.0016
59031.0,-0.7901,0.996,10.4483,-0.0447,0.1032,0.0037
59041.0,-0.7997,1.0032,10.5512,-0.0399,0.1016,0.0096
59051.0,-0.814,0.9888,10.6231,-0.0357,0.0931,0.0154
59061.0,-0.8188,0.9888,10.6231,-0.0229,0.0798,0.0213
59071.0,-0.8092,1.0678,10.5393,-0.0133,0.066,0.0245
59081.0,-0.8116,1.0989,10.4603,-0.0282,0.0559,0.0282
59091.0,-0.826,1.0511,10.4746,-0.0553,0.0474,0.0346
59101.0,-0.8356,1.0391,10.4866,-0.0708,0.042,0.0394
59111.0,-0.8284,0.9649,10.5369,-0.0654,0.0458,0.0474
59121.0,-0.8404,0.929,10.5776,-0.0415,0.0527,0.0564
59131.0,-0.826,0.929,10.5608,-0.0048,0.0639,0.0644
59141.0,-0.8092,0.9936,10.5249,0.025,0.0841,0.067
59151.0,-0.8835,1.1181,10.6063,0.0277,0.1128,0.0686
59161.0,-0.9409,1.1732,10.8888,0.0415,0.1421,0.0782
59171.0,-0.917,1.2282,11.0923,0.0623,0.1453,0.0926
59181.0,-0.7733,1.2019,11.2527,0.0857,0.1378,0.108
59191.0,-0.6847,1.233,11.3365,0.1091,0.1357,0.1192
59201.0,-0.6081,1.2809,11.4467,0.0867,0.1149,0.125
59211.0,-0.6153,1.3408,11.5879,0.0298,0.075,0.1282
59221.0,-0.6416,1.3455,11.7388,-0.0362,0.0213,0.1362
59231.0,-0.6273,1.2498,11.7819,-0.0793,-0.0383,0.1495
59241.0,-0.5986,1.1157,11.8465,-0.0974,-0.0899,0.1644
59251.0,-0.5866,1.0247,11.7531,-0.091,-0.1368,0.1777
59261.0,-0.5555,0.929,11.576,-0.0867,-0.1862,0.183
59271.0,-0.5626,0.8954,11.3725,-0.0894,-0.2309,0.182
59281.0,-0.5722,0.8475,11.1857,-0.1027,-0.2677,0.1788
59291.0,-0.5435,0.7997,10.8673,-0.1176,-0.2959,0.1703
59301.0,-0.4932,0.7183,10.5393,-0.1405,-0.3038,0.1522
59311.0,-0.3328,0.6823,10.2544,-0.1804,-0.2826,0.1208
59321.0,-0.5219,0.8619,10.2448,-0.2458,-0.2261,0.0814
59331.0,-0.7302,0.8787,10.8074,-0.3395,-0.2123,0.0506
59341.0,-0.7566,0.8763,10.9343,-0.3384,-0.2607,0.0404
59351.0,-0.7087,0.8332,10.8888,-0.2714,-0.3187,0.0463
59361.0,-0.6393,0.8332,10.6015,-0.1671,-0.348,0.0532
59371.0,-0.5339,0.8428,10.331,-0.0984,-0.3586,0.0564
59381.0,-0.4621,0.8236,10.0221,-0.0681,-0.3704,0.0527
59391.0,-0.3639,0.8404,9.6822,-0.0681,-0.3677,0.0404
59401.0,-0.2849,0.8404,9.6175,-0.0878,-0.3326,0.0303
59411.0,-0.2346,0.8739,9.5074,-0.124,-0.3102,0.0186
59421.0,-0.2538,0.893,9.3398,-0.1495,-0.2868,0.0122
59431.0,-0.2274,0.8571,9.1698,-0.1697,-0.2421,0.0144
59441.0,-0.1269,0.7853,9.1889,-0.1825,-0.1607,0.0213
59451.0,-0.0814,0.5938,9.4715,-0.2059,-0.0899,0.0229
59461.0,-0.0622,0.431,9.742,-0.2049,-0.049,0.0192
59471.0,-0.0886,0.3424,10.0413,-0.157,-0.0106,0.0149
59481.0,-0.0622,0.2897,10.1993,-0.058,0.0096,0.0128
59491.0,-0.0359,0.3615,10.1873,0.0591,0.0208,0.0085
59501.0,-0.0024,0.4142,10.0916,0.1453,0.041,0.0032
59511.0,0.1197,0.6009,10.0533,0.1772,0.0708,-0.009
59521.0,0.1484,0.723,10.161,0.1506,0.0952,-0.0223
59531.0,0.146,0.8021,10.2304,0.0968,0.1091,-0.0335
59541.0,0.1532,0.9313,10.1562,0.025,0.1229,-0.0474
59551.0,0.1245,1.142,10.0676,-0.0761,0.1415,-0.0591
59561.0,0.091,1.3431,9.9096,-0.2315,0.1437,-0.0702
59571.0,0.0646,1.4653,9.7037,-0.4268,0.157,-0.074
59581.0,0.0766,1.3551,9.675,-0.6364,0.1932,-0.067
59591.0,-0.1317,1.1372,10.0173,-0.8104,0.2442,-0.0569
59601.0,-0.2155,0.8068,10.3837,-0.8652,0.3006,-0.0351
59611.0,-0.1269,0.5028,10.4244,-0.8264,0.3139,-0.0144
59621.0,-0.0072,0.3352,10.2352,-0.7684,0.3272,-0.009
59631.0,-0.0144,0.3615,10.2783,-0.7109,0.3916,-0.0165
59641.0,-0.6943,0.3017,11.6622,-0.5763,0.5114,-0.0122
59651.0,-0.4094,0.9266,10.4986,-0.3523,0.4369,0.0261
59661.0,-0.1556,0.723,10.5297,-0.3884,0.3656,0.0495
59671.0,-0.3041,0.9984,10.2232,-0.3618,0.4331,0.0756
59681.0,-0.4357,0.8452,10.8505,-0.4017,0.4816,0.1086
59691.0,-0.6129,0.7039,11.1235,-0.3661,0.4885,0.1538
59701.0,-0.6871,0.3783,11.3772,-0.299,0.5018,0.2017
59711.0,-0.7374,-0.1197,11.9255,-0.2565,0.5071,0.232
59721.0,-0.6105,-0.4525,12.2679,-0.2469,0.4342,0.224
59731.0,-0.577,-0.6297,12.5791,-0.2607,0.3395,0.1878
59741.0,-0.5291,-0.6991,12.8425,-0.2873,0.223,0.1394
59751.0,-0.6464,-0.6297,13.0029,-0.3368,0.074,0.0841
59761.0,-0.735,-0.5555,12.9838,-0.3794,-0.1038,0.0335
59771.0,-0.8523,-0.3831,12.7635,-0.3805,-0.2692,-0.0043
59781.0,-1.0008,-0.3352,12.4187,-0.3459,-0.3938,-0.0218
59791.0,-1.0127,-0.3807,12.1194,-0.2533,-0.4629,-0.0245
59801.0,-0.9218,-0.4238,11.7029,-0.1336,-0.4922,-0.0325
59811.0,-0.8619,-0.3519,11.4419,-0.0314,-0.4768,-0.0511
59821.0,-1.0965,-0.1844,11.5161,0.0357,-0.4401,-0.0782
59831.0,-1.0942,-0.1772,11.631,0.0447,-0.4629,-0.1022
59841.0,-0.8882,-0.3496,12.0141,0.0192,-0.5076,-0.132
59851.0,-1.0175,-0.2418,12.481,0.0319,-0.5566,-0.1729
59861.0,-1.0798,-0.1101,12.7922,0.0718,-0.6566,-0.2033
59871.0,-1.0726,0.0407,13.1298,0.1149,-0.7849,-0.2261
59881.0,-1.1349,0.3256,13.2782,0.1346,-0.9472,-0.2469
59891.0,-1.1444,0.5794,12.8593,0.0591,-1.2015,-0.2671
59901.0,-0.8643,0.5938,12.0524,-0.1687,-1.5022,-0.3017
59911.0,-0.5411,0.6321,10.987,-0.4864,-1.723,-0.3624
59921.0,-0.2682,0.5148,10.5919,-0.8939,-1.8714,-0.4438
59931.0,-0.079,0.5794,10.2759,-1.2505,-1.9922,-0.5273
59941.0,0.1437,0.5674,9.912,-1.5729,-2.1577,-0.6045
59951.0,0.4357,0.6728,9.0477,-1.8374,-2.3386,-0.6657
59961.0,0.7063,0.8356,7.9703,-2.0726,-2.4882,-0.7152
59971.0,1.0846,1.0965,6.778,-2.2668,-2.5834,-0.7428
59981.0,1.3719,1.2426,5.8778,-2.4083,-2.5871,-0.7412
59991.0,1.5514,1.3072,5.6048,-2.4036,-2.4669,-0.696
60001.0,1.8052,1.4413,5.0757,-2.3237,-2.3908,-0.6274
60011.0,2.1739,1.5203,4.0055,-2.3535,-2.4472,-0.5614
60021.0,2.3343,1.5658,2.5618,-2.4887,-2.477,-0.513
60031.0,2.1859,1.5227,1.4533,-2.8346,-2.5153,-0.514
60041.0,1.5227,1.8651,0.7685,-3.3794,-2.6606,-0.5933
60051.0,0.8452,3.7326,-0.5052,-4.0483,-3.0293,-0.7253
60061.0,-0.2562,7.0485,-2.3559,-4.7321,-3.4965,-0.7971
60071.0,-1.1133,10.3789,-5.5641,-5.3674,-4.0281,-0.6763
60081.0,-3.9289,13.9893,-10.1155,-6.2576,-4.6592,-0.3613
60091.0,-6.3518,17.7674,-15.2966,-7.0404,-5.1631,0.2841
60101.0,-1.0247,15.5647,-18.1073,-6.6801,-5.0529,1.4532
60111.0,2.6217,16.9749,-28.649,-3.5614,-3.0565,2.9128
60121.0,0.8212,13.5751,-31.2779,-0.0814,0.538,4.4586
60131.0,-3.8451,9.9288,-28.3162,3.4609,4.8715,5.8112
60141.0,-12.8617,5.4612,-17.4968,6.5407,8.9592,6.7961
60151.0,-19.3906,-0.6129,-6.8546,9.5818,12.1763,7.3016
60161.0,-25.2732,-8.1139,5.3439,12.5132,14.7369,6.8877
60171.0,-31.2515,-7.75,13.7164,15.4887,16.1501,5.3227
60181.0,-39.2051,8.8897,15.3732,17.4357,17.2532,3.629
60191.0,-35.1756,26.2045,13.9055,15.7394,16.1113,2.4993
60201.0,-32.9777,14.3341,39.0566,6.7743,12.5621,1.5527
60211.0,-28.0409,10.9056,49.0476,2.9303,9.3998,1.1084
60221.0,-25.5964,10.1634,55.5551,2.9804,7.9099,1.2276
60231.0,-24.9787,10.1011,55.9908,3.0373,5.9128,1.4106
60241.0,-23.049,6.3566,56.6947,1.1712,2.3759,1.2361
60251.0,-19.8719,3.3758,47.398,-0.39,-1.2249,0.903
60261.0,-17.3651,0.7087,35.8388,-1.6341,-3.6412,0.4491
60271.0,-15.6389,0.5171,24.7082,-2.585,-4.9077,-0.0803
60281.0,-14.1378,1.2402,16.3931,-3.3869,-5.3515,-0.5603
60291.0,-11.892,1.2474,10.0102,-3.8323,-5.2333,-0.8673
60301.0,-8.6239,1.561,5.7772,-3.877,-4.6102,-1.0674
60311.0,-6.9599,1.3431,5.1978,-3.4821,-3.4582,-1.118
60321.0,-5.8538,1.4988,5.9209,-2.7893,-2.3738,-1.0546
60331.0,-4.7669,1.0511,7.3167,-2.2008,-1.7522,-0.9477
60341.0,-3.9241,0.6177,7.7859,-1.6554,-1.392,-0.8258
60351.0,-3.2441,0.2849,8.5784,-1.2643,-1.1659,-0.7492
60361.0,-3.1268,-0.3256,9.4834,-0.8838,-1.0451,-0.6848
60371.0,-3.2585,-0.7853,9.7157,-0.357,-1.0238,-0.6385
60381.0,-3.0646,-0.7709,8.7747,0.273,-0.9988,-0.6236
60391.0,-2.8874,-0.3831,7.5106,0.7801,-0.8806,-0.6423
60401.0,-3.0718,0.316,6.5601,1.0137,-0.6795,-0.6742
60411.0,-3.5434,0.9242,6.3231,0.9637,-0.4688,-0.7019
60421.0,-3.984,1.4676,6.7229,0.7279,-0.2927,-0.7258
60431.0,-4.3048,2.0494,7.6136,0.4566,-0.1272,-0.7141
60441.0,-4.7788,2.3894,8.8538,0.1932,-0.033,-0.6513
60451.0,-5.1571,2.4948,9.9479,-0.0229,-0.0601,-0.5577
60461.0,-5.4253,2.5857,10.8529,-0.1197,-0.1394,-0.4342
60471.0,-5.5905,2.478,11.6957,-0.125,-0.2682,-0.2863
60481.0,-5.5115,2.1739,12.0285,-0.0218,-0.4326,-0.1235
60491.0,-5.1475,1.8651,11.9351,0.1368,-0.6066,0.0255
60501.0,-4.7573,1.6879,11.4371,0.2708,-0.7471,0.1458
60511.0,-4.6926,1.482,10.8314,0.2735,-0.8695,0.2331
60521.0,-4.4101,1.0415,10.3118,0.1219,-1.0179,0.2772
60531.0,-3.9935,0.577,9.7659,-0.0756,-1.1206,0.2746
60541.0,-3.8044,0.1987,9.6798,-0.2559,-1.1499,0.24
60551.0,-3.8092,-0.0455,9.7827,-0.3592,-1.1552,0.1937
60561.0,-3.5362,-0.17,9.8234,-0.3464,-1.1579,0.1511
60571.0,-3.1436,-0.1101,9.4715,-0.2751,-1.1515,0.1187
60581.0,-2.9257,-0.0886,9.3685,-0.2565,-1.1318,0.0878
60591.0,-2.8539,-0.1365,9.56,-0.2575,-1.118,0.0649
60601.0,-2.6552,-0.2298,9.5217,-0.2198,-1.1403,0.0458
60611.0,-2.3774,-0.2227,9.3374,-0.1325,-1.1552,0.0293
60621.0,-2.1691,-0.1197,8.9735,-0.0043,-1.1041,0.0165
60631.0,-1.9249,-0.0742,8.8945,0.091,-1.0254,0.008
60641.0,-1.6831,0.0982,8.6407,0.1336,-0.9732,-0.0032
60651.0,-1.549,0.2346,8.6167,0.0952,-0.9355,-0.0181
60661.0,-1.5467,0.2729,8.7556,0.0394,-0.8759,-0.0277
60671.0,-1.4892,0.0838,9.3446,-0.025,-0.8179,-0.0357
60681.0,-1.4653,-0.012,9.821,-0.0213,-0.7944,-0.0468
60691.0,-1.4293,-0.2466,10.4076,0.0069,-0.8258,-0.0623
60701.0,-1.2594,-0.4357,10.6087,0.1208,-0.8673,-0.0756
60711.0,-0.9888,-0.5555,10.659,0.2315,-0.9376,-0.1086
60721.0,-0.6752,-0.4453,10.2424,0.3038,-1.0296,-0.157
60731.0,-0.5866,-0.237,9.8497,0.3017,-1.094,-0.2102
60741.0,-0.6416,0.0024,9.493,0.2554,-1.1361,-0.2613
60751.0,-0.6488,0.0192,9.4834,0.2325,-1.1249,-0.2911
60761.0,-0.5387,0.1173,9.1746,0.2559,-1.0946,-0.3081
60771.0,-0.2514,0.2897,8.6143,0.1846,-1.1158,-0.3406
60781.0,-0.2059,0.6919,7.9918,0.0176,-1.0823,-0.3821
60791.0,-0.4262,0.996,7.9631,-0.2299,-0.9802,-0.4103
60801.0,-1.7526,1.5682,8.3701,-0.4363,-0.8812,-0.4065
60811.0,-0.2418,1.7119,9.5624,-0.5289,-0.8359,-0.3746
60821.0,0.644,2.4421,9.0046,-0.5316,-0.8998,-0.3113
60831.0,0.0527,2.0686,9.2512,-0.4789,-0.738,-0.166
60841.0,-0.1915,1.7645,9.7276,-0.3374,-0.5704,-0.0458
60851.0,0.182,1.7214,9.9072,-0.2661,-0.6162,0.0239
60861.0,0.4525,1.3192,9.7659,-0.1937,-0.646,0.1043
60871.0,0.3855,0.8763,9.6678,-0.1091,-0.5912,0.1676
60881.0,0.4453,0.5124,9.8785,-0.1,-0.5827,0.1836
60891.0,0.668,0.1293,9.7731,-0.1128,-0.6327,0.1745
60901.0,0.984,-0.3879,9.4403,-0.1479,-0.6731,0.1378
60911.0,1.1037,-0.5435,9.0836,-0.1841,-0.6609,0.0559
60921.0,1.0032,-0.3663,8.9974,-0.2261,-0.5811,-0.0351
60931.0,0.9361,-0.0718,9.0644,-0.2847,-0.513,-0.1139
60941.0,0.9122,0.4501,8.916,-0.3198,-0.4603,-0.1639
60951.0,0.8332,0.8882,8.8897,-0.3427,-0.3826,-0.1745
60961.0,0.747,1.1947,9.0261,-0.3379,-0.282,-0.1469
60971.0,0.7877,1.2953,9.2775,-0.2895,-0.1761,-0.0905
60981.0,0.8859,1.2617,9.7181,-0.1708,-0.067,-0.0176
60991.0,0.9122,1.1013,9.9718,-0.0404,0.0005,0.0585
61001.0,0.9002,0.8571,10.0293,0.0144,0.0074,0.1171
61011.0,0.9194,0.4788,10.2256,-0.0096,0.0032,0.1479
61021.0,0.8523,0.2155,10.5034,-0.066,-0.0064,0.1511
61031.0,0.8284,-0.103,10.8362,-0.1405,-0.0617,0.1357
61041.0,0.8475,-0.34,10.9271,-0.1692,-0.124,0.1101
61051.0,0.9194,-0.4741,10.9104,-0.1676,-0.1591,0.0766
61061.0,0.9409,-0.5195,10.8793,-0.1793,-0.2043,0.0357
61071.0,0.9768,-0.486,10.8146,-0.2277,-0.2714,-0.0122
61081.0,1.0271,-0.3543,10.671,-0.2682,-0.3257,-0.0553
61091.0,1.0319,-0.1724,10.4914,-0.299,-0.3672,-0.083
61101.0,0.9697,-0.0383,10.4435,-0.3134,-0.4007,-0.0937
61111.0,0.9936,0.0742,10.2999,-0.2639,-0.4097,-0.0841
61121.0,1.0415,0.1772,10.1011,-0.1713,-0.4017,-0.0543
61131.0,1.1133,0.103,9.8282,-0.0676,-0.3757,-0.0144
61141.0,1.2186,-0.0862,9.6798,0.0372,-0.3326,0.0213
61151.0,1.3695,-0.2131,9.3134,0.1261,-0.2841,0.0442
61161.0,1.5921,-0.4405,9.0644,0.1415,-0.2166,0.0399
61171.0,1.6903,-0.5363,9.0022,0.0958,-0.1117,0.0106
61181.0,1.6305,-0.644,9.493,-0.0367,-0.0404,-0.0436
61191.0,1.6017,-0.6536,9.9742,-0.1681,-0.0351,-0.1059
61201.0,1.5874,-0.5722,10.4315,-0.2426,-0.0708,-0.1591
61211.0,1.5107,-0.3328,10.5201,-0.2506,-0.1336,-0.1926
61221.0,1.4533,-0.1772,10.3813,-0.2395,-0.1985,-0.2049
61231.0,1.561,-0.0934,10.137,-0.2395,-0.2522,-0.2038
61241.0,1.6017,0.0144,9.8426,-0.2586,-0.2927,-0.2059
61251.0,1.5395,0.1269,9.4116,-0.2879,-0.3076,-0.2091
61261.0,1.6089,0.158,9.1985,-0.2847,-0.2687,-0.2049
61271.0,1.7406,0.2274,9.0573,-0.2363,-0.183,-0.1932
61281.0,1.7166,0.3879,8.9998,-0.1809,-0.0873,-0.1777
61291.0,1.6233,0.5004,9.086,-0.1378,0.008,-0.1559
61301.0,1.6257,0.4741,9.3518,-0.108,0.0926,-0.1266
61311.0,1.6496,0.4453,9.73,-0.083,0.1474,-0.1022
61321.0,1.6065,0.4477,9.9288,-0.0708,0.1692,-0.0825
61331.0,1.4676,0.4693,10.1299,-0.0665,0.1804,-0.0601
61341.0,1.4389,0.3328,10.4531,-0.0702,0.1772,-0.0372
61351.0,1.5251,0.1604,10.6901,-0.0617,0.1607,-0.0218
61361.0,1.561,0.0862,10.6949,-0.0516,0.1368,-0.0149
61371.0,1.5586,0.0646,10.6901,-0.0809,0.099,-0.0213
61381.0,1.5467,0.1006,10.6973,-0.1442,0.0623,-0.0325
61391.0,1.506,0.1341,10.7428,-0.2246,0.0346,-0.042
61401.0,1.3336,0.1484,10.8386,-0.3012,0.0069,-0.0436
61411.0,1.3743,0.1532,10.963,-0.3565,-0.0287,-0.0367
61421.0,1.47,0.0527,11.2623,-0.3613,-0.0553,-0.0202
61431.0,1.4748,-0.0024,11.2958,-0.3012,-0.0766,0.0037
61441.0,1.4796,-0.0646,11.2288,-0.2304,-0.1171,0.0277
61451.0,1.6209,-0.0287,10.9678,-0.1932,-0.1639,0.0436
61461.0,1.6807,-0.1006,10.7356,-0.2331,-0.1979,0.0484
61471.0,1.6616,-0.1796,10.647,-0.3049,-0.2224,0.0474
61481.0,1.6783,-0.3519,10.6901,-0.373,-0.241,0.0468
61491.0,1.6975,-0.5914,10.6374,-0.4039,-0.2485,0.0431
61501.0,1.731,-0.8332,10.6805,-0.4081,-0.2623,0.0325
61511.0,1.8004,-0.9457,10.4962,-0.3709,-0.2724,0.0133
61521.0,1.8938,-1.0271,10.4004,-0.332,-0.2677,-0.0101
61531.0,1.9058,-0.9984,10.386,-0.2985,-0.2533,-0.0357
61541.0,1.9561,-0.9984,10.4746,-0.2554,-0.2341,-0.0569
61551.0,1.9321,-0.9816,10.4555,-0.2011,-0.2384,-0.0702
61561.0,1.9656,-0.9481,10.1179,-0.1495,-0.2512,-0.0803
61571.0,2.1165,-0.929,9.7947,-0.1112,-0.232,-0.0947
61581.0,2.1308,-0.8188,9.7109,-0.0926,-0.174,-0.1112
61591.0,1.992,-0.6967,9.8138,-0.0937,-0.1139,-0.125
61601.0,1.9369,-0.656,9.8785,-0.0708,-0.0708,-0.1272
61611.0,1.8866,-0.7805,10.1227,-0.0181,-0.0133,-0.1197
61621.0,1.9273,-0.8906,10.3741,0.0702,0.0431,-0.1128
61631.0,1.9321,-0.984,10.7141,0.1559,0.0654,-0.116
61641.0,1.9345,-0.8284,10.8649,0.2453,0.0665,-0.1282
61651.0,1.8866,-0.6512,10.9583,0.2746,0.0341,-0.1463
61661.0,1.822,-0.5914,10.9343,0.2336,-0.0128,-0.1655
61671.0,1.9656,-0.68,11.1761,0.1208,-0.0511,-0.2033
61681.0,1.8699,-0.5291,11.6167,-0.0458,-0.125,-0.2607
61691.0,1.6688,-0.3807,12.2344,-0.165,-0.2198,-0.3038
61701.0,1.4796,-0.1748,12.8617,-0.1681,-0.3555,-0.3145
61711.0,1.4102,-0.0383,13.2328,-0.0468,-0.5284,-0.2847
61721.0,1.5467,0.0934,13.2184,0.174,-0.6981,-0.2261
61731.0,1.6376,0.1748,13.1035,0.3959,-0.853,-0.1586
61741.0,1.5251,0.2274,12.6198,0.5513,-1.0142,-0.091
61751.0,1.5443,0.1077,11.8561,0.5577,-1.2132,-0.041
61761.0,1.6879,-0.2394,10.9008,0.4113,-1.4165,-0.0255
61771.0,1.8531,-0.6153,9.8402,0.174,-1.583,-0.0532
61781.0,2.0877,-0.9385,8.8992,-0.0745,-1.666,-0.1197
61791.0,2.1308,-0.9385,8.1068,-0.2613,-1.6384,-0.2054
61801.0,1.9609,-0.6752,7.3406,-0.4879,-1.6224,-0.298
61811.0,1.9369,-0.1341,6.1483,-0.8386,-1.6671,-0.3986
61821.0,1.8938,0.6393,4.3503,-1.4186,-1.7709,-0.5193
61831.0,1.4629,2.1979,0.8475,-2.453,-2.0343,-0.6891
61841.0,0.9625,4.5322,-3.1556,-4.2032,-2.485,-0.9094
61851.0,0.8978,7.2449,-8.078,-6.388,-3.0421,-1.0648
61861.0,0.8428,9.244,-11.9183,-8.5319,-3.4662,-1.0435
61871.0,-1.9273,11.7651,-13.3908,-9.8318,-3.4343,-0.7439
61881.0,-0.8787,13.0077,-11.327,-9.3854,-3.148,0.0032
61891.0,-0.2298,14.2599,-16.4242,-6.2257,-2.3354,1.2563
61901.0,3.0598,12.1242,-25.9148,-1.6671,-0.9317,2.6462
61911.0,0.4884,11.576,-38.549,2.8058,2.1226,3.7748
61921.0,-4.7908,7.9727,-40.1316,4.9146,5.8245,4.5224
61931.0,-11.5065,1.798,-26.693,5.833,9.5754,4.7762
61941.0,-17.0994,-4.1037,-9.1339,7.6608,12.353,4.5959
61951.0,-22.2924,-7.027,3.3782,10.8269,14.251,3.9568
61961.0,-26.0322,-5.0613,9.7707,13.7163,14.9454,2.734
61971.0,-31.4502,8.3366,12.7826,15.3206,15.219,1.3766
61981.0,-35.9178,22.7736,16.5918,13.0735,14.4149,0.4502
61991.0,-32.6354,21.1456,39.2458,7.0909,12.1657,-0.1495
62001.0,-33.0663,20.1735,52.5671,4.1122,10.2778,-0.19
62011.0,-33.4829,17.7099,62.4791,2.1205,7.9391,-0.1932
62021.0,-30.2651,12.5743,65.0888,-0.4369,3.9525,-0.4065
62031.0,-27.2293,8.904,59.97,-2.6435,-0.2011,-0.7859
62041.0,-25.1463,8.0637,49.3613,-3.6737,-3.1485,-1.0914
62051.0,-22.199,9.0142,37.0263,-4.0765,-5.104,-1.2462
62061.0,-18.1026,9.9718,25.6347,-4.1239,-6.0906,-1.1802
62071.0,-13.5057,9.7923,17.1999,-3.6886,-6.0097,-0.8711
62081.0,-9.6271,8.8083,10.987,-2.9208,-5.3355,-0.4172
62091.0,-6.4715,6.4739,6.6439,-2.3631,-4.6081,0.025
62101.0,-3.6559,3.1771,3.2202,-2.196,-3.9605,0.3336
62111.0,-1.3743,-0.6033,2.6193,-2.3626,-3.2619,0.422
62121.0,-0.2969,-3.3591,3.6152,-2.3466,-2.5025,0.3294
62131.0,-0.1915,-4.7118,5.205,-2.0199,-1.8608,0.1203
62141.0,-0.2083,-4.9033,6.5194,-1.5027,-1.442,-0.1272
62151.0,-0.4405,-4.2138,7.7524,-0.8657,-1.1302,-0.3512
62161.0,-0.9122,-2.9999,8.5928,-0.2187,-0.9445,-0.5135
62171.0,-1.4317,-1.4126,8.7173,0.3278,-0.8902,-0.5901
62181.0,-1.9752,-0.1101,8.4515,0.6518,-0.9003,-0.5811
62191.0,-2.3032,0.6129,7.8051,0.7114,-0.9381,-0.5172
62201.0,-2.4062,0.9194,7.1946,0.5167,-0.9615,-0.456
62211.0,-2.332,0.9697,6.9887,0.1554,-0.9248,-0.4182
62221.0,-2.5786,0.8308,7.4795,-0.2442,-0.8429,-0.3964
62231.0,-2.7773,0.6345,8.2121,-0.5635,-0.8035,-0.3805
62241.0,-2.7869,0.3735,8.5808,-0.7673,-0.8285,-0.3666
62251.0,-2.6767,0.1963,8.6646,-0.9003,-0.8913,-0.3656
62261.0,-2.5307,0.2251,8.5281,-0.97,-0.9461,-0.3704
62271.0,-2.49,0.3328,8.5473,-0.9833,-0.9732,-0.3672
62281.0,-2.4995,0.4525,8.4946,-0.8679,-0.9732,-0.3347
62291.0,-2.2194,0.4262,8.2624,-0.6311,-0.9472,-0.2677
62301.0,-1.7789,0.395,7.8219,-0.3368,-0.8721,-0.1846
62311.0,-1.3527,0.2897,7.3406,-0.0873,-0.7444,-0.1086
62321.0,-1.1037,0.1413,7.0533,0.0261,-0.6039,-0.0564
62331.0,-1.0247,-0.0982,7.2927,0.0133,-0.4699,-0.0319
62341.0,-1.0534,-0.2753,7.7883,0.0011,-0.3501,-0.0213
62351.0,-1.0822,-0.5459,8.5952,0.0293,-0.2565,-0.0128
62361.0,-1.1349,-0.6919,9.0812,0.1325,-0.1974,-0.0037
62371.0,-1.0558,-0.8404,9.4571,0.2373,-0.1745,-0.0005
62381.0,-0.9768,-0.8715,9.5409,0.3203,-0.1846,-0.0059
62391.0,-0.8236,-0.8715,9.4762,0.3193,-0.2144,-0.0319
62401.0,-0.7709,-0.7709,9.4188,0.2405,-0.2325,-0.0724
62411.0,-0.8954,-0.7111,9.7133,0.1043,-0.2453,-0.1197
62421.0,-0.9577,-0.6919,10.2448,0.0011,-0.2703,-0.1618
62431.0,-0.9313,-0.5698,10.5919,0.008,-0.2964,-0.1889
62441.0,-0.893,-0.3663,10.6614,0.0803,-0.3304,-0.1995
62451.0,-0.7685,-0.0814,10.4674,0.1474,-0.3709,-0.199
62461.0,-0.656,0.1197,10.1131,0.141,-0.4055,-0.1926
62471.0,-0.5267,0.1915,9.9216,0.041,-0.4257,-0.1868
62481.0,-0.4645,0.1269,10.0556,-0.0841,-0.4257,-0.1841
62491.0,-0.6249,0.079,10.2592,-0.1751,-0.431,-0.1799
62501.0,-0.6776,0.0766,10.4028,-0.2027,-0.4597,-0.1719
62511.0,-0.5626,0.1508,10.2544,-0.1373,-0.4741,-0.149
62521.0,-0.395,0.1532,10.1107,-0.0266,-0.4385,-0.1149
62531.0,-0.3256,0.2682,10.0389,0.0851,-0.3762,-0.0793
62541.0,-0.2634,0.316,10.1801,0.1676,-0.3257,-0.0388
62551.0,-0.2658,0.2849,10.2711,0.2208,-0.2975,0.0032
62561.0,-0.2059,0.1341,10.4483,0.2469,-0.2836,0.0383
62571.0,-0.0766,-0.0718,10.6638,0.281,-0.2687,0.0607
62581.0,0.0239,-0.1724,10.9176,0.2953,-0.2746,0.0654
62591.0,0.1221,-0.1149,11.0229,0.2719,-0.315,0.0548
62601.0,0.0862,0.0311,10.9271,0.2006,-0.3709,0.0404
62611.0,0.103,0.1125,11.0109,0.1054,-0.4241,0.0282
62621.0,0.2873,0.1676,10.8864,0.0239,-0.4762,0.0245
62631.0,0.2921,0.3112,10.6494,-0.0692,-0.5204,0.0266
62641.0,0.3472,0.3543,10.4483,-0.1932,-0.5502,0.0309
62651.0,0.407,0.2227,10.3597,-0.3203,-0.5795,0.0383
62661.0,0.5052,0.0766,10.2328,-0.4103,-0.6119,0.05
62671.0,0.6393,-0.1508,10.0987,-0.4406,-0.6279,0.0628
62681.0,0.6369,-0.3256,9.9838,-0.4055,-0.6119,0.0772
62691.0,0.7039,-0.5938,9.9383,-0.3193,-0.5816,0.0963
62701.0,0.8475,-0.8068,9.7252,-0.1942,-0.5497,0.1075
62711.0,0.8667,-0.9242,9.5577,-0.0702,-0.5172,0.1064
62721.0,0.9409,-1.008,9.4451,0.041,-0.4746,0.0958
62731.0,1.0223,-1.0056,9.335,0.1618,-0.4262,0.0819
62741.0,1.1803,-0.8978,9.1482,0.2762,-0.3645,0.0654
62751.0,1.2426,-0.6728,8.7364,0.3342,-0.2889,0.0442
62761.0,1.3168,-0.4429,8.4946,0.2597,-0.2315,0.0144
62771.0,1.3431,-0.3352,8.6048,0.1027,-0.1591,-0.016
62781.0,1.2641,-0.3759,9.3158,-0.0261,-0.0734,-0.0351
62791.0,1.0606,-0.4334,9.9886,-0.0468,-0.033,-0.0399
62801.0,0.893,-0.6297,10.4962,0.0287,-0.042,-0.0325
62811.0,0.9194,-1.0056,10.8074,0.1612,-0.0644,-0.0234
62821.0,1.1037,-1.2737,11.0277,0.3097,-0.1032,-0.0404
62831.0,1.221,-1.2617,11.248,0.4363,-0.1612,-0.083
62841.0,1.2665,-0.9697,11.3174,0.5348,-0.2512,-0.1266
62851.0,1.2857,-0.6129,11.1881,0.622,-0.357,-0.1527
62861.0,1.4605,-0.2251,10.635,0.6949,-0.4576,-0.1575
62871.0,1.6017,0.1125,9.6055,0.6699,-0.5401,-0.1575
62881.0,1.7669,0.3759,8.4755,0.4965,-0.5704,-0.1687
62891.0,1.8555,0.6057,7.6806,0.2006,-0.5002,-0.19
62901.0,1.6975,0.5698,7.6902,-0.1341,-0.3443,-0.2102
62911.0,1.5275,0.3831,8.3797,-0.3682,-0.1602,-0.2235
62921.0,1.4796,0.1939,9.2344,-0.4193,-0.0133,-0.2203
62931.0,1.494,0.1484,9.7324,-0.3198,0.0798,-0.2027
62941.0,1.3575,0.1772,10.1251,-0.1575,0.1618,-0.1799
62951.0,1.2019,0.2083,10.7715,0.0218,0.2336,-0.149
62961.0,1.1205,0.1652,11.2575,0.199,0.2389,-0.1171
62971.0,1.2186,0.2227,11.2288,0.3379,0.183,-0.0963
62981.0,1.2689,0.3903,11.0014,0.3954,0.1458,-0.0937
62991.0,1.2402,0.5339,11.0995,0.3384,0.1405,-0.1048
63001.0,1.1516,0.7518,11.3198,0.1905,0.1197,-0.1272
63011.0,1.0918,1.0199,11.7986,0.017,0.0782,-0.1485
63021.0,1.0056,1.3312,12.0572,-0.1282,0.0197,-0.1527
63031.0,0.984,1.6879,12.2224,-0.2655,-0.0591,-0.141
63041.0,0.893,1.9872,12.2799,-0.423,-0.157,-0.108
63051.0,0.7925,2.0566,12.3158,-0.5986,-0.2735,-0.0601
63061.0,0.838,1.8914,12.232,-0.7838,-0.4252,0.0
63071.0,1.0032,1.4485,12.0357,-0.9429,-0.5912,0.0596
63081.0,1.2641,0.8811,11.6717,-1.0461,-0.7492,0.108
63091.0,1.4796,0.4142,10.9942,-1.086,-0.8892,0.1383
63101.0,1.6065,0.0551,10.3046,-1.0669,-0.9802,0.1527
63111.0,1.7262,-0.2442,9.7588,-0.9663,-1.003,0.1671
63121.0,1.8459,-0.4525,9.2632,-0.7774,-0.9716,0.1836
63131.0,2.0423,-0.6225,8.5569,-0.547,-0.9168,0.207
63141.0,2.3822,-0.8906,7.7213,-0.315,-0.8067,0.224
63151.0,2.6217,-0.9337,6.8881,-0.1293,-0.6103,0.2203
63161.0,2.8204,-1.0271,6.4476,-0.0617,-0.3608,0.1942
63171.0,2.8419,-1.008,6.5721,-0.0841,-0.0894,0.1479
63181.0,2.715,-0.9361,7.3382,-0.1383,0.1799,0.0995
63191.0,2.4804,-0.8859,8.4611,-0.1415,0.4076,0.066
63201.0,2.217,-0.7733,9.6438,-0.0708,0.5577,0.0537
63211.0,1.8962,-0.5866,10.5249,0.049,0.63,0.0553
63221.0,1.7119,-0.4429,11.3174,0.1591,0.6199,0.0681
63231.0,1.6879,-0.2705,11.746,0.249,0.5624,0.0809
63241.0,1.4461,-0.0431,12.1242,0.2836,0.4954,0.0915
63251.0,1.2139,0.0407,12.4762,0.2549,0.4012,0.0995
63261.0,1.1684,0.0335,12.8257,0.1979,0.2772,0.1032
63271.0,1.142,-0.0694,12.9407,0.1415,0.1437,0.0947
63281.0,1.1277,-0.1053,13.0173,0.0766,0.009,0.075
63291.0,1.0463,-0.0766,13.0005,-0.0074,-0.1474,0.042
63301.0,0.9768,-0.0192,12.615,-0.124,-0.3315,0.0021
63311.0,1.1875,0.0958,12.153,-0.2517,-0.4757,-0.0394
63321.0,1.3958,0.2394,11.7795,-0.3815,-0.5401,-0.0702
63331.0,1.391,0.3017,11.7795,-0.5417,-0.5885,-0.0846
63341.0,1.3216,0.2274,11.904,-0.68,-0.6625,-0.0825
63351.0,1.4772,-0.0622,12.129,-0.738,-0.7391,-0.0623
63361.0,1.6927,-0.4238,12.378,-0.6955,-0.8141,-0.0335
63371.0,1.8675,-0.7254,12.4834,-0.6087,-0.9312,-0.0154
63381.0,2.0016,-0.7829,12.1721,-0.514,-1.0754,-0.0112
63391.0,2.1356,-0.9122,11.9902,-0.439,-1.1919,-0.0096
63401.0,2.3727,-0.917,11.6191,-0.414,-1.3361,-0.016
63411.0,2.5786,-0.9074,11.1306,-0.4917,-1.5293,-0.0362
63421.0,2.7246,-0.9697,10.8266,-0.5608,-1.6639,-0.0484
63431.0,2.7174,-1.2713,11.327,-0.5263,-1.7209,-0.0404
63441.0,2.466,-1.664,12.1338,-0.3108,-1.7996,-0.0149
63451.0,1.9752,-2.1045,13.0676,0.1086,-1.9135,0.0282
63461.0,1.1181,-2.1907,13.1777,0.5736,-2.1604,0.058
63471.0,0.3352,-1.9896,12.4283,0.8482,-2.627,0.0399
63481.0,0.3065,-1.7502,9.8402,0.9152,-3.1996,-0.041
63491.0,1.5778,-1.415,5.5833,0.5917,-3.7434,-0.2251
63501.0,2.6025,-0.4645,1.2546,-0.3145,-4.0957,-0.5465
63511.0,2.9066,1.2809,-1.5538,-1.516,-4.1388,-0.9046
63521.0,2.9113,3.1244,-3.6871,-2.6712,-4.0137,-1.1547
63531.0,2.2338,4.9273,-6.0166,-3.6753,-3.8089,-1.2691
63541.0,1.6352,6.4859,-7.4771,-4.4953,-3.4555,-1.2579
63551.0,0.7997,7.9607,-8.0589,-5.0189,-3.0213,-1.1004
63561.0,-0.4142,10.1347,-9.6965,-5.1599,-2.6387,-0.7657
63571.0,-1.0127,12.4546,-14.0564,-5.4382,-2.6004,-0.2618
63581.0,-0.1939,13.9247,-20.8463,-5.9836,-2.6318,0.4347
63591.0,0.3041,14.8536,-28.4862,-6.495,-2.1604,1.2717
63601.0,0.2705,13.939,-30.732,-6.4167,-0.8482,2.221
63611.0,-2.2458,13.4003,-30.1885,-4.6384,1.3968,3.2906
63621.0,-5.0087,11.0397,-27.9332,-1.5782,3.7024,4.3889
63631.0,-9.9503,8.0469,-27.0856,2.2785,6.2954,5.3339
63641.0,-14.6908,3.3615,-23.547,5.6824,8.9762,5.8995
63651.0,-18.9429,-3.3758,-14.6525,8.9368,11.8927,5.8591
63661.0,-25.0194,-5.5929,-6.7181,12.7164,14.7816,4.9694
63671.0,-33.4087,-1.2426,-0.9697,15.8862,16.8701,3.289
63681.0,-46.3182,18.0714,1.7071,17.4357,17.4357,1.3436
63691.0,-59.527,44.2329,-2.7797,16.3912,17.4357,0.4544
63701.0,-59.618,36.1357,26.0489,7.7907,17.4357,0.2512
63711.0,-53.5703,20.4752,55.8519,1.3085,15.27,0.4039
63721.0,-51.7315,11.4132,76.4852,-0.0591,13.1836,0.7508
63731.0,-46.1794,3.1651,78.4508,-0.0697,9.4221,0.9472
63741.0,-38.1444,1.9824,78.4508,0.3363,3.5396,0.7535
63751.0,-31.2874,3.2202,72.6927,-0.273,-2.2205,0.248
63761.0,-28.3689,4.3718,54.4441,-1.9699,-6.3226,-0.4001
63771.0,-25.1152,5.6048,36.3464,-3.3475,-8.8001,-0.853
63781.0,-20.0682,5.6647,20.061,-4.0744,-9.7856,-1.0461
63791.0,-14.0779,4.6017,6.5936,-4.3702,-9.4961,-1.0813
63801.0,-7.9895,3.802,-2.6671,-4.5794,-8.3403,-1.0951
63811.0,-3.6512,1.9968,-5.7844,-4.7773,-6.6088,-1.0573
63821.0,-0.7709,0.8882,-5.691,-4.723,-4.8545,-1.0179
63831.0,0.8021,-1.3838,-2.806,-4.4139,-3.4055,-0.986
63841.0,2.4828,-1.6951,-0.3807,-3.6412,-2.3067,-0.9711
63851.0,2.1596,-2.4469,1.8196,-2.5249,-1.3595,-0.8583
63861.0,1.2833,-2.7342,3.4333,-1.1818,-0.5678,-0.7391
63871.0,0.3304,-2.6863,4.2329,0.1086,0.0325,-0.6566
63881.0,-1.0965,-2.1069,4.7908,1.1435,0.4911,-0.6284
63891.0,-2.3152,-1.1899,5.1691,1.8805,0.8487,-0.6242
63901.0,-3.1939,-0.0048,5.5593,2.304,1.1792,-0.622
63911.0,-4.0342,1.4102,6.5697,2.2966,1.441,-0.6204
63921.0,-4.9656,2.4421,8.7101,1.7932,1.4718,-0.6135
63931.0,-5.5929,3.0837,11.0325,1.1557,1.2808,-0.5741
63941.0,-6.0406,3.4022,13.4554,0.6529,0.9892,-0.4816
63951.0,-6.3566,3.4429,15.4091,0.4198,0.6093,-0.3283
63961.0,-6.4284,3.2848,16.9749,0.4385,0.1389,-0.1453
63971.0,-6.1746,3.3471,16.6972,0.6439,-0.3932,0.0564
63981.0,-5.9687,3.1532,15.5144,0.6987,-0.9684,0.2341
63991.0,-5.5737,2.8228,13.6541,0.5401,-1.5043,0.3576
64001.0,-4.9153,2.1141,11.9614,0.2528,-1.8901,0.4289
64011.0,-4.2569,1.2881,10.5345,-0.0234,-2.1002,0.4528
64021.0,-3.8738,0.5914,9.5864,-0.2395,-2.1955,0.4193
64031.0,-3.486,0.0646,8.9256,-0.2932,-2.1854,0.364
64041.0,-2.9305,-0.2107,8.2791,-0.1543,-2.0731,0.3108
64051.0,-2.3176,-0.5387,7.7883,0.0559,-1.9055,0.2591
64061.0,-1.506,-0.735,7.2616,0.2687,-1.6974,0.2022
64071.0,-0.7566,-0.6823,6.9288,0.3874,-1.4622,0.1235
64081.0,-0.5411,-0.4812,7.1946,0.3368,-1.2494,0.0293
64091.0,-0.6321,-0.2969,8.0014,0.174,-1.118,-0.0596
64101.0,-0.6847,-0.1724,8.8083,0.041,-1.0765,-0.1293
64111.0,-0.6416,-0.1724,9.4762,-0.0165,-1.0993,-0.1756
64121.0,-0.6273,-0.1556,9.7372,0.0287,-1.1355,-0.2011
64131.0,-0.4693,-0.0335,9.6486,0.132,-1.1712,-0.2171
64141.0,-0.0646,0.2466,9.019,0.1985,-1.1983,-0.2347
64151.0,0.1413,0.5962,8.4563,0.124,-1.1706,-0.2581
64161.0,0.1724,0.8811,8.339,-0.0889,-1.1089,-0.2826
64171.0,0.1293,0.9864,8.7173,-0.3725,-1.069,-0.2969
64181.0,0.0359,0.7254,9.3326,-0.6045,-1.0658,-0.2921
64191.0,0.2083,0.3256,9.7252,-0.6875,-1.0892,-0.2756
64201.0,0.3615,0.0359,9.9742,-0.6306,-1.1174,-0.2591
64211.0,0.5363,-0.1221,9.7348,-0.5007,-1.1499,-0.2469
64221.0,0.7183,-0.0168,9.3302,-0.3682,-1.1595,-0.2453
64231.0,0.8547,0.0814,8.9447,-0.2964,-1.1393,-0.2416
64241.0,0.9601,0.0934,8.6742,-0.2948,-1.1137,-0.2379
64251.0,1.2282,0.0168,8.4874,-0.3251,-1.0962,-0.2373
64261.0,1.5107,0.0383,7.7524,-0.3719,-1.0892,-0.2458
64271.0,1.8699,0.1293,6.7708,-0.5204,-1.0584,-0.2719
64281.0,2.0901,0.3735,6.0334,-0.7402,-0.903,-0.3129
64291.0,2.0351,0.7111,6.1196,-1.0073,-0.679,-0.3475
64301.0,1.8196,0.9912,6.6032,-1.243,-0.4699,-0.348
64311.0,1.5706,1.1085,7.2496,-1.4032,-0.2895,-0.3065
64321.0,1.4006,0.8787,8.011,-1.4862,-0.141,-0.2341
64331.0,1.4102,0.5555,8.7843,-1.4899,-0.0511,-0.1538
64341.0,1.4581,0.1413,9.4403,-1.4303,-0.0229,-0.0803
64351.0,1.3767,-0.2346,10.0724,-1.3031,-0.0192,-0.017
64361.0,1.3695,-0.3783,10.4531,-1.0813,-0.0213,0.042
64371.0,1.2354,-0.6847,10.9559,-0.821,-0.0394,0.107
64381.0,1.2019,-0.8954,11.0181,-0.5263,-0.0921,0.1703
64391.0,1.3982,-1.1181,10.8409,-0.2591,-0.1474,0.2192
64401.0,1.5921,-1.3001,10.4818,-0.0782,-0.1894,0.2458
64411.0,1.6879,-1.4796,10.2256,-0.0271,-0.2251,0.2448
64421.0,1.7334,-1.6712,9.7971,-0.0905,-0.2911,0.215
64431.0,1.9968,-1.8866,9.1195,-0.2698,-0.3688,0.1559
64441.0,2.2362,-1.9321,8.5401,-0.5209,-0.3618,0.0708
64451.0,2.1859,-1.9513,8.5712,-0.8184,-0.3033,-0.0202
64461.0,2.0087,-1.9944,8.9998,-1.0664,-0.2714,-0.0937
64471.0,1.9992,-2.0997,9.4212,-1.1557,-0.2666,-0.1352
64481.0,2.1117,-2.1811,9.5984,-1.0722,-0.2586,-0.1447
64491.0,2.1787,-2.2338,9.6223,-0.8971,-0.2528,-0.1357
64501.0,2.1955,-2.2242,9.5385,-0.6806,-0.2559,-0.1155
64511.0,2.2338,-2.2553,9.414,-0.4613,-0.2677,-0.0905
64521.0,2.2889,-2.2601,8.9663,-0.2512,-0.2831,-0.0644
64531.0,2.3296,-2.3463,8.4731,-0.0633,-0.2634,-0.041
64541.0,2.4565,-2.4086,7.8506,0.0835,-0.1937,-0.0325
64551.0,2.557,-2.49,7.6782,0.1634,-0.0676,-0.042
64561.0,2.5067,-2.5043,7.8027,0.2331,0.1032,-0.0628
64571.0,2.4588,-2.4445,8.0756,0.2969,0.2442,-0.0894
64581.0,2.4756,-2.2984,8.3582,0.3485,0.3645,-0.1208
64591.0,2.3343,-2.0016,8.7484,0.3719,0.4922,-0.1527
64601.0,2.0877,-1.6951,9.4858,0.3549,0.5715,-0.174
64611.0,1.9345,-1.4222,10.0844,0.3326,0.572,-0.1793
64621.0,1.7885,-1.2115,10.5297,0.3283,0.5369,-0.1671
64631.0,1.5826,-1.0511,10.8481,0.3453,0.4842,-0.1383
64641.0,1.5203,-1.0439,10.9607,0.3507,0.4017,-0.1048
64651.0,1.6065,-1.142,10.8338,0.3443,0.3219,-0.0793
64661.0,1.6831,-1.2689,10.7524,0.3028,0.265,-0.0729
64671.0,1.719,-1.3001,10.8409,0.2293,0.224,-0.0846
64681.0,1.6089,-1.1995,11.054,0.1703,0.1836,-0.0974
64691.0,1.4629,-1.1061,11.1594,0.1591,0.1261,-0.0979
64701.0,1.4629,-1.0367,11.0995,0.2187,0.0777,-0.0793
64711.0,1.5778,-0.984,10.7452,0.2841,0.0532,-0.0543
64721.0,1.6712,-0.9505,10.2544,0.2831,0.0596,-0.0394
64731.0,1.7119,-0.9218,10.003,0.1916,0.0915,-0.0474
64741.0,1.743,-0.9792,10.2017,0.0442,0.1431,-0.0644
64751.0,1.6735,-1.0319,10.6446,-0.0974,0.1772,-0.0835
64761.0,1.5036,-1.0271,11.248,-0.1724,0.1745,-0.0931
64771.0,1.4653,-1.0199,11.7268,-0.1431,0.133,-0.0846
64781.0,1.494,-1.0199,11.8561,-0.0436,0.067,-0.0596
64791.0,1.5897,-0.9409,11.6765,0.0686,0.0021,-0.0314
64801.0,1.5969,-0.8356,11.4994,0.1501,-0.0495,-0.0037
64811.0,1.6951,-0.838,11.2504,0.1756,-0.1144,0.0218
64821.0,1.8555,-0.9122,10.8098,0.1596,-0.1687,0.0351
64831.0,1.9632,-0.9481,10.4794,0.099,-0.1767,0.0362
64841.0,2.0375,-0.9146,10.3813,-0.0053,-0.1607,0.0277
64851.0,2.059,-0.9529,10.5512,-0.1165,-0.1447,0.0245
64861.0,2.071,-0.9744,10.7643,-0.1841,-0.1421,0.0319
64871.0,1.9776,-0.9792,11.236,-0.1628,-0.1373,0.0623
64881.0,1.9058,-1.0271,11.983,0.0117,-0.1006,0.1261
64891.0,1.8028,-1.0319,12.7755,0.3528,-0.0511,0.2293
64901.0,1.6376,-1.1612,13.1681,0.7742,-0.0628,0.3517
64911.0,1.7597,-1.3767,12.6486,1.1073,-0.1857,0.4486
64921.0,2.0423,-1.4509,11.3557,1.2356,-0.29,0.4837
64931.0,2.162,-1.4174,10.7093,1.0887,-0.2815,0.4475
64941.0,1.9489,-1.3838,10.7907,0.7237,-0.2458,0.3618
64951.0,1.7597,-1.4988,11.3461,0.274,-0.2969,0.2512
64961.0,1.7142,-1.561,11.7053,-0.0995,-0.4055,0.1368
64971.0,1.6999,-1.5682,12.0045,-0.3257,-0.4906,0.0346
64981.0,1.6376,-1.3982,12.1123,-0.4225,-0.5763,-0.0426
64991.0,1.5993,-1.1756,12.0979,-0.439,-0.696,-0.0984
65001.0,1.6424,-0.9625,11.7507,-0.3916,-0.821,-0.1314
65011.0,1.7669,-0.723,11.1809,-0.3219,-0.9152,-0.149
65021.0,1.9082,-0.4764,10.7212,-0.2794,-0.9871,-0.1607
65031.0,1.9944,-0.2873,10.2424,-0.2836,-1.0536,-0.1681
65041.0,2.059,-0.1197,9.7636,-0.348,-1.1414,-0.1767
65051.0,2.1931,-0.1053,9.2536,-0.4576,-1.2324,-0.1894
65061.0,2.3822,-0.103,8.7604,-0.5523,-1.292,-0.2054
65071.0,2.4948,-0.0838,8.3246,-0.6359,-1.3393,-0.2256
65081.0,2.5331,-0.1006,7.9487,-0.7141,-1.3771,-0.2437
65091.0,2.4828,-0.0958,7.841,-0.7545,-1.3723,-0.2533
65101.0,2.387,-0.2538,8.2672,-0.7492,-1.3654,-0.2549
65111.0,2.3942,-0.3089,8.272,-0.6747,-1.4303,-0.2533
65121.0,2.5259,-0.3998,7.5968,-0.6572,-1.6049,-0.2655
65131.0,2.6911,-0.3352,6.6152,-0.6976,-1.7618,-0.2969
65141.0,2.7246,-0.2969,5.9424,-0.7466,-1.8134,-0.331
65151.0,2.8635,-0.2945,5.2026,-0.8184,-1.8805,-0.3666
65161.0,2.8826,-0.2753,4.221,-0.945,-1.9928,-0.4129
65171.0,2.7557,-0.1532,3.2801,-1.118,-2.088,-0.4741
65181.0,2.4612,0.2107,2.7342,-1.3415,-2.2083,-0.5507
65191.0,1.8794,0.7901,2.332,-1.5006,-2.3759,-0.597
65201.0,1.2402,1.719,1.6855,-1.4713,-2.5275,-0.5859
65211.0,-0.1484,3.0143,1.2234,-1.26,-2.6536,-0.4885
65221.0,-1.5419,4.7716,-0.929,-0.8035,-2.7931,-0.2607
65231.0,-1.5227,6.3327,-6.5984,-0.6055,-3.1038,0.0798
65241.0,0.1556,7.5753,-16.3165,-1.1898,-3.3693,0.4581
65251.0,0.5842,9.651,-28.7951,-3.1176,-3.3092,0.737
65261.0,0.6297,10.7404,-36.8061,-6.4157,-2.7457,0.9158
65271.0,0.1891,12.9574,-37.589,-8.6069,-1.0993,1.3026
65281.0,-2.4588,15.1242,-31.4047,-8.2813,1.4431,2.2828
65291.0,-6.4739,15.6844,-24.1312,-4.7603,4.358,3.9328
65301.0,-12.2128,11.9878,-19.6851,1.2217,7.5203,5.7309
65311.0,-18.251,6.0142,-19.4122,7.4836,10.8562,6.9616
65321.0,-28.1869,-2.0327,-15.9621,12.7079,14.8656,7.0356
65331.0,-42.1882,-4.4053,-13.3285,16.7924,17.4357,5.4754
65341.0,-56.8096,3.3974,-7.4412,17.4357,17.4357,2.6494
65351.0,-63.7121,25.527,3.8714,15.0513,17.4357,0.0623
65361.0,-67.6123,29.8629,33.0089,7.5347,17.4357,-1.1893
65371.0,-58.8423,25.1343,60.1639,1.6128,15.8793,-1.1206
65381.0,-51.8393,26.8653,74.5267,1.5107,13.8238,-0.0521
65391.0,-49.0404,26.7552,78.4508,1.4026,10.9019,1.0871
65401.0,-42.9424,18.5048,78.4508,-0.7604,4.1031,1.9071
65411.0,-35.2043,5.9352,75.2952,-2.4488,-2.5589,2.3924
65421.0,-32.4917,-2.4397,55.3683,-2.6207,-6.6477,2.3812
65431.0,-28.5844,-4.8698,30.5668,-2.6872,-9.4264,1.8544
65441.0,-22.0937,-5.4013,8.7987,-3.7482,-10.7439,0.9567
65451.0,-13.7714,-4.8914,-5.442,-4.9369,-9.9611,0.0069
65461.0,-8.2648,-3.9337,-9.2105,-5.435,-7.2915,-0.7551
65471.0,-6.5194,-2.0303,-6.371,-5.2237,-4.5389,-1.2462
65481.0,-5.2218,-1.8076,-2.0686,-4.6448,-2.776,-1.4676
65491.0,-2.6695,-1.1085,1.5371,-3.7578,-1.6299,-1.4665
65501.0,-2.4157,-2.1476,5.3989,-2.6302,-0.7093,-1.2723
65511.0,-2.5259,-2.7078,9.007,-1.3622,-0.2027,-1.1244
65521.0,-2.9449,-2.5498,10.8098,-0.1437,-0.1149,-1.0153
65531.0,-3.4812,-2.0087,11.5951,0.7886,-0.2543,-0.9323
65541.0,-3.7038,-1.3934,11.4994,1.3766,-0.4949,-0.8775
65551.0,-4.1396,-0.8763,11.3533,1.582,-0.7721,-0.8642
65561.0,-4.4317,-0.2298,11.0157,1.5474,-1.0376,-0.8775
65571.0,-4.7764,0.2849,10.8649,1.3846,-1.2345,-0.8913
65581.0,-5.2122,0.747,10.6518,1.1925,-1.3771,-0.8977
65591.0,-5.3726,1.1875,10.7907,1.0004,-1.4606,-0.8961
65601.0,-5.2792,1.9872,10.7141,0.7976,-1.5538,-0.8854
65611.0,-5.1739,2.6935,10.5369,0.4613,-1.7224,-0.8508
65621.0,-5.2218,3.1819,10.3166,0.0835,-1.8991,-0.779
65631.0,-5.023,3.2226,10.2161,-0.1979,-2.0385,-0.6593
65641.0,-4.7669,3.0406,9.8402,-0.3251,-2.1779,-0.514
65651.0,-4.2976,2.8706,8.8442,-0.2927,-2.2663,-0.3374
65661.0,-3.7469,2.4014,7.7955,-0.2256,-2.262,-0.1469
65671.0,-3.134,1.6664,6.9121,-0.1729,-2.1891,0.0165
65681.0,-2.3774,0.8667,6.0597,-0.1458,-2.0869,0.133
65691.0,-1.7047,0.1077,5.3917,-0.1352,-1.9273,0.1969
65701.0,-1.1277,-0.5315,5.0685,-0.0766,-1.6533,0.2182
65711.0,-0.6895,-0.9457,5.0661,0.0074,-1.3335,0.2059
65721.0,-0.3304,-1.3336,5.1523,0.0479,-1.0541,0.1681
65731.0,-0.1484,-1.4868,5.2816,0.0532,-0.7907,0.1075
65741.0,-0.0192,-1.5826,5.7126,-0.0021,-0.5401,0.0309
65751.0,0.0838,-1.743,6.4356,-0.1128,-0.3555,-0.0559
65761.0,0.1317,-1.8579,7.3119,-0.1969,-0.2246,-0.1474
65771.0,0.2251,-1.7789,8.0924,-0.2027,-0.1357,-0.2363
65781.0,0.1891,-1.5227,8.7508,-0.1538,-0.0894,-0.3113
65791.0,-0.0431,-1.2067,9.4691,-0.0734,-0.0867,-0.3645
65801.0,-0.1844,-0.8284,9.9383,0.0575,-0.1282,-0.3874
65811.0,-0.1915,-0.4741,10.0796,0.1969,-0.207,-0.3826
65821.0,-0.182,-0.2753,10.1754,0.3198,-0.2703,-0.3544
65831.0,-0.1197,-0.2011,10.1706,0.3948,-0.3448,-0.3241
65841.0,0.0551,-0.091,10.0317,0.4033,-0.4566,-0.3076
65851.0,0.3184,0.0886,9.3925,0.3581,-0.5683,-0.3017
65861.0,0.4645,0.1939,8.8274,0.2277,-0.6268,-0.3044
65871.0,0.4932,0.2825,8.7173,0.0883,-0.605,-0.3092
65881.0,0.3687,0.3903,8.8753,-0.0016,-0.5571,-0.3054
65891.0,0.1772,0.2298,9.1794,-0.009,-0.5161,-0.2804
65901.0,0.2729,0.0455,9.3398,0.091,-0.4709,-0.2474
65911.0,0.4741,-0.0886,9.3637,0.2368,-0.4289,-0.2246
65921.0,0.6393,-0.1221,9.2081,0.3448,-0.4044,-0.2166
65931.0,0.8499,-0.1389,8.9136,0.3746,-0.3916,-0.2272
65941.0,0.9361,-0.091,8.6957,0.3171,-0.3693,-0.2581
65951.0,0.9098,-0.0072,8.655,0.2208,-0.315,-0.299
65961.0,0.8859,0.182,8.7149,0.1112,-0.2485,-0.3395
65971.0,0.6847,0.2921,9.098,-0.0122,-0.1761,-0.3704
65981.0,0.5195,0.3879,9.6462,-0.0788,-0.1197,-0.3837
65991.0,0.4693,0.4597,10.2496,-0.0766,-0.0867,-0.3826
66001.0,0.577,0.5938,10.5584,-0.0186,-0.0921,-0.3624
66011.0,0.5459,0.6967,10.7955,0.0197,-0.1309,-0.332
66021.0,0.4286,0.7973,10.8433,0.0426,-0.1894,-0.2985
66031.0,0.3448,0.9098,10.6279,0.058,-0.2597,-0.2607
66041.0,0.4621,0.8739,10.4004,0.0495,-0.3139,-0.2208
66051.0,0.5483,0.7853,10.0078,0.0367,-0.3299,-0.1862
66061.0,0.6201,0.6991,9.8737,-0.008,-0.3124,-0.1676
66071.0,-0.5626,1.2306,9.6486,-0.041,-0.2655,-0.1559
66081.0,0.4453,1.4437,10.4914,-0.0442,-0.2043,-0.1266
66091.0,0.8021,1.4461,10.343,-0.0479,-0.2442,-0.0537
66101.0,0.6225,0.7254,10.8026,-0.0027,-0.2331,0.0319
66111.0,0.5028,0.6297,10.896,0.2543,-0.1671,0.083
66121.0,0.8691,0.6967,10.3549,0.4959,-0.1751,0.1197
66131.0,1.008,0.6369,9.5457,0.6199,-0.1437,0.1485
66141.0,0.9792,0.6991,8.916,0.5912,-0.0378,0.1469
66151.0,0.8739,0.5459,9.3254,0.4001,0.0846,0.1181
66161.0,0.8356,0.4501,9.7588,0.1713,0.1368,0.0761
66171.0,0.6704,0.3424,10.5129,-0.025,0.1415,0.0346
66181.0,0.6201,0.34,11.1666,-0.0958,0.1314,0.0064
66191.0,0.4573,0.4717,11.825,-0.0686,0.0851,-0.0064
66201.0,0.2825,0.5411,12.3182,0.0314,-0.0027,0.0032
66211.0,0.2993,0.6273,12.3373,0.232,-0.1011,0.0335
66221.0,0.5243,0.8068,11.8441,0.4294,-0.2017,0.0633
66231.0,0.8356,1.0558,10.9487,0.506,-0.2852,0.0825
66241.0,0.9912,1.3455,10.0485,0.4241,-0.299,0.0857
66251.0,0.9864,1.5155,9.6414,0.1825,-0.2671,0.0782
66261.0,0.9002,1.4724,9.6606,-0.1091,-0.2198,0.0734
66271.0,0.8906,1.2306,9.9551,-0.3512,-0.157,0.074
66281.0,0.8667,0.9792,10.5728,-0.4906,-0.0968,0.075
66291.0,0.7398,0.759,11.2288,-0.5167,-0.0835,0.0846
66301.0,0.6369,0.589,11.6837,-0.414,-0.1086,0.1032
66311.0,0.735,0.3998,11.8274,-0.2246,-0.1442,0.1272
66321.0,0.9625,0.3017,11.6406,-0.0649,-0.207,0.1373
66331.0,1.1756,0.2801,11.3342,-0.0223,-0.2756,0.1229
66341.0,1.2139,0.3735,11.0038,-0.0958,-0.3485,0.0883
66351.0,1.3048,0.3903,10.7548,-0.2549,-0.4395,0.0479
66361.0,1.2354,0.4477,10.5058,-0.4044,-0.5087,0.017
66371.0,1.3072,0.3232,10.2879,-0.4906,-0.5342,0.0027
66381.0,1.3503,0.2107,10.0413,-0.4933,-0.5236,0.0005
66391.0,1.47,0.0407,9.9527,-0.447,-0.4927,0.0016
66401.0,1.6185,-0.0599,9.9168,-0.331,-0.4315,-0.0011
66411.0,1.7765,0.0359,9.9048,-0.1745,-0.3656,-0.0053
66421.0,1.9345,0.2274,9.6582,-0.0474,-0.323,-0.0059
66431.0,2.047,0.4525,9.4906,0.009,-0.2836,-0.0085
66441.0,2.0207,0.7398,9.4619,0.0197,-0.2395,-0.0085
66451.0,1.9776,1.0032,9.596,0.0293,-0.2038,0.008
66461.0,1.7166,1.3001,9.845,0.0979,-0.149,0.0463
66471.0,1.6328,1.5467,10.0221,0.2677,-0.0798,0.1181
66481.0,1.6759,1.743,9.9407,0.4879,0.0048,0.2097
66491.0,1.5586,1.8842,9.7252,0.6529,0.1155,0.3012
66501.0,1.4054,1.8052,9.8282,0.6699,0.2325,0.3714
66511.0,1.403,1.4437,10.3238,0.5188,0.2911,0.4108
66521.0,1.4054,0.9673,11.0612,0.2581,0.2703,0.4065
66531.0,1.4461,0.5578,11.9926,0.0165,0.1995,0.3735
66541.0,1.3815,0.2873,12.6486,-0.1474,0.0766,0.3315
66551.0,0.9864,0.1101,13.0412,-0.2634,-0.1282,0.2852
66561.0,0.9625,-0.0575,12.7994,-0.3113,-0.3757,0.2437
66571.0,1.2617,-0.2849,12.05,-0.2943,-0.5694,0.2059
66581.0,1.5706,-0.4118,11.0373,-0.3044,-0.6859,0.1485
66591.0,1.7382,-0.407,10.1466,-0.422,-0.7508,0.0649
66601.0,1.8675,-0.3903,9.4571,-0.6061,-0.7678,-0.0293
66611.0,1.9728,-0.4214,9.0621,-0.8019,-0.738,-0.1213
66621.0,2.0327,-0.4788,8.8274,-0.9988,-0.7013,-0.207
66631.0,2.0662,-0.5866,8.7628,-1.1691,-0.6737,-0.282
66641.0,2.1404,-0.723,8.8562,-1.2914,-0.654,-0.3469
66651.0,2.2505,-0.9673,9.1411,-1.3617,-0.6455,-0.4033
66661.0,2.32,-1.087,9.2919,-1.3697,-0.6854,-0.4555
66671.0,2.4157,-1.1372,9.1602,-1.3207,-0.7689,-0.4981
66681.0,2.5139,-1.0798,8.6814,-1.2521,-0.8657,-0.5374
66691.0,2.5738,-0.9122,7.9344,-1.2132,-0.9573,-0.5773
66701.0,2.6145,-0.7757,6.9935,-1.242,-1.0291,-0.6173
66711.0,2.5738,-0.5578,5.964,-1.3473,-1.0807,-0.6614
66721.0,2.5666,-0.4214,5.0733,-1.5644,-1.126,-0.7136
66731.0,2.6073,-0.2179,4.3239,-1.8688,-1.1733,-0.7785
66741.0,2.5211,-0.0192,4.0941,-2.2104,-1.2356,-0.8461
66751.0,2.3391,0.2514,4.2473,-2.4765,-1.325,-0.895
66761.0,1.968,0.7709,4.209,-2.6095,-1.4857,-0.9211
66771.0,1.992,1.2498,3.5889,-2.6834,-1.7751,-0.9163
66781.0,1.8579,2.0734,1.6831,-2.7771,-2.1072,-0.8897
66791.0,1.6903,2.9521,-0.5507,-2.9985,-2.3668,-0.8354
66801.0,1.3144,3.7757,-3.0047,-3.3656,-2.527,-0.7215
66811.0,0.3041,4.3,-4.2856,-3.8089,-2.5153,-0.5454
66821.0,0.5555,4.5131,-4.9392,-4.1329,-2.4131,-0.3092
66831.0,-1.3144,5.6479,-6.1938,-4.2803,-2.3296,-0.0239
66841.0,-0.079,6.1435,-10.4674,-4.4862,-2.436,0.365
66851.0,2.15,6.3279,-15.9167,-4.6406,-2.1487,0.8046
66861.0,2.636,7.604,-19.9437,-4.209,-0.7875,1.3441
66871.0,1.9321,9.5481,-20.7505,-3.2837,1.209,2.0955
66881.0,-1.6831,11.0947,-17.4154,-1.6049,3.6572,3.1336
66891.0,-8.2313,10.9822,-12.7587,0.7716,6.122,4.3889
66901.0,-13.8145,6.9743,-5.6527,3.314,8.2062,5.5824
66911.0,-18.6389,2.1117,0.5387,6.5391,10.2868,6.4359
66921.0,-23.0921,-4.3048,8.6933,10.2863,12.5068,6.6025
66931.0,-28.9411,-6.371,12.4187,14.6523,14.3825,5.7527
66941.0,-37.7877,3.158,6.8139,17.4357,15.5388,4.1164
66951.0,-40.2106,23.8822,-4.8267,17.4357,16.4348,2.436
66961.0,-46.7492,27.0976,16.0866,10.4161,16.9904,1.0094
66971.0,-45.6407,20.2334,49.3684,2.2711,14.8715,0.1288
66981.0,-43.9432,14.5879,69.372,-0.332,12.8659,0.2325
66991.0,-40.9792,8.4396,78.4508,-1.6836,9.8515,0.4129
67001.0,-36.0902,1.154,78.4508,-3.2294,3.1097,0.357
67011.0,-32.8891,1.1899,78.3048,-2.9734,-3.8594,0.2943
67021.0,-29.8509,2.8084,48.5975,-2.6755,-8.741,0.2144
67031.0,-26.2883,3.6129,22.8311,-3.7423,-11.2707,-0.0984
67041.0,-20.2597,3.6368,3.3136,-5.211,-11.7022,-0.4693
67051.0,-12.639,3.0598,-9.8186,-6.0783,-10.2905,-0.7173
67061.0,-7.5178,1.7502,-13.5584,-6.5381,-7.5432,-0.8727
67071.0,-5.3486,1.1157,-9.9599,-6.9121,-4.9822,-0.9567
67081.0,-3.5674,-1.1109,-3.9002,-6.8116,-3.4305,-0.9206
67091.0,-1.3791,-3.4046,-0.079,-5.526,-2.2285,-0.804
67101.0,0.0263,-5.4803,3.0263,-3.5417,-1.1483,-0.6992
67111.0,-0.2346,-6.0166,4.6495,-1.2579,-0.248,-0.6465
67121.0,-0.7566,-6.1699,5.7988,0.8556,0.4055,-0.6428
67131.0,-1.2881,-5.3989,5.7748,2.6244,0.8482,-0.7184
67141.0,-1.8962,-3.9648,5.5402,3.8323,1.151,-0.8322
67151.0,-2.4397,-1.9273,5.0613,4.4133,1.3776,-0.9307
67161.0,-3.0861,0.395,5.1284,4.1483,1.5075,-1.0158
67171.0,-4.0989,1.7861,7.604,3.0107,1.4569,-1.1025
67181.0,-5.1978,2.6264,11.2982,1.6203,1.151,-1.1802
67191.0,-6.1459,3.0311,14.801,0.5295,0.6428,-1.1951
67201.0,-7.2425,3.5099,17.0683,-0.0053,0.0367,-1.1089
67211.0,-7.7835,3.869,18.16,-0.0654,-0.596,-0.9179
67221.0,-7.9775,3.9983,17.7027,0.1293,-1.2558,-0.6524
67231.0,-7.7117,3.6823,15.9119,0.3241,-1.9209,-0.3794
67241.0,-6.7349,3.1987,13.3189,0.4103,-2.4562,-0.1501
67251.0,-5.6934,2.6384,10.5441,0.3092,-2.7968,0.0064
67261.0,-5.0159,2.1668,7.9727,-0.0133,-2.9921,0.0814
67271.0,-4.4436,1.6975,5.9328,-0.4486,-3.0261,0.1022
67281.0,-3.6655,1.0199,4.8004,-0.8264,-2.8729,0.1075
67291.0,-2.9473,0.2849,4.3527,-1.0637,-2.6127,0.1064
67301.0,-2.1572,-0.498,4.2425,-1.1387,-2.3503,0.0947
67311.0,-1.3048,-1.0702,3.9672,-1.0557,-2.0806,0.0713
67321.0,-0.5818,-1.506,3.9217,-0.8732,-1.7655,0.0404
67331.0,-0.1891,-1.7023,4.0773,-0.6364,-1.4516,0.0112
67341.0,-0.0383,-1.8196,4.4029,-0.3805,-1.1834,-0.0144
67351.0,0.1389,-1.9225,4.8866,-0.0452,-0.9206,-0.0213
67361.0,0.249,-1.9273,5.0637,0.3379,-0.6662,-0.0112
67371.0,0.3232,-2.0351,5.4229,0.6641,-0.4422,-0.0027
67381.0,0.5746,-1.9609,5.4564,0.919,-0.2453,-0.0138
67391.0,0.9002,-1.6424,5.545,0.9881,-0.0713,-0.0537
67401.0,0.6704,-1.1995,5.8251,0.8386,0.0846,-0.1054
67411.0,0.1604,-1.0367,6.9456,0.5545,0.2134,-0.1511
67421.0,-0.0694,-1.1037,8.4515,0.3054,0.2645,-0.1788
67431.0,-0.1389,-1.3024,9.6774,0.2118,0.2533,-0.1905
67441.0,-0.2514,-1.4317,10.3166,0.2049,0.1623,-0.2027
67451.0,-0.3543,-1.4222,10.5536,0.2256,0.0537,-0.223
67461.0,-0.3089,-1.324,10.6566,0.2283,-0.041,-0.2506
67471.0,-0.1772,-1.1133,10.5967,0.1916,-0.1447,-0.2799
67481.0,-0.182,-0.8595,10.4842,0.116,-0.2426,-0.3092
67491.0,-0.2107,-0.5602,10.2855,0.0266,-0.3299,-0.3257
67501.0,-0.1245,-0.2251,9.7779,-0.0537,-0.406,-0.3267
67511.0,-0.0479,-0.0168,9.4451,-0.1378,-0.4337,-0.3108
67521.0,-0.0048,0.1508,9.0405,-0.1644,-0.3826,-0.2735
67531.0,0.0838,0.0622,9.0501,-0.1767,-0.2969,-0.2288
67541.0,0.2203,0.0742,9.0237,-0.1793,-0.215,-0.1905
67551.0,0.2562,0.1173,9.0142,-0.191,-0.1357,-0.1564
67561.0,0.103,0.0886,9.2344,-0.2075,-0.0601,-0.1192
67571.0,0.0192,-0.0527,9.6654,-0.183,0.0133,-0.0734
67581.0,0.0359,-0.2801,10.0556,-0.0958,0.0447,-0.0266
67591.0,0.091,-0.5195,10.2592,0.0372,0.0458,0.009
67601.0,0.0407,-0.5698,10.1299,0.1963,0.0537,0.0351
67611.0,0.1173,-0.5626,9.6558,0.2847,0.0495,0.0463
67621.0,0.182,-0.5411,9.2967,0.2554,0.0649,0.0367
67631.0,0.3232,-0.5746,9.1482,0.132,0.1086,0.0069
67641.0,0.2729,-0.5291,9.2656,-0.0335,0.1655,-0.0325
67651.0,0.0215,-0.5626,9.8928,-0.1735,0.2384,-0.0607
67661.0,-0.1508,-0.6177,10.5393,-0.2379,0.2581,-0.0702
67671.0,-0.2083,-0.735,11.078,-0.2272,0.207,-0.0686
67681.0,-0.2945,-0.7518,11.2527,-0.141,0.1405,-0.0596
67691.0,-0.3783,-0.7398,11.2001,-0.0287,0.0718,-0.0474
67701.0,-0.3926,-0.7302,10.8481,0.0734,0.0069,-0.0394
67711.0,-0.2346,-0.7877,10.5872,0.1181,-0.0261,-0.0458
67721.0,-0.0958,-0.6847,10.137,0.1117,-0.0282,-0.0702
67731.0,-0.0503,-0.51,9.8976,0.0064,-0.0362,-0.1086
67741.0,-0.1197,-0.3352,9.7348,-0.133,-0.0314,-0.1458
67751.0,-0.1245,-0.2274,9.7779,-0.2538,0.0043,-0.1692
67761.0,-0.2466,-0.1748,10.0724,-0.2895,0.0612,-0.1697
67771.0,-0.2562,-0.1293,10.4555,-0.223,0.1181,-0.1479
67781.0,-0.3208,0.0263,10.5896,-0.0734,0.1655,-0.1091
67791.0,-0.3232,0.1125,10.7619,0.0426,0.1846,-0.0665
67801.0,-0.3448,0.1915,10.8481,0.108,0.1735,-0.0282
67811.0,-0.4238,0.1867,10.975,0.1336,0.1426,0.0069
67821.0,-0.431,0.0958,11.0085,0.1548,0.1091,0.0404
67831.0,-0.316,-0.0383,10.9295,0.1612,0.0772,0.0644
67841.0,-0.2418,-0.1173,10.8074,0.125,0.0346,0.0708
67851.0,-0.1604,-0.1796,10.5034,0.0564,-0.0101,0.066
67861.0,-0.1437,-0.2777,10.3813,-0.0287,-0.0287,0.0543
67871.0,-0.1269,-0.3472,10.2711,-0.0942,-0.0239,0.0399
67881.0,-0.1484,-0.3735,10.2544,-0.1362,0.0043,0.0255
67891.0,-0.1867,-0.407,10.4818,-0.1501,0.0458,0.0149
67901.0,-0.2203,-0.3639,10.7859,-0.1256,0.0676,0.0117
67911.0,-0.1556,-0.3017,11.0492,-0.0692,0.0686,0.0197
67921.0,-0.2418,-0.1772,11.1235,-0.0133,0.0463,0.0335
67931.0,-0.2801,-0.1221,11.2384,0.0208,0.0016,0.0559
67941.0,-0.2562,-0.158,11.1881,0.0591,-0.041,0.0835
67951.0,-0.2658,-0.2682,11.1426,0.0814,-0.0819,0.1054
67961.0,-0.1987,-0.3735,11.1211,0.0974,-0.1011,0.1144
67971.0,-0.3376,-0.4142,11.4395,0.1123,-0.1059,0.1112
67981.0,-0.6823,-0.4741,12.4714,0.19,-0.0942,0.1101
67991.0,-0.8906,-0.5219,13.6565,0.4422,-0.0756,0.1314
68001.0,-1.0199,-0.7398,14.8129,0.7125,-0.1788,0.1543
68011.0,-0.9218,-0.7518,15.5001,0.945,-0.4055,0.1463
68021.0,-0.9361,-0.5195,15.7084,1.0445,-0.687,0.0979
68031.0,-1.166,-0.2682,15.9669,0.9099,-1.0621,0.0128
68041.0,-1.3455,0.2227,15.615,0.6407,-1.5123,-0.0979
68051.0,-1.6807,0.4645,15.4594,0.2964,-1.9603,-0.1974
68061.0,-1.7478,0.2658,15.3325,0.0819,-2.3402,-0.2517
68071.0,-1.5395,0.237,14.0133,-0.0005,-2.6994,-0.2826
68081.0,-1.257,0.2753,12.0428,-0.3038,-3.1427,-0.348
68091.0,-1.1468,0.5818,9.3925,-0.8328,-3.5609,-0.4518
68101.0,-1.154,0.9433,6.9623,-1.5915,-3.9424,-0.5784
68111.0,-1.2594,1.3958,4.4724,-2.3567,-4.2361,-0.6806
68121.0,-0.9433,1.5443,1.9249,-2.9463,-4.375,-0.7141
68131.0,-0.0551,1.7119,-1.6065,-3.4066,-4.4213,-0.6944
68141.0,1.2186,2.2889,-6.2249,-3.9185,-4.383,-0.6524
68151.0,2.2936,3.6057,-12.1649,-4.6124,-4.1654,-0.588
68161.0,2.6743,5.4588,-18.0307,-5.6643,-3.7062,-0.4778
68171.0,1.9465,7.6303,-23.3076,-7.1106,-3.1671,-0.2794
68181.0,1.1684,9.4691,-25.2421,-8.2632,-2.362,0.1235
68191.0,0.838,13.6158,-26.511,-7.4762,-0.8067,0.9743
68201.0,-2.8515,15.0069,-26.3147,-4.9098,1.3585,2.3131
68211.0,-2.9377,13.0029,-29.2931,-1.0275,3.7306,3.7551
68221.0,-8.7293,9.4715,-29.6689,2.9724,7.1133,4.8683
68231.0,-15.6796,4.3598,-21.4808,5.9245,10.5082,5.3307
68241.0,-20.3914,-0.4549,-9.4116,8.5287,13.2469,5.1051
68251.0,-28.0912,-2.885,4.3191,11.0387,15.4339,4.3059
68261.0,-36.3919,-1.0894,16.2423,13.2278,16.3183,3.0793
68271.0,-34.0958,9.8282,18.5503,13.9142,15.642,1.8305
68281.0,-34.2921,17.7386,31.6537,10.3884,14.292,0.8008
68291.0,-34.1078,19.417,53.6852,5.4664,12.0172,0.2049
68301.0,-30.957,17.1473,67.3441,2.4099,8.609,0.2655
68311.0,-29.0967,12.2583,69.1829,0.5555,4.4969,0.5236
68321.0,-25.5581,6.1555,59.9245,-1.1201,-0.2001,0.572
68331.0,-21.8878,1.324,42.1499,-2.3982,-3.9403,0.365
68341.0,-18.1097,-2.2769,25.4839,-3.2799,-5.5233,-0.0697
68351.0,-14.0707,-3.8355,13.3788,-4.0957,-5.6271,-0.6689
68361.0,-10.4411,-3.699,7.1994,-4.7879,-4.8752,-1.2765
68371.0,-7.7141,-2.6001,6.1268,-4.7071,-3.438,-1.6687
68381.0,-6.5146,-1.0367,8.2289,-3.9339,-2.0641,-1.798
68391.0,-5.375,0.3879,9.8713,-2.7617,-1.2473,-1.6942
68401.0,-3.7972,0.917,10.4938,-1.5053,-0.7913,-1.4436
68411.0,-3.0215,1.2929,10.4076,-0.4911,-0.4704,-1.1675
68421.0,-3.0813,1.4437,10.6973,0.1006,-0.2634,-0.9115
68431.0,-3.1508,1.3599,10.9223,0.2762,-0.2746,-0.7125
68441.0,-3.2058,0.8859,11.157,0.2496,-0.3672,-0.5582
68451.0,-3.4931,0.4357,11.3509,0.2139,-0.4401,-0.447
68461.0,-4.2042,0.1173,11.6167,0.2283,-0.5066,-0.3634
68471.0,-4.9129,-0.1365,11.7364,0.3443,-0.5768,-0.2868
68481.0,-5.1882,-0.4429,11.7507,0.5295,-0.6188,-0.2214
68491.0,-5.6168,-0.5578,11.8681,0.6933,-0.646,-0.1809
68501.0,-5.8802,-0.4238,12.1027,0.7684,-0.7359,-0.1697
68511.0,-6.0693,-0.2298,12.3373,0.7737,-0.8806,-0.1692
68521.0,-6.1579,0.1101,11.971,0.696,-1.0962,-0.1735
68531.0,-6.1651,0.3974,11.3581,0.4715,-1.3611,-0.1878
68541.0,-5.9376,0.5842,10.5177,0.1953,-1.5985,-0.2027
68551.0,-5.6623,0.7877,9.9671,-0.0186,-1.7214,-0.207
68561.0,-5.5306,0.905,9.7588,-0.1112,-1.7432,-0.1889
68571.0,-5.3415,1.0367,9.7276,-0.0756,-1.7528,-0.141
68581.0,-5.0111,0.9194,9.8713,0.0889,-1.764,-0.0633
68591.0,-4.5011,0.68,9.8258,0.3959,-1.7443,0.033
68601.0,-4.1875,0.5746,9.9886,0.7684,-1.7081,0.125
68611.0,-3.79,0.6488,9.6271,1.1483,-1.699,0.216
68621.0,-3.3447,0.6369,9.086,1.3218,-1.7746,0.2804
68631.0,-2.897,0.8092,8.1211,1.3143,-1.8448,0.3145
68641.0,-2.6169,0.8882,7.4436,1.1121,-1.8629,0.3177
68651.0,-2.2625,0.8978,6.7493,0.7966,-1.8496,0.3044
68661.0,-1.889,0.814,6.3255,0.422,-1.7789,0.2724
68671.0,-1.5826,0.6393,6.1842,0.0548,-1.649,0.2357
68681.0,-1.5371,0.3304,6.5577,-0.2304,-1.4745,0.1974
68691.0,-1.3886,0.0407,7.1778,-0.3539,-1.3005,0.1628
68701.0,-1.1181,-0.0718,7.4268,-0.3044,-1.1387,0.1368
68711.0,-0.7566,-0.1891,7.4101,-0.1979,-0.9759,0.1208
68721.0,-0.3903,-0.1915,7.4388,-0.1463,-0.8184,0.0915
68731.0,-0.1652,-0.0886,7.616,-0.1591,-0.6747,0.0463
68741.0,0.0479,-0.0192,8.09,-0.2395,-0.5683,-0.0059
68751.0,0.0766,0.1772,8.3031,-0.3331,-0.5087,-0.0506
68761.0,-0.0862,0.1628,8.7508,-0.4922,-0.5028,-0.0905
68771.0,-0.1724,0.1413,8.9783,-0.5896,-0.4906,-0.1176
68781.0,-0.2059,0.0958,9.3996,-0.6279,-0.4656,-0.132
68791.0,-0.2251,0.1006,9.6941,-0.6274,-0.464,-0.1298
68801.0,-0.2586,-0.0239,10.0987,-0.589,-0.473,-0.1171
68811.0,-0.2538,-0.0934,10.501,-0.497,-0.5108,-0.0926
68821.0,-0.3543,-0.1939,10.7548,-0.3432,-0.5747,-0.0607
68831.0,-0.2873,-0.3136,10.4794,-0.1224,-0.6534,-0.0202
68841.0,0.1245,-0.4381,9.912,0.1171,-0.6832,0.009
68851.0,0.3424,-0.3208,9.098,0.3182,-0.6279,0.0229
68861.0,0.5339,-0.1484,8.5808,0.365,-0.5422,0.0117
68871.0,0.5962,0.1437,8.3414,0.298,-0.4268,-0.0085
68881.0,0.6057,0.3448,8.7221,0.1602,-0.2927,-0.0261
68891.0,0.5387,0.5195,9.347,0.0282,-0.1921,-0.0293
68901.0,0.2729,0.6512,9.8426,-0.0745,-0.1591,-0.0202
68911.0,0.1939,0.486,10.3741,-0.1373,-0.1548,0.0064
68921.0,0.2969,0.1628,10.9774,-0.1437,-0.1634,0.0325
68931.0,0.2346,-0.0455,11.4898,-0.1022,-0.2219,0.0458
68941.0,0.2442,-0.0934,11.5616,-0.0053,-0.3299,0.0532
68951.0,0.4166,-0.0742,11.2791,0.1059,-0.4315,0.0601
68961.0,0.5531,0.0383,10.6063,0.1655,-0.5082,0.0585
68971.0,0.7039,0.2155,10.0221,0.1133,-0.5555,0.0415
68981.0,0.7087,0.395,9.6199,0.0043,-0.5571,0.0239
68991.0,0.5914,0.3615,9.6582,-0.1176,-0.539,0.0186
69001.0,0.6105,0.158,9.6127,-0.1719,-0.5247,0.0239
69011.0,0.8428,-0.0503,9.4978,-0.1692,-0.514,0.025
69021.0,1.0319,-0.0766,9.1147,-0.1357,-0.472,0.0149
69031.0,1.1444,-0.1221,8.9543,-0.1479,-0.415,-0.0048
69041.0,1.2929,-0.1197,8.9543,-0.1985,-0.3677,-0.0314
69051.0,1.391,-0.0886,9.0956,-0.2363,-0.332,-0.0553
69061.0,1.4724,0.0,9.1794,-0.2288,-0.3113,-0.067
69071.0,1.6017,0.103,9.1243,-0.1793,-0.2943,-0.0654
69081.0,1.7166,0.1891,9.0453,-0.1155,-0.2682,-0.0553
69091.0,1.7454,0.1676,8.9519,-0.0729,-0.2426,-0.0399
69101.0,1.9058,0.079,8.7747,-0.0729,-0.2421,-0.0255
69111.0,2.0734,-0.0575,8.5449,-0.1165,-0.2501,-0.0245
69121.0,2.1021,-0.1341,8.2911,-0.1841,-0.24,-0.0357
69131.0,2.0446,-0.0838,7.7788,-0.2746,-0.2214,-0.0564
69141.0,1.8986,-0.0168,7.3861,-0.4172,-0.1804,-0.0835
69151.0,1.6903,0.1245,7.3502,-0.5401,-0.0761,-0.107
69161.0,1.2234,0.1939,7.6758,-0.5624,0.0809,-0.1006
69171.0,0.9313,0.1125,8.4324,-0.4438,0.2341,-0.0665
69181.0,0.8404,0.0239,9.0261,-0.1373,0.4065,-0.009
69191.0,0.656,-0.0168,9.4834,0.2629,0.5741,0.0564
69201.0,0.5291,-0.0862,9.6319,0.621,0.6987,0.108
69211.0,0.5148,0.0646,9.4403,0.8237,0.8003,0.1197
69221.0,0.644,0.2466,9.73,0.8019,0.9067,0.0905
69231.0,0.4262,0.5507,10.5297,0.6055,1.0046,0.0399
69241.0,0.0239,0.7278,11.9351,0.3038,1.0036,-0.0074
69251.0,-0.2011,0.8092,13.3668,0.0745,0.8955,-0.0282
69261.0,-0.2945,0.8188,14.5065,-0.0154,0.7066,-0.0192
69271.0,-0.3543,0.8763,14.9446,0.0085,0.4507,0.0181
69281.0,-0.4836,0.9673,14.8057,0.0676,0.1463,0.0692
69291.0,-0.4094,0.8619,13.8792,0.1059,-0.1575,0.1176
69301.0,0.0407,0.6608,12.4594,0.0841,-0.3794,0.1431
69311.0,0.4812,0.5148,11.248,-0.0223,-0.4571,0.1309
69321.0,0.644,0.5171,10.5919,-0.1921,-0.4278,0.0952
69331.0,0.7159,0.5291,10.4172,-0.3645,-0.3597,0.0575
69341.0,0.7278,0.5411,10.6805,-0.4624,-0.2783,0.0383
69351.0,0.7302,0.5794,10.8457,-0.4619,-0.2081,0.0452
69361.0,0.7661,0.5722,10.9726,-0.4262,-0.1815,0.0697
69371.0,0.7518,0.5674,10.9678,-0.39,-0.1745,0.1048
69381.0,0.7183,0.3998,11.1259,-0.3693,-0.1836,0.1437
69391.0,0.7422,0.1317,11.1426,-0.3437,-0.2246,0.1825
69401.0,0.8452,-0.1676,10.963,-0.3038,-0.2879,0.2123
69411.0,0.9744,-0.5291,10.5321,-0.2687,-0.3416,0.2251
69421.0,1.0798,-0.7446,9.9695,-0.2682,-0.3751,0.2118
69431.0,1.3719,-1.0127,9.3901,-0.3512,-0.3954,0.1719
69441.0,1.3647,-1.2163,9.0644,-0.4949,-0.3916,0.1064
69451.0,1.3503,-1.4078,9.0429,-0.6066,-0.3592,0.0357
69461.0,1.1277,-1.6065,9.2895,-0.613,-0.3086,-0.0266
69471.0,1.1349,-1.7334,9.4978,-0.4635,-0.2384,-0.0782
69481.0,1.2641,-1.549,9.2775,-0.2591,-0.1761,-0.1266
69491.0,1.3168,-1.3288,9.4475,-0.1235,-0.0952,-0.1767
69501.0,1.1564,-0.759,9.8904,0.008,0.0192,-0.2123
69511.0,0.8643,-0.1915,10.6087,0.0388,0.0399,-0.2283
69521.0,0.5626,0.3855,10.7859,-0.0346,-0.0729,-0.2235
69531.0,0.3472,0.5746,10.9415,-0.2022,-0.2389,-0.2033
69541.0,0.3017,0.419,11.1043,-0.3751,-0.3954,-0.1751
69551.0,0.1772,-0.0383,11.2671,-0.4949,-0.5337,-0.1517
69561.0,0.3352,-0.8284,11.8274,-0.5034,-0.6029,-0.1426
69571.0,0.6153,-1.2019,12.536,-0.3959,-0.6146,-0.1761
69581.0,0.759,-0.8595,13.3046,-0.3688,-0.7109,-0.2575
69591.0,0.5171,0.1748,13.1801,-0.6109,-0.9966,-0.364
69601.0,0.1891,1.1037,12.5073,-1.3441,-1.5043,-0.4853
69611.0,-0.0048,1.6017,11.2408,-2.4834,-2.1737,-0.6204
69621.0,-0.2586,1.6041,10.319,-3.7578,-2.8585,-0.7641
69631.0,-0.3783,1.6951,10.2999,-4.7773,-3.5002,-0.9003
69641.0,-1.9824,3.0718,9.5936,-5.2621,-4.151,-0.9775
69651.0,-4.3263,5.0422,5.9496,-5.5372,-5.0795,-0.9509
69661.0,-5.6455,6.2968,0.1508,-6.0129,-6.2837,-0.8737
69671.0,-5.4803,8.0062,-8.7891,-6.4157,-7.2575,-0.6619
69681.0,-3.7062,7.9607,-17.5926,-6.637,-7.3863,-0.2022
69691.0,0.5243,5.1715,-26.0848,-6.4226,-6.8302,0.3113
69701.0,6.6655,6.4021,-38.7549,-4.0403,-4.5416,0.7535
69711.0,5.4085,7.92,-43.9935,-1.1951,-0.5518,1.2962
69721.0,2.4349,10.4962,-47.0892,1.6432,3.8791,2.0683
69731.0,-8.6933,11.6047,-39.7461,3.8844,8.5234,2.8032
69741.0,-20.3771,10.4291,-27.6746,5.5446,11.9779,3.3661
69751.0,-26.1351,5.5282,-14.9302,7.7401,14.7113,3.7679
69761.0,-33.8851,0.3448,-0.2322,10.4257,17.0547,3.5194
69771.0,-35.3887,5.624,6.1196,12.5259,17.4357,2.5988
69781.0,-38.3503,11.5831,22.0171,10.9445,17.2506,1.5538
69791.0,-38.0463,16.2686,42.4396,7.7321,14.7039,0.879
69801.0,-34.6249,15.7012,51.6286,6.3795,11.4378,1.0461
69811.0,-28.5532,12.5624,52.0068,5.9001,8.6958,1.3409
69821.0,-26.4248,9.2249,51.2479,4.3575,6.1379,1.1887
69831.0,-24.938,7.0773,48.2599,2.2929,3.5646,0.7024
69841.0,-22.5917,5.047,43.3327,0.4182,1.5788,0.1442
69851.0,-21.1193,3.0502,40.3782,-1.1637,0.2208,-0.4001
69861.0,-19.314,2.8922,36.6026,-2.3142,-1.102,-0.8716
69871.0,-16.7043,3.5267,32.2355,-2.9389,-2.2423,-1.1467
69881.0,-13.726,4.2569,26.3051,-3.0054,-3.0165,-1.177
69891.0,-10.7069,3.9744,20.4417,-2.9452,-3.4933,-1.069
69901.0,-7.9703,3.5314,14.9255,-2.8888,-3.6961,-0.9104
69911.0,-5.8682,2.1835,10.7907,-2.8351,-3.5428,-0.7545
69921.0,-4.3574,0.9146,8.5736,-2.7691,-3.1517,-0.6518
69931.0,-3.4309,-0.1628,7.4579,-2.6382,-2.7558,-0.5928
69941.0,-2.8683,-0.6369,7.331,-2.312,-2.3381,-0.5683
69951.0,-2.7078,-0.5195,6.7493,-1.7427,-1.9113,-0.5188
69961.0,-2.794,-0.3136,6.5529,-1.1925,-1.5383,-0.4587
69971.0,-2.8012,-0.067,6.4308,-0.6588,-1.1648,-0.381
69981.0,-2.9928,-0.1053,7.1084,-0.2155,-0.7854,-0.3038
69991.0,-3.3375,0.0575,7.9224,0.1687,-0.5023,-0.2421
70001.0,-3.7852,0.1963,8.7388,0.4166,-0.3618,-0.1916
70011.0,-4.2808,0.2035,9.5074,0.5364,-0.3379,-0.1522
70021.0,-4.628,0.2394,10.3956,0.5906,-0.3991,-0.1362
70031.0,-5.0446,0.6033,10.8888,0.6524,-0.5199,-0.1203
70041.0,-5.3558,0.8212,11.2551,0.6295,-0.7125,-0.0862
70051.0,-5.6431,0.9361,11.5927,0.5582,-0.9631,-0.0506
70061.0,-5.7054,1.0989,11.5927,0.5295,-1.2398,-0.0059
70071.0,-5.6192,1.3862,10.635,0.5571,-1.508,0.0591
70081.0,-5.2912,1.7142,8.8633,0.4906,-1.7256,0.1288
70091.0,-4.6855,1.8507,7.3694,0.2363,-1.815,0.1857
70101.0,-4.221,1.8555,6.541,-0.1383,-1.7773,0.2315
70111.0,-3.9097,1.494,6.5434,-0.4911,-1.6884,0.282
70121.0,-3.6105,0.8906,6.7301,-0.7029,-1.5926,0.3406
70131.0,-3.3088,0.2131,6.8977,-0.7215,-1.4846,0.4001
70141.0,-2.988,-0.6105,7.434,-0.589,-1.3585,0.4539
70151.0,-2.7318,-1.4054,7.9416,-0.3086,-1.2451,0.4874
70161.0,-2.3846,-1.9992,8.6072,0.1016,-1.1398,0.4922
70171.0,-2.0638,-2.138,8.8921,0.6188,-1.0153,0.4794
70181.0,-1.8052,-1.9848,8.9926,1.0445,-0.9253,0.4512
70191.0,-1.6376,-1.5371,8.7939,1.2483,-0.9009,0.4044
70201.0,-1.4748,-1.0511,8.4252,1.1808,-0.9312,0.3485
70211.0,-1.1253,-0.8164,8.0421,0.8689,-1.0068,0.2799
70221.0,-0.8092,-0.6823,7.6399,0.4539,-1.0605,0.2017
70231.0,-0.5938,-0.5578,7.2401,0.0037,-1.0887,0.1203
70241.0,-0.5076,-0.4645,6.8115,-0.4033,-1.0818,0.0474
70251.0,-0.2873,-0.5962,6.7086,-0.6806,-1.0009,0.0021
70261.0,-0.2203,-0.7159,6.6176,-0.7801,-0.8503,-0.0181
70271.0,-0.0072,-0.9433,6.7804,-0.7482,-0.679,-0.025
70281.0,0.2274,-1.008,6.7588,-0.6141,-0.4885,-0.025
70291.0,0.1413,-1.008,7.0701,-0.4656,-0.2975,-0.0277
70301.0,0.0335,-0.8332,7.4412,-0.3086,-0.1506,-0.0255
70311.0,0.0599,-0.8045,7.7931,-0.1511,-0.0394,-0.0122
70321.0,0.1437,-0.8092,7.9487,0.0027,0.0559,0.0048
70331.0,0.0096,-0.7087,8.1307,0.1149,0.1612,0.0112
70341.0,-0.182,-0.5243,8.4036,0.1708,0.2549,0.0138
70351.0,-0.316,-0.4238,8.8897,0.1857,0.3262,0.0218
70361.0,-0.5052,-0.3519,9.4475,0.207,0.3837,0.0383
70371.0,-0.6847,-0.3424,10.0389,0.2336,0.4257,0.0537
70381.0,-0.8595,-0.2514,10.6111,0.2517,0.4193,0.067
70391.0,-1.0726,-0.2274,11.2288,0.2304,0.3597,0.0788
70401.0,-1.1516,-0.2298,11.5377,0.2086,0.2645,0.0867
70411.0,-1.1085,-0.2466,11.6693,0.1634,0.1373,0.0851
70421.0,-1.0654,-0.2394,11.4754,0.0819,0.0074,0.0708
70431.0,-1.0223,-0.1867,11.1857,-0.05,-0.1054,0.0463
70441.0,-1.0415,-0.2011,11.0397,-0.2017,-0.1985,0.0197
70451.0,-1.087,-0.3112,10.9271,-0.3054,-0.2629,0.0037
70461.0,-1.0319,-0.5028,10.8242,-0.3358,-0.3033,-0.0059
70471.0,-0.838,-0.6153,10.5991,-0.2836,-0.3262,-0.0128
70481.0,-0.7757,-0.7207,10.1538,-0.1846,-0.315,-0.017
70491.0,-0.577,-0.7685,9.7803,-0.0878,-0.2661,-0.0293
70501.0,-0.3759,-0.7374,9.5912,-0.0319,-0.1926,-0.0521
70511.0,-0.3208,-0.6656,9.6319,-0.0255,-0.1266,-0.0782
70521.0,-0.4645,-0.5602,9.7995,-0.0218,-0.0788,-0.1
70531.0,-0.4717,-0.4381,10.0461,0.0271,-0.0362,-0.1064
70541.0,-0.3855,-0.3328,10.2232,0.1123,-0.0069,-0.0979
70551.0,-0.2777,-0.2083,10.1562,0.2081,0.0069,-0.0814
70561.0,-0.1604,-0.079,10.1514,0.2746,0.0138,-0.0639
70571.0,-0.3065,0.0814,9.9335,0.281,0.0027,-0.049
70581.0,-0.3184,-0.0048,9.6798,0.1953,-0.0431,-0.042
70591.0,-0.1053,-0.0718,9.3326,0.0952,-0.0431,-0.0564
70601.0,-0.103,-0.0622,9.2703,-0.0208,0.0261,-0.0846
70611.0,-0.2993,-0.0168,9.6534,-0.1383,0.0878,-0.1171
70621.0,-0.5363,0.1413,10.0437,-0.2006,0.1064,-0.141
70631.0,-0.723,0.237,10.3118,-0.1612,0.1165,-0.1368
70641.0,-0.7398,0.3065,10.4076,-0.025,0.1527,-0.1165
