time_ms,ax,ay,az,gx,gy,gz
113691.0,3.5937,0.3591,7.5058,-0.2331,0.2033,-0.1357
113701.0,3.5051,0.3256,7.8147,-0.1442,0.3219,-0.1149
113711.0,3.4165,0.3328,8.0421,-0.0527,0.4182,-0.0974
113721.0,3.4046,0.3926,8.351,0.0452,0.5119,-0.0772
113731.0,3.2537,0.4956,8.6431,0.1389,0.6135,-0.0548
113741.0,3.201,0.5004,9.0932,0.1783,0.6832,-0.0367
113751.0,3.0957,0.6033,9.5792,0.1799,0.7215,-0.0319
113761.0,2.988,0.6416,10.082,0.1219,0.7077,-0.0309
113771.0,2.9066,0.7087,10.4435,0.049,0.6481,-0.0282
113781.0,2.8012,0.6728,10.8026,0.0011,0.589,-0.0138
113791.0,2.7533,0.6416,11.0229,0.0112,0.5401,0.0112
113801.0,2.6935,0.5507,11.0804,0.041,0.4869,0.0357
113811.0,2.6959,0.5004,10.9894,0.0585,0.4401,0.0537
113821.0,2.6121,0.4262,10.9463,0.0463,0.4124,0.0612
113831.0,2.5474,0.3112,11.0109,0.0043,0.3954,0.0596
113841.0,2.4565,0.1772,11.3964,-0.0426,0.3916,0.0495
113851.0,2.4325,0.1221,11.7316,-0.0676,0.3597,0.0357
113861.0,2.4038,0.079,12.0668,-0.0841,0.2889,0.0213
113871.0,2.4062,0.0575,12.1769,-0.0686,0.1921,0.0138
113881.0,2.4541,0.1053,11.9519,-0.0447,0.0809,0.0085
113891.0,2.4948,0.1867,11.5209,-0.0548,-0.0266,-0.0032
113901.0,2.5929,0.1844,11.0708,-0.0889,-0.0931,-0.0144
113911.0,2.6408,0.2394,10.7045,-0.1235,-0.1187,-0.0282
113921.0,2.7222,0.2322,10.5872,-0.1676,-0.1187,-0.0415
113931.0,2.7461,0.2849,10.489,-0.1799,-0.1139,-0.049
113941.0,2.8228,0.2466,10.4244,-0.1857,-0.1176,-0.0506
113951.0,2.8611,0.2418,10.3238,-0.1729,-0.1192,-0.0479
113961.0,2.8994,0.2442,10.173,-0.1479,-0.1155,-0.042
113971.0,2.9377,0.2562,10.0509,-0.1197,-0.1043,-0.0388
113981.0,2.9616,0.2873,9.9,-0.0963,-0.0926,-0.0362
113991.0,2.9975,0.3112,9.8497,-0.0937,-0.091,-0.0335
114001.0,2.9544,0.3328,9.663,-0.0984,-0.0974,-0.0314
114011.0,2.9616,0.3639,9.3757,-0.1022,-0.1006,-0.0255
114021.0,3.0095,0.3496,9.1315,-0.1038,-0.0718,-0.0186
114031.0,2.9497,0.3903,9.0094,-0.107,-0.0027,-0.0117
114041.0,2.885,0.3232,9.0405,-0.1149,0.0756,-0.0032
114051.0,2.873,0.1891,9.3254,-0.0883,0.1713,0.0117
114061.0,2.8515,0.17,9.6271,-0.0394,0.2714,0.0192
114071.0,2.8204,0.1101,10.2304,-0.0293,0.356,0.0149
114081.0,2.7414,0.2155,10.9894,-0.0213,0.3943,0.0096
114091.0,2.7677,0.1724,11.8106,0.0005,0.3688,0.0133
114101.0,2.6719,0.1221,12.2535,0.0942,0.3145,0.0282
114111.0,2.5235,-0.0694,12.1913,0.1873,0.2554,0.0367
114121.0,2.3966,-0.2059,12.7324,0.24,0.2512,0.0138
114131.0,2.0375,0.1891,13.2423,0.3028,0.2826,-0.0255
114141.0,1.7933,0.577,14.3006,0.299,0.2666,-0.0548
114151.0,1.7166,1.0439,15.117,0.2799,0.1655,-0.0511
114161.0,1.5969,1.1923,15.9645,0.2091,-0.0335,-0.0192
114171.0,1.5897,1.1588,16.3572,0.1666,-0.3108,0.0298
114181.0,1.5299,1.0463,16.1297,0.166,-0.6162,0.0788
114191.0,1.6209,0.8691,15.6389,0.1421,-0.9376,0.1133
114201.0,1.7526,0.735,14.7267,0.0942,-1.2702,0.1245
114211.0,1.9968,0.5698,13.3429,0.0122,-1.5846,0.1187
114221.0,2.3822,0.3639,12.0045,-0.0639,-1.8076,0.0984
114231.0,2.6169,0.3065,10.6446,-0.1256,-1.9332,0.0665
114241.0,2.7629,0.1796,9.3182,-0.2368,-2.0077,0.0208
114251.0,3.1149,0.0144,8.6335,-0.357,-1.9991,-0.0388
114261.0,3.225,-0.0958,8.2648,-0.4273,-1.9326,-0.0979
114271.0,3.3495,-0.3998,8.2528,-0.4848,-1.9076,-0.1554
114281.0,3.2944,-0.6345,7.9895,-0.5076,-1.9481,-0.2139
114291.0,3.4788,-1.3001,7.9392,-0.4757,-1.964,-0.2623
114301.0,3.4572,-1.7454,8.0062,-0.3251,-1.9353,-0.3267
114311.0,3.0335,-1.2905,7.4962,-0.1219,-1.955,-0.422
114321.0,3.2154,-0.1772,7.3598,0.0516,-2.0045,-0.5023
114331.0,3.1939,1.3431,6.8259,0.3549,-1.9667,-0.4832
114341.0,3.7589,2.1261,6.8618,0.7093,-1.8374,-0.3533
114351.0,3.9816,2.8491,6.1411,1.0004,-1.7597,-0.1932
114361.0,4.4556,3.3423,4.9033,0.936,-1.8235,-0.0633
114371.0,5.0781,3.1651,3.2537,0.5135,-1.9427,0.0255
114381.0,5.296,2.6839,1.1516,-0.1921,-2.0295,0.0287
114391.0,5.1643,2.0782,-0.5531,-1.0914,-2.0428,-0.0601
114401.0,4.8171,1.8268,-1.1612,-1.9007,-1.8959,-0.1942
114411.0,3.7469,2.1787,-0.5674,-2.2833,-1.6033,-0.2783
114421.0,3.6464,3.1005,-0.9146,-2.2035,-1.4718,-0.2517
114431.0,3.9887,4.616,-4.5753,-1.9646,-1.6373,-0.1368
114441.0,4.0677,6.7157,-11.8944,-1.931,-1.8267,0.0362
114451.0,4.4365,8.9447,-21.4401,-2.2051,-1.706,0.2607
114461.0,3.9337,11.4371,-30.629,-2.5669,-0.7412,0.539
114471.0,1.652,13.0221,-35.5204,-2.9921,0.9674,0.9051
114481.0,-1.6496,13.3165,-35.1469,-3.0735,3.1996,1.4378
114491.0,-4.6663,9.7683,-29.8629,-2.6723,5.476,2.1567
114501.0,-7.8123,3.8427,-21.9668,-1.7751,7.473,2.8739
114511.0,-11.3772,-2.375,-12.8186,-0.365,9.1172,3.3848
114521.0,-14.7387,-6.7588,-6.4021,1.2914,10.1266,3.5375
114531.0,-17.5495,-8.2169,-3.7661,2.8766,10.8588,3.3183
114541.0,-22.3355,-6.7684,-1.2665,3.9818,11.8049,2.8191
114551.0,-28.3473,-4.9344,4.8291,4.5661,12.9346,2.2721
114561.0,-33.684,-4.8602,14.0276,4.9987,13.8951,1.8012
114571.0,-37.8475,-4.0654,23.8439,5.3046,14.3782,1.2451
114581.0,-39.8204,-3.553,36.241,5.0029,14.0829,0.6066
114591.0,-38.7717,-2.1907,49.2822,4.242,12.6212,-0.0521
114601.0,-35.0152,0.6584,57.6165,3.3864,9.8632,-0.6183
114611.0,-29.5085,4.2641,58.6651,2.5185,6.4327,-0.9897
114621.0,-24.6196,7.8099,55.014,1.3771,3.1363,-1.1675
114631.0,-20.7266,9.2153,48.5424,-0.108,0.1368,-1.1691
114641.0,-17.7362,8.8897,40.225,-1.516,-2.2434,-1.0775
114651.0,-14.7866,7.683,31.4047,-2.7601,-3.8881,-0.9871
114661.0,-12.402,6.5601,24.768,-3.9041,-4.8816,-0.9658
114671.0,-10.331,5.8826,19.721,-4.6294,-5.3073,-0.8929
114681.0,-8.6886,4.0318,16.9438,-4.7874,-5.3972,-0.6838
114691.0,-6.5912,2.478,12.7156,-4.258,-5.3339,-0.4049
114701.0,-4.2377,1.0798,8.5617,-3.6652,-5.0795,-0.1942
114711.0,-2.7102,-0.1269,6.0693,-3.0985,-4.5453,-0.0718
114721.0,-1.9609,-0.9002,4.6926,-2.3956,-3.8344,0.0101
114731.0,-1.4126,-1.5897,3.7972,-1.616,-3.1224,0.0772
114741.0,-1.0367,-2.0566,3.0239,-0.9009,-2.4536,0.1213
114751.0,-0.8236,-2.5307,3.1077,-0.2581,-1.7522,0.1479
114761.0,-1.1444,-2.873,3.7661,0.2857,-1.1015,0.1511
114771.0,-1.5251,-3.1292,4.9057,0.6987,-0.6024,0.1197
114781.0,-1.9082,-3.2537,5.9927,1.0036,-0.2708,0.0585
114791.0,-2.2314,-3.0406,6.9025,1.2079,-0.0628,-0.0261
114801.0,-2.3583,-2.6815,7.592,1.3282,0.0138,-0.1203
114811.0,-2.2266,-1.9609,7.3478,1.3516,0.0186,-0.2123
114821.0,-2.5283,-1.2546,7.7309,1.1994,0.0341,-0.2905
114831.0,-2.6336,-0.6608,8.2935,1.0632,0.0543,-0.3129
114841.0,-2.6863,-0.2107,8.8035,1.0307,0.0798,-0.2788
114851.0,-2.6504,0.1149,9.1315,1.0467,0.0915,-0.2112
114861.0,-2.6193,0.3136,9.4619,1.0467,0.0894,-0.1261
114871.0,-2.5235,0.249,9.7324,1.0397,0.0782,-0.0319
114881.0,-2.4038,0.0766,9.9168,1.0382,0.0676,0.0506
114891.0,-2.3032,-0.0503,9.9575,0.9849,0.0335,0.0958
114901.0,-2.2601,-0.1173,10.0317,0.8205,-0.0372,0.1011
114911.0,-2.138,-0.1844,9.7995,0.6125,-0.124,0.0883
114921.0,-2.0973,-0.3567,9.7061,0.357,-0.1793,0.0575
114931.0,-2.15,-0.5148,9.9216,0.149,-0.1857,0.0197
114941.0,-2.1596,-0.7733,10.4363,0.083,-0.1341,-0.0085
114951.0,-2.3822,-0.8643,10.9415,0.1735,-0.0681,-0.0223
114961.0,-2.4924,-0.9481,11.3413,0.3225,-0.0415,-0.0266
114971.0,-2.3439,-1.0989,11.5472,0.5114,-0.0138,-0.0277
114981.0,-2.3966,-1.0199,11.7436,0.7024,0.041,-0.0479
114991.0,-2.3966,-1.0199,11.7436,0.7024,0.041,-0.0479
115001.0,-2.466,-0.7757,12.1817,0.7976,0.0585,-0.0926
115011.0,-2.624,-0.3424,12.5432,0.8136,0.0117,-0.1415
115021.0,-2.9401,0.0622,12.9742,0.7551,-0.0979,-0.1804
115031.0,-3.1603,0.4214,13.1418,0.6923,-0.2618,-0.191
115041.0,-3.3806,0.7614,13.1777,0.6444,-0.4385,-0.183
115051.0,-3.5291,1.1181,12.8688,0.6098,-0.6252,-0.1543
115061.0,-3.4572,1.221,12.3804,0.5731,-0.7918,-0.1107
115071.0,-3.0454,1.1732,11.8441,0.539,-0.8998,-0.0708
115081.0,-2.7797,1.2546,11.485,0.4651,-0.97,-0.0633
115091.0,-2.4397,1.3336,11.3461,0.3278,-1.0531,-0.0729
115101.0,-2.1284,1.4461,11.1761,0.1926,-1.1568,-0.0782
115111.0,-1.8004,1.5131,10.7811,0.0905,-1.2616,-0.0734
115121.0,-1.4413,1.3815,10.2903,0.0181,-1.3345,-0.0612
115131.0,-0.9984,1.1995,9.8904,-0.0138,-1.3271,-0.0511
115141.0,-0.7087,1.087,9.5553,-0.0442,-1.2781,-0.0628
115151.0,-0.4334,1.0534,9.2919,-0.1213,-1.2547,-0.0915
115161.0,-0.1173,0.893,9.2273,-0.2123,-1.1978,-0.1245
115171.0,0.1149,0.8475,9.2967,-0.2863,-1.1025,-0.1713
115181.0,0.2083,0.8882,9.9671,-0.3523,-1.0052,-0.2198
115191.0,0.0766,1.1708,10.4411,-0.3757,-0.978,-0.2485
115201.0,0.2586,1.2091,10.8218,-0.3523,-0.9977,-0.2384
115211.0,0.2322,1.2809,10.7619,-0.2708,-1.0115,-0.2059
115221.0,0.3567,1.2091,10.5776,-0.2538,-1.0467,-0.1788
115231.0,0.5004,1.0463,10.1227,-0.3124,-1.0781,-0.1756
115241.0,0.7638,0.7925,9.7133,-0.513,-1.0956,-0.2198
115251.0,0.9218,0.6632,9.9718,-0.8636,-1.1079,-0.3209
115261.0,0.8499,0.7446,10.7356,-1.2292,-1.1621,-0.4326
115271.0,0.6057,0.929,11.3677,-1.475,-1.3047,-0.5034
115281.0,0.4118,1.2617,11.1546,-1.4963,-1.4798,-0.4997
115291.0,0.5411,1.3958,10.7691,-1.2717,-1.5139,-0.4092
115301.0,0.5986,1.5802,10.2615,-0.8461,-1.3877,-0.2496
115311.0,0.7278,1.5083,9.9527,-0.3986,-1.2286,-0.0601
115321.0,1.0319,1.3815,9.4499,0.0181,-1.0759,0.1282
115331.0,1.2665,1.1875,8.8969,0.2804,-0.9312,0.2826
115341.0,1.3815,0.8859,8.7867,0.3539,-0.8062,0.3858
115351.0,1.4222,0.5914,8.8969,0.34,-0.7088,0.4496
115361.0,1.4605,0.2035,9.1028,0.3028,-0.6306,0.4858
115371.0,1.5227,-0.1197,9.4236,0.248,-0.5624,0.489
115381.0,1.4102,-0.4645,10.0916,0.1564,-0.5342,0.4704
115391.0,1.5131,-0.9361,10.7356,0.1032,-0.5683,0.4432
115401.0,1.6328,-1.4198,11.2408,0.0984,-0.6364,0.3943
115411.0,1.6951,-1.573,11.5401,0.1187,-0.7476,0.3187
115421.0,1.6688,-1.5897,11.6023,0.1261,-0.9073,0.2331
115431.0,1.7741,-1.5969,11.1594,0.1618,-1.0653,0.1602
115441.0,1.8818,-1.5538,10.6877,0.2081,-1.1627,0.0915
115451.0,1.901,-1.5131,10.1586,0.2139,-1.2286,0.0186
115461.0,2.1165,-1.7549,9.979,0.1809,-1.259,-0.0601
115471.0,2.2338,-1.8387,9.8665,0.1357,-1.259,-0.1724
115481.0,2.1859,-1.743,10.4435,0.0043,-1.3053,-0.3177
115491.0,2.059,-1.4988,11.3868,-0.0479,-1.3739,-0.4459
115501.0,1.9537,-1.1875,12.3469,0.0394,-1.5038,-0.5284
115511.0,2.0973,-0.8882,12.6558,0.1894,-1.756,-0.5752
115521.0,2.2242,-0.7254,12.5648,0.299,-2.1104,-0.621
115531.0,2.1811,-0.1772,11.6502,0.3629,-2.5376,-0.6678
115541.0,2.0638,0.2538,10.2663,0.3453,-2.9846,-0.7098
115551.0,2.0087,0.9361,8.0014,0.2677,-3.4029,-0.7439
115561.0,1.731,1.6448,5.9592,0.1219,-3.6865,-0.771
115571.0,0.7398,3.213,3.3375,-0.0287,-3.8653,-0.7604
115581.0,1.0654,4.2114,2.5881,-0.2293,-3.9472,-0.6965
115591.0,0.893,6.0741,1.6113,0.0607,-3.8403,-0.5332
115601.0,0.8212,8.4156,-1.9848,0.5268,-3.7828,-0.2086
115611.0,2.4636,10.3573,-10.1897,0.0921,-4.1505,0.1724
115621.0,3.462,11.8345,-22.2469,-1.8326,-4.7746,0.4198
115631.0,3.8307,12.9622,-36.3727,-4.1771,-4.5703,0.6316
115641.0,4.9153,12.3253,-43.9216,-5.6159,-2.5643,0.9802
115651.0,1.8818,10.0437,-41.1372,-5.8064,0.7343,1.4181
115661.0,-0.17,7.4986,-34.2634,-5.0263,3.3603,1.8895
115671.0,-3.8044,5.0182,-26.523,-3.2549,5.2903,2.4733
115681.0,-7.5848,1.5897,-20.164,-0.3922,6.8217,3.1379
115691.0,-10.8601,-1.4461,-21.5191,3.2321,8.178,3.6109
115701.0,-15.1026,-4.4101,-26.2859,5.8421,9.7499,3.5354
115711.0,-22.9197,-4.5729,-27.598,6.786,11.8783,2.7702
115721.0,-33.7343,-0.6488,-22.3331,6.6323,14.3053,1.6203
115731.0,-45.5257,3.5506,-9.9623,6.0049,16.5891,0.638
115741.0,-54.7674,5.5809,7.9655,5.6734,17.4357,0.0718
115751.0,-58.5191,7.8243,25.5509,6.1858,17.4357,-0.2059
115761.0,-56.144,11.5784,42.861,6.9297,17.4357,-0.3272
115771.0,-50.0652,16.3548,56.9868,7.4496,15.0423,-0.224
115781.0,-41.4915,18.7945,57.0562,7.4618,10.9759,0.0277
115791.0,-34.024,19.4266,50.2184,5.6856,6.9521,-0.0458
115801.0,-30.7224,16.8528,49.9646,2.3924,3.9829,-0.4246
115811.0,-28.3306,13.1633,50.9271,-0.6295,0.9551,-0.8072
115821.0,-24.7824,10.5417,45.9806,-2.3769,-2.1673,-0.9988
115831.0,-21.6556,9.5984,36.3871,-3.1288,-4.5123,-1.0291
115841.0,-18.0643,8.6048,27.6913,-3.595,-5.9469,-0.9977
115851.0,-14.4155,8.6933,18.5,-3.7046,-6.604,-0.9301
115861.0,-10.8338,7.8171,13.0245,-3.8637,-6.5285,-0.8173
115871.0,-8.0756,6.5936,8.9615,-3.7956,-6.1661,-0.6327
115881.0,-5.4229,5.1834,5.4157,-3.4071,-5.5563,-0.4214
115891.0,-3.2322,3.8954,3.1651,-2.958,-4.7337,-0.2554
115901.0,-1.9489,2.873,2.0614,-2.5552,-3.8738,-0.1458
115911.0,-1.1277,1.98,1.9249,-2.1588,-3.0655,-0.0697
115921.0,-0.6919,1.3024,2.4397,-1.6666,-2.2849,-0.0106
115931.0,-0.6393,0.9146,3.2465,-1.0914,-1.5745,0.0527
115941.0,-0.7135,0.4357,4.2234,-0.4975,-0.9935,0.1277
115951.0,-0.972,0.1508,4.7836,0.0809,-0.5273,0.1905
115961.0,-1.415,-0.0838,5.3032,0.5284,-0.1575,0.2219
115971.0,-1.7717,-0.1772,5.4803,0.837,0.1213,0.2144
115981.0,-2.2697,-0.3112,5.849,0.9179,0.3358,0.1522
115991.0,-2.9449,-0.1173,6.2249,0.8152,0.4864,0.05
116001.0,-3.383,-0.1269,7.355,0.5635,0.5688,-0.0708
116011.0,-3.7661,-0.012,8.5353,0.34,0.5688,-0.1825
116021.0,-4.2306,0.0766,9.5529,0.1777,0.4677,-0.2677
116031.0,-4.4412,0.17,10.0892,0.1054,0.2953,-0.3203
116041.0,-4.5083,0.2849,10.1323,0.1431,0.1282,-0.3501
116051.0,-4.5705,0.5124,9.7109,0.2347,-0.0074,-0.3714
116061.0,-4.525,0.8236,9.0597,0.2794,-0.1165,-0.3964
116071.0,-4.3766,1.1349,8.4013,0.2187,-0.1777,-0.4353
116081.0,-4.3335,1.5443,8.0852,0.0782,-0.1793,-0.4837
116091.0,-4.1827,1.9273,8.0014,-0.1192,-0.1618,-0.5231
116101.0,-4.1755,2.2721,8.3199,-0.3496,-0.1277,-0.5497
116111.0,-4.1013,2.6121,8.995,-0.5784,-0.124,-0.5465
116121.0,-4.0773,2.8539,9.833,-0.7364,-0.1666,-0.4975
116131.0,-3.9433,2.9137,10.1849,-0.7891,-0.2661,-0.3986
116141.0,-3.8259,2.7509,10.2831,-0.7657,-0.3709,-0.2661
116151.0,-3.6703,2.4948,10.0724,-0.6854,-0.472,-0.1272
116161.0,-3.4117,2.1189,9.596,-0.5944,-0.5662,0.0037
116171.0,-3.1149,1.6257,8.8633,-0.4773,-0.6002,0.1224
116181.0,-2.9137,1.0511,8.2025,-0.3608,-0.5662,0.2155
116191.0,-2.7629,0.4525,7.5848,-0.2762,-0.4965,0.2677
116201.0,-2.6025,-0.103,6.9336,-0.2426,-0.3959,0.2682
116211.0,-2.5259,-0.5435,6.6607,-0.2975,-0.257,0.2102
116221.0,-2.5067,-0.8428,6.6846,-0.414,-0.1197,0.1139
116231.0,-2.6001,-0.9768,7.1084,-0.5348,0.0059,0.0027
116241.0,-2.7294,-0.9529,7.616,-0.6008,0.0899,-0.1
116251.0,-2.7773,-0.8882,7.8578,-0.5832,0.1346,-0.1713
116261.0,-2.8204,-0.7087,7.7141,-0.5204,0.1852,-0.2182
116271.0,-2.8778,-0.5531,7.5298,-0.4629,0.2937,-0.2474
116281.0,-3.067,-0.395,7.7548,-0.4193,0.464,-0.2629
116291.0,-3.225,-0.2993,8.2169,-0.3592,0.6646,-0.2607
116301.0,-3.2896,-0.3448,9.0597,-0.2804,0.8487,-0.2453
116311.0,-3.4405,-0.4166,10.2208,-0.1612,0.994,-0.2256
116321.0,-3.5338,-0.4788,11.3389,0.0309,1.0679,-0.199
116331.0,-3.6344,-0.4932,12.1937,0.2831,1.0674,-0.1761
116341.0,-3.7421,-0.3855,12.3277,0.5369,1.0025,-0.1692
116351.0,-3.8092,-0.1532,12.378,0.6662,0.9179,-0.1995
116361.0,-3.9935,0.2729,12.4953,0.6279,0.8189,-0.265
116371.0,-4.3048,0.6369,13.1825,0.4353,0.6827,-0.3379
116381.0,-4.4436,0.9481,13.7978,0.2395,0.4858,-0.3868
116391.0,-4.6352,1.2139,14.3077,0.0798,0.2315,-0.4087
116401.0,-4.7621,1.3719,14.4227,-0.008,-0.0569,-0.3986
116411.0,-4.8315,1.4581,14.1114,-0.0122,-0.3251,-0.3549
116421.0,-4.7788,1.2115,13.6805,0.05,-0.5316,-0.2826
116431.0,-4.5705,0.668,12.8497,0.1607,-0.6939,-0.2054
116441.0,-4.1994,-0.1891,11.655,0.2027,-0.8019,-0.1745
116451.0,-3.8786,-0.8978,10.9056,0.0873,-0.8184,-0.2421
116461.0,-3.7733,-1.2905,11.0085,-0.1846,-0.8062,-0.4001
116471.0,-3.8738,-1.3144,11.7292,-0.4975,-0.8482,-0.596
116481.0,-3.869,-0.9577,12.287,-0.6768,-0.9658,-0.7615
116491.0,-3.8475,-0.4884,12.4858,-0.7029,-1.094,-0.8567
116501.0,-3.9648,0.0742,12.153,-0.6066,-1.2026,-0.886
116511.0,-3.7493,0.5124,11.6981,-0.489,-1.2856,-0.8668
116521.0,-3.7254,1.0415,10.8457,-0.3384,-1.3079,-0.8152
116531.0,-3.4764,1.4245,9.9072,-0.2634,-1.268,-0.7455
116541.0,-3.055,1.6113,9.5265,-0.241,-1.1323,-0.6699
116551.0,-2.7797,1.6807,9.4858,-0.1921,-0.9243,-0.5864
116561.0,-2.7438,1.7166,9.5313,-0.1431,-0.7013,-0.5018
116571.0,-2.909,1.6328,9.9862,-0.1373,-0.4826,-0.422
116581.0,-3.2274,1.6185,10.6446,-0.1176,-0.2863,-0.3395
116591.0,-3.6583,1.312,11.5257,-0.0378,-0.0974,-0.2304
116601.0,-3.9145,0.7326,12.6174,0.1612,0.0958,-0.1064
116611.0,-4.2234,0.2538,13.8816,0.4566,0.2485,-0.0021
116621.0,-4.6352,0.0503,14.7435,0.771,0.2756,0.0734
116631.0,-4.7716,-0.0503,15.3061,0.9977,0.1777,0.1176
116641.0,-4.695,0.0,15.6796,1.1275,0.0197,0.133
116651.0,-4.7669,0.1508,15.9262,1.1595,-0.1963,0.1229
116661.0,-4.6855,0.3256,16.0148,1.1036,-0.4853,0.0952
116671.0,-4.5586,0.6464,15.7155,0.9924,-0.8115,0.0601
116681.0,-4.4628,0.8619,15.3325,0.812,-1.1462,0.0192
116691.0,-4.3934,1.1181,14.6238,0.6194,-1.4787,-0.0192
116701.0,-4.3335,1.3695,13.7164,0.4278,-1.7879,-0.0479
116711.0,-4.0558,1.6185,12.639,0.2692,-2.0263,-0.0607
116721.0,-3.735,1.8531,11.5831,0.1282,-2.1604,-0.0559
116731.0,-3.4644,1.9058,10.8888,-0.0261,-2.2248,-0.033
116741.0,-3.0742,1.8196,10.3789,-0.1612,-2.2514,0.0027
116751.0,-2.6887,1.7095,10.094,-0.2815,-2.2524,0.0388
116761.0,-2.3966,1.6233,9.979,-0.4012,-2.2764,0.0718
116771.0,-2.0399,1.4054,9.8043,-0.4981,-2.3354,0.1064
116781.0,-1.7741,1.2881,9.3374,-0.5342,-2.4078,0.1485
116791.0,-1.5826,1.1516,8.6862,-0.5475,-2.4658,0.1979
116801.0,-1.142,0.8811,8.0732,-0.4672,-2.4509,0.2687
116811.0,-0.6584,0.565,7.4555,-0.2921,-2.3386,0.348
116821.0,-0.2705,0.3735,6.9456,-0.1096,-2.2003,0.4049
116831.0,0.1652,0.2562,6.4356,-0.0027,-2.0901,0.4347
116841.0,0.6249,0.1867,5.7174,0.009,-1.9986,0.4417
116851.0,0.9625,0.0646,5.2074,-0.0782,-1.8863,0.4257
116861.0,1.1372,0.0335,4.786,-0.2246,-1.7698,0.3895
116871.0,1.5395,-0.1508,4.6448,-0.3852,-1.6283,0.3475
116881.0,1.8842,-0.2035,4.8147,-0.4943,-1.4218,0.3017
116891.0,2.0446,-0.2466,5.3463,-0.5885,-1.2404,0.2613
116901.0,2.375,-0.2849,5.9137,-0.6258,-1.11,0.2341
116911.0,2.569,-0.2322,6.4165,-0.6141,-1.0163,0.2192
116921.0,2.478,-0.1772,6.5841,-0.5933,-0.986,0.2171
116931.0,2.5833,-0.2466,6.3159,-0.5608,-0.9839,0.2331
116941.0,2.7461,-0.4381,6.11,-0.4848,-0.9009,0.2501
116951.0,2.7294,-0.5531,6.0382,-0.397,-0.754,0.2533
116961.0,2.8108,-0.8475,6.4428,-0.3124,-0.5922,0.2485
116971.0,2.9425,-1.0774,6.9384,-0.1612,-0.4161,0.2341
116981.0,3.055,-1.1061,7.5753,0.0176,-0.2533,0.1985
116991.0,3.1939,-0.8906,8.1594,0.1527,-0.1612,0.1463
117001.0,3.2417,-0.5435,8.5904,0.216,-0.1607,0.0899
117011.0,3.134,-0.1844,8.7508,0.2166,-0.2304,0.0495
117021.0,3.201,-0.0718,8.5712,0.2011,-0.3054,0.0346
117031.0,3.237,-0.0718,8.5688,0.2033,-0.3171,0.0261
117041.0,2.7916,0.0455,8.3893,0.2001,-0.3049,0.0176
117051.0,2.7725,-0.4597,9.0764,0.182,-0.2464,0.033
117061.0,2.8994,-0.9409,10.3358,0.3267,-0.1272,0.0383
117071.0,3.1029,-1.154,11.3988,0.4805,-0.1383,-0.0027
117081.0,3.4261,-0.9912,11.7053,0.4597,-0.3778,-0.1011
117091.0,3.5338,-0.7422,11.8441,0.2363,-0.7221,-0.2288
117101.0,3.2777,-0.3089,11.3294,-0.0889,-1.1265,-0.3469
117111.0,3.1149,-0.1939,10.7452,-0.4278,-1.5309,-0.4342
117121.0,3.2537,-0.3232,9.5864,-0.6024,-1.8108,-0.4746
117131.0,3.3567,-0.7183,8.7245,-0.6444,-1.9119,-0.505
117141.0,3.2992,-0.893,8.0972,-0.6114,-1.9369,-0.5513
117151.0,3.3806,-1.063,7.7309,-0.5715,-1.9662,-0.6034
117161.0,3.7637,-1.4245,7.3622,-0.5284,-2.0039,-0.6588
117171.0,4.0007,-1.4653,6.6702,-0.563,-2.0885,-0.762
117181.0,4.1899,-1.245,5.9185,-0.7391,-2.2333,-0.911
117191.0,4.4341,-0.7709,4.9512,-0.9679,-2.37,-1.0573
117201.0,4.4939,-0.2634,4.1324,-1.1339,-2.4153,-1.1584
117211.0,4.5538,0.2729,3.2872,-1.1467,-2.3594,-1.1893
117221.0,4.7453,0.6369,2.5091,-1.0046,-2.2232,-1.151
117231.0,5.0949,0.996,1.4868,-0.7189,-2.0183,-1.0552
117241.0,5.1882,1.1923,0.7302,-0.3762,-1.7315,-0.9206
117251.0,5.3343,1.3862,0.2634,0.0287,-1.4064,-0.7492
117261.0,5.4564,1.3647,-0.2658,0.4789,-1.0993,-0.5459
117271.0,5.4085,1.2785,-1.1588,0.97,-0.7976,-0.3214
117281.0,5.1499,1.1779,-2.7701,1.4191,-0.4704,-0.1006
117291.0,4.6424,0.9673,-5.1571,1.6735,-0.0782,0.0633
117301.0,4.1396,0.9194,-8.0349,1.4899,0.406,0.1038
117311.0,3.5171,1.3958,-10.5536,0.6763,0.9514,-0.0255
117321.0,3.067,2.4014,-12.3134,-0.6284,1.5772,-0.2288
117331.0,1.6281,3.553,-12.5935,-2.3168,2.2125,-0.4039
117341.0,1.3168,5.6647,-12.9,-3.9988,2.7617,-0.4885
117351.0,1.1157,8.7604,-13.3357,-5.6984,3.1506,-0.3741
117361.0,-0.3759,12.5193,-14.3413,-7.3054,3.3848,0.1469
117371.0,-3.1747,14.8057,-15.287,-8.3627,3.621,1.2292
117381.0,-6.5817,14.2048,-14.6693,-7.7997,4.3154,2.8558
117391.0,-11.3437,11.4371,-13.7164,-4.6193,6.0294,4.6959
117401.0,-17.4106,7.8793,-16.6565,0.0905,8.4526,6.206
117411.0,-27.0521,5.284,-19.0626,3.8706,11.3399,6.9824
117421.0,-41.3263,2.4062,-12.8425,5.8112,14.4266,7.0782
117431.0,-51.8752,-4.197,-1.664,6.8121,16.9361,6.7403
117441.0,-58.3251,-12.4666,14.4227,7.5826,17.4357,5.7442
117451.0,-61.0593,-13.1968,28.4024,8.3962,17.4357,3.8999
117461.0,-57.9947,-9.0501,44.3717,7.8045,17.4357,1.6118
117471.0,-55.2773,-2.2984,60.9061,6.1943,15.3892,-0.4576
117481.0,-47.5824,4.3574,73.2769,4.4341,10.978,-1.7512
117491.0,-40.3208,13.872,72.5683,3.2512,6.1831,-2.2184
117501.0,-37.6752,17.4801,70.8875,1.1377,1.732,-2.1242
117511.0,-35.4557,16.587,62.7999,-1.0174,-3.0591,-1.7336
117521.0,-32.8915,14.0923,46.7971,-2.2918,-6.9632,-1.2015
117531.0,-30.4519,10.0365,31.4694,-3.2129,-9.2524,-0.7285
117541.0,-27.1431,6.4165,18.3085,-3.9477,-10.4427,-0.4624
117551.0,-22.448,4.221,8.4922,-4.4256,-10.6242,-0.3906
117561.0,-18.2414,2.6767,2.7964,-4.6592,-9.9659,-0.3693
117571.0,-14.5328,1.3144,-0.9505,-4.5975,-9.0805,-0.3241
117581.0,-10.9439,-0.3232,-2.8826,-4.1452,-7.953,-0.2719
117591.0,-7.9296,-1.6831,-3.6871,-3.3747,-6.7083,-0.2767
117601.0,-5.6695,-2.2745,-4.3718,-2.4717,-5.5494,-0.3326
117611.0,-3.8068,-2.7485,-3.8882,-1.5889,-4.3857,-0.3602
117621.0,-3.0191,-2.7749,-2.2984,-0.6497,-3.2336,-0.3395
117631.0,-2.6049,-2.8156,-0.589,0.3267,-2.3067,-0.273
117641.0,-2.2218,-2.5881,0.2873,1.2515,-1.5793,-0.1932
117651.0,-1.9992,-2.2051,1.0798,1.9055,-0.9456,-0.125
117661.0,-1.9369,-2.059,2.6983,2.2381,-0.4299,-0.0841
117671.0,-1.9321,-1.8292,4.2856,2.3424,-0.1272,-0.0793
117681.0,-2.0446,-1.4581,5.5474,2.2737,-0.0085,-0.1
117691.0,-2.217,-0.9984,6.675,2.0433,0.0074,-0.1266
117701.0,-2.3152,-0.5555,7.9416,1.7155,-0.0474,-0.1442
117711.0,-2.4421,-0.0838,9.0668,1.3707,-0.199,-0.1517
117721.0,-2.5163,0.395,9.809,1.0328,-0.4581,-0.1368
117731.0,-2.6743,0.8116,10.094,0.7684,-0.7407,-0.0809
117741.0,-2.7509,1.0032,9.8881,0.5843,-0.994,0.0208
117751.0,-2.6791,0.9002,9.584,0.4581,-1.1919,0.1368
117761.0,-2.5714,0.7183,8.9567,0.3698,-1.3404,0.24
117771.0,-2.2242,0.2753,8.2265,0.2458,-1.4548,0.3113
117781.0,-1.7621,-0.2227,7.5441,0.1022,-1.5064,0.3368
117791.0,-1.415,-0.6847,7.1419,-0.067,-1.4984,0.3076
117801.0,-0.9697,-1.0032,6.9073,-0.2288,-1.4809,0.2379
117811.0,-0.5602,-1.1971,6.7325,-0.3411,-1.4468,0.1548
117821.0,-0.1772,-1.2689,6.4476,-0.3837,-1.3835,0.0756
117831.0,0.2227,-1.3862,6.347,-0.3581,-1.2733,0.0074
117841.0,0.5507,-1.4413,6.177,-0.2581,-1.1238,-0.0532
117851.0,0.8499,-1.4126,6.1627,-0.133,-0.9706,-0.1133
117861.0,1.2234,-1.2402,6.0382,0.0128,-0.8184,-0.1666
117871.0,1.5012,-1.0247,6.1196,0.1474,-0.6635,-0.2134
117881.0,1.7023,-0.6919,6.1483,0.2943,-0.5071,-0.2426
117891.0,1.8387,-0.2945,6.0908,0.4289,-0.3672,-0.241
117901.0,1.9824,-0.0646,6.3327,0.5784,-0.2027,-0.2001
117911.0,2.0375,0.1628,6.0956,0.7694,-0.041,-0.1277
117921.0,2.1165,0.0934,5.6527,0.8849,0.1235,-0.0516
117931.0,1.9178,0.0263,4.5562,0.8775,0.3278,-0.0064
117941.0,1.5203,-0.3424,4.5801,0.6391,0.6327,-0.0298
117951.0,0.9218,-0.4262,5.715,0.3858,1.0233,-0.1107
117961.0,0.2298,-0.3735,7.7165,0.207,1.3542,-0.2027
117971.0,-0.1652,-0.1963,9.9216,0.1559,1.5554,-0.2655
117981.0,-0.7015,0.0335,12.2463,0.2219,1.6346,-0.2794
117991.0,-1.2426,0.2442,14.0588,0.3507,1.5139,-0.2506
118001.0,-1.6999,0.3376,15.3181,0.5225,1.2499,-0.1969
118011.0,-1.9178,0.5028,15.5408,0.746,0.9296,-0.1352
118021.0,-2.1141,0.6512,15.3899,0.9227,0.6231,-0.0926
118031.0,-2.3176,0.9697,14.6884,1.0163,0.3363,-0.0814
118041.0,-2.2697,1.3838,13.8768,0.9344,0.091,-0.1043
118051.0,-2.2146,1.7454,13.2687,0.6689,-0.0921,-0.1522
118061.0,-2.2673,1.9465,13.5129,0.2421,-0.2538,-0.2166
118071.0,-2.399,2.0925,13.9845,-0.1846,-0.4805,-0.2661
118081.0,-2.3415,2.047,14.0516,-0.4927,-0.7716,-0.2756
118091.0,-2.1261,1.8316,13.7092,-0.6274,-1.0099,-0.2485
118101.0,-1.8938,1.64,13.2423,-0.6194,-1.1637,-0.2049
118111.0,-1.6305,1.5778,12.481,-0.5385,-1.2877,-0.1564
118121.0,-1.3072,1.4676,11.5209,-0.448,-1.3723,-0.1048
118131.0,-0.8571,1.2761,10.5632,-0.3491,-1.3681,-0.049
118141.0,-0.5171,1.0223,9.9,-0.2677,-1.2702,-0.0101
118151.0,-0.0455,0.8308,9.6079,-0.2208,-1.1563,0.0043
118161.0,0.2753,0.723,9.4619,-0.207,-1.0557,-0.0027
118171.0,0.4836,0.6967,9.3589,-0.2288,-0.9786,-0.0128
118181.0,0.7254,0.5626,9.3254,-0.2389,-0.911,-0.0165
118191.0,0.8787,0.4645,9.3182,-0.1815,-0.8221,-0.0149
118201.0,1.1181,0.4621,9.2943,-0.0665,-0.7157,-0.0069
118211.0,1.2402,0.5219,9.2967,0.0681,-0.6055,0.0085
118221.0,1.3695,0.5746,9.3685,0.1937,-0.5124,0.0303
118231.0,1.549,0.6057,9.3805,0.3166,-0.4395,0.0601
118241.0,1.7693,0.5938,9.2895,0.4166,-0.3906,0.0851
118251.0,1.9609,0.6129,9.1506,0.456,-0.3608,0.0974
118261.0,2.1548,0.6057,9.1099,0.4305,-0.3533,0.0979
118271.0,2.2913,0.6033,9.0285,0.3704,-0.3666,0.0899
118281.0,2.4134,0.5578,8.8059,0.2927,-0.3906,0.0803
118291.0,2.4636,0.4405,8.4779,0.2128,-0.4007,0.0665
118301.0,2.3679,0.2753,8.1139,0.1176,-0.4023,0.0436
118311.0,2.3224,-0.0024,7.7452,0.0197,-0.3789,0.0037
118321.0,2.1165,-0.1173,7.3813,-0.0676,-0.3124,-0.0585
118331.0,1.8579,-0.2346,7.4005,-0.1618,-0.2049,-0.1399
118341.0,1.7119,-0.182,7.6758,-0.1639,-0.0511,-0.215
118351.0,1.4174,-0.0383,8.3031,-0.0527,0.1368,-0.2762
118361.0,1.0798,0.3735,8.7652,0.1479,0.2948,-0.3124
118371.0,0.8811,0.7853,9.1961,0.3539,0.4129,-0.323
118381.0,0.7518,1.2737,9.5385,0.5342,0.5135,-0.3161
118391.0,0.565,1.719,9.8426,0.6226,0.5672,-0.3017
118401.0,0.4645,2.059,10.1131,0.6066,0.564,-0.2895
118411.0,0.3879,2.4134,10.4124,0.5146,0.538,-0.2794
118421.0,0.2466,2.6336,10.8194,0.3485,0.4943,-0.2629
118431.0,0.0527,2.7485,11.5185,0.158,0.4225,-0.2395
118441.0,-0.0311,2.7485,12.0835,0.0037,0.3028,-0.2022
118451.0,-0.0383,2.6624,12.4882,-0.0979,0.1346,-0.1543
118461.0,-0.067,2.5666,12.5121,-0.1266,-0.0399,-0.0979
118471.0,0.1197,2.4636,12.3373,-0.107,-0.183,-0.0357
118481.0,0.1676,2.4229,12.1649,-0.0718,-0.2868,0.0186
118491.0,0.067,2.4972,11.7771,-0.0404,-0.3858,0.0665
118501.0,0.1077,2.5546,11.1833,-0.05,-0.4933,0.1171
118511.0,0.2059,2.2745,11.0253,-0.075,-0.5108,0.1697
118521.0,0.1939,2.1691,10.9846,-0.041,-0.4539,0.2155
118531.0,0.1389,2.0423,11.5353,-0.0303,-0.4257,0.2501
118541.0,0.4549,1.8962,11.7771,-0.0218,-0.4725,0.2804
118551.0,0.3687,1.7957,12.0907,-0.0463,-0.5353,0.2932
118561.0,0.5267,1.8028,12.323,-0.1282,-0.6619,0.2953
118571.0,0.7446,1.8675,12.1865,-0.2634,-0.8626,0.2927
118581.0,0.5914,1.6927,11.88,-0.4289,-1.0701,0.2948
118591.0,0.6608,1.3072,11.4156,-0.563,-1.2398,0.3081
118601.0,0.8499,0.7015,11.327,-0.6321,-1.3244,0.3092
118611.0,0.9505,0.2227,11.1809,-0.6268,-1.3893,0.2847
118621.0,1.0199,-0.2969,11.5305,-0.5779,-1.434,0.2405
118631.0,1.1061,-0.5818,11.813,-0.5146,-1.5341,0.1729
118641.0,1.0487,-0.6369,11.8585,-0.5082,-1.7421,0.0809
118651.0,1.0654,-0.4645,11.643,-0.539,-2.0172,-0.0165
118661.0,0.9888,-0.0766,10.7428,-0.588,-2.3142,-0.0968
118671.0,0.747,0.2083,9.6726,-0.7125,-2.6089,-0.1522
118681.0,0.2059,0.4238,8.521,-0.9222,-2.9112,-0.183
118691.0,-0.2203,0.431,7.2377,-1.126,-3.1932,-0.1942
118701.0,-0.6201,0.9505,4.4269,-1.3792,-3.5391,-0.2171
118711.0,-0.1867,1.7502,0.3256,-2.0593,-3.9924,-0.2985
118721.0,0.6512,3.0837,-4.7525,-3.1783,-4.3734,-0.4135
118731.0,1.336,5.2864,-12.0069,-4.7683,-4.7566,-0.4911
118741.0,2.0997,6.6655,-21.452,-6.5285,-5.0944,-0.4321
118751.0,3.6655,7.6902,-34.0168,-7.3565,-4.424,-0.1346
118761.0,6.5841,8.4611,-44.4316,-7.1005,-2.4046,0.3368
118771.0,3.4884,7.9799,-47.2951,-5.9049,0.8604,0.8939
118781.0,-0.4741,6.541,-45.8226,-3.8669,4.3378,1.4878
118791.0,-6.2584,5.0254,-39.3463,-1.1393,7.8471,2.0316
118801.0,-14.4059,4.4436,-30.5165,2.0545,11.0355,2.4695
118811.0,-21.3323,4.6878,-23.1424,4.8454,13.2326,2.6499
118821.0,-29.3242,7.1898,-17.0826,6.528,14.8949,2.4988
118831.0,-36.0232,7.6375,-6.9863,6.8983,16.0549,2.2226
118841.0,-41.3886,9.9647,-0.3831,6.9952,16.6509,1.8762
118851.0,-45.7987,12.5265,8.5353,6.0735,16.7802,1.4601
118861.0,-49.3277,14.3844,19.6995,4.6267,16.5157,1.3244
118871.0,-51.6884,8.3534,37.6943,3.3289,15.643,1.6075
118881.0,-48.4993,3.7326,48.0492,3.7833,13.8402,1.8225
118891.0,-42.5258,2.5594,51.7219,4.0052,11.0669,1.5091
118901.0,-37.3495,2.8802,53.0124,2.8537,7.7523,0.8242
118911.0,-33.9474,3.1292,51.9015,1.1866,4.407,0.1171
118921.0,-31.0648,3.3208,47.1825,-0.3288,1.2451,-0.4512
118931.0,-29.2643,2.5522,40.9313,-1.5282,-1.3457,-0.8551
118941.0,-26.341,2.9161,33.3297,-2.22,-3.148,-1.1573
118951.0,-23.8558,3.7134,27.5357,-2.7814,-4.2553,-1.383
118961.0,-20.7122,4.853,22.7952,-3.0016,-4.9125,-1.4319
118971.0,-17.5854,5.7245,18.2773,-2.8628,-5.1455,-1.2856
118981.0,-14.4346,5.4636,14.8776,-2.651,-5.1743,-1.027
118991.0,-11.8872,4.6184,10.7164,-2.3009,-5.0258,-0.7354
119001.0,-10.0365,3.5123,8.9256,-1.9997,-4.5826,-0.4858
119011.0,-8.667,2.7869,7.6255,-1.4889,-4.0297,-0.2426
119021.0,-7.7141,1.9082,6.7205,-0.9498,-3.5556,-0.0303
119031.0,-6.62,1.3048,5.2146,-0.4933,-3.1474,0.1197
119041.0,-5.9472,0.8499,4.8004,-0.249,-2.6952,0.1868
119051.0,-5.5905,0.5794,5.1906,-0.0825,-2.2503,0.2107
119061.0,-5.4372,0.2993,5.8826,0.1075,-1.8901,0.2283
119071.0,-5.4205,0.2083,6.1435,0.2788,-1.657,0.2384
119081.0,-5.4229,0.0718,6.517,0.3267,-1.5027,0.232
119091.0,-5.6,-0.1556,7.5298,0.3549,-1.3489,0.2214
119101.0,-5.7078,-0.3735,8.3701,0.4358,-1.2702,0.2086
119111.0,-5.7006,-0.5626,9.2033,0.489,-1.2952,0.1671
119121.0,-5.8299,-0.3663,9.7612,0.5284,-1.4048,0.1054
119131.0,-5.9472,0.0599,10.3382,0.539,-1.6043,0.0548
119141.0,-5.8969,0.5698,10.3884,0.6002,-1.8565,0.0463
119151.0,-5.8586,0.9936,9.4475,0.688,-2.1263,0.0921
119161.0,-5.5378,1.0822,8.0709,0.68,-2.3312,0.1554
119171.0,-4.9775,0.972,6.9695,0.5683,-2.3892,0.1884
119181.0,-4.6232,0.9481,6.462,0.3725,-2.353,0.1767
119191.0,-4.1635,0.8763,6.4596,0.1618,-2.3051,0.1506
119201.0,-3.6679,0.8092,6.2872,0.0362,-2.2365,0.1394
119211.0,-3.0957,0.6177,6.0549,-0.0543,-2.1348,0.1357
119221.0,-2.7414,0.4022,6.0885,-0.1538,-1.988,0.1203
119231.0,-2.5283,0.182,6.2872,-0.2389,-1.8289,0.099
119241.0,-2.1213,-0.2346,7.0629,-0.2602,-1.6549,0.0782
119251.0,-1.8196,-0.3711,7.4699,-0.1447,-1.4851,0.0559
119261.0,-1.4629,-0.486,8.0469,-0.0277,-1.3542,0.0271
119271.0,-1.245,-0.4118,8.327,0.0926,-1.2558,0.0005
119281.0,-1.0343,-0.2801,8.5018,0.1586,-1.1957,-0.0266
119291.0,-0.9146,-0.1413,8.5018,0.1655,-1.1499,-0.0607
119301.0,-0.9457,0.1293,8.4946,0.1144,-1.0834,-0.107
119311.0,-0.9433,0.3879,8.8609,-0.0043,-1.0206,-0.1538
119321.0,-0.9912,0.6393,9.3805,-0.1389,-0.9903,-0.1868
119331.0,-0.9194,0.7159,9.9671,-0.2395,-1.0004,-0.1937
119341.0,-0.8859,0.7925,10.3741,-0.2549,-1.0328,-0.1713
119351.0,-0.7901,0.7757,10.6566,-0.1905,-1.0648,-0.1293
119361.0,-0.5195,0.7183,10.7093,-0.0718,-1.1031,-0.0835
119371.0,-0.3112,0.7326,10.6159,0.0117,-1.1547,-0.05
119381.0,-0.3208,0.9194,10.4028,0.0314,-1.234,-0.0341
119391.0,-0.0886,1.0391,10.1778,-0.0064,-1.3164,-0.017
119401.0,0.012,1.1372,9.8809,-0.042,-1.3851,0.0128
119411.0,0.17,1.0511,9.3589,-0.0782,-1.433,0.058
119421.0,0.4094,0.8619,8.6503,-0.1431,-1.4585,0.0921
119431.0,0.6081,0.5483,7.9344,-0.2267,-1.4218,0.107
119441.0,0.9002,0.1724,7.5393,-0.3257,-1.2994,0.0921
119451.0,0.9649,0.0455,7.3694,-0.4076,-1.11,0.0431
119461.0,1.166,-0.0383,7.8362,-0.4826,-0.9184,-0.0149
119471.0,1.2378,-0.0263,8.3821,-0.4858,-0.7418,-0.0553
119481.0,1.2186,-0.0215,9.0764,-0.4395,-0.6034,-0.0708
119491.0,1.3096,-0.1006,9.6319,-0.3406,-0.5151,-0.0665
119501.0,1.4629,-0.1556,9.912,-0.1767,-0.448,-0.0537
119511.0,1.5203,-0.1532,10.1897,0.0053,-0.3789,-0.0436
119521.0,1.4653,-0.0335,10.4842,0.2075,-0.3193,-0.0314
119531.0,1.5562,0.0311,10.568,0.3975,-0.3097,-0.0128
119541.0,1.6472,0.1604,10.1921,0.5183,-0.3155,-0.008
119551.0,1.6328,0.3352,9.9671,0.4848,-0.3118,-0.0314
119561.0,1.6185,0.4381,10.0078,0.3496,-0.3161,-0.0697
119571.0,1.5275,0.5602,10.2017,0.1894,-0.332,-0.1112
119581.0,1.4892,0.6847,10.4866,0.0463,-0.3624,-0.1463
119591.0,1.5155,0.7709,10.7045,-0.0378,-0.4076,-0.1591
119601.0,1.3815,0.8882,10.7811,-0.0474,-0.4544,-0.1501
119611.0,1.4557,0.8188,10.7667,-0.0287,-0.5076,-0.125
119621.0,1.6879,0.5842,10.7859,0.0479,-0.5316,-0.0926
119631.0,1.6424,0.5914,10.3741,0.1713,-0.5358,-0.0697
119641.0,1.7047,0.4357,10.2472,0.2214,-0.5497,-0.0601
119651.0,2.0446,0.2921,9.9311,0.274,-0.5486,-0.0654
119661.0,1.7693,0.2777,9.6175,0.2517,-0.5284,-0.0995
119671.0,1.5754,0.4621,9.6223,0.1543,-0.5209,-0.1543
119681.0,1.7142,0.6656,9.7707,0.0282,-0.5364,-0.2081
119691.0,1.7047,0.9744,9.9623,-0.0388,-0.522,-0.232
119701.0,1.5754,1.154,10.2879,-0.0559,-0.4959,-0.216
119711.0,1.7262,1.0942,10.6829,-0.0351,-0.4927,-0.1767
119721.0,1.8148,1.0175,11.0349,0.0601,-0.4752,-0.1325
119731.0,1.719,1.1516,11.1905,0.1463,-0.4981,-0.1006
119741.0,1.798,1.0654,11.4802,0.1527,-0.5805,-0.0692
119751.0,2.0207,0.8811,11.5137,0.2187,-0.6423,-0.0346
119761.0,2.1261,0.7685,11.5137,0.3044,-0.687,-0.0213
119771.0,2.2314,0.7877,11.0923,0.315,-0.787,-0.0341
119781.0,2.3463,0.6369,10.6805,0.2192,-0.9094,-0.0713
119791.0,2.4181,0.6656,10.1107,0.0958,-0.969,-0.133
119801.0,2.5307,0.7446,9.821,-0.0979,-0.9977,-0.2166
119811.0,2.6504,0.735,10.0341,-0.3097,-1.0376,-0.3022
119821.0,2.7007,0.9385,10.0293,-0.4315,-1.0855,-0.3682
119831.0,2.6504,1.2977,9.8569,-0.5183,-1.1584,-0.4119
119841.0,2.5953,1.7621,9.651,-0.5502,-1.2095,-0.4135
119851.0,2.6719,2.1189,9.2943,-0.4885,-1.2185,-0.3523
119861.0,2.976,2.0231,8.5186,-0.3837,-1.2207,-0.2432
119871.0,3.2848,1.5514,8.0804,-0.2841,-1.135,-0.141
119881.0,3.3399,1.3551,7.9128,-0.1155,-0.9631,-0.0761
119891.0,3.4237,1.3144,7.7261,0.017,-0.8338,-0.0426
119901.0,3.5314,1.3575,7.5561,0.0495,-0.7593,-0.0298
119911.0,3.6607,1.3288,7.7476,0.0202,-0.6923,-0.0186
119921.0,3.6488,1.2306,7.9464,0.0074,-0.6476,-0.0005
119931.0,3.5745,1.0822,7.9775,0.0197,-0.6593,0.0176
119941.0,3.7828,1.0295,7.604,0.0575,-0.6987,0.0282
119951.0,3.972,0.9361,7.1012,0.0745,-0.7173,0.0309
119961.0,4.0079,1.0391,6.529,0.0399,-0.7226,0.0192
119971.0,3.9887,0.9816,6.3566,-0.0756,-0.738,-0.0032
119981.0,3.8882,1.0439,5.928,-0.133,-0.7615,-0.0106
119991.0,3.8571,0.9649,5.4947,-0.1554,-0.7625,-0.0059
120001.0,3.9145,0.9864,4.8028,-0.1266,-0.7327,0.0096
120011.0,3.9049,0.9792,4.1851,-0.0793,-0.6641,0.0325
120021.0,3.814,1.1301,3.2657,-0.0122,-0.5768,0.0649
120031.0,3.7948,1.3216,2.1691,-0.0181,-0.5135,0.0974
120041.0,3.7757,1.4916,0.9026,-0.1139,-0.4502,0.132
120051.0,3.7182,1.7478,-0.4669,-0.2304,-0.323,0.1713
120061.0,3.2465,1.9609,-1.6424,-0.3719,-0.1469,0.216
120071.0,2.7461,2.0806,-3.2154,-0.5773,0.0229,0.2714
120081.0,2.4995,1.9489,-4.9464,-1.0233,0.0745,0.3054
120091.0,2.5283,1.7166,-6.948,-1.7097,0.0633,0.3028
120101.0,2.071,1.7071,-9.2847,-2.4498,0.1517,0.3113
120111.0,1.0511,1.4126,-11.3102,-3.0863,0.4033,0.3704
120121.0,0.5722,1.1325,-13.5775,-3.4433,0.8344,0.4922
120131.0,-0.1724,0.6728,-15.7179,-3.4241,1.6362,0.6917
120141.0,-0.9122,-0.2825,-17.1066,-3.2459,2.6579,0.9115
120151.0,-2.296,-1.4509,-16.5296,-2.9367,3.8472,1.0919
120161.0,-4.6424,-2.0327,-14.9877,-2.2386,5.1274,1.2478
120171.0,-7.5034,-2.162,-13.2902,-1.1345,6.4279,1.4064
120181.0,-10.6326,-1.7023,-12.2751,0.2224,7.8103,1.5564
120191.0,-15.2199,-0.7542,-10.7284,1.3452,9.2486,1.6346
120201.0,-19.9892,-0.0551,-7.0246,2.0385,10.688,1.6469
120211.0,-25.6467,0.6512,-0.5148,2.4328,12.0114,1.6219
120221.0,-29.9515,-0.146,8.0756,2.618,12.8298,1.607
120231.0,-33.6409,-1.7358,16.1297,3.0352,13.2517,1.532
120241.0,-37.838,-1.7358,22.9101,3.5236,13.3677,1.2074
120251.0,-40.0334,-0.7829,30.7439,3.5965,13.0602,0.6965
120261.0,-40.371,1.3072,40.2872,3.1767,12.1104,0.1543
120271.0,-38.7095,2.3463,51.5663,2.4717,10.3996,-0.2512
120281.0,-35.5204,4.6352,58.3036,1.931,7.7396,-0.5406
120291.0,-31.9315,6.9001,59.3762,1.1706,4.2979,-0.7072
120301.0,-29.4726,9.1123,54.3891,0.3097,0.9525,-0.7035
120311.0,-27.258,9.2608,47.1323,-0.7061,-1.8528,-0.5789
120321.0,-24.5813,8.4108,38.3479,-1.7389,-4.0558,-0.4597
120331.0,-22.2517,6.5625,31.613,-2.6265,-5.4542,-0.3645
120341.0,-19.7498,4.7214,25.6275,-3.04,-6.3263,-0.2453
120351.0,-16.8719,3.1891,19.2398,-2.9367,-6.8291,-0.0883
120361.0,-13.4339,2.0159,12.8497,-2.5382,-6.8366,0.0851
120371.0,-10.6662,1.1732,8.5641,-2.1737,-6.3215,0.2219
120381.0,-9.2177,0.079,7.0006,-1.8959,-5.5994,0.3161
120391.0,-7.7093,-0.8236,6.2465,-1.4814,-4.9428,0.381
120401.0,-6.62,-1.4629,5.6383,-0.9589,-4.3229,0.4321
120411.0,-5.77,-1.968,5.4348,-0.4305,-3.7338,0.4629
120421.0,-5.3678,-2.1811,5.3223,-0.0048,-3.2507,0.4715
120431.0,-5.0685,-2.4373,5.3463,0.2794,-2.8798,0.4576
120441.0,-4.7501,-2.5977,5.2241,0.5007,-2.5424,0.4198
120451.0,-4.7094,-2.6384,5.3558,0.6332,-2.2354,0.3475
120461.0,-4.549,-2.4732,5.8012,0.6784,-1.9874,0.2464
120471.0,-4.4077,-2.2194,6.3351,0.6396,-1.8278,0.1431
120481.0,-4.5179,-1.8914,6.9935,0.5688,-1.7549,0.0436
120491.0,-4.3981,-1.5251,7.4484,0.5257,-1.7671,-0.0277
120501.0,-4.1276,-1.2953,7.604,0.5263,-1.8246,-0.067
120511.0,-3.7397,-1.0223,7.3717,0.5816,-1.8816,-0.0862
120521.0,-3.4069,-0.6488,6.6367,0.6236,-1.9358,-0.0947
120531.0,-3.0239,-0.4166,5.612,0.5843,-1.9592,-0.1027
120541.0,-2.5426,-0.2825,4.8147,0.506,-1.8651,-0.1144
120551.0,-2.3343,-0.3232,4.8626,0.4172,-1.649,-0.132
120561.0,-2.1955,-0.4453,5.1092,0.348,-1.4261,-0.1538
120571.0,-1.8627,-0.6943,5.6431,0.2517,-1.2318,-0.1958
120581.0,-1.6712,-0.8116,6.5888,0.1639,-1.0382,-0.2629
120591.0,-1.3791,-0.8475,7.9631,0.1282,-0.9062,-0.3304
120601.0,-1.087,-0.6608,9.0309,0.2134,-0.8727,-0.3735
120611.0,-0.8763,-0.431,9.6558,0.3964,-0.9152,-0.3826
120621.0,-0.7254,-0.0838,9.5002,0.6194,-0.9892,-0.3645
120631.0,-0.6991,0.2107,9.0908,0.8008,-1.0424,-0.3358
120641.0,-0.5363,0.4764,8.6167,0.9259,-1.0499,-0.3108
120651.0,-0.4357,0.9002,8.169,0.9413,-1.0248,-0.3076
120661.0,-0.3041,1.1325,8.1499,0.7721,-1.0227,-0.3171
120671.0,-0.091,1.3431,8.2935,0.5273,-1.0488,-0.3272
120681.0,-0.0503,1.5443,8.5305,0.2613,-1.1111,-0.331
120691.0,0.2322,1.5826,8.7532,0.0399,-1.1935,-0.3187
120701.0,0.4573,1.6592,8.7891,-0.0511,-1.2451,-0.2852
120711.0,0.4717,1.7406,8.588,-0.0617,-1.2851,-0.2261
120721.0,0.7302,1.5514,8.0637,-0.0287,-1.3191,-0.1453
120731.0,1.0463,1.2163,7.3454,0.0271,-1.2904,-0.0713
120741.0,1.1779,0.9673,6.7421,0.0474,-1.1903,-0.0351
120751.0,1.3408,0.6967,6.3997,0.0197,-1.0791,-0.0325
120761.0,1.5897,0.5578,5.9544,-0.0266,-0.9541,-0.0511
120771.0,1.8172,0.5148,5.861,-0.1006,-0.7817,-0.0937
120781.0,1.7502,0.6273,6.1339,-0.1666,-0.5848,-0.1421
120791.0,1.7166,0.8092,6.438,-0.2267,-0.4299,-0.1745
120801.0,1.7286,0.9625,6.8881,-0.241,-0.3001,-0.1825
120811.0,1.8794,1.1085,7.1946,-0.1607,-0.158,-0.1575
120821.0,1.8052,1.2258,7.5417,-0.0436,-0.0117,-0.1133
120831.0,1.8244,1.2234,7.9871,0.0984,0.1054,-0.0559
120841.0,1.8842,1.2043,7.9416,0.2597,0.1878,0.0
120851.0,1.9225,1.1875,7.604,0.3347,0.2549,0.0357
120861.0,1.7597,1.142,7.2951,0.2368,0.331,0.0383
120871.0,1.4892,1.008,7.5729,0.0197,0.423,0.0106
120881.0,1.221,0.8763,8.2624,-0.1772,0.5374,-0.0282
120891.0,0.9984,0.7829,9.3278,-0.2591,0.6588,-0.0559
120901.0,0.8763,0.7494,10.5584,-0.2352,0.7322,-0.0681
120911.0,0.7638,0.7446,11.6191,-0.1208,0.7359,-0.0569
120921.0,0.7829,0.7422,12.3397,0.0277,0.6401,-0.0266
120931.0,0.6297,0.7829,12.5336,0.1389,0.4725,0.0021
120941.0,0.7638,0.7829,12.5528,0.1937,0.2879,0.0218
120951.0,0.9122,0.8452,12.5073,0.2671,0.1304,0.0335
120961.0,0.9505,1.1229,11.5233,0.299,-0.042,0.0357
120971.0,1.1612,1.1301,10.9008,0.1426,-0.1942,0.0186
120981.0,1.3144,1.1253,10.2544,-0.0729,-0.2778,-0.0117
120991.0,1.2665,0.9697,10.2879,-0.3491,-0.3193,-0.0564
121001.0,1.1708,0.7614,10.5153,-0.5598,-0.3735,-0.099
121011.0,1.2522,0.51,10.3046,-0.6604,-0.4581,-0.1197
121021.0,1.2546,0.1748,10.0724,-0.6625,-0.4746,-0.133
121031.0,1.2905,0.0,9.9192,-0.5555,-0.4087,-0.1463
121041.0,1.2833,0.0192,9.8186,-0.3847,-0.3209,-0.1644
121051.0,1.391,0.1939,9.572,-0.1868,-0.2293,-0.1729
121061.0,1.3791,0.486,9.2751,-0.0277,-0.1192,-0.1719
121071.0,1.3192,0.6919,9.3326,0.0676,0.0192,-0.1639
121081.0,1.2522,1.0032,9.6271,0.1235,0.1586,-0.1586
121091.0,1.2067,1.1325,10.4507,0.1107,0.2464,-0.1479
121101.0,1.2234,1.2737,10.9463,0.099,0.2432,-0.1192
121111.0,1.1636,1.1636,11.3772,0.0367,0.1687,-0.0883
121121.0,1.1851,0.9864,11.6622,0.0138,0.075,-0.0601
121131.0,1.1588,0.9505,11.4299,0.0548,-0.0154,-0.0378
121141.0,1.2043,0.9457,11.1067,0.0718,-0.0979,-0.0255
121151.0,1.0582,1.1037,10.8098,0.075,-0.1304,-0.0218
121161.0,1.0343,1.1732,10.6326,0.0697,-0.1559,-0.0128
121171.0,1.0798,1.2522,10.2592,0.1128,-0.1224,0.0032
121181.0,1.0894,1.3551,10.2256,0.1463,-0.0005,0.0106
121191.0,1.0032,1.5514,10.6638,0.0729,0.0905,-0.0043
121201.0,0.8835,1.8004,11.3916,-0.0692,0.0857,-0.0218
121211.0,0.9912,1.9058,11.9997,-0.1713,0.0032,-0.0064
121221.0,1.0104,2.0734,12.1242,-0.1804,-0.0894,0.0404
121231.0,1.0151,2.0159,12.2009,-0.1426,-0.1628,0.1117
121241.0,1.1349,1.7861,11.9902,-0.049,-0.2261,0.2033
121251.0,1.2809,1.3815,11.4658,0.0468,-0.2826,0.2831
121261.0,1.4676,0.917,10.8409,0.0511,-0.3086,0.3139
121271.0,1.5323,0.5267,10.9343,-0.0543,-0.299,0.2852
121281.0,1.5634,0.3232,11.0445,-0.1612,-0.3379,0.2315
121291.0,1.7334,0.0192,11.1953,-0.2368,-0.4092,0.1719
121301.0,1.7717,-0.1652,11.2647,-0.2751,-0.4762,0.1038
121311.0,1.7837,-0.1867,11.3581,-0.29,-0.5598,0.0298
121321.0,1.8603,-0.0646,11.169,-0.2847,-0.6832,-0.0431
121331.0,2.0063,0.1389,10.6398,-0.2634,-0.8088,-0.099
121341.0,2.15,0.2251,10.0341,-0.248,-0.9046,-0.1346
121351.0,2.2434,0.2777,9.4092,-0.2309,-0.9722,-0.1607
121361.0,2.3439,0.2705,8.6431,-0.2006,-1.0147,-0.1788
121371.0,2.4325,0.249,7.932,-0.1634,-1.0243,-0.1942
121381.0,2.3343,0.4693,7.1323,-0.1203,-1.0025,-0.2139
121391.0,2.4229,0.6704,6.5793,-0.0803,-0.9684,-0.2224
121401.0,2.5594,0.9936,5.5713,-0.0154,-0.92,-0.2112
121411.0,2.5833,1.1636,4.8866,0.0229,-0.821,-0.1777
121421.0,2.7869,1.3599,3.9002,0.0644,-0.7098,-0.1203
121431.0,3.0861,1.2833,3.2489,0.0452,-0.6029,-0.0521
121441.0,3.055,1.2354,2.3942,0.0277,-0.4864,0.0128
121451.0,2.9449,1.1636,1.7621,-0.0378,-0.3815,0.0628
121461.0,2.8443,1.2234,0.8595,-0.1485,-0.3304,0.1075
121471.0,2.66,1.3001,-0.3687,-0.2623,-0.2724,0.1543
121481.0,2.4804,1.3312,-1.4653,-0.3815,-0.116,0.2091
121491.0,2.1931,1.2115,-2.0662,-0.5406,0.1006,0.2629
121501.0,1.5969,0.9385,-2.4253,-0.6827,0.2826,0.3267
121511.0,1.0056,0.5602,-3.2633,-0.6965,0.4406,0.398
121521.0,0.7997,0.1173,-4.7046,-0.5119,0.7035,0.4704
121531.0,0.68,-0.5052,-6.9528,-0.1527,1.184,0.5279
121541.0,-0.2203,-0.9673,-9.5553,0.0676,1.8943,0.4949
121551.0,-1.5443,-1.2809,-9.8857,-0.1112,2.7595,0.3347
121561.0,-2.1404,-0.6823,-8.916,-0.2847,3.6726,0.099
121571.0,-2.5115,0.9457,-8.6933,-0.6077,4.3724,-0.1352
121581.0,-2.5618,1.8483,-6.359,-1.4915,4.806,-0.2847
121591.0,-3.7469,2.5786,-1.7789,-2.3147,4.9992,-0.241
121601.0,-5.1356,2.8587,0.5842,-2.2588,4.8731,0.1043
121611.0,-6.2513,2.3822,-1.7597,-1.1589,5.0125,0.6524
121621.0,-9.4523,1.3168,-4.4125,0.183,5.9309,1.1424
121631.0,-13.702,0.1197,-4.7836,1.019,7.2692,1.3744
121641.0,-17.6644,-0.8691,-1.8627,0.97,8.5915,1.2749
121651.0,-21.3587,-2.8611,6.2082,0.1298,9.6637,0.9578
121661.0,-24.9715,-4.8602,18.5622,-0.6008,10.299,0.563
121671.0,-28.0265,-4.4365,29.9634,-0.3783,10.2022,0.248
121681.0,-28.7089,-2.885,37.261,0.4725,9.1864,0.1096
121691.0,-27.9834,-0.4501,39.976,1.4383,7.7779,0.0756
121701.0,-27.6051,2.2386,41.7357,2.253,6.62,0.1155
121711.0,-27.3945,4.5442,42.5282,2.6675,5.4158,0.2065
121721.0,-26.3147,5.545,42.5378,2.3227,3.9419,0.2176
121731.0,-25.0721,6.3901,42.9328,1.3377,2.3456,0.099
121741.0,-24.4233,6.4117,44.1634,0.1937,0.6662,-0.0106
121751.0,-23.4943,5.9999,43.1148,-0.6561,-1.2494,-0.0138
121761.0,-21.8375,5.1978,38.8794,-1.144,-3.1618,0.067
121771.0,-20.0874,4.6424,32.1086,-1.3388,-4.6528,0.1767
121781.0,-18.1792,3.6919,25.8167,-1.5479,-5.6611,0.2666
121791.0,-16.6636,2.9281,20.1688,-1.7703,-6.2864,0.3209
121801.0,-14.8704,1.8914,15.6389,-1.9486,-6.5913,0.356
121811.0,-13.3908,1.0032,11.6813,-1.9582,-6.5727,0.3837
121821.0,-11.8896,0.0335,8.8178,-1.8597,-6.3151,0.4007
121831.0,-10.4483,-1.1277,6.9911,-1.6315,-5.8937,0.4001
121841.0,-9.2344,-1.9872,5.6958,-1.2286,-5.3722,0.3693
121851.0,-8.0804,-2.7366,5.3774,-0.7881,-4.8577,0.3161
121861.0,-7.276,-3.1603,4.944,-0.3235,-4.4362,0.2501
121871.0,-6.3925,-3.3495,4.5753,0.0447,-4.11,0.158
121881.0,-5.6072,-3.2226,3.984,0.2756,-3.8637,0.0378
121891.0,-5.0015,-3.0526,3.6009,0.364,-3.6631,-0.0915
121901.0,-4.4317,-2.8994,3.1915,0.3384,-3.5018,-0.2325
121911.0,-4.0127,-2.5977,2.9592,0.2192,-3.3544,-0.4081
121921.0,-3.4716,-2.1045,3.0047,0.0357,-3.239,-0.6034
121931.0,-3.1675,-1.4341,3.0023,-0.1612,-3.1682,-0.7833
121941.0,-2.6983,-0.8116,2.9521,-0.3746,-3.1469,-0.9243
121951.0,-2.2434,-0.2562,2.7581,-0.5459,-3.1357,-1.0211
121961.0,-1.8962,0.3112,2.0925,-0.6321,-3.0996,-1.0648
121971.0,-1.4174,0.7566,1.3216,-0.6896,-2.9974,-1.0632
121981.0,-0.7063,1.1325,0.7183,-0.6928,-2.784,-1.0211
121991.0,-0.1365,1.2043,0.6033,-0.6284,-2.4876,-0.9328
122001.0,0.4573,1.1013,0.3496,-0.4842,-2.1545,-0.8216
122011.0,1.0702,0.9577,0.4645,-0.3272,-1.7916,-0.7285
122021.0,1.652,1.0032,0.3807,-0.1713,-1.434,-0.6529
122031.0,2.1237,1.0415,0.5746,-0.0761,-1.0584,-0.589
122041.0,2.5043,1.233,0.9601,-0.0271,-0.6816,-0.5225
122051.0,2.8156,1.2905,1.6281,-0.0053,-0.3299,-0.4315
122061.0,2.9568,1.142,2.5402,0.0766,0.0218,-0.3118
122071.0,2.8563,1.0056,3.1603,0.2097,0.3597,-0.1783
122081.0,2.7007,0.6225,4.1611,0.3065,0.6481,-0.0607
122091.0,2.6408,0.3567,4.8219,0.4512,0.9088,0.0341
122101.0,2.5833,0.0694,5.5641,0.5848,1.1467,0.0974
122111.0,2.3463,-0.0527,6.3734,0.6774,1.3638,0.1224
122121.0,2.0662,-0.0455,7.2233,0.6854,1.5149,0.1139
122131.0,2.0207,0.012,7.8147,0.5651,1.5543,0.0772
122141.0,1.8555,0.0575,8.4372,0.3193,1.5378,0.0181
122151.0,1.5299,0.1245,9.0525,0.025,1.4894,-0.0426
122161.0,1.2737,0.1341,9.8162,-0.2804,1.4021,-0.0968
122171.0,0.9625,0.1077,10.7236,-0.4906,1.3164,-0.1304
122181.0,0.5483,0.182,11.6262,-0.5358,1.226,-0.1298
122191.0,0.407,0.2274,12.3565,-0.4103,1.1313,-0.0857
122201.0,0.2203,0.1676,12.8593,-0.1745,1.0376,-0.0032
122211.0,0.2274,-0.1053,12.9766,0.1112,0.9477,0.0782
122221.0,0.1077,-0.1963,12.8473,0.3517,0.8551,0.1192
122231.0,0.1915,-0.261,12.8569,0.4289,0.7215,0.1107
122241.0,0.2658,-0.1676,12.8712,0.381,0.5577,0.0665
122251.0,0.0766,0.0072,12.6965,0.2437,0.365,0.0106
122261.0,0.2131,0.1101,12.5217,0.0585,0.1671,-0.041
122271.0,0.1796,0.2298,12.2152,-0.1383,0.0059,-0.0862
122281.0,0.182,0.2705,12.0835,-0.3868,-0.1431,-0.1298
122291.0,0.261,0.1437,12.2272,-0.5827,-0.2623,-0.1532
122301.0,0.1891,-0.0431,12.2679,-0.6279,-0.3517,-0.1485
122311.0,0.249,-0.3472,12.0668,-0.5374,-0.4225,-0.1203
122321.0,0.395,-0.656,11.6143,-0.3858,-0.4566,-0.0889
122331.0,0.5291,-0.9385,11.1642,-0.2235,-0.4454,-0.0766
122341.0,0.6345,-1.0918,10.7356,-0.0708,-0.4103,-0.0931
122351.0,0.6632,-1.0175,10.2185,0.049,-0.3581,-0.1314
122361.0,0.6704,-0.9002,9.7731,0.1027,-0.2799,-0.1804
122371.0,0.6177,-0.5555,9.5385,0.0905,-0.1793,-0.2389
122381.0,0.5578,-0.2682,9.8952,0.0165,-0.0686,-0.2943
122391.0,0.5219,0.0215,10.501,-0.0101,0.0298,-0.3182
122401.0,0.3759,0.2729,11.1857,0.0341,0.0963,-0.3102
122411.0,0.3663,0.5267,11.5999,0.1155,0.0889,-0.274
122421.0,0.4405,0.7207,11.7843,0.2155,0.0511,-0.2128
122431.0,0.5171,0.8739,11.5808,0.3331,0.0101,-0.1389
122441.0,0.5028,0.917,11.3461,0.3986,-0.025,-0.0713
122451.0,0.5483,0.984,11.0205,0.4161,-0.0628,-0.0202
122461.0,0.6297,1.0822,10.6374,0.3698,-0.0894,0.009
122471.0,0.6632,1.0846,10.5321,0.2528,-0.0915,0.0255
122481.0,0.6297,1.0846,10.6781,0.1117,-0.1022,0.0404
122491.0,0.6273,1.0175,10.9152,0.0101,-0.1394,0.0654
122501.0,0.668,0.8212,11.0277,-0.0149,-0.1756,0.107
122511.0,0.6704,0.5938,10.908,0.0282,-0.1969,0.1532
122521.0,0.7135,0.3615,10.7428,0.0937,-0.2065,0.1873
122531.0,0.7638,0.2251,10.4627,0.1729,-0.2011,0.2022
122541.0,0.7183,0.2131,10.1107,0.2086,-0.1873,0.1995
122551.0,0.8882,0.1221,9.9527,0.1894,-0.1644,0.1788
122561.0,0.8906,0.2346,9.8713,0.1458,-0.1123,0.1405
122571.0,0.893,0.2442,10.2448,0.0628,-0.0798,0.1011
122581.0,0.8906,0.3376,10.5441,0.0223,-0.0862,0.0745
122591.0,0.7997,0.4549,10.7045,0.0255,-0.1117,0.0654
122601.0,0.8547,0.5938,10.6087,0.0878,-0.1272,0.0734
122611.0,0.9313,0.7183,10.6279,0.1612,-0.1123,0.0883
122621.0,0.929,0.9002,10.5656,0.2325,-0.1,0.1086
122631.0,0.8906,0.9529,10.3813,0.2687,-0.1112,0.133
122641.0,0.9481,0.9098,10.1323,0.273,-0.1197,0.1559
122651.0,0.9026,0.8356,10.0748,0.257,-0.0745,0.1666
122661.0,0.8356,0.7063,10.3166,0.2144,-0.0192,0.1655
122671.0,0.7709,0.6057,10.6614,0.1921,0.0043,0.1548
122681.0,0.7374,0.6249,10.9343,0.2176,-0.0021,0.1447
122691.0,0.7183,0.6464,10.9559,0.2549,-0.0197,0.1399
122701.0,0.7254,0.656,11.0995,0.2794,-0.0346,0.1373
122711.0,0.7925,0.747,11.1905,0.29,-0.0585,0.1277
122721.0,0.7661,0.7709,11.2958,0.273,-0.1133,0.1171
122731.0,0.7039,0.7973,11.2504,0.2416,-0.191,0.1091
122741.0,0.7302,0.7709,11.1737,0.1969,-0.2586,0.0984
122751.0,0.7207,0.7374,11.1737,0.1405,-0.3214,0.083
122761.0,0.7661,0.644,11.2743,0.058,-0.3975,0.0569
122771.0,0.7614,0.5914,11.3557,-0.0277,-0.5013,0.0266
122781.0,0.7159,0.4621,11.5544,-0.0921,-0.6215,0.0037
122791.0,1.1013,0.1101,11.6861,-0.1032,-0.7508,-0.0128
122801.0,1.2498,-0.0168,11.4132,-0.0692,-0.9062,-0.0527
122811.0,1.4724,-0.0646,10.884,-0.1266,-1.119,-0.1176
122821.0,1.7502,-0.0599,10.3334,-0.2453,-1.3356,-0.1932
122831.0,1.9154,0.0287,9.5409,-0.3491,-1.5165,-0.2623
122841.0,2.0423,0.0646,8.6838,-0.4528,-1.6767,-0.3246
122851.0,2.2194,0.1413,7.7764,-0.538,-1.8017,-0.3789
122861.0,2.3679,0.3017,6.4476,-0.5928,-1.8816,-0.4182
122871.0,2.636,0.3783,5.2457,-0.6625,-1.8879,-0.448
122881.0,2.8467,0.51,4.0845,-0.7029,-1.8001,-0.464
122891.0,3.0933,0.5291,3.4692,-0.721,-1.6373,-0.4672
122901.0,3.2537,0.6369,2.9808,-0.6556,-1.433,-0.4491
122911.0,3.3686,0.6967,2.5929,-0.5066,-1.2201,-0.4017
122921.0,3.4668,0.9026,1.4796,-0.2671,-1.0062,-0.3219
122931.0,3.8403,0.8475,-0.0838,-0.0761,-0.7322,-0.2203
122941.0,3.9935,0.7518,-1.5993,0.058,-0.2379,-0.133
122951.0,3.5745,0.565,-2.2194,0.1171,0.4374,-0.0713
122961.0,3.553,-0.1867,-1.4341,0.19,1.2201,-0.0293
122971.0,2.9353,-0.5171,-0.3998,0.4161,2.0689,-0.0516
122981.0,2.2122,-0.6033,1.3048,0.5497,2.7989,-0.1362
122991.0,1.6328,-0.4094,3.5314,0.605,3.3635,-0.2384
123001.0,1.0415,-0.0431,6.1699,0.687,3.8035,-0.3108
123011.0,0.3831,0.6967,8.4683,0.8189,4.052,-0.3384
123021.0,-0.2274,1.2617,10.8816,0.8886,4.0957,-0.3209
123031.0,-0.9577,1.8459,12.8329,0.9477,3.9616,-0.2575
123041.0,-1.4102,2.1141,14.1928,0.8647,3.5811,-0.174
123051.0,-1.1396,2.0399,14.2431,0.563,2.9628,-0.1176
123061.0,-0.7925,1.8316,13.034,-0.1187,2.1338,-0.1362
123071.0,-0.7302,1.2833,11.7867,-1.0946,1.2063,-0.2192
123081.0,-0.3328,1.2929,8.7556,-1.8746,0.398,-0.2884
123091.0,0.2107,1.403,5.2146,-2.5105,-0.0692,-0.3145
123101.0,0.51,1.7909,1.7095,-3.1192,-0.2363,-0.3134
123111.0,0.4693,1.7382,-0.182,-3.7333,-0.1942,-0.2911
123121.0,0.1556,2.0135,-1.6233,-3.9834,0.0122,-0.1889
123131.0,-0.1556,2.1548,-2.1093,-3.7854,0.3342,0.0234
123141.0,-0.5435,2.6887,-3.8451,-2.9617,0.7471,0.3762
123151.0,-1.6735,3.45,-6.9719,-1.7256,1.3542,0.8333
123161.0,-3.3327,3.6559,-10.9583,-0.3879,2.2641,1.3691
123171.0,-4.9991,2.7605,-14.1282,0.8727,3.6886,1.864
123181.0,-8.4108,1.8938,-15.2247,1.8267,5.5877,2.1327
123191.0,-13.5655,0.3639,-11.7029,2.2562,7.5906,2.1535
123201.0,-18.397,-1.3934,-5.5929,2.5052,9.3641,1.9688
123211.0,-23.4919,-3.5793,4.6639,2.8245,10.9062,1.5921
123221.0,-26.8701,-4.1468,14.2503,3.4981,11.7693,1.0461
123231.0,-28.6634,-3.2417,23.365,3.9467,11.7581,0.3592
123241.0,-28.9315,-0.3041,31.0336,4.0536,10.9839,-0.3044
123251.0,-28.0241,2.3463,39.5977,3.5785,9.4168,-0.828
123261.0,-26.2309,6.3782,43.2201,3.1001,7.216,-1.0988
123271.0,-24.6962,9.3996,44.5274,2.1646,4.8401,-1.1462
123281.0,-23.4057,10.1466,45.351,0.8195,2.3083,-1.0685
123291.0,-22.1512,9.9958,41.8267,-0.3411,-0.323,-0.9003
123301.0,-20.8296,7.9248,36.2698,-1.3154,-2.5999,-0.6981
123311.0,-19.4361,6.0861,29.0656,-1.9837,-4.2686,-0.547
123321.0,-17.9469,4.039,23.1304,-2.5531,-5.3791,-0.4837
123331.0,-16.3716,2.557,17.5974,-2.7116,-5.9522,-0.4587
123341.0,-14.3389,1.5155,12.5815,-2.6159,-6.082,-0.4507
123351.0,-12.2176,0.8045,8.3486,-2.3636,-5.8197,-0.4528
123361.0,-10.2472,0.4286,5.6527,-2.0417,-5.2222,-0.4587
123371.0,-8.576,0.0335,4.774,-1.7171,-4.4926,-0.456
123381.0,-7.4723,-0.2274,4.4819,-1.2542,-3.7439,-0.4236
123391.0,-6.8235,-0.4262,4.8004,-0.7093,-3.0213,-0.3773
123401.0,-6.1507,-0.4334,5.375,-0.1719,-2.3934,-0.3283
123411.0,-5.7485,-0.2251,6.201,0.2996,-1.8608,-0.2767
123421.0,-5.4995,0.0527,7.1515,0.7003,-1.434,-0.2081
123431.0,-5.4277,0.2945,7.8554,1.0264,-1.1095,-0.1224
123441.0,-5.1571,0.5842,8.7819,1.2164,-0.8657,-0.0468
123451.0,-4.9297,1.0487,9.8521,1.2856,-0.7104,0.0149
123461.0,-4.9033,1.5179,11.1067,1.218,-0.6891,0.0772
123471.0,-4.8339,2.0063,11.9399,1.0515,-0.8434,0.1517
123481.0,-4.7501,2.2529,12.4642,0.7992,-1.1121,0.249
123491.0,-4.8028,2.1356,12.4714,0.5103,-1.4298,0.3613
123501.0,-4.7525,1.7406,12.2344,0.2187,-1.7416,0.4486
123511.0,-4.695,1.2354,11.7603,-0.0612,-2.0359,0.4954
123521.0,-4.6902,0.7302,11.1881,-0.3347,-2.3211,0.5028
123531.0,-4.5274,0.1006,10.4914,-0.5385,-2.5579,0.489
123541.0,-4.2114,-0.4046,9.6319,-0.6577,-2.7143,0.4518
123551.0,-4.0797,-0.7302,8.7125,-0.7221,-2.7941,0.3868
123561.0,-3.6751,-0.9673,7.9535,-0.7588,-2.8181,0.3134
123571.0,-3.0813,-1.2282,7.1012,-0.7226,-2.7532,0.2442
123581.0,-2.6935,-1.4557,6.5266,-0.6194,-2.5579,0.1772
123591.0,-2.2721,-1.585,6.5218,-0.5114,-2.3253,0.0915
123601.0,-1.8938,-1.585,6.6391,-0.4081,-2.1481,-0.0069
123611.0,-1.5131,-1.4317,6.5888,-0.2778,-2.0093,-0.0942
123621.0,-1.1588,-1.087,6.2417,-0.1602,-1.8757,-0.1623
123631.0,-0.8045,-0.8667,6.2201,-0.1043,-1.7262,-0.2118
123641.0,-0.5483,-0.5578,6.2776,-0.0261,-1.549,-0.2352
123651.0,-0.2825,-0.4262,6.5553,0.0692,-1.3739,-0.2341
123661.0,-0.0599,-0.2442,6.5912,0.1809,-1.2318,-0.2198
123671.0,0.0766,-0.1413,6.6679,0.2575,-1.1063,-0.2001
123681.0,0.1556,-0.103,6.8546,0.3065,-0.9775,-0.182
123691.0,0.1197,0.0431,6.8594,0.3299,-0.8748,-0.1756
123701.0,0.2251,0.2298,6.8474,0.2857,-0.796,-0.1852
123711.0,0.3472,0.5171,6.9647,0.1846,-0.7146,-0.1974
123721.0,0.5004,0.6728,7.276,0.0686,-0.6295,-0.191
123731.0,0.5052,0.7087,7.9703,0.0112,-0.531,-0.1681
123741.0,0.3903,0.9433,8.078,0.0208,-0.4752,-0.1314
123751.0,0.498,0.9361,8.3294,-0.0415,-0.4832,-0.0857
123761.0,0.7661,0.9002,8.1642,-0.1075,-0.4858,-0.0293
123771.0,0.5148,0.7997,8.272,-0.2288,-0.4629,0.0122
123781.0,0.4908,0.7398,8.3342,-0.3102,-0.4587,0.0537
123791.0,0.6584,0.589,8.3677,-0.2762,-0.4161,0.099
123801.0,0.8164,0.5148,8.3151,-0.1054,-0.2889,0.1485
123811.0,0.7805,0.5962,8.2624,0.0835,-0.125,0.1889
123821.0,1.0008,0.3974,8.4324,0.124,-0.0197,0.2097
123831.0,1.0295,0.1125,9.0501,0.0117,0.0138,0.1889
123841.0,0.9529,-0.1006,9.8378,-0.1219,-0.0229,0.158
123851.0,1.0223,-0.7207,10.8074,-0.1618,-0.1006,0.1362
123861.0,0.984,-1.0439,10.7739,-0.0303,-0.1958,0.1133
123871.0,1.1444,-1.5443,10.6183,0.067,-0.3012,0.0585
123881.0,1.4006,-1.6568,9.9216,0.1266,-0.3608,-0.0537
123891.0,1.1564,-1.4102,9.8665,0.0223,-0.3783,-0.2277
123901.0,1.154,-0.8954,9.912,-0.2309,-0.5087,-0.4076
123911.0,0.9218,-0.2897,9.7252,-0.4874,-0.6635,-0.5422
123921.0,1.2019,0.5866,9.6367,-0.6045,-0.7173,-0.5763
123931.0,1.1181,0.5938,10.4674,-0.6077,-0.6838,-0.539
123941.0,0.9792,0.8787,9.3302,-0.4523,-0.7386,-0.4725
123951.0,1.4653,0.34,9.1866,-0.4848,-0.7668,-0.423
123961.0,1.6783,0.6464,7.9918,-0.4576,-0.7066,-0.4023
123971.0,1.7478,0.3903,8.4755,-0.5614,-0.5832,-0.3959
123981.0,1.5945,0.4884,8.3869,-0.5167,-0.4566,-0.3613
123991.0,2.2338,0.1724,8.734,-0.4906,-0.3634,-0.3198
124001.0,1.8699,0.4621,8.6359,-0.4401,-0.3134,-0.2836
124011.0,2.0159,0.407,8.5593,-0.3411,-0.232,-0.2224
124021.0,1.9776,0.6632,7.9152,-0.2634,-0.1527,-0.1538
124031.0,1.9656,0.6488,8.1068,-0.3134,-0.0341,-0.0846
124041.0,1.968,0.6632,8.0924,-0.3076,0.0878,0.0037
124051.0,1.7454,0.3184,8.7891,-0.2528,0.2134,0.0963
124061.0,1.9824,0.1293,8.2193,-0.0474,0.3315,0.1905
124071.0,1.8364,-0.1867,9.3709,0.0537,0.5055,0.2134
124081.0,1.7693,0.0168,9.153,0.2778,0.5912,0.2432
124091.0,1.8244,-0.4573,9.7492,0.298,0.5938,0.2618
124101.0,1.6855,-0.5076,9.3972,0.3773,0.6024,0.2703
124111.0,1.2881,-0.8499,9.7109,0.3709,0.6279,0.2575
124121.0,1.4772,-1.3216,9.6965,0.3821,0.6268,0.2379
124131.0,1.1732,-1.7406,10.1107,0.3975,0.6598,0.1836
124141.0,0.8092,-1.4222,10.8577,0.5326,0.6689,0.0974
124151.0,1.0008,-1.4485,10.9152,0.8439,0.6933,0.0511
124161.0,0.9218,-1.1277,10.6542,1.1121,0.7391,-0.0069
124171.0,0.5722,-0.4717,10.4579,1.1808,0.7519,-0.1043
124181.0,0.2729,0.34,10.1658,0.9722,0.6689,-0.2097
124191.0,0.2753,1.2234,10.0078,0.5374,0.5821,-0.3044
124201.0,-0.1413,1.9082,10.8769,0.0303,0.5385,-0.3501
124211.0,-0.6704,2.3248,12.1147,-0.3097,0.4864,-0.3022
124221.0,-0.6297,2.2936,13.2136,-0.3134,0.4651,-0.1447
124231.0,-0.4741,1.8555,14.2527,-0.0043,0.4805,0.0654
124241.0,-0.3687,1.4557,14.4706,0.4677,0.4656,0.2586
124251.0,-0.0886,1.063,14.0635,0.7859,0.3661,0.3826
124261.0,0.1101,0.6608,13.7475,0.8354,0.2458,0.4135
124271.0,-0.103,0.5722,13.8505,0.6917,0.1282,0.3709
124281.0,-0.2251,0.5076,14.7387,0.5199,-0.0298,0.2905
124291.0,-0.1724,0.8284,14.6118,0.5231,-0.2246,0.232
124301.0,-0.0622,1.1947,14.2096,0.514,-0.4198,0.1889
124311.0,0.0958,1.4485,13.9797,0.4406,-0.5944,0.1634
124321.0,0.1796,1.5179,13.7116,0.3725,-0.7641,0.1607
124331.0,0.2945,1.3408,13.2304,0.3352,-0.9413,0.1719
124341.0,0.6608,0.9984,12.1961,0.3065,-1.1015,0.1756
124351.0,0.8547,0.5914,11.248,0.2246,-1.2058,0.1357
124361.0,1.0606,0.4597,10.2041,0.1149,-1.2542,0.0575
124371.0,1.4653,0.3639,9.6103,-0.0351,-1.2473,-0.0463
124381.0,1.7071,0.4573,9.1028,-0.1793,-1.2143,-0.1586
124391.0,1.7142,0.5148,8.9376,-0.3358,-1.1898,-0.2538
124401.0,1.7693,0.5411,8.9112,-0.3927,-1.1706,-0.3166
124411.0,1.9465,0.6728,8.3797,-0.3139,-1.1542,-0.3523
124421.0,2.1165,0.7494,7.6567,-0.2395,-1.1355,-0.3773
124431.0,2.4014,0.8547,6.8283,-0.1804,-1.0818,-0.3959
124441.0,3.0622,0.7518,5.9256,-0.207,-1.0105,-0.423
124451.0,2.9928,0.7446,4.9249,-0.4023,-0.9413,-0.4869
124461.0,2.873,0.8068,3.1747,-0.8924,-0.9573,-0.5992
124471.0,2.5259,0.4788,2.5522,-1.7602,-0.9988,-0.7588
124481.0,1.3048,0.2729,2.3415,-2.5909,-1.0174,-0.9009
124491.0,0.2993,-0.012,2.0351,-3.1602,-1.0312,-0.9887
124501.0,-0.0527,-0.1389,1.4557,-3.4513,-1.0073,-1.0328
124511.0,-0.1365,0.2251,0.3017,-3.5556,-0.9317,-1.0461
124521.0,0.0838,0.8715,-0.6536,-3.6365,-0.8551,-1.0233
124531.0,0.8859,1.5514,-1.6113,-3.5588,-0.7247,-0.9434
124541.0,1.5012,2.5809,-2.8084,-3.1895,-0.4363,-0.8258
124551.0,1.4629,4.2353,-5.0159,-2.7558,-0.099,-0.6662
124561.0,1.3408,5.9592,-7.5489,-2.518,0.3086,-0.4246
124571.0,1.0415,7.1012,-8.8011,-2.5238,0.8892,-0.0835
124581.0,0.2322,7.7021,-8.6287,-2.5233,1.5963,0.3549
124591.0,-0.5387,7.7979,-8.3438,-2.4142,2.212,0.8865
124601.0,-1.3767,6.9599,-7.8099,-2.1944,2.7792,1.4963
124611.0,-2.7557,5.6886,-7.5729,-1.7544,3.4247,2.1316
124621.0,-4.7956,4.1587,-7.0605,-1.1909,4.0925,2.7308
124631.0,-7.0677,2.6815,-7.015,-0.2879,4.905,3.2906
124641.0,-9.6774,1.245,-7.5441,0.9849,6.1214,3.7823
124651.0,-12.5887,-0.6967,-9.5816,2.0694,7.5906,4.0792
124661.0,-19.7833,-2.8491,-4.6902,2.353,9.246,4.0808
124671.0,-23.1256,-4.5538,1.7166,3.1576,10.8609,3.8956
124681.0,-28.5628,-4.81,9.7037,4.2819,12.3626,3.5428
124691.0,-33.38,-4.458,18.5718,5.0322,13.0735,3.065
124701.0,-34.3592,-3.7996,27.4328,5.4206,12.9128,2.5089
124711.0,-33.6505,-2.4373,34.68,5.502,11.9614,1.8624
124721.0,-29.8437,-0.7638,38.9704,5.1051,10.3049,1.1627
124731.0,-28.8262,-1.3815,43.8354,4.0893,8.4026,0.4033
124741.0,-27.3609,0.0072,43.687,2.9766,5.8926,-0.2815
124751.0,-25.8765,1.8148,41.8315,1.9236,3.5657,-0.804
124761.0,-23.9995,4.7621,38.494,0.7301,1.5032,-1.1675
124771.0,-22.223,5.4971,38.4245,-0.7918,-0.5279,-1.3707
124781.0,-20.8487,6.6319,34.2491,-1.4841,-2.3567,-1.3164
124791.0,-19.4529,6.3039,29.7144,-1.9199,-3.8477,-1.1137
124801.0,-17.6333,5.5234,23.8702,-2.0987,-4.9721,-0.8535
124811.0,-15.9741,4.4508,18.8496,-2.246,-5.6446,-0.6242
124821.0,-14.2838,3.2609,14.516,-2.3397,-5.9804,-0.4273
124831.0,-12.9526,1.9178,11.169,-2.3674,-6.0464,-0.2783
124841.0,-11.6957,0.8739,8.2097,-2.3088,-5.9378,-0.1846
124851.0,-10.8002,-0.1963,6.5194,-2.179,-5.6351,-0.1383
124861.0,-10.1179,-1.0942,5.3295,-1.8214,-5.186,-0.1054
124871.0,-9.1985,-2.0039,4.7597,-1.2627,-4.6555,-0.1011
124881.0,-8.1594,-2.387,4.1084,-0.5805,-4.0691,-0.1415
124891.0,-7.3741,-2.4157,4.2306,-0.0271,-3.5125,-0.2251
124901.0,-6.6846,-1.9321,4.312,0.3475,-3.1049,-0.3203
124911.0,-5.9496,-1.4054,4.7621,0.505,-2.8372,-0.3975
124921.0,-5.3056,-0.7877,5.1882,0.5986,-2.6494,-0.4401
124931.0,-5.2553,-0.0718,5.43,0.6859,-2.5047,-0.4411
124941.0,-5.0446,0.5531,5.7413,0.7279,-2.42,-0.4065
124951.0,-4.7501,1.2426,5.545,0.7849,-2.3573,-0.3331
124961.0,-4.4125,1.652,5.5067,0.8147,-2.2812,-0.2219
124971.0,-4.2377,2.1548,5.387,0.8535,-2.1843,-0.083
