time_ms,ax,ay,az,gx,gy,gz
141811.0,-2.7438,0.0335,10.3549,-0.1708,-0.2081,-0.4464
141821.0,-2.6312,0.2466,10.1442,-0.1687,-0.183,-0.4246
141831.0,-2.5977,0.4334,10.0796,-0.1479,-0.1517,-0.3922
141841.0,-2.5881,0.5914,10.0437,-0.1139,-0.1224,-0.348
141851.0,-2.5355,0.7518,9.991,-0.066,-0.0979,-0.2953
141861.0,-2.5355,0.7638,9.924,-0.0351,-0.0851,-0.2347
141871.0,-2.5642,0.7422,9.821,-0.0197,-0.0835,-0.1745
141881.0,-2.5115,0.6345,9.7444,-0.0176,-0.0835,-0.1192
141891.0,-2.4517,0.4669,9.6414,-0.0325,-0.0942,-0.074
141901.0,-2.3559,0.2298,9.6103,-0.0404,-0.1016,-0.0372
141911.0,-2.2553,0.0958,9.3709,-0.0234,-0.0942,-0.008
141921.0,-2.2266,-0.0934,9.3015,-0.0154,-0.0649,0.0213
141931.0,-2.2673,-0.3376,9.2632,-0.0085,-0.0176,0.0479
141941.0,-2.2841,-0.5674,9.3877,0.016,0.0341,0.066
141951.0,-2.2745,-0.8021,9.5648,0.0607,0.0788,0.0825
141961.0,-2.241,-1.0487,9.742,0.1261,0.1187,0.0942
141971.0,-2.2769,-1.2067,9.7875,0.1836,0.1469,0.0926
141981.0,-2.2745,-1.3144,9.8617,0.1836,0.1527,0.075
141991.0,-2.3774,-1.4365,9.8378,0.1224,0.1415,0.042
142001.0,-2.4325,-1.6065,9.9024,0.0229,0.125,-0.0064
142011.0,-2.5259,-1.7142,10.0509,-0.0569,0.1117,-0.0628
142021.0,-2.5235,-1.7573,10.2568,-0.1016,0.1038,-0.1197
142031.0,-2.4253,-1.7502,10.2113,-0.1203,0.0825,-0.1671
142041.0,-2.3846,-1.7119,10.1299,-0.132,0.0713,-0.2086
142051.0,-2.3224,-1.7095,10.1107,-0.1511,0.0915,-0.2533
142061.0,-2.2745,-1.64,10.331,-0.1783,0.116,-0.3038
142071.0,-2.3942,-1.4198,10.5393,-0.2001,0.1139,-0.3528
142081.0,-2.5283,-1.1875,10.8314,-0.216,0.0958,-0.389
142091.0,-2.6432,-0.9002,10.9607,-0.1916,0.0633,-0.4055
142101.0,-2.6193,-0.7685,11.1761,-0.1463,0.0245,-0.3986
142111.0,-2.4565,-0.6033,11.0421,-0.0809,-0.0192,-0.3783
142121.0,-2.2362,-0.5746,10.8745,-0.0458,-0.0564,-0.3592
142131.0,-2.0231,-0.5148,10.5321,-0.0644,-0.0772,-0.3501
142141.0,-1.8771,-0.4357,10.2185,-0.1724,-0.0772,-0.3539
142151.0,-1.8723,-0.4118,10.1179,-0.3576,-0.0442,-0.3592
142161.0,-1.9537,-0.5195,10.2376,-0.5954,-0.0133,-0.3544
142171.0,-1.8555,-1.0271,10.5512,-0.8349,0.0186,-0.3485
142181.0,-1.8627,-1.6831,11.2743,-1.0174,0.074,-0.3533
142191.0,-2.0111,-2.478,12.6725,-1.0515,0.1298,-0.3656
142201.0,-2.2075,-3.0526,14.0181,-0.8184,0.1203,-0.3714
142211.0,-2.3607,-3.3208,14.7172,-0.3773,0.0234,-0.3672
142221.0,-2.4445,-3.2106,14.5256,0.1538,-0.0867,-0.3613
142231.0,-2.6647,-2.8587,14.3077,0.6061,-0.1399,-0.3592
142241.0,-2.8132,-2.3798,14.224,0.9206,-0.1644,-0.3597
142251.0,-3.067,-1.9106,14.4825,1.0935,-0.1804,-0.3581
142261.0,-3.3615,-1.5299,15.0236,1.1291,-0.2501,-0.3581
142271.0,-3.6679,-1.1037,15.4833,1.127,-0.3666,-0.357
142281.0,-3.8547,-0.7614,15.9143,1.0717,-0.514,-0.3539
142291.0,-3.9002,-0.5507,16.429,0.9535,-0.6875,-0.357
142301.0,-4.0055,-0.3783,16.9246,0.7987,-0.9243,-0.3725
142311.0,-4.1204,-0.2251,17.2167,0.6566,-1.2249,-0.3911
142321.0,-4.0366,-0.0982,17.1784,0.5779,-1.5559,-0.406
142331.0,-3.7038,0.1341,16.6253,0.5827,-1.8917,-0.4161
142341.0,-3.1508,0.4645,15.5001,0.6359,-2.1854,-0.4236
142351.0,-2.7126,1.008,14.2551,0.679,-2.3956,-0.4284
142361.0,-2.32,1.6065,13.2328,0.7013,-2.518,-0.4135
142371.0,-1.8292,2.2505,12.2248,0.7279,-2.5701,-0.3618
142381.0,-1.3623,2.5881,11.497,0.7359,-2.5717,-0.2735
142391.0,-1.0199,2.6647,10.884,0.7455,-2.535,-0.1548
142401.0,-0.9457,2.5139,10.4555,0.7843,-2.4557,-0.0213
142411.0,-0.8236,2.2529,9.9455,0.8115,-2.3674,0.1075
142421.0,-0.7805,1.8627,9.6462,0.7561,-2.2652,0.2081
142431.0,-0.7446,1.3455,9.7324,0.6109,-2.1865,0.2692
142441.0,-0.5794,0.735,10.0413,0.4454,-2.1593,0.2889
142451.0,-0.2394,0.1365,10.1275,0.3241,-2.1827,0.2703
142461.0,0.0622,-0.2011,10.0197,0.2352,-2.2184,0.2187
142471.0,0.1915,-0.4429,9.8186,0.1405,-2.2471,0.1405
142481.0,0.2777,-0.6105,9.5337,0.0186,-2.2918,0.042
142491.0,0.5195,-0.6249,9.0261,-0.1517,-2.3716,-0.0777
142501.0,0.6776,-0.5435,8.2648,-0.3858,-2.4504,-0.2128
142511.0,0.9768,-0.6704,7.5681,-0.696,-2.4722,-0.3592
142521.0,1.1516,-1.0343,7.8913,-1.0738,-2.427,-0.5305
142531.0,1.2378,-1.3958,8.4707,-1.4117,-2.4169,-0.7263
142541.0,1.1732,-1.8747,9.3254,-1.7459,-2.4898,-0.9519
142551.0,0.9625,-2.162,10.2903,-1.9709,-2.627,-1.1983
142561.0,0.8236,-2.2338,11.0133,-2.071,-2.8425,-1.4426
142571.0,0.4501,-1.7382,11.4467,-2.038,-3.115,-1.674
142581.0,0.1269,-0.5387,10.9104,-1.8805,-3.4316,-1.8528
142591.0,-0.3807,1.4389,9.4188,-1.7884,-3.7839,-1.9635
142601.0,-0.8284,3.8499,6.5386,-1.9736,-4.2335,-1.9991
142611.0,-0.7685,5.5522,3.711,-2.4706,-4.6182,-1.9247
142621.0,-0.2969,6.6535,1.1684,-2.9591,-4.797,-1.7496
142631.0,0.7638,6.5721,-0.2035,-3.1299,-4.7081,-1.4553
142641.0,1.9992,5.8227,-1.5443,-2.6654,-4.3867,-1.0499
142651.0,2.8276,5.2768,-3.9983,-1.7538,-3.9813,-0.6173
142661.0,3.6033,4.561,-6.9145,-0.7487,-3.4976,-0.2123
142671.0,3.2561,4.6184,-10.8314,0.2192,-2.8362,0.1474
142681.0,2.3535,4.5945,-14.7148,0.6316,-2.0875,0.4629
142691.0,2.1763,4.0223,-18.9693,0.2528,-1.4218,0.6997
142701.0,2.4732,2.7078,-22.0578,-0.7184,-0.6279,0.7998
142711.0,2.6049,1.1947,-22.8407,-1.7278,0.4571,0.7854
142721.0,1.5826,0.68,-21.069,-2.1556,1.8251,0.7487
142731.0,-0.8499,1.3886,-18.5287,-1.8395,3.1916,0.7689
142741.0,-3.2944,1.731,-17.0443,-1.2233,4.3245,0.8684
142751.0,-4.3096,0.6823,-16.6158,-0.8503,5.1312,0.9599
142761.0,-6.5194,0.2849,-13.6493,-0.5428,6.0985,0.9711
142771.0,-9.8114,1.3599,-13.2423,0.0325,7.1394,0.9833
142781.0,-10.1035,0.6704,-10.4172,-0.1596,7.5853,0.9844
142791.0,-12.0404,1.6807,-8.7628,0.0255,8.4484,1.0243
142801.0,-13.5488,2.1739,-5.0733,-0.1293,9.0933,1.0706
142811.0,-14.6501,2.0542,-1.3982,-0.4023,9.4349,1.2148
142821.0,-16.86,1.1277,3.4093,-0.6002,9.751,1.441
142831.0,-19.9365,-0.9337,9.9168,-0.6694,9.685,1.6836
142841.0,-22.4409,-1.8555,15.9143,0.1171,9.395,1.9981
142851.0,-23.7002,-2.7174,20.9277,2.0375,9.4328,2.4509
142861.0,-26.001,-2.9712,23.8822,4.3436,9.7158,2.8149
142871.0,-26.2764,-3.1077,27.8087,5.8522,9.7941,2.9213
142881.0,-27.9523,-1.1636,31.2371,6.495,9.9282,2.7079
142891.0,-28.9363,0.7422,37.3926,5.6127,9.7483,2.2301
142901.0,-29.7288,0.7685,46.5265,3.4002,8.8666,1.5777
142911.0,-29.3864,-1.506,56.2949,0.6577,6.959,0.8551
142921.0,-26.9874,-5.5665,63.2428,-1.5112,4.1766,0.1751
142931.0,-23.523,-6.292,61.7273,-2.4866,0.9259,-0.4299
142941.0,-21.1504,-5.2481,54.8272,-2.6377,-1.9912,-0.8913
142951.0,-18.7586,-2.8539,43.8977,-2.3626,-4.2505,-1.1808
142961.0,-15.7443,-1.1588,32.7814,-2.2162,-5.7825,-1.3383
142971.0,-12.4929,0.0862,22.2014,-2.0736,-6.495,-1.3824
142981.0,-9.1602,0.3974,14.5663,-1.8949,-6.3651,-1.3282
142991.0,-5.9616,0.3424,8.7915,-1.5197,-5.6782,-1.1797
143001.0,-4.0462,0.012,6.0382,-1.0813,-4.6602,-0.994
143011.0,-2.897,-0.51,5.1308,-0.6215,-3.6482,-0.796
143021.0,-2.3272,-1.3815,6.1004,-0.1453,-2.7851,-0.6284
143031.0,-2.0806,-1.6137,7.4077,0.5869,-2.0268,-0.4709
143041.0,-2.3655,-1.7334,8.9902,1.3228,-1.5096,-0.3081
143051.0,-2.9137,-1.7837,9.7348,1.9401,-1.3111,-0.1602
143061.0,-2.9568,-1.9345,10.0652,2.3631,-1.3111,-0.0495
143071.0,-2.5762,-1.8268,9.1243,2.6052,-1.4298,0.0117
143081.0,-2.6528,-1.8675,8.2432,2.5281,-1.5016,-0.0064
143091.0,-2.5546,-1.7095,7.5992,2.1471,-1.5559,-0.1091
143101.0,-2.7485,-1.5658,7.841,1.5335,-1.6384,-0.2788
143111.0,-2.7222,-1.1205,7.5657,0.9504,-1.7836,-0.4486
143121.0,-2.6983,-0.6967,7.4244,0.4459,-1.8757,-0.5922
143131.0,-2.6432,-0.0694,7.0797,0.0537,-1.9273,-0.7109
143141.0,-2.7461,0.6321,6.8929,-0.2857,-1.9656,-0.8019
143151.0,-2.727,1.3048,6.5649,-0.5114,-1.9912,-0.8434
143161.0,-2.7557,1.7023,6.3949,-0.6151,-1.964,-0.8264
143171.0,-2.332,1.7861,6.2944,-0.5598,-1.8842,-0.7572
143181.0,-1.8962,1.7741,5.9113,-0.3719,-1.7671,-0.6582
143191.0,-1.0822,1.6951,5.0996,-0.1666,-1.599,-0.5465
143201.0,-0.3424,1.4174,4.7788,-0.0697,-1.3372,-0.4523
143211.0,0.1652,1.257,4.8459,-0.0357,-1.0201,-0.3858
143221.0,0.2322,1.2019,5.43,-0.0708,-0.7114,-0.3406
143231.0,0.1125,1.1468,6.4165,-0.1469,-0.4826,-0.3161
143241.0,-0.1844,1.1923,7.6375,-0.149,-0.3219,-0.2905
143251.0,-0.3256,1.4437,8.5617,0.0176,-0.2112,-0.241
143261.0,-0.2227,1.6831,9.244,0.2911,-0.0921,-0.1522
143271.0,-0.1891,1.8435,10.0437,0.5449,0.0229,-0.0479
143281.0,-0.0215,1.9369,10.9367,0.729,0.0702,0.0532
143291.0,0.0192,1.9082,11.789,0.8487,0.0394,0.1474
143301.0,-0.0814,2.0399,12.2272,0.8993,-0.0601,0.2251
143311.0,-0.1221,1.9609,12.4283,0.8216,-0.2123,0.281
143321.0,-0.1891,1.7502,12.797,0.6146,-0.3922,0.2975
143331.0,-0.3903,1.6065,13.3165,0.3714,-0.6178,0.2783
143341.0,-0.4621,1.4054,13.5488,0.241,-0.8668,0.2613
143351.0,-0.1939,1.2713,13.386,0.2395,-1.0653,0.2533
143361.0,0.2227,1.1827,13.2232,0.2698,-1.1988,0.2405
143371.0,0.4238,1.3431,12.9191,0.2448,-1.3478,0.2134
143381.0,0.3879,1.47,12.7276,0.125,-1.5208,0.1836
143391.0,0.5531,1.4796,12.706,-0.0149,-1.7065,0.1644
143401.0,0.8691,1.6281,12.2942,-0.0963,-1.8922,0.1623
143411.0,1.0247,1.6065,11.8848,-0.2038,-2.0641,0.1804
143421.0,1.2785,1.4844,11.2887,-0.3358,-2.2434,0.2043
143431.0,1.5347,1.4748,10.1418,-0.5497,-2.4631,0.2139
143441.0,2.1284,1.403,8.5784,-0.895,-2.6787,0.2006
143451.0,3.0215,1.4868,6.9216,-1.3516,-2.7978,0.1596
143461.0,3.6224,1.6376,5.6695,-1.9289,-2.825,0.1038
143471.0,3.7709,1.5969,5.1667,-2.5185,-2.7877,0.0548
143481.0,3.7517,1.4988,5.0829,-2.9176,-2.71,0.0415
143491.0,3.6464,1.3503,4.9871,-3.0341,-2.602,0.0841
143501.0,3.4716,0.9912,5.1715,-2.8574,-2.4323,0.1793
143511.0,3.6296,0.668,5.1116,-2.3615,-2.1944,0.3129
143521.0,3.9121,0.2729,5.0781,-1.6453,-1.8746,0.4757
143531.0,4.0558,-0.1604,4.774,-0.8328,-1.4963,0.6508
143541.0,4.1875,-0.9457,4.7166,-0.0708,-1.0754,0.8152
143551.0,4.5131,-1.6951,4.6328,0.5859,-0.6465,0.9222
143561.0,4.6807,-2.1763,4.7812,1.0174,-0.248,0.9519
143571.0,4.4843,-2.5953,5.6192,1.1994,0.0963,0.9099
143581.0,4.3,-2.8874,6.6343,1.2409,0.3469,0.8152
143591.0,4.3,-2.8874,6.6343,1.2409,0.3469,0.8152
143601.0,4.2282,-3.0287,7.9176,1.1744,0.4938,0.6811
143611.0,4.1132,-3.0478,9.2464,1.0637,0.5726,0.5252
143621.0,3.7541,-2.8419,10.4555,0.8881,0.5486,0.3586
143631.0,3.3399,-2.5833,11.3509,0.6263,0.3826,0.1862
143641.0,3.1747,-2.3032,12.129,0.2783,0.125,0.0053
143651.0,3.0095,-1.8986,12.6845,-0.0702,-0.1772,-0.1639
143661.0,2.7126,-1.4222,12.9454,-0.3704,-0.5438,-0.3038
143671.0,2.5857,-1.0774,12.6629,-0.5326,-0.8929,-0.3863
143681.0,2.6504,-0.8404,11.959,-0.5465,-1.1914,-0.4177
143691.0,2.964,-0.6728,10.9439,-0.4821,-1.4303,-0.4166
143701.0,3.0837,-0.4693,9.7157,-0.3959,-1.6017,-0.4055
143711.0,3.292,-0.316,8.6838,-0.306,-1.715,-0.3826
143721.0,3.5147,-0.2107,7.4747,-0.2091,-1.7804,-0.3507
143731.0,3.8164,-0.2394,6.438,-0.1506,-1.8267,-0.3187
143741.0,4.2473,-0.3735,5.4205,-0.0952,-1.8342,-0.2927
143751.0,4.6974,-0.5842,4.6256,-0.0426,-1.8129,-0.2804
143761.0,5.138,-0.8236,4.063,0.0899,-1.7342,-0.2735
143771.0,5.6431,-0.9385,3.5147,0.332,-1.6118,-0.2671
143781.0,5.9879,-0.9697,2.964,0.6593,-1.4404,-0.2496
143791.0,6.2465,-0.9649,2.2434,1.0084,-1.234,-0.2272
143801.0,6.4189,-0.838,1.4006,1.3202,-1.0052,-0.2102
143811.0,6.3805,-0.5842,0.7015,1.5766,-0.7263,-0.1974
143821.0,6.2417,-0.316,0.2586,1.7703,-0.4081,-0.1809
143831.0,6.0023,-0.0239,-0.0766,1.8656,-0.1133,-0.1703
143841.0,5.4492,0.2394,-0.2658,1.8544,0.1495,-0.166
143851.0,4.9368,0.4741,-0.3735,1.757,0.3693,-0.1634
143861.0,4.3096,0.5411,-0.3184,1.624,0.5683,-0.1591
143871.0,3.9648,0.4429,-0.3687,1.4915,0.7093,-0.1644
143881.0,3.45,0.4621,-0.6608,1.3867,0.8508,-0.1825
143891.0,2.6025,0.3208,-1.391,1.2797,1.0163,-0.2006
143901.0,2.2793,0.8308,-0.6249,1.1052,1.2361,-0.2464
143911.0,1.166,1.9178,-2.9712,0.8945,1.2553,-0.207
143921.0,-0.6512,1.8244,-3.8618,0.1963,1.3133,-0.1469
143931.0,-3.4309,1.4676,-7.4077,-0.8301,1.1941,-0.1346
143941.0,-1.992,1.1947,-10.8433,-2.5956,0.9046,-0.3368
143951.0,-3.0957,2.7054,-15.3995,-4.6778,0.8673,-0.5348
143961.0,-3.1675,1.063,-16.8911,-6.695,1.1366,-0.5071
143971.0,-2.1069,1.154,-17.0994,-7.2607,1.9986,-0.4613
143981.0,-2.9257,5.6623,-15.7682,-5.7085,3.5588,-0.3203
143991.0,-6.0741,11.6238,-14.935,-2.1364,5.6782,0.2682
144001.0,-9.9551,15.3013,-16.9007,1.9715,8.0163,1.1834
144011.0,-18.0116,17.7291,-20.8343,4.4527,10.1671,1.914
144021.0,-29.7168,17.6524,-10.7356,4.142,13.024,2.4504
144031.0,-34.4023,13.5751,-2.1476,2.1391,14.1031,2.9713
144041.0,-41.6663,4.5298,17.9661,0.1474,14.8023,3.3427
144051.0,-42.3199,-2.9832,29.8389,0.4571,14.9736,3.7306
144061.0,-41.4077,-10.058,45.4348,1.6064,14.9705,3.6982
144071.0,-38.3,-9.8761,53.6421,3.0181,13.696,3.1219
144081.0,-33.5739,-8.2001,60.7361,2.7915,11.3138,2.2189
144091.0,-31.9674,-5.7533,63.4296,1.4335,8.1637,1.3085
144101.0,-28.0433,-7.0342,64.8398,-0.5412,4.4352,0.5513
144111.0,-23.7002,-8.3558,59.6922,-1.7219,0.8131,-0.009
144121.0,-21.0331,-7.604,50.8672,-1.847,-1.8922,-0.431
144131.0,-19.1201,-4.3766,39.6863,-1.3015,-3.5449,-0.7056
144141.0,-16.8887,-2.0997,30.3034,-1.0562,-4.5884,-0.8705
144151.0,-14.2168,-0.5866,21.7202,-0.9371,-5.0625,-0.9328
144161.0,-10.8912,-0.3256,15.5934,-0.9317,-5.0029,-0.9402
144171.0,-8.1547,-0.3783,11.8848,-0.7971,-4.5017,-0.9147
144181.0,-6.3973,-0.4717,9.7755,-0.4943,-3.7796,-0.8636
144191.0,-5.7509,-0.6776,9.1028,-0.2139,-3.107,-0.8141
144201.0,-5.2385,-0.8164,8.8849,0.0181,-2.6223,-0.7827
144211.0,-4.9177,-0.7446,8.849,0.2347,-2.2652,-0.7604
144221.0,-4.7669,-0.644,8.8562,0.4794,-1.963,-0.721
144231.0,-4.446,-0.4477,9.0668,0.7976,-1.6416,-0.6619
144241.0,-4.2186,0.1508,9.1913,1.1185,-1.3393,-0.5917
144251.0,-4.3263,0.8092,9.4379,1.2808,-1.0882,-0.5103
144261.0,-4.7142,1.47,10.2256,1.2366,-0.9232,-0.4273
144271.0,-5.2696,1.9393,11.1067,1.0435,-0.8971,-0.3363
144281.0,-5.6575,1.9968,12.2152,0.7593,-1.0366,-0.2384
144291.0,-5.7676,1.7573,12.7036,0.5177,-1.2904,-0.1495
144301.0,-5.7413,1.4988,12.8209,0.3528,-1.5633,-0.0862
144311.0,-5.624,1.3312,12.4139,0.248,-1.822,-0.0479
144321.0,-5.4684,1.154,11.8298,0.1543,-2.0593,-0.0282
144331.0,-5.3846,1.0846,10.9463,0.0921,-2.2503,-0.0181
144341.0,-5.1236,1.0223,9.6845,0.0027,-2.3918,-0.0176
144351.0,-4.6639,0.9146,8.576,-0.1527,-2.4605,-0.0372
144361.0,-4.0725,0.838,7.5992,-0.3368,-2.4493,-0.0734
144371.0,-3.5123,0.8691,6.8187,-0.514,-2.3589,-0.1171
144381.0,-2.9688,0.9457,6.3829,-0.6396,-2.171,-0.1469
144391.0,-2.545,0.8308,6.6463,-0.6886,-1.8911,-0.1554
144401.0,-2.2745,0.7135,7.4292,-0.6588,-1.6251,-0.1612
144411.0,-2.0375,0.6704,8.3606,-0.5555,-1.4505,-0.1618
144421.0,-2.0135,0.6608,9.2656,-0.3794,-1.3574,-0.1506
144431.0,-1.8771,0.6776,9.8474,-0.1501,-1.3425,-0.1245
144441.0,-1.5299,0.6991,10.1131,0.0474,-1.3984,-0.1011
144451.0,-1.1229,0.826,10.137,0.2001,-1.4654,-0.0867
144461.0,-1.166,1.0702,10.1059,0.2884,-1.4894,-0.0803
144471.0,-0.9984,1.3168,10.2017,0.2655,-1.5596,-0.0889
144481.0,-0.6129,1.7909,9.9144,0.1559,-1.6597,-0.107
144491.0,-0.6153,2.1045,10.0389,-0.1107,-1.7602,-0.1282
144501.0,-0.6656,2.1835,10.5225,-0.3991,-1.9119,-0.1373
144511.0,-0.5483,2.2362,10.7978,-0.5013,-2.0689,-0.1165
144521.0,-0.2251,2.3846,10.5465,-0.3922,-2.1865,-0.0474
144531.0,0.2322,2.3056,10.1658,-0.1607,-2.2365,0.0633
144541.0,0.6201,2.4684,9.3541,0.1128,-2.2242,0.1777
144551.0,0.6943,2.6384,8.6239,0.2363,-2.1896,0.281
144561.0,0.8667,2.6552,8.0541,0.1793,-2.1827,0.3618
144571.0,0.9697,2.6576,7.3885,0.025,-2.1673,0.4177
144581.0,1.1971,2.1668,7.0701,-0.2506,-2.1561,0.4613
144591.0,1.4964,1.4222,6.9647,-0.5215,-2.1476,0.4816
144601.0,1.9106,0.4621,6.8953,-0.6763,-2.1093,0.4651
144611.0,2.2122,0.2825,7.0366,-0.6811,-2.0407,0.414
144621.0,2.3439,0.0455,6.5721,-0.6247,-1.9981,0.3938
144631.0,2.4972,-0.2753,6.3758,-0.5082,-1.8986,0.3741
144641.0,2.6336,-0.17,6.0118,-0.331,-1.79,0.3496
144651.0,2.7964,-0.182,5.5881,-0.2027,-1.6996,0.3421
144661.0,2.7509,-0.3184,5.3846,-0.0899,-1.5857,0.3411
144671.0,2.8323,-0.2945,4.7429,0.0101,-1.5,0.3358
144681.0,3.0861,-0.3639,4.1013,0.0378,-1.4128,0.3171
144691.0,3.4955,-0.4956,3.6703,0.0309,-1.267,0.2905
144701.0,3.4069,-0.5507,3.4093,0.0378,-1.0525,0.2474
144711.0,3.4117,-0.4764,3.2322,0.0415,-0.8567,0.1979
144721.0,3.7158,-0.5148,3.0478,0.0053,-0.6556,0.158
144731.0,3.723,-0.5866,2.8443,-0.0841,-0.4374,0.1038
144741.0,3.9672,-0.6129,3.0502,-0.2373,-0.2123,0.0282
144751.0,4.0773,-0.395,3.5386,-0.4017,0.0436,-0.0612
144761.0,4.1252,-0.182,4.2306,-0.5922,0.2623,-0.1463
144771.0,4.4412,0.249,4.9321,-0.7662,0.4645,-0.2214
144781.0,4.4005,0.8499,5.7676,-0.9615,0.6907,-0.2677
144791.0,4.2329,1.1923,7.3885,-1.2542,0.8503,-0.2815
144801.0,3.7445,1.6975,9.584,-1.499,0.9174,-0.2591
144811.0,3.4884,1.9393,11.0253,-1.6533,0.7508,-0.157
144821.0,3.5985,1.3671,12.2224,-1.7171,0.4805,0.0154
144831.0,4.0917,0.5842,12.5241,-1.5766,0.1852,0.1995
144841.0,4.5753,-0.3735,12.0979,-1.3297,-0.1043,0.3496
144851.0,4.9512,-1.1492,11.4371,-1.0201,-0.3288,0.4459
144861.0,5.3008,-1.5443,10.5943,-0.6364,-0.4528,0.5023
144871.0,5.4708,-1.6113,9.5457,-0.2283,-0.5055,0.5502
144881.0,5.5569,-1.6113,8.2073,0.116,-0.4965,0.6018
144891.0,5.8562,-1.6903,6.9456,0.3262,-0.3895,0.6391
144901.0,6.1028,-1.822,6.189,0.3336,-0.1932,0.6391
144911.0,6.1483,-2.0973,6.3614,0.1591,0.0037,0.5992
144921.0,6.0142,-2.0399,6.3255,-0.1101,0.1123,0.5337
144931.0,5.6958,-2.1691,6.6559,-0.505,0.1314,0.4555
144941.0,5.4013,-2.478,6.9791,-0.8732,0.1022,0.3847
144951.0,5.0374,-2.9401,7.6136,-1.1334,0.0341,0.3209
144961.0,4.9728,-3.3112,7.7955,-1.1813,-0.083,0.2645
144971.0,4.8985,-3.5075,7.4005,-1.0573,-0.2107,0.2107
144981.0,4.8411,-3.4405,6.6128,-0.8391,-0.306,0.1506
144991.0,4.7621,-3.0335,5.6024,-0.6098,-0.3576,0.0835
145001.0,4.5993,-2.4636,4.7597,-0.3991,-0.3549,0.0181
145011.0,4.5274,-1.7885,3.9433,-0.2065,-0.3145,-0.0346
145021.0,4.4293,-1.0104,3.2274,-0.016,-0.2139,-0.0617
145031.0,4.4245,-0.2394,2.6193,0.1809,-0.0543,-0.058
145041.0,4.1468,0.5459,2.3104,0.3624,0.1612,-0.0197
145051.0,3.2394,1.2641,1.8364,0.4699,0.3299,0.0506
145061.0,2.4277,1.403,1.2761,0.4331,0.4044,0.1453
145071.0,2.1572,1.3671,0.067,0.2065,0.3613,0.2496
145081.0,2.0446,0.917,-0.9002,-0.2299,0.2943,0.3161
145091.0,1.2953,1.1396,-2.4205,-0.7588,0.2522,0.3225
145101.0,-0.2921,1.7047,-4.3431,-1.6394,-0.0016,0.2666
145111.0,-1.3862,2.6959,-7.1946,-2.759,-0.4204,0.2006
145121.0,-2.2075,4.1276,-10.999,-3.8131,-0.8205,0.1921
145131.0,-1.4533,5.193,-15.1146,-4.25,-0.9328,0.3411
145141.0,1.7526,7.106,-20.7721,-3.2166,-0.1948,0.7173
145151.0,-3.1699,9.5409,-24.1958,-0.8556,1.6836,1.3111
145161.0,-4.1515,8.7891,-26.5828,2.2301,3.9754,2.038
145171.0,-8.3701,7.865,-26.3769,4.8843,6.4269,2.5669
145181.0,-10.7069,5.7054,-26.3985,6.3827,8.6899,2.7771
145191.0,-18.6029,3.9552,-15.7467,6.4747,11.2196,2.4972
145201.0,-26.1088,5.0925,-2.9592,6.686,13.0038,2.1226
145211.0,-33.0304,8.0756,8.904,7.7146,14.3069,1.8438
145221.0,-41.3167,15.0021,19.0483,9.1172,15.4142,1.5724
145231.0,-48.6693,21.5598,30.325,8.9251,15.8112,1.2888
145241.0,-52.852,23.8941,46.1387,6.7232,15.1785,0.9472
145251.0,-51.7531,19.7641,63.9084,3.2619,13.1426,0.5172
145261.0,-47.4698,12.9598,78.4508,0.1,10.174,0.0213
145271.0,-44.9368,10.9822,78.4508,-1.5293,6.0395,-0.3863
145281.0,-41.7812,10.7763,78.4508,-1.7709,0.6928,-0.3895
145291.0,-36.4565,11.0732,76.8323,-1.499,-4.9891,-0.0809
145301.0,-32.712,8.7532,55.5934,-1.2164,-8.9783,0.3331
145311.0,-27.9068,6.7109,31.953,-1.0552,-11.3776,0.696
145321.0,-23.365,2.9066,13.9343,-1.4495,-12.2923,0.8604
145331.0,-16.86,1.1349,-2.3655,-1.6033,-11.698,0.8924
145341.0,-7.2568,-2.5738,-11.0804,-2.3152,-10.1218,0.7838
145351.0,-2.5474,-4.0845,-14.5663,-2.7532,-7.7289,0.4518
145361.0,-0.6608,-4.1851,-11.7627,-3.198,-5.468,-0.0101
145371.0,0.4094,-3.553,-7.331,-3.1272,-3.6812,-0.3209
145381.0,0.4286,-2.976,-3.067,-2.5339,-2.3562,-0.4635
145391.0,0.3448,-2.0782,0.0886,-1.6176,-1.4191,-0.5092
145401.0,-0.7661,-1.0582,2.3703,-0.6556,-0.7231,-0.4879
145411.0,-1.2115,-0.4501,3.6631,0.0654,-0.4113,-0.431
145421.0,-1.2857,-0.091,4.1324,0.5672,-0.2857,-0.3837
145431.0,-1.221,0.0958,4.3622,0.8402,-0.2192,-0.3661
145441.0,-1.2953,0.4357,4.221,0.9152,-0.1942,-0.3831
145451.0,-1.2594,0.5483,4.2234,0.7311,-0.2299,-0.431
145461.0,-1.2594,0.6081,4.3335,0.3991,-0.2645,-0.5044
145471.0,-1.3024,0.5914,4.8794,-0.033,-0.3432,-0.5938
145481.0,-1.3408,0.4022,5.545,-0.3874,-0.4645,-0.6662
145491.0,-1.3886,0.2394,5.7437,-0.5257,-0.572,-0.7162
145501.0,-0.984,0.1604,5.703,-0.4156,-0.5811,-0.7487
145511.0,-0.5531,0.3304,5.1906,-0.1091,-0.4347,-0.7535
145521.0,0.0311,0.2442,5.1332,0.1878,-0.1463,-0.7396
145531.0,0.1221,0.3855,5.7102,0.4374,0.2416,-0.746
145541.0,-0.1556,0.8739,6.9599,0.5028,0.539,-0.7795
145551.0,-0.6919,1.2905,8.995,0.4076,0.622,-0.8152
145561.0,-1.0175,1.5874,10.7117,0.3288,0.4656,-0.8226
145571.0,-1.1444,1.7597,11.8082,0.4065,0.1884,-0.779
145581.0,-0.6153,1.7957,11.552,0.5965,-0.1346,-0.6976
145591.0,-0.2777,1.8866,10.8625,0.7327,-0.3645,-0.6375
145601.0,-0.2179,1.9944,10.2137,0.7295,-0.5108,-0.6061
145611.0,-0.1389,2.4541,9.2249,0.6039,-0.6215,-0.5875
145621.0,-0.1628,2.5211,8.9399,0.3528,-0.6556,-0.5678
145631.0,0.1173,2.6767,8.2073,0.1155,-0.671,-0.5369
145641.0,0.0144,2.4493,8.2073,-0.1187,-0.6167,-0.4986
145651.0,0.1844,2.3942,7.7716,-0.2091,-0.5177,-0.4486
145661.0,0.3208,2.1069,7.9368,-0.2474,-0.3799,-0.3938
145671.0,0.3184,1.8794,7.7476,-0.1745,-0.2373,-0.3262
145681.0,0.3855,1.5275,7.6878,-0.0442,-0.074,-0.2666
145691.0,0.6608,1.3647,7.434,0.1304,0.1101,-0.2272
145701.0,0.7566,1.1899,7.5298,0.257,0.3203,-0.2086
145711.0,0.6752,1.2043,7.7788,0.3379,0.5082,-0.2102
145721.0,0.4836,1.4557,8.1163,0.3688,0.6641,-0.2261
145731.0,0.2538,1.7789,8.4108,0.323,0.7705,-0.2379
145741.0,-0.0287,2.059,8.7221,0.1969,0.8317,-0.24
145751.0,-0.2155,2.2697,9.0621,-0.0074,0.8892,-0.2309
145761.0,-0.4142,2.1979,10.2759,-0.3448,0.9147,-0.2256
145771.0,-0.6704,1.9992,11.6765,-0.655,0.8014,-0.216
145781.0,-0.8332,1.6712,12.7372,-0.7992,0.5869,-0.1815
145791.0,-0.6033,1.2426,12.9885,-0.7199,0.365,-0.1219
145801.0,-0.2634,0.8882,12.6797,-0.5603,0.174,-0.0756
145811.0,-0.0455,0.7494,11.7651,-0.4496,-0.0027,-0.0575
145821.0,0.1532,0.5435,10.8386,-0.4683,-0.1437,-0.0702
145831.0,0.3328,0.3759,10.0485,-0.5475,-0.183,-0.107
145841.0,0.407,0.3184,9.8306,-0.6428,-0.1272,-0.165
145851.0,0.2729,0.3376,10.1083,-0.7066,-0.0383,-0.223
145861.0,-0.0263,0.3208,11.1211,-0.6561,0.0564,-0.2591
145871.0,-0.3041,0.3855,12.7779,-0.3374,0.1767,-0.2517
145881.0,-0.8523,1.1492,13.8696,0.3427,0.2623,-0.199
145891.0,-0.498,1.5179,12.5672,0.7833,0.0341,-0.0905
145901.0,-0.0096,0.4405,13.137,0.7705,-0.2735,-0.0309
145911.0,0.2227,1.0271,11.7244,1.0254,-0.3794,-0.0447
145921.0,0.1796,1.5921,11.1402,1.0642,-0.4033,-0.0724
145931.0,-0.4046,2.0542,10.2328,0.8892,-0.4794,-0.0798
145941.0,-0.2873,1.9058,9.6702,0.4486,-0.6247,-0.1
145951.0,-0.1269,1.6185,9.3709,-0.0239,-0.7162,-0.1474
145961.0,0.1245,1.4078,9.4667,-0.3922,-0.7418,-0.2065
145971.0,0.3903,1.1181,10.0676,-0.5459,-0.7152,-0.24
145981.0,0.5195,1.0127,10.2544,-0.4241,-0.6588,-0.232
145991.0,0.3759,1.1205,10.41,-0.1314,-0.5587,-0.2075
146001.0,0.3974,1.743,10.0126,0.1846,-0.4848,-0.1751
146011.0,-0.407,2.6073,9.3685,0.3719,-0.4289,-0.1261
146021.0,0.0527,3.4046,9.5098,0.4331,-0.3262,-0.0511
146031.0,0.6776,3.9073,9.0381,0.3815,-0.2597,0.0569
146041.0,0.6943,2.9257,9.7133,0.1176,-0.2256,0.1703
146051.0,0.7973,2.6145,9.6822,0.0138,-0.1756,0.2293
146061.0,0.5148,2.3248,10.3765,-0.0851,-0.1016,0.2512
146071.0,0.2873,1.98,11.1115,-0.0665,-0.0474,0.29
146081.0,0.1413,1.549,11.9734,0.0591,-0.0314,0.3203
146091.0,0.0407,1.403,12.5025,0.2815,-0.0521,0.3374
146101.0,-0.0575,1.4174,13.0795,0.5289,-0.1192,0.3395
146111.0,0.0862,1.5251,12.8425,0.7854,-0.2325,0.3363
146121.0,0.5674,1.6783,11.8298,0.9206,-0.3565,0.3166
146131.0,1.0032,1.9321,10.647,0.7955,-0.448,0.2586
146141.0,0.8499,2.2266,9.9575,0.4518,-0.4331,0.1772
146151.0,0.5387,2.32,10.319,0.0426,-0.3533,0.1133
146161.0,0.4262,2.217,11.1618,-0.2602,-0.3235,0.0931
146171.0,0.3472,2.0255,11.5616,-0.3709,-0.3613,0.1075
146181.0,0.6752,1.8483,11.4203,-0.3358,-0.423,0.1421
146191.0,0.8475,1.7286,10.7907,-0.2501,-0.4555,0.1703
146201.0,1.0965,1.6065,10.2328,-0.1974,-0.4363,0.1857
146211.0,1.336,1.5634,9.6247,-0.2022,-0.3746,0.1868
146221.0,1.3671,1.4006,9.3015,-0.331,-0.307,0.1623
146231.0,1.3862,1.2354,9.232,-0.5683,-0.2826,0.1144
146241.0,1.3862,0.9433,9.3805,-0.8296,-0.2948,0.0543
146251.0,1.3815,0.6177,9.6678,-0.9802,-0.2943,0.0
146261.0,1.6544,0.4836,9.5816,-0.9546,-0.2661,-0.0452
146271.0,1.6257,0.5363,9.6055,-0.8429,-0.1607,-0.0841
146281.0,1.4341,0.9936,9.6271,-0.7136,-0.0341,-0.1181
146291.0,1.0678,1.415,9.7109,-0.6875,0.0511,-0.1394
146301.0,0.8619,1.561,9.8497,-0.7811,0.0734,-0.1485
146311.0,0.972,1.482,10.2208,-0.9179,0.0937,-0.158
146321.0,1.0127,1.3192,11.0588,-1.0488,0.1016,-0.1735
146331.0,0.9337,1.3144,11.8657,-1.1089,0.0357,-0.1905
146341.0,0.7039,1.3743,12.3158,-1.0797,-0.1038,-0.191
146351.0,0.7494,1.4676,12.3708,-0.9908,-0.2655,-0.1697
146361.0,0.8715,1.6879,12.2631,-0.9259,-0.4225,-0.1469
146371.0,0.8068,2.0614,12.2535,-0.9594,-0.6071,-0.1176
146381.0,0.6273,2.4995,12.4211,-1.0041,-0.8205,-0.0633
146391.0,0.3903,3.1915,12.7204,-0.9323,-1.0233,0.0399
146401.0,-0.0072,4.0797,12.9335,-0.7487,-1.2276,0.2139
146411.0,-0.5722,4.7381,12.6965,-0.5912,-1.5128,0.4566
146421.0,-1.5897,4.7932,11.8752,-0.6439,-1.9693,0.7125
146431.0,-3.0574,3.8307,10.6638,-0.9567,-2.5893,0.9285
146441.0,-4.1061,1.798,9.7348,-1.384,-3.3103,1.0802
146451.0,-5.3941,-1.0511,8.3294,-1.5979,-4.0685,1.1792
146461.0,-7.616,-2.9425,3.3471,-1.7054,-5.037,1.1685
146471.0,-7.3981,-4.5825,-4.9488,-2.278,-6.3071,0.9504
146481.0,1.4988,-3.869,-21.2126,-3.2443,-7.2075,0.5561
146491.0,0.9936,1.5107,-30.1741,-4.7172,-6.0858,0.1453
146501.0,0.5914,1.5993,-35.245,-6.1012,-4.4719,0.066
146511.0,1.3336,7.2329,-38.482,-5.3222,-1.756,0.0511
146521.0,2.6839,6.0047,-31.7495,-2.4871,1.2643,0.5273
146531.0,-1.9992,7.0629,-28.4479,2.4067,4.599,1.0786
146541.0,-5.6958,5.1523,-22.8694,6.3587,6.9638,1.4452
146551.0,-7.2736,4.9368,-20.7912,8.7724,8.5766,1.4261
146561.0,-10.7212,5.7078,-16.9509,9.4822,10.2102,1.077
146571.0,-14.9829,7.6567,-11.8441,9.1672,11.9449,0.5954
146581.0,-21.737,10.8218,-3.1436,8.0418,13.5572,0.0979
146591.0,-31.364,14.5639,9.0477,6.0969,14.3766,-0.2959
146601.0,-35.2067,14.3149,23.8462,3.4108,13.5854,-0.481
146611.0,-32.949,9.3302,39.0207,1.8374,12.1944,-0.3368
146621.0,-30.7104,6.7109,49.5648,2.4051,10.8423,-0.1336
146631.0,-29.1829,6.6463,56.3044,3.7216,9.1018,-0.0729
146641.0,-26.918,9.7851,55.6867,4.5081,6.7381,-0.1963
146651.0,-23.7505,10.2735,53.4027,3.5375,4.035,-0.5066
146661.0,-20.1975,10.343,47.9391,1.6001,1.3989,-0.9237
146671.0,-17.8871,8.6383,43.8402,-0.4369,-0.5523,-1.3063
146681.0,-16.1704,8.5281,37.6033,-1.8347,-2.0689,-1.582
146691.0,-14.4753,7.3047,32.1302,-2.7696,-3.272,-1.6692
146701.0,-11.8178,6.8402,24.9979,-2.8409,-3.9403,-1.574
146711.0,-8.9711,6.0501,19.5534,-2.569,-4.0292,-1.3814
146721.0,-7.2592,5.7581,15.6892,-2.0034,-3.7051,-1.1233
146731.0,-6.1866,5.5881,12.7826,-1.4564,-3.3119,-0.8253
146741.0,-5.3439,4.5753,10.9247,-1.1281,-2.9761,-0.5156
146751.0,-4.3838,3.1771,9.7875,-0.8764,-2.6233,-0.2597
146761.0,-3.7182,2.0135,9.098,-0.7753,-2.353,-0.1171
146771.0,-3.7757,1.2689,8.3318,-0.8482,-2.2104,-0.0782
146781.0,-3.8786,0.7877,7.5058,-1.0483,-2.1572,-0.1181
146791.0,-3.8786,0.5267,6.6224,-1.2393,-2.0795,-0.1926
146801.0,-3.6368,0.1604,6.1172,-1.3521,-1.9151,-0.2756
146811.0,-3.5051,0.0766,6.0549,-1.3329,-1.6666,-0.3682
146821.0,-3.4979,0.3376,6.3087,-1.1898,-1.4016,-0.4608
146831.0,-3.6416,0.8978,6.6319,-0.9966,-1.2031,-0.5295
146841.0,-3.7996,1.3551,7.118,-0.7891,-1.0632,-0.5619
146851.0,-3.735,1.8411,7.5465,-0.5614,-0.9732,-0.5662
146861.0,-3.5889,2.2505,7.8913,-0.3991,-0.961,-0.5513
146871.0,-3.5075,2.8012,7.7716,-0.3262,-1.0243,-0.5279
146881.0,-3.3782,3.2537,7.5896,-0.3634,-1.1052,-0.4901
146891.0,-3.2633,3.5985,7.5896,-0.4225,-1.1318,-0.4241
146901.0,-3.1699,3.9025,7.8793,-0.4539,-1.1233,-0.3278
146911.0,-3.1867,3.9816,8.1954,-0.4438,-1.1302,-0.199
146921.0,-3.0574,3.7062,8.3175,-0.3629,-1.127,-0.0325
146931.0,-2.8012,3.0789,8.406,-0.2442,-1.0786,0.1336
146941.0,-2.4493,2.2553,8.6,-0.1841,-1.0248,0.2575
146951.0,-1.8914,1.4533,8.8107,-0.2139,-1.0131,0.3203
146961.0,-1.5347,0.735,8.9639,-0.3384,-1.0408,0.3225
146971.0,-1.3551,0.0862,9.1674,-0.5023,-1.0695,0.2783
146981.0,-1.154,-0.486,9.8521,-0.622,-1.0977,0.1985
146991.0,-0.9601,-0.8116,10.6518,-0.5545,-1.1222,0.1117
147001.0,-1.0151,-0.7087,11.3725,-0.2565,-1.1552,0.0436
147011.0,-1.3455,-0.0718,11.2288,0.1937,-1.2324,0.0106
147021.0,-1.3024,0.7302,10.3238,0.6039,-1.351,0.025
147031.0,-0.996,1.257,9.0477,0.8849,-1.4074,0.0883
147041.0,-0.8499,1.561,7.7812,0.9865,-1.3681,0.1697
147051.0,-0.5363,1.6903,6.3734,0.8519,-1.3149,0.2357
147061.0,-0.0455,1.4437,5.217,0.5114,-1.1999,0.2772
147071.0,0.2993,0.8452,4.9129,0.0899,-0.9573,0.2943
147081.0,0.4884,0.2059,5.3726,-0.3139,-0.6965,0.273
147091.0,0.5507,-0.3687,6.1244,-0.6103,-0.4991,0.2288
147101.0,0.5578,-0.7997,6.2465,-0.7641,-0.3666,0.1772
147111.0,1.3623,-1.4102,5.3606,-1.0057,-0.3304,0.1139
147121.0,1.0439,-1.8004,5.7772,-1.2893,-0.1628,-0.0197
147131.0,0.7063,-1.9537,9.0094,-1.4261,0.0383,-0.1623
147141.0,1.4964,-1.1636,7.1084,-0.5662,0.2932,-0.1458
147151.0,0.3615,-1.0965,7.1227,-0.506,0.3203,-0.183
147161.0,1.5682,-1.221,6.675,-0.5949,0.3017,-0.2192
147171.0,0.656,-0.7638,6.9408,-0.5034,0.6204,-0.2687
147181.0,0.814,-0.4118,6.5888,-0.7721,0.5853,-0.3299
147191.0,0.4549,-0.6967,7.288,-1.1233,0.588,-0.3783
147201.0,0.3136,-0.9146,7.8195,-1.2063,0.7396,-0.3948
147211.0,-0.1508,-1.3982,9.9718,-1.1009,0.9094,-0.414
147221.0,-0.4525,-1.2737,10.9726,-0.6689,0.9349,-0.4161
147231.0,-0.5219,-0.9792,11.169,-0.1288,0.919,-0.3996
147241.0,-0.4357,-0.5698,10.8026,0.3166,0.9445,-0.3757
147251.0,-0.4717,-0.1652,10.8386,0.448,0.9966,-0.3799
147261.0,-0.6584,0.3926,11.3629,0.2011,0.9498,-0.4214
147271.0,-1.0367,0.6536,12.5576,-0.2634,0.77,-0.4656
147281.0,-1.4437,0.68,13.726,-0.5954,0.5268,-0.4624
147291.0,-1.7454,0.668,14.4251,-0.6274,0.2692,-0.3986
147301.0,-1.7262,0.5938,14.2718,-0.4182,-0.0064,-0.2884
147311.0,-1.3479,0.3687,13.2447,-0.125,-0.2645,-0.1655
147321.0,-0.8787,0.0694,11.71,0.1144,-0.4193,-0.0697
147331.0,-0.4884,-0.1628,10.3501,0.2027,-0.4555,-0.0197
147341.0,-0.2466,-0.4453,9.5648,0.1208,-0.4315,-0.0197
147351.0,-0.1437,-0.6967,9.3589,0.0218,-0.3491,-0.042
147361.0,-0.1939,-0.7925,9.6606,0.0458,-0.1985,-0.0644
147371.0,-0.419,-0.6632,10.0173,0.2043,-0.0442,-0.0708
147381.0,-0.5148,-0.4166,10.0604,0.3677,0.0325,-0.0654
147391.0,-0.4884,-0.3041,9.9551,0.4347,0.0788,-0.0617
147401.0,-0.4214,-0.1556,9.9647,0.4124,0.1282,-0.067
147411.0,-0.3974,-0.1341,10.2137,0.3065,0.1634,-0.0825
147421.0,-0.3304,-0.3017,10.6015,0.1623,0.1655,-0.1022
147431.0,-0.3232,-0.431,10.9104,0.0223,0.1165,-0.1304
147441.0,-0.3304,-0.3759,11.066,-0.0803,0.0394,-0.1591
147451.0,-0.3472,-0.0479,11.0061,-0.1453,-0.0319,-0.1783
147461.0,-0.3687,0.2658,10.8529,-0.2166,-0.1048,-0.1772
147471.0,-0.3448,0.5387,10.7212,-0.2575,-0.1735,-0.1511
147481.0,-0.4046,0.7542,10.4124,-0.2299,-0.2006,-0.1
147491.0,-0.3903,0.7063,10.1921,-0.1703,-0.2027,-0.0298
147501.0,-0.0431,0.4645,9.845,-0.0915,-0.2006,0.0436
147511.0,0.2322,0.2107,9.3901,-0.0117,-0.1666,0.0974
147521.0,0.2993,0.1245,9.0716,0.066,-0.0649,0.1378
147531.0,0.2514,0.0622,8.995,0.0835,0.0596,0.166
147541.0,0.2035,-0.0144,8.8801,-0.0458,0.1086,0.1777
147551.0,0.1149,-0.3017,8.758,-0.2959,0.0809,0.1697
147561.0,0.1221,-0.6776,8.6718,-0.5444,0.0607,0.1463
147571.0,0.1269,-1.0415,8.9352,-0.6455,0.116,0.1197
147581.0,-0.1389,-1.0104,9.1459,-0.5279,0.2309,0.1038
147591.0,-0.2849,-0.8619,9.3278,-0.2921,0.3586,0.1048
147601.0,-0.407,-0.656,9.2895,-0.025,0.5018,0.1235
147611.0,-0.4645,-0.5483,9.5026,0.1618,0.6465,0.141
147621.0,-0.5602,-0.498,9.7899,0.2128,0.7567,0.1426
147631.0,-0.7135,-0.6704,10.5584,0.1176,0.8269,0.1235
147641.0,-0.8643,-0.9361,11.6023,-0.0511,0.829,0.0841
147651.0,-1.087,-1.2737,12.967,-0.216,0.7364,0.0229
147661.0,-1.2163,-1.4533,14.2742,-0.2246,0.5859,-0.0383
147671.0,-1.4605,-1.2186,14.9518,-0.0623,0.3874,-0.0857
147681.0,-1.6113,-0.6704,15.0476,0.133,0.1086,-0.1176
147691.0,-1.5083,0.0622,14.2192,0.2889,-0.1948,-0.125
147701.0,-1.2713,0.6105,13.2232,0.3421,-0.4124,-0.1064
147711.0,-1.0894,1.0343,12.3373,0.3427,-0.5039,-0.0686
147721.0,-1.1803,1.3144,11.7555,0.2783,-0.5353,-0.0176
147731.0,-1.1947,1.257,11.5664,0.2027,-0.5369,0.0436
147741.0,-1.2402,0.9074,11.6765,0.2128,-0.4736,0.1101
147751.0,-1.3096,0.3089,12.0859,0.3044,-0.3821,0.1666
147761.0,-1.1109,-0.3615,12.7539,0.4305,-0.339,0.1862
147771.0,-0.9792,-0.8116,13.7212,0.5598,-0.3315,0.1612
147781.0,-0.9768,-0.9697,14.789,0.6667,-0.4156,0.1075
147791.0,-0.9912,-0.814,15.5934,0.7146,-0.6534,0.0341
147801.0,-1.0918,-0.2897,15.3756,0.6864,-1.0461,-0.0362
147811.0,-1.0606,0.2442,14.3293,0.4752,-1.5437,-0.0937
147821.0,-0.984,0.644,12.3661,0.0745,-2.0593,-0.1421
147831.0,-0.9433,0.929,10.058,-0.5502,-2.5637,-0.1979
147841.0,-1.743,1.743,6.7564,-1.2925,-3.0442,-0.2458
147851.0,-2.4205,2.6408,2.0423,-2.229,-3.529,-0.2666
147861.0,-2.3846,2.885,-1.9728,-3.2113,-3.7243,-0.2575
147871.0,-1.4126,3.4189,-7.1491,-4.059,-3.645,-0.2001
147881.0,0.0838,3.3184,-12.3206,-5.2977,-3.505,-0.1437
147891.0,0.735,2.2027,-14.8249,-6.9042,-3.3172,-0.1735
147901.0,-1.2713,2.0494,-15.7634,-8.1126,-3.0783,-0.2841
147911.0,-3.4046,3.8714,-17.8176,-8.551,-3.0921,-0.3906
147921.0,-1.7142,7.3813,-22.7641,-7.6864,-2.8984,-0.2283
147931.0,3.6631,10.9176,-30.6649,-4.2244,-1.2393,0.4784
147941.0,-2.8443,13.0867,-34.194,0.7854,2.1492,1.508
147951.0,-7.367,13.8217,-37.1532,5.195,5.6047,2.4243
147961.0,-12.9838,11.3629,-30.3393,7.4709,8.8533,2.9639
147971.0,-20.4082,6.7804,-16.2087,9.279,11.8315,3.1192
147981.0,-27.6195,7.3909,-6.4931,11.5809,14.1542,2.8628
147991.0,-32.9346,11.655,1.7957,13.388,15.9166,2.3142
148001.0,-44.3837,26.4009,8.339,13.6583,17.3288,1.5234
148011.0,-46.0309,30.7679,23.5158,8.6394,16.3502,0.9519
148021.0,-41.9153,15.9693,53.6636,1.6325,14.0297,0.7221
148031.0,-38.968,5.205,69.269,-1.4958,11.0477,0.6167
148041.0,-34.5435,-2.9401,76.6959,-3.1246,6.7504,0.2368
148051.0,-28.8094,-5.3702,70.5715,-3.5135,1.6107,-0.2214
148061.0,-24.0809,-4.0079,55.919,-2.8819,-2.5355,-0.53
148071.0,-20.6596,0.9242,37.4884,-1.9342,-4.946,-0.713
148081.0,-16.7857,4.2042,22.7306,-1.5548,-5.8969,-0.7444
148091.0,-12.7443,6.9336,11.0014,-1.3702,-5.5994,-0.588
148101.0,-9.7947,6.3734,5.4684,-1.326,-4.3756,-0.2363
148111.0,-7.604,4.4269,3.711,-1.0413,-2.8707,0.1836
148121.0,-5.5689,1.2617,4.2162,-0.7035,-1.6043,0.5284
148131.0,-4.3479,-1.6592,6.2034,-0.257,-0.5225,0.688
148141.0,-3.6966,-3.3782,8.4922,0.074,0.2128,0.6375
148151.0,-3.5745,-4.5274,10.9439,-0.0043,0.4651,0.4273
148161.0,-4.0031,-4.8914,13.0412,-0.3097,0.4017,0.1016
148171.0,-4.7214,-4.276,14.8464,-0.6412,0.1596,-0.2751
148181.0,-5.5282,-3.0191,15.7251,-0.9152,-0.2783,-0.6188
148191.0,-6.3159,-1.2737,15.3588,-1.127,-0.8743,-0.8913
148201.0,-6.7612,0.2921,14.2838,-1.2302,-1.4218,-1.0674
148211.0,-7.0844,1.7861,13.0436,-1.1196,-1.7751,-1.1387
148221.0,-7.4603,3.2609,11.7029,-0.8328,-1.9571,-1.1126
148231.0,-7.9703,4.367,10.0149,-0.5885,-2.1476,-1.0121
148241.0,-8.0445,4.6256,9.1075,-0.4427,-2.2929,-0.8493
148251.0,-7.4627,4.3144,8.1139,-0.2139,-2.3615,-0.6236
148261.0,-6.7325,3.4165,7.592,0.0027,-2.4126,-0.4076
148271.0,-5.7581,2.6624,7.0988,0.3145,-2.3807,-0.2352
148281.0,-5.4971,2.0351,8.2528,0.6976,-2.2578,-0.108
148291.0,-5.4061,2.8084,6.5601,1.4133,-2.1465,0.0383
148301.0,-5.1499,2.2027,7.2042,1.6437,-2.0955,0.2395
148311.0,-4.1108,1.8771,6.857,1.9624,-2.0066,0.4246
148321.0,-4.6974,1.8172,8.0828,2.2939,-1.7544,0.5497
148331.0,-4.8004,2.4636,8.0373,2.56,-1.7528,0.6726
148341.0,-4.2808,2.4253,7.9559,2.7351,-1.7592,0.829
148351.0,-4.3359,1.3862,8.4803,2.8276,-1.7012,0.9924
148361.0,-4.4029,1.3144,7.8027,3.057,-1.5766,1.1025
148371.0,-3.383,1.1157,8.6814,3.0538,-1.4442,1.1281
148381.0,-3.2058,1.6161,8.2001,2.999,-1.2984,1.1275
148391.0,-3.0622,1.0319,8.9759,2.4451,-1.3175,1.0626
148401.0,-2.3128,0.3256,9.4547,1.7624,-1.4622,0.9158
148411.0,-2.5091,0.0575,9.3326,1.1345,-1.5362,0.6965
148421.0,-2.2817,-0.0335,8.9399,0.3453,-1.7028,0.4119
148431.0,-2.047,-0.0479,8.7652,-0.5167,-1.8927,0.0867
148441.0,-1.6688,0.2466,8.5712,-1.1339,-1.9662,-0.2208
148451.0,-1.3958,0.6297,8.7077,-1.3979,-1.8486,-0.4523
148461.0,-1.506,1.2594,8.8849,-1.3867,-1.6804,-0.6093
148471.0,-1.5419,2.2051,8.9854,-1.2169,-1.5458,-0.7024
148481.0,-2.3439,3.4596,9.5002,-0.9147,-1.3766,-0.6976
148491.0,-1.1588,4.1348,10.3573,-0.4486,-1.2063,-0.5922
148501.0,-1.3264,4.561,10.2017,-0.0479,-1.2058,-0.4108
148511.0,-0.3615,4.3167,10.0868,0.2368,-1.2558,-0.2144
148521.0,-0.6393,4.9416,9.0573,0.5188,-1.1882,-0.0623
148531.0,-0.5818,4.8842,9.1411,0.5736,-1.0844,0.0889
148541.0,-0.656,5.035,8.7795,0.5034,-1.035,0.2123
148551.0,-0.2945,4.6184,8.5928,0.1953,-1.0951,0.2948
148561.0,0.0766,4.0941,8.0589,-0.1708,-1.1637,0.3384
148571.0,0.2873,3.4884,7.7596,-0.5252,-1.152,0.3421
148581.0,0.51,2.8347,7.8721,-0.8216,-1.0791,0.3203
148591.0,0.8188,2.3391,8.3749,-1.0472,-1.0413,0.2703
148601.0,0.9936,2.0877,8.655,-1.1408,-1.0323,0.2112
148611.0,0.8452,2.0039,9.0118,-1.0653,-0.9871,0.165
148621.0,0.8021,1.9728,9.2416,-0.8673,-0.9301,0.1437
148631.0,0.9864,1.9321,9.2895,-0.6577,-0.92,0.1298
148641.0,1.1444,2.1261,8.7293,-0.4965,-0.9482,0.1187
148651.0,1.3288,2.1189,7.932,-0.4672,-0.9668,0.1091
148661.0,1.336,2.0494,7.3861,-0.4901,-0.8817,0.1
148671.0,1.5538,1.9273,7.3215,-0.5215,-0.729,0.0867
148681.0,1.6544,1.8268,7.4005,-0.5577,-0.5848,0.0718
148691.0,1.7095,1.6472,7.6854,-0.5699,-0.4363,0.0601
148701.0,1.7142,1.5754,8.0349,-0.5268,-0.2841,0.0479
148711.0,1.6137,1.4365,8.4108,-0.4794,-0.1543,0.0388
148721.0,1.4389,1.3001,8.734,-0.4555,-0.0894,0.0293
148731.0,1.4868,1.0343,8.8011,-0.4534,-0.0782,0.0117
148741.0,1.7885,0.7661,8.7915,-0.4241,-0.0229,-0.0165
148751.0,1.8603,0.6321,9.0357,-0.4017,0.0777,-0.0617
148761.0,1.8938,0.7542,9.4092,-0.3986,0.1554,-0.1171
148771.0,1.7095,1.1013,9.6271,-0.4039,0.2091,-0.1703
148781.0,1.5562,1.5227,9.8497,-0.4257,0.2533,-0.2075
148791.0,1.3791,1.798,10.2328,-0.464,0.3102,-0.2155
148801.0,1.2258,1.9369,10.7404,-0.5305,0.3326,-0.2059
148811.0,1.0343,1.968,11.224,-0.6157,0.2863,-0.1894
148821.0,1.0271,1.7861,11.8681,-0.6933,0.199,-0.1692
148831.0,1.1803,1.5945,12.232,-0.6886,0.0894,-0.1426
148841.0,1.1779,1.3312,12.6725,-0.6173,-0.0303,-0.1155
148851.0,1.1181,1.1851,12.6701,-0.4528,-0.1655,-0.091
148861.0,1.1803,1.0175,12.3158,-0.2623,-0.3012,-0.0702
148871.0,1.4317,0.9409,11.5544,-0.1197,-0.4299,-0.067
148881.0,1.7549,0.972,10.6303,-0.0825,-0.5161,-0.091
148891.0,2.0207,1.1732,9.6798,-0.1522,-0.53,-0.1357
148901.0,2.2051,1.312,9.0644,-0.331,-0.4949,-0.1862
148911.0,2.3128,1.3623,8.8322,-0.5555,-0.4459,-0.2299
148921.0,2.3846,1.3312,8.849,-0.7301,-0.3799,-0.2629
148931.0,2.4014,1.391,9.007,-0.7758,-0.3006,-0.2778
148941.0,2.4373,1.4413,9.1028,-0.7029,-0.2198,-0.2698
148951.0,2.3152,1.5921,8.9615,-0.5694,-0.1522,-0.2474
148961.0,2.2505,1.7765,8.7077,-0.4214,-0.0761,-0.2123
148971.0,2.2889,1.8028,8.3055,-0.3272,-0.0027,-0.1687
148981.0,2.3415,1.5562,7.944,-0.3464,0.05,-0.1341
148991.0,2.387,1.2713,7.4723,-0.4188,0.1293,-0.1181
149001.0,2.4972,0.9361,7.1467,-0.53,0.2623,-0.1192
149011.0,2.466,0.5794,7.0868,-0.6875,0.4337,-0.1389
149021.0,2.2577,0.3424,7.3765,-0.928,0.5928,-0.1846
149031.0,1.9824,-0.0192,8.5497,-1.235,0.7082,-0.2448
149041.0,1.7573,-0.3256,9.7229,-1.492,0.6944,-0.3054
149051.0,1.5275,-0.6464,10.829,-1.6315,0.5795,-0.357
149061.0,1.2019,-0.6895,11.5544,-1.5495,0.4619,-0.3911
149071.0,0.8859,-0.6512,11.9926,-1.2787,0.3517,-0.397
149081.0,0.8452,-0.5028,12.0189,-0.9195,0.2331,-0.3837
149091.0,0.8715,-0.1891,11.5041,-0.5704,0.1277,-0.365
149101.0,0.826,0.1197,10.9559,-0.307,0.0899,-0.34
149111.0,0.8068,0.3926,10.6326,-0.165,0.1011,-0.3145
149121.0,0.7183,0.4477,10.4962,-0.1559,0.0974,-0.2964
149131.0,0.7685,0.3903,10.5153,-0.2033,0.0761,-0.282
149141.0,0.929,0.2083,10.5967,-0.2496,0.0681,-0.2719
149151.0,0.9864,-0.0215,10.7212,-0.2559,0.0713,-0.2634
149161.0,1.0391,-0.1987,11.0014,-0.215,0.0724,-0.2618
149171.0,1.1779,-0.1532,11.1546,-0.1245,0.0521,-0.2677
149181.0,1.1971,0.0359,11.1019,-0.0298,0.0213,-0.2698
149191.0,1.2498,0.2394,11.0828,0.016,-0.0096,-0.2655
149201.0,1.2594,0.4238,11.0995,0.0229,-0.0585,-0.2543
149211.0,1.3527,0.5387,11.1546,0.0325,-0.116,-0.2336
149221.0,1.4269,0.7087,10.9822,0.091,-0.1575,-0.1958
149231.0,1.3743,0.7638,10.6949,0.1756,-0.1671,-0.1437
149241.0,1.3551,0.6512,10.6159,0.2964,-0.1107,-0.0846
149251.0,1.5203,0.5195,10.6518,0.4193,-0.0133,-0.0351
149261.0,1.5586,0.577,10.7787,0.4864,0.074,-0.0064
149271.0,1.494,0.7877,10.975,0.4454,0.1501,0.0037
149281.0,1.4676,0.9673,11.6478,0.2687,0.1836,0.0032
149291.0,1.1253,1.1061,12.3445,0.0266,0.1373,0.0016
149301.0,1.0008,0.9936,13.1921,-0.1921,0.0303,0.0154
149311.0,1.0774,0.8571,13.8169,-0.2655,-0.0958,0.0495
149321.0,1.2522,0.6823,14.2168,-0.2645,-0.2528,0.0889
149331.0,1.257,0.6201,14.1809,-0.2389,-0.4225,0.1293
149341.0,1.1684,0.5052,14.0181,-0.2868,-0.6199,0.1607
149351.0,1.2474,0.182,13.7236,-0.4385,-0.8817,0.1724
149361.0,1.5538,-0.1987,13.5488,-0.5582,-1.126,0.1697
149371.0,1.7933,-0.4381,13.3596,-0.5257,-1.2797,0.1692
149381.0,1.834,-0.4764,13.1346,-0.4268,-1.4085,0.1687
149391.0,1.652,-0.3639,12.6653,-0.34,-1.5719,0.1697
149401.0,1.5682,-0.3855,12.3684,-0.2975,-1.7459,0.1719
149411.0,1.4748,-0.3783,11.6646,-0.2799,-1.9529,0.1666
149421.0,1.3336,-0.4357,10.6207,-0.3778,-2.2604,0.1378
149431.0,1.3695,-0.5363,9.0716,-0.4789,-2.5627,0.0947
149441.0,1.7645,-0.5076,6.924,-0.5225,-2.7904,0.0436
149451.0,2.1476,-0.6033,5.1811,-0.4757,-2.8292,0.0021
149461.0,2.2146,-0.5171,3.8259,-0.2448,-2.6568,-0.0176
149471.0,2.2889,-0.6105,3.0789,0.0878,-2.3913,-0.0165
149481.0,2.2314,-0.5626,2.2601,0.4629,-2.1279,-0.009
149491.0,1.9656,-0.3041,1.4102,0.7146,-1.9784,-0.0287
149501.0,1.482,0.4238,-0.1939,0.8163,-1.9151,-0.0729
149511.0,0.7183,1.482,-2.0063,0.7077,-1.873,-0.1123
149521.0,0.1484,2.6121,-4.4508,0.4411,-1.8198,-0.1016
149531.0,0.1077,3.3686,-7.8458,-0.0213,-1.7507,-0.0261
149541.0,0.2873,3.3806,-12.2679,-0.7662,-1.6123,0.0835
149551.0,1.6927,3.1364,-16.0244,-1.7671,-1.243,0.1729
149561.0,-0.8667,4.6256,-20.0562,-2.9261,-0.5678,0.2474
149571.0,-1.3192,5.43,-22.3092,-4.3303,0.0506,0.3879
149581.0,-3.4788,5.2074,-21.7274,-5.0657,1.0456,0.7104
149591.0,-1.549,3.7182,-21.476,-4.8412,2.2317,1.1887
149601.0,-2.4517,3.0311,-20.8942,-3.1485,4.1515,1.6852
149611.0,-6.3997,2.2266,-16.9533,-0.9259,6.1608,1.997
149621.0,-9.8881,2.8156,-13.2208,1.4628,7.9796,2.1402
149631.0,-14.8632,3.158,-6.0573,3.7386,9.71,2.1763
149641.0,-19.6181,3.1675,0.7901,6.2018,11.028,2.1716
149651.0,-22.8527,3.4357,4.853,9.0587,12.213,2.0566
149661.0,-26.4847,6.3327,9.2296,11.5974,13.439,1.6309
149671.0,-33.3057,16.3931,12.4427,13.0,14.5496,1.0185
149681.0,-35.2977,25.0386,20.5399,10.5172,14.1366,0.3219
149691.0,-37.8116,25.7784,34.4957,5.7016,13.2586,-0.1368
149701.0,-35.9849,19.0555,51.7219,0.4523,11.0722,-0.4315
149711.0,-31.0791,9.1937,62.1894,-3.0378,8.0184,-0.4656
149721.0,-26.3769,1.7957,64.4735,-4.6076,4.7007,-0.5183
149731.0,-22.6037,-3.62,61.9093,-5.1876,1.2781,-0.6902
149741.0,-19.4768,-4.0294,52.591,-4.7922,-1.8294,-0.9722
149751.0,-17.3149,-3.0909,42.8778,-3.8536,-4.0281,-1.1573
149761.0,-13.9702,-0.4405,29.7216,-2.4105,-5.3382,-1.1435
149771.0,-11.3102,0.8619,20.0012,-1.3308,-5.6686,-1.0259
149781.0,-8.4563,2.1165,10.9319,-0.464,-5.3562,-0.8226
149791.0,-5.3343,1.5514,5.6192,-0.232,-4.6512,-0.6188
149801.0,-3.1939,0.9936,1.719,-0.2975,-3.6897,-0.464
149811.0,-1.9178,0.079,1.1588,-0.7806,-2.7143,-0.4113
149821.0,-1.1684,-1.063,2.0686,-1.202,-1.8124,-0.4299
149831.0,-1.0415,-1.6017,4.1324,-1.3702,-1.0382,-0.5204
149841.0,-1.6759,-1.8052,6.3973,-1.2239,-0.4427,-0.5896
149851.0,-2.4397,-1.6448,8.2648,-0.821,-0.0362,-0.6428
149861.0,-2.8611,-1.142,9.9048,-0.3719,0.1415,-0.7013
149871.0,-3.6009,-0.3687,10.9463,0.1314,0.2485,-0.7184
149881.0,-4.4819,0.3639,12.536,0.531,0.224,-0.7295
149891.0,-4.9105,1.6257,13.3022,0.8908,0.0309,-0.7162
149901.0,-5.2433,2.6935,13.7475,1.1025,-0.2682,-0.6646
149911.0,-5.3582,3.6464,13.5512,1.1845,-0.629,-0.5736
149921.0,-5.5522,4.3144,13.4363,1.1526,-0.9296,-0.4507
149931.0,-5.5282,4.7956,13.0867,1.061,-1.2233,-0.307
149941.0,-5.3917,5.0159,12.2392,0.8785,-1.5474,-0.1607
149951.0,-5.035,4.786,11.0588,0.6173,-1.8438,-0.0192
149961.0,-4.8147,4.1635,10.0556,0.3507,-2.0359,0.0958
149971.0,-4.3646,3.292,9.3111,0.2118,-2.1013,0.1788
149981.0,-3.8427,2.4373,8.7843,0.2905,-2.03,0.2384
149991.0,-3.2106,1.8531,8.3055,0.5449,-1.8693,0.2692
150001.0,-2.5809,1.7573,7.5346,0.8594,-1.6527,0.2714
150011.0,-2.0662,1.8747,6.8905,1.0371,-1.3792,0.2543
150021.0,-1.719,2.1859,6.6104,0.9972,-1.0866,0.2144
150031.0,-1.5802,2.4852,7.0078,0.7524,-0.8141,0.1671
150041.0,-1.6568,2.5163,7.9272,0.3735,-0.6071,0.1325
150051.0,-1.9082,2.0758,9.4355,-0.0255,-0.5007,0.1059
150061.0,-2.1476,1.5538,11.0157,-0.2602,-0.497,0.083
150071.0,-2.2721,1.0965,12.1793,-0.2533,-0.5518,0.0649
150081.0,-2.0734,0.905,12.8377,-0.1192,-0.6651,0.0399
150091.0,-1.9082,1.0846,12.5672,-0.049,-0.8844,0.0011
150101.0,-1.822,1.3192,11.5784,-0.1793,-1.1728,-0.0479
150111.0,-1.64,1.5131,10.2807,-0.4624,-1.4021,-0.1006
150121.0,-1.4796,1.415,9.256,-0.8423,-1.5314,-0.1479
150131.0,-1.5131,1.008,8.3821,-1.2111,-1.591,-0.1862
150141.0,-1.5467,0.2729,7.7093,-1.5165,-1.6176,-0.2283
150151.0,-1.1995,-0.6847,6.9959,-1.7272,-1.6288,-0.2873
150161.0,-0.7973,-1.5036,6.1651,-1.848,-1.599,-0.3799
150171.0,-0.4214,-2.1739,5.6048,-1.8858,-1.5016,-0.5087
150181.0,0.0335,-2.6576,5.4396,-1.8118,-1.3484,-0.6604
150191.0,0.3998,-2.6097,5.0829,-1.6272,-1.1882,-0.8232
150201.0,0.6369,-2.0973,4.4556,-1.4255,-1.0403,-0.9716
150211.0,0.6847,-1.2378,3.5123,-1.2968,-0.8732,-1.0866
150221.0,0.4501,-0.4836,2.9449,-1.3223,-0.6662,-1.1595
150231.0,0.146,0.2993,2.6552,-1.4335,-0.4571,-1.1941
150241.0,0.0359,0.9266,2.7557,-1.5548,-0.2517,-1.1824
150251.0,0.079,1.2953,3.1125,-1.5559,0.0037,-1.1036
150261.0,-0.0455,1.336,4.0366,-1.3713,0.306,-0.9764
150271.0,-0.0096,1.2665,5.1619,-0.9892,0.5805,-0.8232
150281.0,0.067,1.3264,6.0885,-0.4347,0.8141,-0.6588
150291.0,0.0263,1.4748,6.8019,0.2373,1.0541,-0.4842
150301.0,0.012,1.6975,7.4867,0.9328,1.3026,-0.3081
150311.0,-0.1628,2.138,7.9487,1.5075,1.5006,-0.1442
150321.0,-0.4477,2.5474,8.272,1.815,1.6315,-0.0011
150331.0,-0.7685,2.7366,8.7819,1.8321,1.7256,0.1133
150341.0,-1.1157,2.7054,9.8904,1.5905,1.7602,0.1942
150351.0,-1.4222,2.569,11.0612,1.209,1.7054,0.2474
150361.0,-1.6975,2.1021,12.4283,0.7583,1.5649,0.282
150371.0,-2.0375,1.4605,13.5632,0.3762,1.3564,0.3049
150381.0,-2.1787,0.6823,14.5352,0.1368,1.1307,0.3108
150391.0,-2.3056,0.1077,15.0069,0.0761,0.8945,0.2932
150401.0,-2.2841,-0.2322,15.0763,0.0926,0.6604,0.2485
150411.0,-2.1835,-0.2945,14.7172,0.1192,0.4523,0.183
150421.0,-2.1715,-0.1604,14.2407,0.0905,0.2804,0.1043
150431.0,-2.308,0.0048,13.7379,-0.017,0.1096,0.0234
150441.0,-1.7286,-0.079,13.4051,-0.1607,-0.0575,-0.0527
150451.0,-1.6041,0.0646,13.0771,-0.183,-0.0905,-0.1117
150461.0,-1.664,0.3974,13.0173,-0.1681,-0.0979,-0.1586
150471.0,-1.7095,0.6656,12.8138,-0.1634,-0.1628,-0.1788
150481.0,-1.6472,0.7063,12.4834,-0.1857,-0.2453,-0.1815
150491.0,-1.3431,0.5363,12.0668,-0.215,-0.3038,-0.183
150501.0,-1.0702,0.2993,11.8465,-0.257,-0.3214,-0.1979
150511.0,-0.9601,0.2131,11.6789,-0.2943,-0.3379,-0.2277
150521.0,-0.929,0.2777,11.6981,-0.3134,-0.3661,-0.2655
150531.0,-0.8308,0.5052,11.5472,-0.2655,-0.3831,-0.2932
150541.0,-0.8021,0.8619,11.3868,-0.1644,-0.3741,-0.2964
150551.0,-0.8308,1.257,11.1809,-0.066,-0.3704,-0.2756
150561.0,-0.9433,1.4748,10.9152,0.0005,-0.3725,-0.2309
150571.0,-0.9625,1.6233,10.6614,0.0362,-0.3757,-0.1783
150581.0,-0.7901,1.6041,10.3358,0.0607,-0.3416,-0.1213
150591.0,-0.7159,1.5347,9.9383,0.0133,-0.3017,-0.0713
150601.0,-0.6656,1.2737,9.8593,-0.1453,-0.2692,-0.0426
150611.0,-0.7542,0.9912,9.9359,-0.3251,-0.2293,-0.0346
150621.0,-0.7901,0.5626,10.3932,-0.4986,-0.207,-0.0399
150631.0,-0.8092,0.0934,10.8433,-0.5976,-0.2224,-0.058
150641.0,-0.7446,-0.1077,11.1929,-0.597,-0.2671,-0.0894
150651.0,-0.7063,-0.0958,11.2551,-0.5167,-0.3235,-0.1165
150661.0,-0.6656,0.0215,11.2887,-0.414,-0.3837,-0.1373
150671.0,-0.5986,0.407,11.1211,-0.2868,-0.448,-0.1469
150681.0,-0.6369,0.8164,10.8194,-0.1634,-0.4879,-0.1314
150691.0,-0.5914,1.1612,10.5177,-0.0596,-0.5114,-0.0958
150701.0,-0.4166,1.4317,10.2376,0.0059,-0.5252,-0.0415
150711.0,-0.2059,1.6137,9.8737,0.0383,-0.5151,0.0229
150721.0,-0.0934,1.7238,9.5936,0.0282,-0.481,0.0899
150731.0,-0.0646,1.8172,9.5553,-0.0149,-0.4278,0.157
150741.0,-0.1293,1.9082,9.4619,-0.0702,-0.3799,0.2251
150751.0,-0.2729,1.9441,9.4906,-0.1272,-0.3437,0.2927
150761.0,-0.4932,1.889,9.7037,-0.1261,-0.2831,0.3682
150771.0,-0.826,1.6352,10.0149,-0.0362,-0.1948,0.455
150781.0,-0.9912,1.1971,10.3046,0.1048,-0.1399,0.538
150791.0,-1.0127,0.5195,10.5105,0.2325,-0.1043,0.596
150801.0,-0.7757,-0.1532,10.8338,0.3235,-0.0596,0.6039
150811.0,-0.7877,-0.4908,11.3485,0.3672,-0.0069,0.5545
150821.0,-0.8404,-0.3926,12.0117,0.3826,0.0074,0.4757
150831.0,-1.0247,-0.1221,12.6294,0.3884,-0.0149,0.4001
150841.0,-1.2689,0.1963,13.2112,0.3437,-0.0952,0.3363
150851.0,-1.2474,0.486,13.5847,0.2565,-0.2448,0.2783
150861.0,-1.142,0.8212,13.7523,0.1378,-0.4299,0.2309
150871.0,-1.1181,1.1396,13.7547,-0.0021,-0.6279,0.1979
150881.0,-1.1349,1.4485,13.6039,-0.1501,-0.8349,0.1873
150891.0,-0.984,1.5443,13.3142,-0.282,-1.036,0.207
150901.0,-0.6345,1.3815,12.9143,-0.3618,-1.2026,0.248
150911.0,-0.2083,1.008,12.3565,-0.3959,-1.3335,0.2948
150921.0,0.1532,0.5818,11.825,-0.414,-1.4298,0.3352
150931.0,0.4405,0.1748,11.1713,-0.4459,-1.5096,0.3523
150941.0,0.7398,-0.1604,10.5943,-0.5257,-1.608,0.3437
150951.0,0.9697,-0.4788,10.0317,-0.6359,-1.7033,0.3161
150961.0,1.257,-0.7398,9.7468,-0.6992,-1.7512,0.2815
150971.0,1.4892,-0.8882,9.9455,-0.6604,-1.757,0.2501
150981.0,1.5347,-0.8356,10.307,-0.5183,-1.8166,0.2304
150991.0,1.5203,-0.5866,10.0389,-0.299,-2.0039,0.24
151001.0,1.6472,-0.2873,8.7604,-0.0553,-2.2764,0.2841
151011.0,1.9872,-0.1006,6.7971,0.1628,-2.4706,0.3533
151021.0,2.6887,0.0742,4.877,0.2873,-2.5243,0.4257
151031.0,3.2226,0.4046,3.5578,0.3001,-2.453,0.4911
151041.0,2.8587,0.9409,2.0255,0.1091,-2.4339,0.5731
151051.0,1.4245,1.0534,0.079,-0.5225,-2.6845,0.6492
151061.0,0.0934,0.8092,-3.5123,-1.4649,-3.1714,0.712
151071.0,0.2873,-0.0814,-8.4036,-2.5685,-3.5896,0.7646
151081.0,0.9577,-0.5363,-13.2351,-3.7365,-3.6545,0.7338
151091.0,0.9936,-1.6137,-17.7961,-4.9258,-3.2805,0.6864
151101.0,2.3655,-2.9473,-21.9213,-6.4503,-3.0001,0.3352
151111.0,3.3016,0.4693,-27.1718,-7.2362,-1.9614,-0.041
151121.0,2.6408,3.7637,-27.0042,-7.2867,-0.1623,0.0782
151131.0,-3.6727,7.5226,-25.4192,-5.8862,2.2657,0.6731
151141.0,-4.8554,9.6343,-22.0482,-3.7615,4.2495,1.4537
151151.0,-9.7923,10.7931,-17.3699,-0.8157,6.6722,2.3466
151161.0,-14.5496,9.809,-10.4746,2.0188,8.7245,3.1325
151171.0,-18.5311,8.1786,-3.5123,4.6315,10.3437,3.6625
151181.0,-21.9668,6.9432,1.8076,7.3102,11.8778,3.9217
151191.0,-24.2126,7.6088,2.3176,9.6653,13.2432,3.8466
151201.0,-27.4806,7.8051,10.6901,10.8881,14.9848,3.3417
151211.0,-36.1884,17.0467,16.69,10.3826,15.3749,2.5031
151221.0,-37.395,17.3819,27.7919,5.941,13.2666,1.8677
151231.0,-33.3201,10.4579,37.9337,1.0515,11.0914,1.5564
151241.0,-29.5301,1.166,51.9901,-2.8175,8.9331,1.2079
151251.0,-27.7775,-4.3934,59.1488,-4.615,5.9171,0.977
151261.0,-26.092,-6.6726,57.8008,-4.5682,2.5286,0.8594
151271.0,-24.6938,-4.0582,49.141,-3.2501,-0.2863,0.7721
151281.0,-23.796,-2.4924,41.9727,-1.6974,-2.0151,0.8402
151291.0,-22.2182,-0.4836,32.6689,-0.0628,-3.074,1.0222
151301.0,-19.8168,-2.0303,28.0098,1.0504,-3.421,1.2819
151311.0,-14.6693,-3.8235,21.7777,1.9763,-3.5098,1.516
151321.0,-10.7141,-5.7964,18.4808,2.0401,-3.4241,1.4729
151331.0,-7.8243,-6.2249,14.4777,1.64,-3.2938,1.2207
151341.0,-6.4045,-6.3829,13.2615,0.5944,-3.1799,0.7907
151351.0,-5.5043,-5.9304,12.469,-0.4315,-3.1522,0.3533
151361.0,-5.4372,-5.5354,12.9981,-1.0504,-3.0533,0.008
151371.0,-5.0781,-4.8937,12.9119,-1.0552,-2.9777,-0.1767
151381.0,-4.9943,-4.1755,12.627,-0.6492,-2.8968,-0.2533
151391.0,-4.5155,-3.4836,11.9016,-0.0686,-2.8495,-0.2677
151401.0,-4.2377,-2.7988,11.5544,0.6247,-2.6994,-0.2559
151411.0,-4.2856,-1.8938,11.3677,1.3356,-2.5483,-0.2277
151421.0,-4.312,-1.0271,11.0564,1.9209,-2.5068,-0.1894
151431.0,-4.4724,-0.1915,10.6039,2.3328,-2.5238,-0.1559
151441.0,-4.3766,0.6225,9.9431,2.5494,-2.5994,-0.133
151451.0,-4.2473,1.4844,8.8873,2.5451,-2.7265,-0.1352
151461.0,-3.8858,2.3343,7.2065,2.2652,-2.8707,-0.1681
151471.0,-3.5578,3.0095,5.8969,1.7193,-2.9224,-0.2448
151481.0,-3.1053,3.7134,4.5011,1.0217,-2.9112,-0.3544
151491.0,-2.7964,4.1659,3.6176,0.2581,-2.8021,-0.4677
151501.0,-2.4972,4.4843,3.0574,-0.4464,-2.6185,-0.5667
151511.0,-2.1644,4.6112,3.1532,-0.9972,-2.3573,-0.638
151521.0,-2.0853,4.7621,3.6248,-1.3313,-2.0657,-0.6721
151531.0,-1.992,4.8339,4.2737,-1.4628,-1.823,-0.6588
151541.0,-1.9058,4.853,4.7645,-1.4011,-1.6331,-0.589
151551.0,-1.798,4.6352,5.2361,-1.2175,-1.4777,-0.4832
151561.0,-1.4988,4.312,5.6934,-0.9041,-1.317,-0.3549
151571.0,-1.1803,3.8906,6.019,-0.5076,-1.1595,-0.2155
151581.0,-0.7757,3.3447,6.3375,-0.107,-1.0318,-0.0819
151591.0,-0.3232,2.8587,6.4763,0.2751,-0.9259,0.0271
151601.0,-0.1101,2.5187,6.2896,0.5779,-0.8391,0.1032
151611.0,0.17,2.2122,5.7964,0.7529,-0.7551,0.1522
151621.0,0.6752,1.9106,5.2888,0.7753,-0.6252,0.1623
151631.0,1.0582,1.6927,5.138,0.63,-0.4406,0.1314
151641.0,1.1995,1.4988,5.5402,0.3698,-0.2357,0.066
151651.0,1.1181,1.4868,6.5577,0.0777,-0.0532,-0.0181
151661.0,0.929,1.5969,7.5465,-0.165,0.0298,-0.0921
151671.0,0.6416,1.6855,8.5305,-0.3171,0.0458,-0.1437
151681.0,0.5555,1.8028,9.3015,-0.3038,0.0559,-0.1607
151691.0,0.5171,1.9441,9.8952,-0.1671,0.0543,-0.1463
151701.0,0.5267,2.1787,10.0173,-0.008,0.0128,-0.1176
151711.0,0.577,2.478,9.8474,0.0979,-0.0325,-0.0851
151721.0,0.498,2.7102,9.7229,0.1091,-0.0543,-0.0458
151731.0,0.431,2.5881,9.7683,0.0202,-0.0809,-0.0096
151741.0,0.5243,2.3894,9.9216,-0.0942,-0.1229,0.0138
151751.0,0.6991,2.2362,9.8617,-0.1889,-0.1767,0.0245
151761.0,0.6369,2.0638,9.7061,-0.2474,-0.1894,0.0335
151771.0,0.6369,1.7669,9.9,-0.2639,-0.1506,0.0362
151781.0,0.7422,1.5945,9.9838,-0.241,-0.1192,0.0357
151791.0,0.8499,1.4437,10.0916,-0.2421,-0.1282,0.0202
151801.0,0.9194,1.3767,10.1107,-0.2208,-0.1293,0.0043
151811.0,0.8643,1.3001,10.2137,-0.1788,-0.1086,-0.008
151821.0,0.8906,1.3264,10.4124,-0.1288,-0.1101,-0.0213
151831.0,0.8691,1.4317,10.3789,-0.0782,-0.1383,-0.0303
151841.0,0.8978,1.4389,10.3789,-0.0617,-0.1676,-0.0362
151851.0,0.8811,1.4485,10.331,-0.0564,-0.199,-0.0442
151861.0,0.9625,1.3647,10.3262,-0.0788,-0.2426,-0.0548
151871.0,1.0534,1.3527,10.1059,-0.0963,-0.2841,-0.0692
151881.0,1.0487,1.415,9.9168,-0.1091,-0.3012,-0.0894
151891.0,1.063,1.4341,9.7492,-0.1128,-0.2868,-0.1038
151901.0,1.1396,1.3791,9.4906,-0.1208,-0.2714,-0.1203
151911.0,1.2282,1.3479,9.2536,-0.1628,-0.2559,-0.1447
151921.0,1.3168,1.3791,9.0453,-0.2176,-0.2224,-0.1777
151931.0,1.3431,1.5467,9.0046,-0.274,-0.1729,-0.2065
151941.0,1.3264,1.7837,8.9998,-0.3283,-0.1394,-0.2219
151951.0,1.2953,2.0662,9.0788,-0.3666,-0.1235,-0.2187
151961.0,1.2929,2.3032,9.1004,-0.3533,-0.1038,-0.1873
151971.0,1.2713,2.3391,9.153,-0.2895,-0.0708,-0.1272
151981.0,1.2354,2.2553,9.1291,-0.1596,-0.0261,-0.0516
151991.0,1.3144,2.1284,9.0453,-0.0154,0.041,0.0186
152001.0,1.4317,1.8818,8.9352,0.0894,0.1096,0.0697
152011.0,1.47,1.5586,9.0022,0.1256,0.1799,0.0926
152021.0,1.5107,1.221,9.2177,0.125,0.2613,0.0819
152031.0,1.5251,1.0104,9.5696,0.0889,0.3198,0.0415
152041.0,1.5347,0.9577,9.8881,0.0144,0.3246,-0.016
152051.0,1.4533,1.0415,10.003,-0.083,0.3049,-0.0841
152061.0,1.3575,1.2282,10.0533,-0.1862,0.2959,-0.1479
152071.0,1.2258,1.4126,10.2544,-0.3001,0.2889,-0.2001
152081.0,1.0989,1.5012,10.4148,-0.3986,0.2671,-0.2384
152091.0,1.0319,1.5897,10.5489,-0.4486,0.2405,-0.2629
152101.0,0.9936,1.6712,10.6279,-0.4544,0.2214,-0.2783
152111.0,1.0175,1.8076,10.6997,-0.4108,0.2182,-0.2852
152121.0,0.9744,1.9848,10.75,-0.3501,0.216,-0.2815
152131.0,0.9481,2.1548,10.6997,-0.3028,0.2065,-0.2719
152141.0,0.9337,2.3032,10.8242,-0.2666,0.2182,-0.2543
152151.0,0.9553,2.4038,10.9583,-0.2293,0.2432,-0.2283
152161.0,0.8954,2.4517,11.3174,-0.1953,0.257,-0.1969
152171.0,0.7829,2.5642,11.5089,-0.1777,0.2384,-0.1687
152181.0,0.6704,2.6193,11.7483,-0.1783,0.1979,-0.1383
152191.0,0.5962,2.6193,11.959,-0.174,0.1596,-0.1038
152201.0,0.5004,2.6145,12.1171,-0.1676,0.1224,-0.0734
152211.0,0.395,2.7031,12.287,-0.1596,0.0835,-0.0484
152221.0,0.395,2.9401,12.3373,-0.1607,0.0484,-0.0234
152231.0,0.3831,3.2058,12.4451,-0.2118,0.0085,0.0069
152241.0,0.3232,3.4046,12.4977,-0.3267,-0.0335,0.0452
152251.0,0.3831,3.2657,12.8545,-0.4922,-0.0729,0.0947
152261.0,0.4741,2.9449,13.2208,-0.6577,-0.141,0.1437
152271.0,0.5148,2.5115,13.623,-0.8189,-0.2623,0.182
152281.0,0.328,1.9728,13.9845,-0.9206,-0.4097,0.2134
152291.0,0.316,1.2641,14.4251,-0.9073,-0.5545,0.2395
152301.0,0.6345,0.7207,14.6262,-0.779,-0.705,0.2496
152311.0,0.8739,0.4836,14.3006,-0.6832,-0.9397,0.2293
152321.0,1.0582,0.3448,13.4506,-0.6896,-1.2132,0.1857
152331.0,1.1803,0.4286,12.4666,-0.7928,-1.4442,0.1219
152341.0,1.3958,0.4932,11.5401,-0.978,-1.6559,0.049
152351.0,1.6305,0.5674,10.6231,-1.1738,-1.8512,-0.0223
152361.0,1.8579,0.7135,9.9096,-1.3063,-1.9986,-0.0841
152371.0,1.8387,0.9649,9.6774,-1.3516,-2.0997,-0.1288
152381.0,1.087,1.6328,9.2081,-1.3473,-2.3035,-0.1495
152391.0,0.2298,2.8898,6.778,-1.4649,-2.7867,-0.1463
152401.0,-0.7733,4.7525,0.9673,-2.0987,-3.5939,-0.1336
152411.0,-2.229,5.7724,-4.786,-3.3465,-4.2606,-0.0968
152421.0,-5.0111,6.5601,-10.1131,-4.8028,-4.5645,-0.0059
152431.0,-6.8354,6.6798,-13.1394,-6.3407,-4.6565,0.1703
152441.0,-3.4548,4.8674,-18.2606,-7.763,-4.9359,0.3837
152451.0,-0.7135,5.3271,-25.8981,-7.978,-4.2665,0.5997
152461.0,2.2936,4.1372,-31.5388,-7.2495,-2.9974,0.9339
152471.0,1.0989,7.1036,-36.9784,-4.8018,-0.2091,1.4154
152481.0,-2.7653,7.6351,-35.597,-1.9417,2.7989,2.0109
152491.0,-6.5266,7.003,-30.9307,1.2845,5.692,2.5706
152501.0,-11.5808,4.4101,-21.1025,4.1106,8.3371,2.9357
152511.0,-15.2535,2.478,-12.7443,6.6738,10.248,2.9745
152521.0,-18.3204,1.0582,-2.2505,9.0347,11.8209,2.6121
152531.0,-18.8496,2.2458,3.2274,11.8688,13.1097,2.0103
152541.0,-22.0985,7.4268,4.719,14.2894,14.3282,1.1685
152551.0,-31.6849,22.8455,5.8706,14.6368,15.2775,0.1543
152561.0,-38.6568,36.399,8.9663,9.6461,14.5336,-0.3767
152571.0,-36.5906,20.8798,34.6297,-0.0452,11.8986,-0.505
152581.0,-34.6321,8.5976,46.4044,-4.9103,9.8015,-0.2192
152591.0,-35.6736,-2.3607,62.266,-6.2502,8.2201,0.0208
152601.0,-31.2252,-6.3063,64.0593,-5.3541,4.7177,0.1277
152611.0,-26.9779,-7.9104,60.1783,-3.124,1.5947,0.224
152621.0,-21.8974,-5.2026,49.5815,-0.124,-0.3911,0.3145
152631.0,-19.563,-2.6767,41.0917,1.5735,-1.7384,0.2927
152641.0,-16.745,-0.2658,32.0177,1.9353,-3.0485,0.2033
152651.0,-13.4961,-0.1293,25.3666,1.4378,-3.8301,0.0974
152661.0,-10.7691,-0.1556,19.7258,0.8753,-4.0222,0.0005
152671.0,-8.6263,-0.5938,16.1561,0.1942,-3.9967,-0.0968
152681.0,-7.0605,-0.8212,13.0149,-0.2469,-3.8232,-0.1804
152691.0,-5.7245,-0.9744,10.5082,-0.5529,-3.5689,-0.2623
152701.0,-4.8866,-1.0295,8.9711,-0.6694,-3.1762,-0.3272
152711.0,-4.1731,-1.0678,8.1786,-0.6768,-2.7712,-0.3916
152721.0,-3.5123,-0.8547,7.8697,-0.596,-2.3785,-0.4587
152731.0,-3.6248,-0.3759,8.0948,-0.4566,-1.9997,-0.514
152741.0,-4.027,0.1963,8.7652,-0.3092,-1.7256,-0.5513
152751.0,-4.446,0.8021,9.5912,-0.1229,-1.5676,-0.5561
152761.0,-5.1906,1.233,10.4387,0.0793,-1.5139,-0.5396
152771.0,-5.679,1.7957,11.3533,0.3565,-1.5351,-0.5055
152781.0,-6.0214,2.3631,12.0285,0.7242,-1.6096,-0.4299
152791.0,-6.2656,2.8276,12.2392,1.0669,-1.7906,-0.3182
152801.0,-6.292,3.2801,11.7148,1.2595,-2.071,-0.2128
152811.0,-6.1531,3.541,10.9846,1.2606,-2.3679,-0.1261
152821.0,-6.0597,3.6248,10.3717,1.1935,-2.5919,-0.0484
152831.0,-5.7533,3.699,9.9359,1.1691,-2.709,0.0239
152841.0,-5.4995,3.9528,9.9862,1.2233,-2.7361,0.1022
152851.0,-5.0757,4.4508,9.5409,1.3383,-2.7776,0.2102
152861.0,-4.8914,4.5562,9.165,1.3606,-2.8255,0.3374
152871.0,-4.2641,4.5322,8.0469,1.284,-2.8931,0.4587
152881.0,-3.6272,4.0654,7.288,1.027,-2.9192,0.5374
152891.0,-2.8204,3.6703,6.5745,0.7247,-2.892,0.5731
152901.0,-2.1691,3.2034,6.2656,0.4645,-2.7734,0.5805
152911.0,-1.4317,2.9736,5.9472,0.3006,-2.6111,0.5752
152921.0,-0.929,2.7438,5.7221,0.1666,-2.4323,0.5635
152931.0,-0.5387,2.5355,5.5426,0.0692,-2.2476,0.5497
152941.0,-0.0838,2.4205,5.4731,0.025,-2.0524,0.5326
152951.0,0.4597,2.3727,5.2672,0.0239,-1.8544,0.5231
152961.0,0.8811,2.2027,4.9895,0.0096,-1.6591,0.5172
152971.0,1.3408,2.047,4.8052,-0.0011,-1.4372,0.5098
152981.0,1.7166,1.9106,4.8411,-0.008,-1.1925,0.4991
152991.0,2.0375,1.7837,5.0901,-0.0165,-0.9716,0.4821
153001.0,2.0877,1.81,5.272,0.0021,-0.7758,0.4619
153011.0,1.9489,1.8986,5.5857,0.0537,-0.58,0.4401
153021.0,1.7621,2.0853,5.8682,0.158,-0.3719,0.4299
153031.0,1.5969,2.0087,6.4787,0.2528,-0.1857,0.4278
153041.0,1.5275,1.9752,7.0557,0.3672,-0.0346,0.4172
153051.0,1.6424,1.9704,7.5585,0.4826,0.0963,0.3948
153061.0,1.7645,2.2075,7.829,0.538,0.199,0.3586
153071.0,1.7693,2.636,8.2121,0.448,0.2496,0.3102
153081.0,1.5562,3.1651,8.4851,0.2405,0.2671,0.2682
153091.0,1.1827,3.4979,9.0022,-0.0623,0.2485,0.2442
153101.0,1.008,3.541,9.4236,-0.3943,0.1671,0.2421
153111.0,0.9625,3.2322,9.7324,-0.6816,0.05,0.2549
