time_ms,ax,ay,az,gx,gy,gz
2640251.0,-2.3367,0.8811,10.4411,0.207,-0.0378,0.3235
2640261.0,-2.3391,0.8906,10.805,0.2112,-0.0452,0.3262
2640271.0,-2.3248,0.9146,10.8146,0.2661,-0.1048,0.3209
2640281.0,-2.1332,1.0822,10.5704,0.3342,-0.1479,0.3246
2640291.0,-2.047,1.1947,10.4363,0.4119,-0.1293,0.3368
2640301.0,-2.0806,1.2713,10.343,0.4677,-0.1032,0.3491
2640311.0,-2.1931,1.257,10.1442,0.4331,-0.1117,0.3581
2640321.0,-2.0423,1.1372,9.9168,0.2911,-0.1485,0.3544
2640331.0,-1.9417,1.0223,9.9623,0.0921,-0.1793,0.3368
2640341.0,-1.901,0.7518,10.2735,-0.0756,-0.1628,0.3304
2640351.0,-1.81,0.261,10.9343,-0.1724,-0.1628,0.3283
2640361.0,-1.5443,-0.3903,11.5975,-0.1469,-0.1862,0.3022
2640371.0,-1.4269,-0.7997,12.0069,-0.0074,-0.2363,0.224
2640381.0,-1.4772,-0.826,12.0309,0.1666,-0.332,0.1048
2640391.0,-1.4198,-0.498,11.6957,0.3539,-0.4512,-0.0192
2640401.0,-1.4078,-0.2155,11.0277,0.5284,-0.5385,-0.1219
2640411.0,-1.3264,0.3663,10.2232,0.7146,-0.5497,-0.2081
2640421.0,-1.2474,0.9266,9.6702,0.8567,-0.4885,-0.2708
2640431.0,-1.1181,1.4126,9.153,0.9402,-0.4039,-0.307
2640441.0,-0.9768,1.1971,8.9304,0.9445,-0.2889,-0.3406
2640451.0,-1.0965,1.4293,8.8609,0.8987,-0.1591,-0.3991
2640461.0,-1.2067,1.6855,9.2799,0.7662,-0.0585,-0.4629
2640471.0,-1.0846,1.7741,9.8713,0.5965,-0.0106,-0.5103
2640481.0,-1.2282,1.9058,10.3693,0.4502,-0.0213,-0.5694
2640491.0,-1.2378,2.047,10.4315,0.2996,-0.1165,-0.63
2640501.0,-1.312,2.3487,10.0245,0.1527,-0.2203,-0.6742
2640511.0,-1.4174,2.5091,9.7348,0.0325,-0.2458,-0.6843
2640521.0,-1.3336,2.7031,9.6007,-0.0527,-0.2235,-0.663
2640531.0,-1.1851,2.6264,9.6869,-0.1171,-0.1884,-0.6087
2640541.0,-0.8906,2.3224,9.9479,-0.1288,-0.1623,-0.5619
2640551.0,-0.0503,1.8531,10.5249,-0.0277,-0.0915,-0.5374
2640561.0,-1.7047,1.5634,11.1091,0.124,-0.0521,-0.5295
2640571.0,-1.664,1.4916,10.6805,0.2879,-0.1804,-0.5912
2640581.0,-1.3599,2.1021,10.2783,0.4177,-0.2405,-0.6758
2640591.0,-1.1564,2.8371,9.6007,0.5076,-0.2389,-0.7056
2640601.0,-1.5658,3.0837,9.481,0.5135,-0.1692,-0.6694
2640611.0,-1.64,3.3136,9.3901,0.48,-0.1288,-0.6103
2640621.0,-1.47,3.1627,9.8162,0.4188,-0.091,-0.5257
2640631.0,-1.0846,2.66,10.0173,0.4129,-0.0798,-0.4417
2640641.0,-0.9218,2.4756,10.0676,0.4252,-0.0984,-0.4342
2640651.0,-0.929,2.7869,9.4044,0.4757,-0.1101,-0.48
2640661.0,-0.9385,3.201,8.7532,0.4108,-0.1224,-0.513
2640671.0,-1.6999,3.6536,7.8721,0.2692,-0.0734,-0.4715
2640681.0,-1.2258,2.2889,8.5665,0.067,0.0756,-0.331
2640691.0,0.8595,1.4269,10.398,-0.0192,0.1495,-0.3182
2640701.0,-2.4253,1.0343,15.7945,0.6971,0.7199,-0.4597
2640711.0,-1.8028,4.3598,10.5249,1.325,0.1815,-0.53
2640721.0,-1.5203,3.1005,12.639,1.0935,-0.0819,-0.4358
2640731.0,-1.2163,4.9991,8.7149,1.5282,-0.0016,-0.2395
2640741.0,-1.4868,2.8276,11.1929,1.3399,0.2022,-0.0793
2640751.0,-1.6209,2.5953,9.4523,1.3228,0.1735,0.0112
2640761.0,-1.2306,2.1859,8.7005,0.6455,-0.1442,-0.0495
2640771.0,-0.2514,3.0287,6.0525,-0.0819,-0.306,-0.1352
2640781.0,-0.249,3.055,6.3135,-0.903,-0.1399,-0.2304
2640791.0,-0.5291,3.4285,7.1204,-1.3936,0.1288,-0.2826
2640801.0,-0.8116,2.9137,8.9016,-1.7044,0.2363,-0.2852
2640811.0,-1.1684,2.6432,9.5026,-1.6953,0.2384,-0.2496
2640821.0,-1.2617,2.2003,9.414,-1.5506,0.1873,-0.1932
2640832.0,-1.4772,2.0877,9.0908,-1.3149,0.2405,-0.1298
2640841.0,-1.5299,2.2122,9.0166,-1.0733,0.373,-0.0521
2640851.0,-1.5993,2.0183,10.0293,-0.8344,0.5342,0.025
2640861.0,-1.6544,1.9369,10.8481,-0.5289,0.5997,0.0942
2640871.0,-1.8387,1.8531,11.6047,-0.2304,0.5656,0.1479
2640881.0,-1.7933,2.2697,11.2144,0.0692,0.4693,0.1953
2640891.0,-1.6209,2.3535,10.7284,0.1985,0.397,0.2389
2640901.0,-1.7095,2.6887,10.2232,0.1756,0.3672,0.2629
2640911.0,-1.7957,2.976,10.2639,-0.0032,0.3725,0.2964
2640921.0,-1.5874,2.5019,11.3126,-0.2187,0.3709,0.3267
2640931.0,-1.7549,2.2936,11.9255,-0.2905,0.3129,0.3272
2640941.0,-1.8842,2.4421,11.8776,-0.3507,0.1389,0.306
2640951.0,-1.4341,2.5666,11.1163,-0.3773,-0.0069,0.3038
2640961.0,-1.3503,2.6456,10.5129,-0.4491,-0.0692,0.2863
2640971.0,-1.3288,2.7581,10.1011,-0.5741,-0.1027,0.257
2640981.0,-1.1229,3.0287,9.9455,-0.7109,-0.1101,0.2246
2640991.0,-1.3216,3.3543,9.7252,-0.8897,-0.1165,0.2389
2641001.0,-1.549,3.5075,10.0556,-1.1275,-0.1394,0.3134
2641011.0,-1.4365,3.1556,10.252,-1.2686,-0.1772,0.4305
2641021.0,-1.3743,2.7485,10.4339,-1.2744,-0.2309,0.5412
2641031.0,-1.1492,2.715,9.5936,-1.1387,-0.2985,0.6247
2641041.0,-0.8475,2.5331,8.6981,-1.0323,-0.3108,0.7013
2641051.0,-0.8619,2.3583,7.8913,-0.9557,-0.1958,0.7865
2641061.0,-1.2641,1.834,8.3031,-0.9397,-0.0011,0.8626
2641071.0,-1.6376,1.4892,8.734,-0.903,0.1235,0.911
2641081.0,-1.312,1.3479,9.4571,-0.8466,0.183,0.9275
2641091.0,-4.446,2.964,8.2624,-0.7364,0.2496,0.9248
2641101.0,0.2562,2.4541,8.1259,-1.1377,0.0394,0.945
2641111.0,0.3567,1.798,8.7556,-1.3,0.2666,0.9929
2641121.0,-2.1308,1.6233,9.9024,-1.3617,0.5199,1.0589
2641131.0,-2.4684,1.743,10.9056,-1.4628,0.364,1.1393
2641141.0,-2.1189,1.2881,10.6398,-1.4692,0.0862,1.2372
2641151.0,-1.9058,-0.4453,9.3733,-1.2558,-0.0287,1.3723
2641161.0,-0.7207,-3.3375,8.2911,-1.035,0.2959,1.4442
2641171.0,-1.4341,-5.296,12.6965,-1.4958,0.4358,1.2047
2641181.0,-1.0965,-4.9105,13.7451,-1.4234,0.2804,0.919
2641191.0,-2.5139,-4.6304,16.3787,-1.2733,0.0261,0.6657
2641201.0,-2.1955,-0.7733,13.2016,-0.6146,-0.4693,0.5646
2641211.0,-1.2761,-0.8595,11.9351,0.0357,-0.5795,0.6625
2641221.0,-0.328,-0.51,9.3781,0.8604,-0.3501,0.8131
2641231.0,-0.0144,-2.1213,10.0173,1.2036,-0.0835,0.8125
2641241.0,-0.5746,-1.482,8.6287,1.235,-0.0883,0.6449
2641251.0,-0.893,-1.0582,8.2815,0.7652,-0.1687,0.4337
2641261.0,-1.0463,0.0455,7.7045,0.3608,-0.1149,0.2884
2641271.0,-1.087,0.0599,9.5816,0.1724,0.1868,0.2868
2641281.0,-1.2354,-0.7063,11.904,0.3038,0.4177,0.356
2641291.0,-1.2115,-1.6903,13.6661,0.4454,0.2607,0.3602
2641301.0,-0.3208,-2.4038,13.4003,0.596,-0.1932,0.2538
2641311.0,0.7326,-1.9249,12.1745,0.8157,-0.4837,0.05
2641321.0,0.0407,-0.577,9.1937,1.2712,-0.514,-0.1176
2641331.0,-0.7781,0.1844,7.0605,1.3329,-0.3842,-0.2038
2641341.0,-0.5339,0.9601,4.549,1.0217,-0.1288,-0.2261
2641351.0,-0.2227,0.0814,6.0286,0.2927,0.2879,-0.2474
2641361.0,0.0431,-0.486,7.9392,-0.2091,0.6141,-0.2575
2641371.0,-0.2801,-1.2905,10.8864,-0.3688,0.8274,-0.2751
2641381.0,-0.3136,-1.6161,11.959,-0.1474,0.8673,-0.2932
2641391.0,-0.0455,-1.6664,12.1482,0.0037,0.7492,-0.3528
2641401.0,-0.3639,-0.3879,10.2017,-0.0442,0.5976,-0.4161
2641411.0,-0.644,0.6416,9.0405,-0.513,0.6024,-0.4278
2641421.0,-1.2785,1.1875,9.7827,-1.0706,0.903,-0.356
2641431.0,-2.2266,0.1915,13.5248,-1.5213,1.2978,-0.2022
2641441.0,-2.7533,-1.2091,17.1545,-1.7065,1.2717,-0.0436
2641451.0,-3.0622,-2.7366,19.6301,-1.5873,0.8705,0.0947
2641461.0,-2.8467,-4.0175,19.6755,-1.0339,0.3906,0.2272
2641471.0,-2.047,-4.5562,18.5575,-0.2033,0.0575,0.2868
2641481.0,-1.3192,-4.0606,15.7395,0.7061,-0.0176,0.2543
2641491.0,-1.4629,-2.9377,13.5679,1.1754,0.141,0.1501
2641501.0,-1.9369,-1.47,12.56,1.0759,0.4065,0.0277
2641511.0,-2.6815,-1.2402,14.267,0.4741,0.6598,-0.1022
2641521.0,-3.4453,-1.8603,17.0587,-0.3001,0.6832,-0.2581
2641531.0,-3.9648,-2.4756,19.5965,-1.0126,0.3751,-0.464
2641541.0,-4.3646,-2.6288,20.7218,-1.5165,-0.1639,-0.6864
2641551.0,-4.4101,-2.4493,20.5662,-1.7075,-0.738,-0.8785
2641561.0,-4.3263,-1.6472,19.2661,-1.5288,-1.1584,-1.0318
2641571.0,-4.3862,-0.1963,17.279,-1.1297,-1.3393,-1.135
2641581.0,-4.7357,1.3623,15.943,-0.8769,-1.3659,-1.1893
2641591.0,-5.1475,2.5259,16.0675,-0.887,-1.4239,-1.184
2641601.0,-5.5665,3.0742,16.7762,-0.9589,-1.6373,-1.1206
2641611.0,-5.6886,3.3399,16.429,-0.9371,-2.0609,-1.0174
2641621.0,-5.3032,3.237,14.5208,-0.8062,-2.5462,-0.8934
2641631.0,-4.5059,3.0382,11.3844,-0.704,-2.9389,-0.7865
2641641.0,-3.4429,3.2322,8.4156,-0.7471,-3.1187,-0.7279
2641651.0,-2.8946,3.6392,6.6942,-0.8258,-3.0543,-0.6726
2641661.0,-2.3942,3.4884,5.7509,-0.7982,-2.9543,-0.5736
2641671.0,-1.6496,2.4325,4.8291,-0.5193,-2.8207,-0.4337
2641681.0,-0.4693,1.901,3.3782,-0.0293,-2.6228,-0.3113
2641691.0,0.929,1.6305,2.6432,0.3927,-2.3291,-0.2453
2641701.0,-1.4796,2.0734,2.1069,0.7045,-1.9709,-0.183
2641711.0,0.5914,1.2713,1.3384,0.6971,-1.9523,-0.1197
2641721.0,1.7526,1.1085,-0.1269,0.6061,-1.8842,-0.1453
2641731.0,2.2194,1.1349,-1.2091,0.5486,-1.5208,-0.1862
2641741.0,2.5857,0.577,-0.5171,0.3959,-1.102,-0.2426
2641751.0,2.5283,0.7685,-0.0982,0.2799,-0.7625,-0.3304
2641761.0,2.5833,0.6464,0.8595,0.0069,-0.5608,-0.4177
2641771.0,2.6121,0.7566,1.7526,-0.2692,-0.4693,-0.4895
2641781.0,2.6169,0.328,3.0239,-0.3948,-0.3938,-0.5252
2641791.0,2.7869,0.237,3.5147,-0.2171,-0.3086,-0.5263
2641801.0,2.8443,0.0215,4.1707,0.1064,-0.1804,-0.505
2641811.0,2.6408,-0.2059,4.8076,0.4959,0.0005,-0.4661
2641821.0,2.8276,-0.7135,5.9807,0.7716,0.0968,-0.4422
2641831.0,3.0287,-1.1827,6.1675,0.8993,-0.009,-0.4821
2641841.0,3.3471,-0.735,5.4851,0.8657,-0.1713,-0.5768
2641851.0,3.4788,0.2107,5.0302,0.7529,-0.1793,-0.6758
2641861.0,3.0167,1.4054,4.7716,0.5864,-0.1235,-0.7322
2641871.0,2.909,1.6688,5.296,0.4193,-0.0745,-0.7199
2641881.0,3.237,1.7071,5.0182,0.4821,0.0378,-0.6731
2641891.0,3.3495,1.324,4.9081,0.5098,0.215,-0.647
2641901.0,3.5267,1.336,5.1523,0.3789,0.3613,-0.6715
2641911.0,3.2322,1.7214,6.1124,0.1974,0.4486,-0.7205
2641921.0,2.9449,2.3918,6.7947,0.2352,0.4949,-0.713
2641931.0,2.7414,3.0335,6.0597,0.4645,0.4826,-0.6311
2641941.0,3.3255,3.5865,4.1037,0.58,0.365,-0.5241
2641951.0,5.8395,3.5506,1.5467,0.6066,0.3437,-0.4081
2641961.0,4.3024,4.537,-0.8859,0.6806,0.6465,-0.3155
2641971.0,4.3024,5.3941,-4.3407,0.6987,1.0387,-0.1697
2641981.0,4.142,5.6719,-6.3494,0.6247,1.6708,0.0027
2641991.0,2.3128,7.1563,-8.4779,0.7721,2.6441,0.2214
2642001.0,0.5507,7.0964,-5.8131,0.9615,3.8552,0.5619
2642011.0,-1.5514,6.6295,-1.3551,1.8182,5.2041,0.9642
2642021.0,-3.7086,4.4508,2.897,2.8064,6.206,1.2579
2642031.0,-4.9177,3.3327,5.8826,3.305,6.7674,1.3255
2642041.0,-6.4955,2.7509,10.4842,3.0229,7.0755,1.1659
2642051.0,-8.3534,3.4596,14.9135,2.2455,6.8829,0.8886
2642061.0,-9.244,5.1451,17.923,1.3649,6.2007,0.654
2642071.0,-10.2783,7.7213,18.1792,0.7806,5.4419,0.5906
2642081.0,-12.1003,9.2129,18.6053,0.4895,5.0263,0.7684
2642091.0,-12.5767,7.2089,20.7362,0.4284,4.872,1.1047
2642101.0,-11.9183,2.9592,23.0083,0.3257,4.4511,1.2707
2642111.0,-11.0636,-0.0287,23.0897,0.0394,3.6428,1.0759
2642121.0,-9.9096,-0.826,22.0769,-0.3688,2.833,0.629
2642131.0,-10.0006,1.7166,21.2485,-0.6045,2.3498,0.1086
2642141.0,-10.8146,5.2577,21.1743,-0.6604,2.1348,-0.2384
2642151.0,-11.7795,8.2337,21.0929,-0.804,1.757,-0.3416
2642161.0,-11.8968,8.8562,20.6644,-1.1036,1.1808,-0.2176
2642171.0,-11.6358,8.9543,20.5901,-1.2749,0.7066,0.0245
2642181.0,-11.8609,9.2703,20.9253,-1.0472,0.4629,0.3533
2642191.0,-11.8369,9.2895,21.5885,-0.5289,0.2235,0.7971
2642201.0,-11.327,8.102,20.298,0.091,-0.1708,1.3053
2642211.0,-10.2448,6.0549,18.5239,0.365,-0.63,1.7278
2642221.0,-9.4164,4.3934,16.9653,0.3666,-0.9594,1.9853
2642231.0,-9.0285,2.9185,16.4937,0.2916,-1.1855,2.1082
2642241.0,-8.6838,1.9848,15.1505,0.3278,-1.4021,2.1354
2642251.0,-8.5018,1.0894,13.6206,0.2065,-1.6139,2.0832
2642261.0,-7.9775,-0.1939,12.5839,-0.1442,-1.823,1.9555
2642271.0,-7.185,-1.0295,11.6646,-0.5358,-2.0263,1.7299
2642281.0,-6.5888,-0.5602,10.9008,-0.8125,-2.129,1.4622
2642291.0,-6.3159,-0.8164,10.8601,-0.9237,-2.0981,1.2425
2642301.0,-5.7604,-1.1349,10.7284,-0.9658,-2.1221,1.0493
2642311.0,-5.3223,-1.0223,10.7356,-1.0366,-2.2152,0.8375
2642321.0,-5.3582,-0.3783,10.7548,-1.0121,-2.278,0.654
2642331.0,-5.3343,0.4022,11.1163,-0.8253,-2.2934,0.5513
2642341.0,-5.4205,1.1971,10.9008,-0.5215,-2.3434,0.5284
2642351.0,-5.3343,1.743,10.1466,-0.3124,-2.46,0.5651
2642361.0,-4.9177,1.7861,9.1363,-0.2772,-2.5935,0.6263
2642371.0,-4.197,1.4581,8.2887,-0.3932,-2.7186,0.6609
2642381.0,-3.6224,1.2785,7.367,-0.5454,-2.7851,0.6577
2642391.0,-3.1627,0.9266,7.0054,-0.6859,-2.7963,0.6391
2642401.0,-2.6432,0.747,6.4572,-0.7317,-2.8138,0.6183
2642411.0,-2.1189,0.4334,5.849,-0.7082,-2.8085,0.6045
2642421.0,-1.5514,0.4597,5.272,-0.5843,-2.7356,0.6039
2642431.0,-1.0558,0.4501,4.7094,-0.3842,-2.6084,0.6194
2642441.0,-0.7949,0.2538,4.1468,-0.157,-2.46,0.6508
2642451.0,-0.2753,-0.0287,3.5147,0.0484,-2.3163,0.6763
2642461.0,0.0527,-0.2131,2.9449,0.2097,-2.1088,0.6907
2642471.0,0.498,-0.6608,2.8898,0.3017,-1.8752,0.6864
2642481.0,1.0367,-1.0965,2.7222,0.357,-1.6809,0.6497
2642491.0,1.5993,-1.5634,2.2769,0.3576,-1.5272,0.5688
2642501.0,2.1045,-1.8675,1.3096,0.2506,-1.3952,0.4401
2642511.0,2.557,-1.9513,0.3448,0.0117,-1.2201,0.2772
2642521.0,2.9401,-2.4086,0.3256,-0.2299,-0.9445,0.0915
2642531.0,3.1484,-2.8635,0.7111,-0.2666,-0.5651,-0.099
2642541.0,3.0311,-3.3902,1.7478,-0.1932,-0.1825,-0.3092
2642551.0,2.9018,-3.711,2.8539,-0.0756,0.0692,-0.5454
2642561.0,2.6432,-3.8092,3.5721,0.042,0.1666,-0.7976
2642571.0,2.6719,-3.158,3.6344,0.1932,0.1756,-1.0552
2642581.0,2.375,-1.9249,3.4069,0.4592,0.2618,-1.2643
2642591.0,2.0111,-1.0247,2.7031,0.7886,0.4198,-1.3963
2642601.0,1.9704,-1.0678,1.7142,0.9546,0.5497,-1.5006
2642611.0,2.3655,-0.7446,0.4645,0.9099,0.7029,-1.6565
2642621.0,1.9178,0.0742,-0.407,0.6981,1.0078,-1.8549
2642631.0,1.2689,0.7326,-0.0335,0.3342,1.408,-2.0226
2642641.0,0.4669,1.3958,1.3575,-0.016,1.7842,-2.1407
2642651.0,-0.3304,1.7286,3.2561,-0.1958,2.0869,-2.1811
2642661.0,-0.6967,1.719,5.1092,-0.0633,2.3418,-2.1481
2642671.0,-1.1205,2.2505,6.505,0.3927,2.5419,-2.0784
2642681.0,-1.585,2.7629,6.0166,0.9328,2.6505,-2.0007
2642691.0,-1.889,3.3758,4.7381,1.1137,2.7345,-1.9662
2642701.0,-2.5331,4.4796,3.9528,0.8769,2.9532,-1.9757
2642711.0,-3.8068,4.956,4.0989,0.2937,3.2241,-1.98
2642721.0,-5.2601,4.7908,5.9735,-0.4129,3.4965,-1.9321
2642731.0,-6.1675,3.0526,9.6247,-0.6992,3.8557,-1.8071
2642741.0,-7.1802,0.4166,13.532,-0.4395,4.0962,-1.7246
2642751.0,-7.6662,-1.4988,17.1401,0.1889,4.11,-1.7932
2642761.0,-8.1116,-1.5514,19.0028,0.9578,3.8812,-2.0273
2642771.0,-8.4467,0.4262,18.986,1.4096,3.3943,-2.3929
2642781.0,-9.5098,4.4772,17.9182,1.4128,2.9463,-2.7771
2642791.0,-10.9128,7.8554,18.567,0.9232,2.6707,-2.9862
2642801.0,-11.6765,9.7851,19.903,0.19,2.2588,-2.9761
2642811.0,-11.9303,10.3142,21.2988,-0.5513,1.6453,-2.826
2642821.0,-11.7914,11.1426,21.5047,-0.8929,1.0376,-2.5499
2642831.0,-11.8441,11.1833,21.6747,-0.7545,0.6556,-2.1556
2642841.0,-11.4922,11.1666,20.808,-0.29,0.3549,-1.6644
2642851.0,-10.7883,9.5481,20.0155,0.0851,0.0639,-1.1935
2642861.0,-9.8402,8.1379,18.3109,0.166,-0.3363,-0.8689
2642871.0,-9.2847,7.3478,17.4154,-0.0521,-0.6737,-0.6981
2642881.0,-9.019,7.0318,16.6948,-0.2426,-0.8987,-0.5789
2642891.0,-8.7101,6.2106,16.1058,-0.3751,-1.1254,-0.4752
2642901.0,-8.0661,5.5689,14.4897,-0.4315,-1.3649,-0.4033
2642911.0,-7.367,4.6639,13.0699,-0.5901,-1.5224,-0.3783
2642921.0,-6.6966,4.1252,12.0668,-0.7865,-1.582,-0.4097
2642931.0,-6.201,3.9121,11.4946,-0.944,-1.5655,-0.4693
2642941.0,-5.9304,3.8547,11.0445,-1.0616,-1.5335,-0.5215
2642951.0,-5.6288,3.2681,11.7076,-1.1031,-1.4867,-0.5305
2642961.0,-5.3486,2.8515,12.0716,-0.9062,-1.4686,-0.513
2642971.0,-5.1595,2.7031,11.88,-0.5917,-1.5091,-0.4927
2642981.0,-4.8937,3.3136,10.896,-0.3054,-1.5905,-0.4805
2642991.0,-4.8171,3.7206,10.1418,-0.1995,-1.6229,-0.4576
2643001.0,-4.628,3.7302,9.7995,-0.2065,-1.5921,-0.4331
2643011.0,-4.4867,3.7493,9.8474,-0.332,-1.6006,-0.4353
2643021.0,-4.5203,3.9792,9.6223,-0.5241,-1.6623,-0.4438
2643031.0,-4.3072,3.4477,10.0126,-0.7508,-1.7405,-0.4347
2643041.0,-3.8427,2.9377,9.9144,-0.8562,-1.8555,-0.4406
2643051.0,-3.5147,2.5738,9.7731,-0.8572,-1.9427,-0.4645
2643061.0,-3.225,2.5714,9.3158,-0.7396,-1.9827,-0.4826
2643071.0,-2.9329,2.8802,8.7364,-0.5843,-2.0188,-0.4879
2643081.0,-2.5642,3.4572,7.6112,-0.4347,-2.0247,-0.4762
2643091.0,-2.4325,3.8762,6.9959,-0.3879,-1.9502,-0.4417
2643101.0,-2.4636,3.8547,6.9791,-0.4017,-1.8347,-0.3794
2643111.0,-2.3439,3.5051,7.1539,-0.4374,-1.7783,-0.3241
2643121.0,-2.0255,3.2896,6.9097,-0.4603,-1.7714,-0.29
2643131.0,-1.719,3.0095,6.9408,-0.4683,-1.7038,-0.2602
2643141.0,-1.4102,3.0119,7.2042,-0.4273,-1.615,-0.2341
2643151.0,-1.1899,3.3016,7.2496,-0.3528,-1.5618,-0.2006
2643161.0,-0.9936,3.6272,6.9863,-0.2964,-1.5447,-0.1447
2643171.0,-0.7207,3.5458,6.9312,-0.273,-1.5133,-0.0617
2643181.0,-0.498,3.3567,6.8115,-0.2357,-1.4793,0.025
2643191.0,-0.2945,2.8515,6.7756,-0.1905,-1.4601,0.1091
2643201.0,0.0431,2.32,6.5338,-0.1107,-1.4505,0.1809
2643211.0,0.4717,2.0877,6.0478,-0.0357,-1.4383,0.2219
2643221.0,0.7542,2.0231,5.3965,-0.0101,-1.4064,0.2437
2643231.0,1.0558,1.8866,4.9009,-0.0575,-1.351,0.2581
2643241.0,1.5012,1.8076,4.3838,-0.141,-1.3,0.2575
2643251.0,1.8172,1.9417,3.6081,-0.2469,-1.2462,0.2405
2643261.0,2.2051,2.2266,2.7916,-0.3714,-1.152,0.2272
2643271.0,2.3559,2.3559,2.2721,-0.4864,-0.9833,0.2357
2643281.0,2.6001,2.0542,2.0494,-0.5593,-0.7811,0.2724
2643291.0,2.8539,1.7837,1.731,-0.5773,-0.5789,0.3049
2643301.0,3.0789,1.5682,1.4509,-0.5614,-0.3469,0.34
2643311.0,3.0167,1.5036,1.2689,-0.5422,-0.1043,0.3693
2643321.0,2.9066,1.1947,1.6951,-0.5183,0.1517,0.4039
2643331.0,2.7629,1.008,2.1213,-0.3746,0.3826,0.4507
2643341.0,2.794,0.8978,1.9513,-0.1,0.5561,0.4906
2643351.0,2.964,1.3719,0.6153,0.2139,0.7513,0.514
2643361.0,2.8946,2.2266,-0.2514,0.3704,1.0908,0.5305
2643371.0,2.1835,3.1699,-0.3687,0.3794,1.5155,0.5747
2643381.0,1.2737,3.6416,0.4046,0.249,1.8805,0.6683
2643391.0,0.4477,3.2657,1.3168,0.158,2.187,0.8173
2643401.0,-0.0335,1.6688,2.8204,0.1724,2.4754,0.9658
2643411.0,-0.3208,0.589,3.8427,0.3485,2.7111,1.0227
2643421.0,-0.7087,0.2442,4.6591,0.5444,2.8707,0.9775
2643431.0,-1.3791,0.3903,4.4652,0.6524,2.949,0.8759
2643441.0,-1.7478,0.8715,4.197,0.5757,3.0192,0.746
2643451.0,-2.5139,2.1859,3.8427,0.4587,3.1948,0.6215
2643461.0,-3.7278,3.6296,3.9768,0.2623,3.4385,0.5502
2643471.0,-4.9321,4.6208,4.5562,0.009,3.6854,0.5683
2643481.0,-6.3207,4.8363,5.7988,-0.3139,3.8796,0.6604
2643491.0,-7.6255,3.9911,8.43,-0.5348,4.0121,0.8077
2643501.0,-8.4132,2.7366,11.5233,-0.2783,4.0866,0.9892
2643511.0,-8.9854,2.0159,13.7212,0.5635,4.1159,1.1499
2643521.0,-9.4068,2.4421,14.2766,1.7166,4.1537,1.2483
2643531.0,-9.9168,3.5889,14.224,2.6132,4.1994,1.2702
2643541.0,-10.3501,5.1451,14.1545,2.8596,4.1526,1.2036
2643551.0,-11.0516,6.3542,15.1074,2.3993,3.9946,1.0956
2643561.0,-11.3772,6.6679,17.0515,1.5043,3.6657,0.9924
2643571.0,-11.722,6.9001,18.6556,0.5119,3.1256,0.9009
2643581.0,-11.9806,6.1363,20.6356,-0.2762,2.5749,0.8998
2643591.0,-11.7819,4.9009,22.0314,-0.605,2.0183,0.9679
2643601.0,-11.4563,4.0677,21.9309,-0.5938,1.3957,1.0318
2643611.0,-10.9822,3.8762,20.2526,-0.4794,0.7897,1.0813
2643621.0,-10.4004,3.6296,18.3276,-0.4443,0.3124,1.1249
2643631.0,-9.9551,3.5291,16.2375,-0.4209,0.0043,1.1563
2643641.0,-9.6438,3.4261,14.6022,-0.4028,-0.1149,1.1861
2643651.0,-9.4284,2.9712,14.2766,-0.3523,-0.0612,1.2345
2643661.0,-9.3111,2.3583,14.8752,-0.2283,0.0096,1.2803
2643671.0,-9.2368,1.6903,15.6222,-0.0521,-0.0399,1.3085
2643681.0,-8.8945,0.9816,16.0675,0.1336,-0.2267,1.3106
2643691.0,-8.4922,0.6752,15.5886,0.2831,-0.5236,1.2659
2643701.0,-7.9152,0.5411,14.4897,0.3225,-0.8354,1.1754
2643711.0,-7.4101,0.8308,12.8473,0.2315,-1.0946,1.0445
2643721.0,-6.9671,1.1875,11.2911,-0.0229,-1.2744,0.8876
2643731.0,-6.5529,1.6185,9.8689,-0.3608,-1.3649,0.7279
2643741.0,-6.62,1.8076,9.3158,-0.7274,-1.3393,0.5928
2643751.0,-6.5601,1.4557,9.7971,-0.9988,-1.2776,0.4997
2643761.0,-6.4117,1.0942,10.3453,-1.0243,-1.2467,0.4268
2643771.0,-6.2656,0.9912,10.5943,-0.8663,-1.2473,0.3666
2643781.0,-6.1052,0.996,10.6853,-0.6455,-1.2664,0.3272
2643791.0,-5.8419,1.1013,10.7619,-0.4752,-1.3462,0.2879
2643801.0,-5.5809,1.506,10.319,-0.3517,-1.475,0.2485
2643811.0,-5.3199,1.9489,9.6175,-0.2847,-1.5905,0.2192
2643821.0,-5.0709,2.3774,8.7867,-0.2597,-1.6517,0.2054
2643831.0,-4.8746,2.3966,8.4515,-0.2634,-1.6261,0.2118
2643841.0,-4.6495,2.1524,8.5497,-0.241,-1.5655,0.216
2643851.0,-4.47,1.9249,8.6431,-0.2059,-1.5522,0.2011
2643861.0,-4.1563,1.6161,8.7101,-0.1729,-1.5735,0.1708
2643871.0,-3.7565,1.4437,8.7604,-0.1181,-1.5921,0.1197
2643881.0,-3.474,1.561,8.6048,-0.0452,-1.6176,0.0601
2643891.0,-3.2848,1.8771,8.2384,0.0282,-1.6416,0.0064
2643901.0,-3.1651,2.1787,8.0421,0.1288,-1.5931,-0.0239
2643911.0,-2.8898,2.6025,8.023,0.2772,-1.4915,-0.0346
2643921.0,-2.7988,3.1651,7.8602,0.3954,-1.4069,-0.0335
2643931.0,-2.5307,3.6943,7.5058,0.3741,-1.3558,-0.0202
2643941.0,-2.2745,3.8858,7.3765,0.108,-1.3484,-0.0122
2643951.0,-2.0303,3.5243,7.75,-0.3171,-1.3649,-0.0128
2643961.0,-1.6951,2.6121,8.509,-0.7492,-1.4511,-0.0319
2643971.0,-1.3791,1.7741,8.7676,-1.0307,-1.6091,-0.0788
2643981.0,-1.0223,1.1756,8.4443,-1.1212,-1.7682,-0.1341
2643991.0,-0.6369,0.8092,7.5968,-1.0366,-1.8549,-0.1862
2644001.0,-0.1556,0.8045,6.3494,-0.8445,-1.8411,-0.2325
2644011.0,0.0934,0.9529,5.4253,-0.6423,-1.7097,-0.265
2644021.0,0.316,1.0894,5.0566,-0.4369,-1.4819,-0.2698
2644031.0,0.5555,1.1444,4.8123,-0.2645,-1.2686,-0.2602
2644041.0,0.7063,1.0774,4.604,-0.166,-1.1052,-0.2469
2644051.0,0.9074,0.7614,4.3862,-0.1431,-0.9535,-0.2368
2644061.0,1.1444,0.158,4.3958,-0.1868,-0.8072,-0.248
2644071.0,1.2737,-0.4573,4.5011,-0.2841,-0.6976,-0.3054
2644081.0,1.3192,-0.7159,4.6591,-0.3767,-0.6242,-0.397
2644091.0,1.4437,-0.6201,4.6064,-0.3523,-0.5491,-0.4874
2644101.0,1.4198,-0.6345,4.2952,-0.2166,-0.4528,-0.5598
2644111.0,1.6137,-0.7111,3.8786,0.0043,-0.3086,-0.6146
2644121.0,1.6999,-0.7494,3.5171,0.2453,-0.1117,-0.6747
2644131.0,1.6975,-0.6369,3.2082,0.4475,0.0814,-0.7551
2644141.0,1.6688,-0.1628,2.5642,0.5848,0.2666,-0.854
2644151.0,1.4341,0.3855,1.913,0.5832,0.4544,-0.9546
2644161.0,1.1684,0.8428,1.7478,0.473,0.6832,-1.0376
2644171.0,0.8523,1.1205,2.0231,0.3698,0.9695,-1.0988
2644181.0,0.5986,1.1037,2.8946,0.3145,1.267,-1.1462
2644191.0,0.182,1.2378,3.565,0.2778,1.5048,-1.2106
2644201.0,-0.2753,1.5634,4.1276,0.1304,1.641,-1.2856
2644211.0,-1.0199,1.9106,4.7597,-0.1458,1.6985,-1.3404
2644221.0,-1.6376,1.9872,5.794,-0.3906,1.7235,-1.3478
2644231.0,-2.047,2.0614,6.359,-0.3911,1.723,-1.3101
2644241.0,-2.2913,2.2673,6.2489,-0.0974,1.7709,-1.2409
2644251.0,-2.5594,2.8539,5.4133,0.3432,1.9278,-1.1579
2644261.0,-2.9161,3.2801,4.6328,0.6556,2.1556,-1.0632
2644271.0,-3.316,3.3112,4.3766,0.7343,2.4062,-0.9732
2644281.0,-4.1707,3.565,4.5969,0.6306,2.6446,-0.8961
2644291.0,-5.4133,3.1532,6.3997,0.5497,2.9218,-0.7795
2644301.0,-6.0741,1.2354,8.9088,0.795,3.1772,-0.6412
2644311.0,-6.5266,-0.2777,10.9678,1.375,3.3193,-0.5965
2644321.0,-6.8905,-1.2641,13.1298,2.0875,3.3991,-0.6635
2644331.0,-7.513,-1.0223,14.6453,2.7462,3.2666,-0.8461
2644341.0,-8.2337,0.5004,15.0236,3.2044,2.9048,-1.0828
2644351.0,-8.8011,2.5714,13.6709,3.4273,2.5078,-1.2957
2644361.0,-9.2656,4.0558,12.1147,3.2571,2.2865,-1.4665
2644371.0,-9.821,4.4293,11.9447,2.5595,2.2471,-1.6549
2644381.0,-10.7045,3.6966,14.5567,1.4042,2.2008,-1.9082
2644391.0,-11.5736,3.1292,18.7298,0.1783,1.8299,-2.2269
2644401.0,-12.1649,3.3471,21.7609,-0.596,1.1196,-2.5148
2644411.0,-12.402,4.525,22.1703,-0.763,0.323,-2.6856
2644421.0,-12.3972,6.45,20.2861,-0.5582,-0.3331,-2.7069
2644431.0,-12.0764,7.2018,18.0259,-0.3586,-0.771,-2.5839
2644441.0,-11.5329,7.4603,15.9861,-0.2639,-1.0344,-2.3918
2644451.0,-11.0349,7.75,15.0236,-0.2049,-1.1403,-2.1896
2644461.0,-11.145,8.0086,14.4011,-0.049,-1.1877,-1.963
2644471.0,-10.9104,7.7333,13.86,0.1314,-1.3,-1.7054
2644481.0,-10.41,7.5657,12.9191,0.3884,-1.4128,-1.4511
2644491.0,-9.7827,7.3861,11.8321,0.6758,-1.442,-1.2212
2644501.0,-9.177,7.4172,10.6734,0.886,-1.4191,-1.0248
2644511.0,-8.6526,7.3694,10.0987,0.92,-1.3489,-0.8594
2644521.0,-8.3845,7.5417,9.8785,0.8093,-1.2936,-0.7136
2644531.0,-8.0948,7.1467,10.1969,0.5699,-1.2845,-0.5773
2644541.0,-7.6591,6.4931,10.4818,0.3054,-1.3393,-0.4587
2644551.0,-7.4555,5.6982,11.1809,0.0484,-1.417,-0.3741
2644561.0,-7.4484,5.1404,11.6119,-0.1107,-1.549,-0.3118
2644571.0,-7.4101,4.5801,11.8752,-0.1697,-1.7629,-0.2639
2644581.0,-7.1108,4.3479,10.8362,-0.0841,-1.9986,-0.2288
2644591.0,-6.6702,4.1252,9.4188,-0.0016,-2.1375,-0.2086
2644601.0,-6.177,3.9576,8.1642,0.0069,-2.1327,-0.2166
2644611.0,-5.8466,3.6583,7.8769,-0.1144,-2.0428,-0.2597
2644621.0,-5.5498,3.4477,8.0014,-0.2959,-1.9816,-0.3299
2644631.0,-5.3199,3.3615,8.2576,-0.4949,-2.0045,-0.4097
2644641.0,-5.0781,3.395,8.3534,-0.6625,-2.0822,-0.4778
2644651.0,-4.8914,3.5123,8.248,-0.738,-2.1577,-0.5215
2644661.0,-4.8674,3.383,8.2911,-0.6923,-2.1817,-0.5289
2644671.0,-4.7118,2.8395,8.5688,-0.4821,-2.1487,-0.5087
2644681.0,-4.5801,2.5522,8.3653,-0.1788,-2.1646,-0.5076
2644691.0,-4.1827,2.7318,7.3143,0.0415,-2.2311,-0.5465
2644701.0,-3.7038,3.146,6.0837,0.0511,-2.2386,-0.6066
2644711.0,-3.2561,3.5937,5.3654,-0.1745,-2.1769,-0.6816
2644721.0,-2.8491,3.8714,5.4061,-0.5401,-2.0928,-0.7583
2644731.0,-2.6432,3.9097,6.0908,-0.8812,-1.9885,-0.8173
2644741.0,-2.5426,3.7733,6.9599,-1.1281,-1.947,-0.8583
2644751.0,-2.3391,3.7158,7.1563,-1.3282,-2.0646,-0.8876
2644761.0,-2.0758,3.893,6.4308,-1.475,-2.2402,-0.8908
2644771.0,-1.7789,3.7852,5.9065,-1.5218,-2.295,-0.8445
2644781.0,-1.2857,3.3112,5.3989,-1.3585,-2.2056,-0.7646
2644791.0,-0.7949,2.9401,4.6878,-1.0573,-2.0598,-0.6902
2644801.0,-0.3256,2.4995,3.7757,-0.7285,-1.8406,-0.6231
2644811.0,0.2227,2.1404,3.1244,-0.5034,-1.5575,-0.5949
2644821.0,0.6632,2.0518,2.9233,-0.472,-1.2664,-0.6135
2644831.0,0.8212,2.1548,3.2106,-0.6034,-1.0174,-0.6556
2644841.0,0.838,2.4086,3.9552,-0.7827,-0.8253,-0.687
2644851.0,0.589,2.5522,4.8985,-0.8407,-0.6497,-0.6731
2644861.0,0.6895,2.1691,5.9137,-0.7008,-0.4794,-0.6093
2644871.0,0.7973,1.652,6.9001,-0.4081,-0.3406,-0.5433
2644881.0,1.0415,1.7334,7.1156,-0.0607,-0.2746,-0.4981
2644891.0,1.142,2.3559,6.62,0.1261,-0.2868,-0.4757
2644901.0,1.1085,3.395,5.4253,0.0782,-0.2975,-0.4486
2644911.0,0.9936,4.0965,4.8507,-0.2192,-0.257,-0.3874
2644921.0,0.9409,4.288,4.5418,-0.5715,-0.1596,-0.2916
2644931.0,1.0511,3.9049,4.5179,-0.8854,-0.0527,-0.1825
2644941.0,1.3264,3.2777,4.4293,-1.0962,0.0814,-0.0862
2644951.0,1.4557,3.0598,4.391,-1.1818,0.2975,-0.0165
2644961.0,1.1612,3.3136,4.7645,-1.2318,0.5374,0.05
2644971.0,0.6512,3.7014,5.1571,-1.2457,0.7407,0.1538
2644981.0,0.2753,3.7685,5.8969,-1.2228,0.9025,0.3033
2644991.0,-0.1652,3.8547,6.3063,-1.1185,1.0302,0.4789
2645001.0,-0.5746,3.869,6.7971,-0.9812,1.1089,0.6737
2645011.0,-0.6345,3.8044,6.5936,-0.7684,1.1291,0.895
2645021.0,-0.723,3.9169,5.4636,-0.4784,1.1834,1.1249
2645031.0,-0.9816,3.7302,4.0821,-0.223,1.4069,1.3574
2645041.0,-1.154,3.0981,3.4716,-0.0974,1.8108,1.5516
2645051.0,-1.6352,2.4517,3.7948,-0.166,2.2466,1.6671
2645061.0,-2.3487,2.138,4.5394,-0.4448,2.544,1.7107
2645071.0,-3.0694,1.9824,5.3582,-0.8759,2.6882,1.7187
2645081.0,-3.9911,2.3056,5.9448,-1.3127,2.7239,1.7267
2645091.0,-5.0661,2.1907,7.4412,-1.5905,2.8021,1.8007
2645101.0,-5.6096,2.0327,9.1243,-1.441,2.9053,1.9438
2645111.0,-6.4787,2.7342,9.6247,-1.0105,2.8702,2.1056
2645121.0,-7.264,3.043,9.3781,-0.4608,2.9303,2.3376
2645131.0,-7.9607,3.1819,9.2009,-0.0341,3.1288,2.576
2645141.0,-8.8226,2.909,9.8138,0.0005,3.2714,2.7643
2645151.0,-9.4499,2.6671,10.3382,-0.2953,3.2235,2.8692
2645161.0,-10.3334,2.7581,10.6374,-0.7327,3.0575,2.9266
2645171.0,-11.4132,3.067,10.6207,-1.1111,2.9192,3.0027
2645181.0,-12.9407,3.043,11.8369,-1.2781,2.9186,3.1533
2645191.0,-14.0995,0.7183,16.0986,-0.8822,3.1517,3.4247
2645201.0,-13.939,-0.9505,19.4074,0.2033,3.223,3.6274
2645211.0,-13.2112,-1.1612,19.6612,1.2377,2.8872,3.6125
2645221.0,-12.7228,-1.1085,17.7985,1.5389,2.3966,3.4545
2645231.0,-11.8106,-0.9888,16.8193,0.9195,1.9688,3.1895
2645241.0,-11.4586,-0.3903,17.9038,-0.1261,1.5825,2.8463
2645251.0,-11.5448,0.5914,18.7705,-0.9807,1.0632,2.5531
2645261.0,-11.789,1.7693,17.6165,-1.5181,0.4209,2.3945
2645271.0,-11.7196,1.4605,16.0842,-1.8911,-0.0814,2.395
2645281.0,-11.2001,-0.5411,15.9047,-2.0188,-0.2698,2.4796
2645291.0,-11.1642,-1.3791,16.5391,-1.831,-0.3661,2.5345
2645301.0,-10.7931,-2.071,16.5104,-1.483,-0.6311,2.5579
2645311.0,-10.3214,-2.5857,15.2702,-1.118,-0.961,2.56
2645321.0,-9.6486,-2.8563,14.3317,-0.8482,-1.151,2.5355
2645331.0,-8.9615,-2.8994,13.8098,-0.5933,-1.2106,2.4876
2645341.0,-8.9088,-3.3112,13.5608,-0.3448,-1.2733,2.3849
2645351.0,-7.7788,-3.8547,12.0692,-0.223,-1.4165,2.2178
2645361.0,-6.9599,-4.1875,11.4203,-0.3874,-1.4942,1.9555
2645371.0,-6.8977,-4.2545,11.327,-0.655,-1.5463,1.641
2645381.0,-6.541,-4.5179,11.576,-0.8897,-1.6485,1.318
2645391.0,-6.0501,-4.8507,11.6119,-0.9754,-1.7794,0.9913
2645401.0,-5.4564,-4.8076,10.6398,-0.9253,-1.9348,0.646
2645411.0,-4.7429,-4.5083,9.1794,-0.9216,-2.0518,0.2836
2645421.0,-4.3766,-2.8922,7.9248,-1.002,-2.0412,-0.066
2645431.0,-4.4939,-1.4724,8.0589,-1.0759,-1.8682,-0.3166
2645441.0,-4.4628,-1.1492,8.4587,-1.0653,-1.7602,-0.4528
2645451.0,-4.2689,-0.7494,8.6215,-0.9679,-1.7773,-0.5263
2645461.0,-4.0294,-0.2418,8.2983,-0.7444,-1.7943,-0.5449
2645471.0,-4.1324,0.0239,7.9727,-0.4422,-1.7203,-0.4986
2645481.0,-3.9624,-0.1939,8.3558,-0.1027,-1.6064,-0.4172
2645491.0,-3.6296,-0.6297,8.5281,0.2735,-1.5458,-0.3544
2645501.0,-3.304,-1.2522,8.6048,0.5976,-1.5245,-0.3347
2645511.0,-2.6552,-1.1564,8.2289,0.7652,-1.5804,-0.3906
2645521.0,-2.5235,-0.2466,7.4484,0.7439,-1.6586,-0.4975
2645531.0,-2.308,-0.1437,6.7062,0.5295,-1.724,-0.5917
2645541.0,-1.7717,0.1532,6.0454,0.2309,-1.7677,-0.6816
2645551.0,-1.652,0.5698,6.0382,0.0069,-1.707,-0.7519
2645561.0,-1.7095,0.6967,6.4715,0.0117,-1.557,-0.7508
2645571.0,-1.5993,0.3376,7.513,0.2203,-1.4117,-0.6859
2645581.0,-1.3886,-0.103,8.5234,0.6226,-1.3212,-0.6087
2645591.0,-0.9864,-0.7853,8.6431,1.0477,-1.3484,-0.5608
2645601.0,-0.6297,-0.5004,7.6998,1.2489,-1.4899,-0.5944
2645611.0,-0.4812,0.2969,6.7253,1.1265,-1.6112,-0.6635
2645621.0,-0.103,0.2705,6.0142,0.804,-1.6932,-0.7205
2645631.0,0.4214,0.4645,5.3846,0.4587,-1.7618,-0.787
2645641.0,0.7326,0.6847,4.3551,0.2623,-1.74,-0.8434
2645651.0,0.9098,0.7374,3.3208,0.1181,-1.6362,-0.8636
2645661.0,1.0942,0.4166,3.4069,0.0474,-1.4202,-0.8599
2645671.0,1.1277,-0.012,4.039,0.2464,-1.144,-0.8274
2645681.0,1.2953,-0.407,4.4149,0.7263,-0.9275,-0.7838
2645691.0,1.7693,-0.5004,3.2561,1.3287,-0.7859,-0.7689
2645701.0,2.3176,-0.2562,0.9026,1.7118,-0.5928,-0.8152
2645711.0,2.6743,0.3807,-0.3711,1.69,-0.2246,-0.9285
2645721.0,2.5307,0.8835,-0.091,1.4037,0.2501,-1.0573
2645731.0,1.9201,1.2929,1.6089,1.0951,0.6678,-1.1733
2645741.0,1.1756,1.8507,2.9856,0.9865,0.9333,-1.243
2645751.0,0.6919,2.1955,3.4093,1.0142,1.1041,-1.2659
2645761.0,0.3208,2.3655,3.3279,1.027,1.2803,-1.2765
2645771.0,0.1197,2.2817,3.043,0.854,1.4782,-1.318
2645781.0,-0.1125,1.8292,2.806,0.3416,1.6203,-1.4261
2645791.0,-0.407,1.5323,3.0095,-0.4241,1.7645,-1.6022
2645801.0,-1.1492,1.5299,4.6232,-1.2244,1.9757,-1.7895
2645811.0,-2.1308,1.9896,7.039,-1.7288,2.1529,-1.9151
2645821.0,-2.9353,2.2984,8.8131,-1.7703,2.2099,-1.9273
2645831.0,-3.6152,2.7007,9.9383,-1.4223,2.2322,-1.8294
2645841.0,-4.0797,2.7366,11.078,-0.7769,2.3312,-1.6629
2645851.0,-4.5011,3.0789,11.5233,-0.0234,2.3626,-1.4942
2645861.0,-4.9512,2.9521,12.1985,0.5912,2.3195,-1.3271
2645871.0,-5.0111,2.8467,12.0333,1.0227,2.1285,-1.2036
2645881.0,-4.8411,2.9401,11.1402,1.242,1.8714,-1.1451
2645891.0,-4.6328,3.4644,9.5648,1.2648,1.707,-1.1334
2645901.0,-4.6567,3.9672,8.4563,1.0424,1.6746,-1.1536
2645911.0,-4.7285,4.2473,7.5944,0.6279,1.6921,-1.1951
2645921.0,-5.1619,4.9009,7.3981,0.1075,1.7661,-1.2255
2645931.0,-6.0094,4.4652,9.244,-0.3374,1.9284,-1.1637
2645941.0,-6.5529,3.4333,11.7196,-0.3065,2.0614,-1.0084
2645951.0,-6.9168,1.9872,13.3836,0.141,2.0061,-0.8578
2645961.0,-6.766,1.5897,13.1777,0.7439,1.7916,-0.7753
2645971.0,-6.6583,1.4245,12.8569,1.2749,1.6799,-0.7577
2645981.0,-6.7014,2.2027,12.0955,1.7006,1.6304,-0.803
2645991.0,-7.0318,3.2609,11.406,1.8571,1.5926,-0.8902
2646001.0,-7.5489,3.7014,11.0229,1.7384,1.6064,-0.9684
2646011.0,-7.8673,3.972,11.7364,1.3122,1.599,-1.0616
2646021.0,-8.6048,4.3215,13.4889,0.7849,1.5155,-1.152
2646031.0,-9.5457,4.1108,15.8113,0.4188,1.3005,-1.1914
2646041.0,-9.7229,3.7972,16.6277,0.3187,0.8822,-1.201
2646051.0,-9.7899,3.7326,16.5224,0.3895,0.4683,-1.2063
2646061.0,-9.6079,4.2521,15.8496,0.5215,0.1676,-1.2153
2646071.0,-9.754,5.0135,15.536,0.5529,-0.0947,-1.2217
2646081.0,-9.7324,4.4915,15.2271,0.5949,-0.3368,-1.185
2646091.0,-9.3111,4.5298,14.6525,0.6891,-0.5726,-1.1717
2646101.0,-9.2273,4.6112,13.9175,0.7966,-0.737,-1.1887
2646111.0,-9.1363,4.6376,13.2304,0.8402,-0.8918,-1.1935
2646121.0,-7.7381,4.7716,13.228,0.8349,-1.0589,-1.1919
2646131.0,-9.0381,4.3551,12.9071,0.9099,-1.1653,-1.1329
2646141.0,-9.1028,4.2665,12.5456,0.9658,-1.4037,-1.1169
2646151.0,-7.4627,4.865,10.9702,1.0733,-1.6229,-1.1238
2646161.0,-8.102,5.2433,9.7659,1.0967,-1.6049,-1.0828
2646171.0,-7.7141,5.4396,9.493,0.9626,-1.599,-1.0557
2646181.0,-7.7285,5.6958,9.3398,0.7944,-1.5969,-1.0339
2646191.0,-6.6631,6.0597,9.4691,0.6274,-1.6187,-0.9935
2646201.0,-7.7045,5.1691,9.8114,0.464,-1.6128,-0.886
2646211.0,-6.0549,5.2409,9.7516,0.2804,-1.8294,-0.8902
2646221.0,-6.0549,5.2409,9.7516,0.2804,-1.8294,-0.8902
2646231.0,-6.3039,4.7262,8.8131,0.1729,-1.9417,-0.8391
2646241.0,-6.7038,5.7916,9.0812,0.0192,-1.9789,-0.8104
2646251.0,-6.3183,6.2489,8.9399,0.1091,-2.0071,-0.7311
2646261.0,-6.0669,5.8227,7.683,0.2623,-2.054,-0.5853
2646271.0,-4.9943,5.3654,6.45,0.207,-2.0098,-0.4938
2646281.0,-4.64,5.4061,6.3327,-0.1596,-1.8794,-0.5092
2646291.0,-4.7405,5.5617,7.616,-0.7024,-1.8209,-0.5539
2646301.0,-4.81,5.6551,8.7173,-1.0839,-1.9113,-0.5593
2646311.0,-4.6711,5.3056,9.2608,-1.1733,-2.0598,-0.4853
2646321.0,-4.3598,4.7046,9.0956,-0.9323,-2.1221,-0.3517
2646331.0,-4.2234,4.1084,8.4994,-0.5481,-2.1407,-0.2198
2646341.0,-4.0438,3.3806,7.6088,-0.1128,-2.0923,-0.1123
2646351.0,-3.5003,2.7007,6.5745,0.2799,-1.9646,-0.0756
2646361.0,-3.0335,2.8299,5.7988,0.5161,-1.7256,-0.1314
2646371.0,-2.8419,3.4644,6.0047,0.447,-1.4809,-0.232
2646381.0,-2.8084,4.1539,6.8761,0.0963,-1.3856,-0.3272
2646391.0,-2.6121,4.6783,7.6543,-0.3294,-1.4665,-0.3799
2646401.0,-2.2984,5.1619,7.8075,-0.6513,-1.6043,-0.3789
2646411.0,-2.1093,5.4803,7.5489,-0.7934,-1.6762,-0.3076
2646421.0,-1.913,5.3151,7.4005,-0.8051,-1.6751,-0.1836
2646431.0,-1.6233,4.8243,7.2401,-0.6678,-1.6192,-0.0351
2646441.0,-1.2833,4.47,6.6559,-0.4507,-1.5628,0.0984
2646451.0,-0.9912,4.2042,5.7916,-0.274,-1.5059,0.207
2646461.0,-0.5219,4.1252,4.6088,-0.2033,-1.416,0.2826
2646471.0,0.0335,4.4125,3.5003,-0.2762,-1.2473,0.3086
2646481.0,0.1676,4.4556,3.3495,-0.4997,-0.9722,0.323
2646491.0,0.2083,4.276,4.1851,-0.7471,-0.704,0.3416
2646501.0,0.2083,4.1707,4.9344,-0.8785,-0.5358,0.3719
2646511.0,0.3591,4.3287,4.9823,-0.9232,-0.4507,0.4129
2646521.0,0.6033,4.4676,4.8291,-0.9642,-0.3629,0.472
2646531.0,0.6225,4.4963,4.8435,-1.0174,-0.2384,0.5449
2646541.0,0.5938,4.4963,5.2888,-1.0413,-0.1096,0.6348
2646551.0,0.5004,4.4987,5.5282,-0.953,-0.0144,0.7588
2646561.0,0.498,4.2689,5.4779,-0.7636,0.0548,0.9099
2646571.0,0.7254,4.2473,4.4532,-0.53,0.1352,1.0578
2646581.0,0.735,3.9576,3.5937,-0.4028,0.3182,1.1882
2646591.0,0.6752,3.304,3.2585,-0.4193,0.5731,1.2835
2646601.0,0.5004,2.6193,3.6536,-0.5146,0.8312,1.3303
2646611.0,0.3232,2.1548,3.9816,-0.6226,1.0318,1.3335
2646621.0,0.2514,1.8771,4.1396,-0.7508,1.1797,1.3058
2646631.0,0.146,1.8531,4.2114,-0.9126,1.3127,1.2494
2646641.0,-0.2514,2.1524,4.3503,-1.1169,1.4452,1.1898
2646651.0,-0.8859,2.0327,5.6096,-1.2717,1.6171,1.1744
2646661.0,-1.4245,1.6089,7.0102,-1.1669,1.7581,1.2063
2646671.0,-1.9489,1.8028,7.592,-0.8551,1.8033,1.2467
2646681.0,-2.1261,2.2242,7.1084,-0.4879,1.8358,1.2984
2646691.0,-2.5666,2.1045,6.6511,-0.2884,1.9417,1.3409
2646701.0,-2.9018,2.466,6.8283,-0.2932,2.0827,1.3367
2646711.0,-3.3734,2.8467,7.1994,-0.4656,2.1779,1.2962
2646721.0,-4.0893,3.2441,7.3334,-0.7545,2.1497,1.2579
2646731.0,-4.5681,3.9792,7.4675,-1.0286,2.1465,1.2787
2646741.0,-5.4396,4.0941,8.7771,-1.1254,2.3035,1.3931
2646751.0,-6.3638,3.6631,10.8266,-0.9041,2.4866,1.5915
2646761.0,-7.0725,3.1484,13.1873,-0.3666,2.6042,1.8294
2646771.0,-7.5609,3.2106,15.2822,0.4464,2.6568,2.0853
2646781.0,-7.6638,2.1763,15.955,1.2712,2.5392,2.3285
2646791.0,-7.8841,2.2434,15.0643,1.6644,2.2327,2.4562
2646801.0,-7.5322,2.8706,13.7116,1.5288,1.9167,2.4307
2646811.0,-7.8913,3.4692,12.5025,1.0472,1.7629,2.3413
2646821.0,-8.1547,2.988,12.9239,0.3395,1.7421,2.2594
2646831.0,-8.2672,1.6688,14.3628,-0.3837,1.6469,2.1503
2646841.0,-8.0996,0.8284,15.3612,-0.9642,1.3931,1.9864
2646851.0,-8.078,0.3256,16.1872,-1.4378,1.0578,1.8161
2646861.0,-8.2456,0.261,16.6229,-1.6905,0.6997,1.6863
2646871.0,-8.2193,0.2155,16.848,-1.6336,0.4049,1.6368
2646881.0,-8.0421,0.0551,16.7905,-1.2664,0.2293,1.6676
2646891.0,-7.8171,-0.2251,16.5583,-0.7662,0.1181,1.7342
2646901.0,-7.4508,-0.5004,16.034,-0.332,-0.0186,1.7858
2646911.0,-7.1419,-0.6632,15.3444,-0.0894,-0.1932,1.7996
2646921.0,-6.79,-0.8835,14.6836,-0.0319,-0.3821,1.7677
2646931.0,-6.438,-0.9433,14.0061,-0.0766,-0.5646,1.6884
2646941.0,-6.2465,-0.3496,13.3309,-0.1517,-0.7072,1.5857
2646951.0,-6.1148,-0.328,12.8066,-0.2166,-0.803,1.5048
2646961.0,-5.8897,-0.8236,12.6773,-0.2485,-0.8689,1.4415
2646971.0,-5.6312,-1.1516,12.7348,-0.1836,-0.9168,1.3601
2646981.0,-5.2648,-1.0415,12.0764,-0.0537,-1.0078,1.2489
2646991.0,-4.8339,-1.2426,11.066,-0.008,-1.102,1.1153
2647001.0,-4.2377,-1.2881,10.0006,-0.0718,-1.1414,0.9434
2647011.0,-3.9002,-0.9529,9.517,-0.257,-1.1111,0.7226
2647021.0,-3.7733,-0.3184,9.4188,-0.473,-1.0711,0.506
2647031.0,-3.7709,0.2777,9.5193,-0.6582,-1.0632,0.3331
2647041.0,-3.6847,0.7111,9.3733,-0.763,-1.0685,0.2214
2647051.0,-3.5386,0.7853,9.2967,-0.8125,-1.0429,0.1564
2647061.0,-3.4955,0.7542,9.517,-0.8221,-0.9961,0.1086
2647071.0,-3.4548,0.7781,10.0245,-0.7662,-0.9541,0.074
2647081.0,-3.4189,1.0008,10.2879,-0.6295,-0.9637,0.0543
2647091.0,-3.3327,1.3288,10.1442,-0.4853,-1.0243,0.0537
2647101.0,-3.2034,1.6161,9.6798,-0.364,-1.0727,0.0718
2647111.0,-2.9928,1.98,9.1985,-0.3193,-1.0951,0.0958
2647121.0,-2.8683,2.0111,9.2512,-0.3443,-1.0658,0.132
2647131.0,-2.8036,1.6137,9.754,-0.3549,-1.0339,0.1783
2647141.0,-2.7509,1.0822,10.3166,-0.3379,-1.0908,0.2134
2647151.0,-2.5881,0.3496,10.8936,-0.223,-1.1855,0.2389
2647161.0,-2.3942,-0.4022,11.2599,0.0468,-1.2622,0.2528
2647171.0,-2.2075,-0.6249,11.0181,0.4033,-1.3782,0.2352
2647181.0,-1.8842,-0.2682,9.8641,0.6742,-1.5405,0.1836
2647191.0,-1.4533,0.5267,8.1714,0.7572,-1.6384,0.1181
2647201.0,-1.257,0.9816,7.4651,0.6252,-1.5953,0.0633
2647211.0,-1.1732,0.9361,7.6064,0.4065,-1.5245,0.0239
2647221.0,-1.0511,0.5411,8.1187,0.257,-1.4899,-0.0133
2647231.0,-0.7518,-0.0168,8.4372,0.2357,-1.4926,-0.058
2647241.0,-0.3663,-0.68,8.8202,0.2857,-1.4873,-0.1213
2647251.0,-0.1245,-0.9529,9.1506,0.3491,-1.5133,-0.2219
2647261.0,0.0742,-0.9266,9.1291,0.3411,-1.6511,-0.348
2647271.0,0.3065,-0.6704,8.3941,0.2453,-1.8555,-0.4821
2647281.0,0.8068,-0.4669,7.2401,0.0873,-2.03,-0.6109
2647291.0,1.2378,-0.182,5.7892,-0.0894,-2.1045,-0.7364
2647301.0,1.664,0.1293,4.3335,-0.2921,-2.0864,-0.8604
2647311.0,2.0877,0.5028,3.0861,-0.4853,-1.9635,-0.9743
2647321.0,2.4732,1.0032,1.9154,-0.6332,-1.7283,-1.0632
2647331.0,2.8132,1.3767,1.2186,-0.7769,-1.4011,-1.1238
2647341.0,2.9664,1.7741,0.7781,-0.8993,-1.0179,-1.1504
2647351.0,3.0191,1.8292,1.0558,-1.0195,-0.6321,-1.1467
2647361.0,2.9497,1.5083,1.8938,-1.0616,-0.2666,-1.1153
2647371.0,2.8252,1.1229,2.739,-0.9397,0.0383,-1.0722
2647381.0,2.6911,0.996,3.1196,-0.6518,0.2655,-1.0323
2647391.0,2.6097,1.4054,2.8371,-0.224,0.5087,-0.9865
2647401.0,2.3774,2.0183,2.7438,0.2767,0.8657,-0.9152
2647411.0,1.9992,2.6791,2.7845,0.7795,1.2696,-0.8157
2647421.0,1.7166,3.1603,2.8826,1.126,1.6027,-0.7104
2647431.0,1.4748,3.5985,2.6647,1.2132,1.8565,-0.6194
2647441.0,0.984,3.9552,2.8706,1.0052,2.08,-0.5449
2647451.0,0.146,3.4692,4.3455,0.6614,2.3275,-0.4507
2647461.0,-0.4525,1.8052,6.6511,0.4496,2.5185,-0.3469
2647471.0,-0.6728,0.3184,7.7764,0.4358,2.5041,-0.3272
2647481.0,-0.8595,-0.5219,7.5226,0.464,2.4147,-0.4092
2647491.0,-1.336,-0.7087,7.2425,0.4081,2.444,-0.5603
2647501.0,-2.0662,-0.4908,7.7596,0.2953,2.5712,-0.7412
2647511.0,-2.7366,0.0383,8.4635,0.2379,2.685,-0.8993
2647521.0,-3.3926,0.5171,8.9184,0.2341,2.7712,-1.0073
2647531.0,-4.0917,0.723,9.7181,0.2405,2.8984,-1.0616
2647541.0,-4.9656,0.146,11.7364,0.3065,3.0655,-1.0727
2647551.0,-5.7796,-0.5219,14.0085,0.5236,3.1139,-1.0924
2647561.0,-6.347,-0.7901,15.8209,0.8764,3.007,-1.1531
2647571.0,-6.7325,-1.245,16.0675,1.1818,2.7367,-1.2771
2647581.0,-6.8354,-1.0965,16.1082,1.1744,2.4169,-1.508
2647591.0,-7.3694,-0.4429,16.7546,0.9328,2.1982,-1.8028
2647601.0,-8.497,-0.0527,19.0914,0.5358,1.9454,-2.0853
2647611.0,-9.1985,0.237,20.7817,0.1926,1.4032,-2.3195
2647621.0,-9.426,0.6153,20.6548,-0.0819,0.6274,-2.5494
2647631.0,-9.2536,1.9776,17.856,-0.2943,-0.0527,-2.7739
2647641.0,-9.165,3.3806,15.6341,-0.7247,-0.4156,-2.9798
2647651.0,-9.2464,4.7645,14.5208,-1.242,-0.5295,-3.1171
2647661.0,-9.3709,5.5522,15.014,-1.7017,-0.5747,-3.1506
2647671.0,-9.4044,6.0023,15.7515,-1.8613,-0.6428,-3.0501
2647681.0,-9.4403,5.9616,16.7139,-1.682,-0.7513,-2.8292
2647691.0,-9.256,6.0094,16.6158,-1.1462,-0.9206,-2.5265
2647701.0,-8.983,6.4356,15.3756,-0.5087,-1.143,-2.1966
2647711.0,-8.4252,6.7205,13.5823,0.0271,-1.3106,-1.8555
2647721.0,-7.7357,6.4955,12.2583,0.4087,-1.3585,-1.5357
2647731.0,-7.2137,5.9089,11.3916,0.6875,-1.3207,-1.2755
2647741.0,-6.8091,5.1763,10.9343,0.8258,-1.2675,-1.1004
2647751.0,-6.4045,4.0175,11.3294,0.7998,-1.2313,-1.0089
2647761.0,-6.0094,3.4261,11.5784,0.6577,-1.3345,-1.0254
2647771.0,-5.6814,3.6512,11.2982,0.3544,-1.5798,-1.1089
2647781.0,-5.3008,4.4317,10.7188,0.0027,-1.8241,-1.1765
2647791.0,-5.0637,5.1619,10.2017,-0.307,-1.9885,-1.1696
2647801.0,-4.7094,5.1691,9.6367,-0.5034,-2.0933,-1.0791
2647811.0,-4.1755,4.6687,8.7771,-0.6385,-2.1843,-0.9706
2647821.0,-3.6655,3.7852,8.0637,-0.737,-2.188,-0.879
2647831.0,-3.2441,2.6911,7.7141,-0.8274,-2.138,-0.8429
2647841.0,-2.9473,1.8483,7.7524,-0.8663,-2.0896,-0.8711
2647851.0,-2.7102,1.4557,7.6327,-0.7817,-2.0391,-0.9259
2647861.0,-2.466,1.6185,6.9695,-0.6337,-2.0385,-0.9913
2647871.0,-1.7142,2.5905,5.272,-0.5369,-2.0327,-1.0515
2647881.0,-1.257,3.6607,3.8858,-0.6327,-1.8901,-1.077
2647891.0,-1.0774,4.2138,3.802,-0.8689,-1.6128,-1.0461
2647901.0,-0.9218,3.8906,5.1547,-1.0648,-1.3367,-0.9711
2647911.0,-0.9649,3.5171,6.426,-1.0552,-1.1776,-0.8727
2647921.0,-0.9936,3.0981,7.4555,-0.8652,-1.1249,-0.7529
2647931.0,-0.9553,3.0622,7.3263,-0.5326,-1.1547,-0.6157
2647941.0,-0.6369,3.2106,6.4835,-0.2043,-1.1951,-0.4704
2647951.0,-0.1245,3.8235,4.7357,0.0713,-1.1494,-0.3299
2647961.0,0.4046,4.3527,3.5147,0.1485,-0.945,-0.1916
2647971.0,0.6847,4.6112,3.0047,0.0686,-0.6236,-0.0521
2647981.0,0.7135,4.3981,3.7445,-0.1634,-0.3113,0.0803
2647991.0,0.5052,3.8499,5.0805,-0.3858,-0.0857,0.2182
2648001.0,0.2897,3.0742,6.1555,-0.4975,-0.0117,0.3523
2648011.0,0.2873,2.3607,6.3566,-0.4805,-0.0553,0.473
2648021.0,0.3879,1.7047,5.9113,-0.3629,-0.0521,0.5656
2648031.0,0.7518,1.494,5.0374,-0.2022,0.0287,0.6199
2648041.0,1.1636,1.7597,4.1755,-0.1,0.1713,0.6407
2648051.0,1.1468,2.4134,3.5985,-0.0064,0.4406,0.6753
2648061.0,0.8643,2.9281,3.7948,0.0452,0.7726,0.7551
2648071.0,0.3735,2.9832,4.4149,0.0633,1.0472,0.8764
2648081.0,0.0072,2.3918,5.2672,0.1038,1.2462,1.0201
2648091.0,-0.2801,1.4078,5.928,0.2134,1.3851,1.1456
2648101.0,-0.5746,0.51,6.0956,0.3464,1.4383,1.2004
2648111.0,-0.5507,0.1341,5.7988,0.464,1.4729,1.1722
2648121.0,-0.3065,0.4693,5.0302,0.5571,1.5591,1.0882
2648131.0,-0.5507,1.2546,4.5131,0.5401,1.7209,0.9961
2648141.0,-1.2258,2.1069,4.3598,0.4821,2.0183,0.9504
2648151.0,-2.083,2.2458,5.5641,0.2943,2.3062,0.9488
2648161.0,-2.9329,2.0159,7.094,0.1192,2.4669,0.9732
2648171.0,-3.7158,1.3527,8.7269,0.0399,2.5057,1.0084
2648181.0,-4.0558,1.1372,9.4547,0.107,2.4174,1.0201
2648191.0,-4.5083,1.2689,9.4595,0.2373,2.3025,1.0089
2648201.0,-4.5849,2.0231,8.4994,0.3443,2.1795,0.9817
2648211.0,-4.47,3.0742,7.1635,0.3437,2.1524,0.9663
2648221.0,-4.6759,4.0797,6.371,0.2549,2.3312,1.0041
2648231.0,-5.3774,4.4556,6.8905,0.0511,2.6063,1.1025
2648241.0,-5.9903,4.3072,7.6998,-0.2325,2.7601,1.2318
2648251.0,-6.7564,4.0031,8.2959,-0.5598,2.7569,1.3617
2648261.0,-7.7165,3.2753,9.2273,-0.8163,2.7303,1.5144
2648271.0,-8.2983,1.6041,10.8601,-0.7077,2.7888,1.6873
2648281.0,-8.6024,0.6464,11.3174,-0.1979,2.7941,1.8017
2648291.0,-8.7317,0.1939,11.0468,0.4603,2.8383,1.8576
2648301.0,-8.6718,0.644,10.3837,1.0839,3.0298,1.8581
2648311.0,-8.9687,1.47,10.2927,1.3803,3.2571,1.8033
2648321.0,-9.5074,2.6432,10.2544,1.2462,3.3672,1.7129
2648331.0,-10.2304,3.2489,11.0229,0.7066,3.372,1.6357
2648341.0,-10.8625,3.1819,12.4546,0.0266,3.2821,1.59
2648351.0,-11.4563,2.7605,14.4011,-0.5172,3.0793,1.5814
2648361.0,-11.7268,1.8268,16.5248,-0.6758,2.8356,1.6325
2648371.0,-11.5784,0.6632,18.0403,-0.3794,2.594,1.7075
2648381.0,-11.1067,0.2466,18.3204,0.0798,2.2668,1.7256
2648391.0,-10.8529,0.5459,17.6237,0.3278,1.864,1.6815
2648401.0,-10.4291,1.1133,16.5942,0.1985,1.3899,1.5969
2648411.0,-9.9838,1.6855,15.3899,-0.1564,0.9152,1.5053
2648421.0,-9.5553,2.0662,13.8145,-0.5177,0.5481,1.4319
2648431.0,-9.2225,2.0949,12.2511,-0.8498,0.3081,1.3755
2648441.0,-8.9352,1.9417,10.9918,-1.1691,0.1777,1.3212
2648451.0,-8.7747,1.5347,10.647,-1.3963,0.1666,1.2893
2648461.0,-8.7484,0.8332,11.2001,-1.3792,0.2437,1.2946
2648471.0,-8.6694,-0.0239,12.0835,-1.0834,0.306,1.3218
2648481.0,-8.4731,-0.6369,12.5863,-0.5827,0.3054,1.3457
2648491.0,-8.1618,-0.7326,12.2727,-0.0692,0.2246,1.3345
2648501.0,-7.8386,-0.3448,11.4874,0.2714,0.1032,1.2829
2648511.0,-7.6399,0.1652,10.738,0.3991,0.0053,1.2122
2648521.0,-7.4077,0.7326,10.0173,0.3528,-0.075,1.1196
2648531.0,-7.4101,0.9002,9.6941,0.1612,-0.1149,1.0174
2648541.0,-7.4005,0.4788,9.9407,-0.0979,-0.1309,0.9019
2648551.0,-7.3334,-0.0982,10.8409,-0.3437,-0.1857,0.7492
2648561.0,-7.3861,-0.0934,11.6095,-0.4619,-0.3113,0.5763
2648571.0,-7.4412,0.3687,11.9566,-0.4853,-0.5177,0.4252
2648581.0,-7.1754,1.0965,11.2958,-0.4512,-0.7817,0.3177
2648591.0,-6.8977,1.8579,10.094,-0.4624,-1.003,0.2506
2648601.0,-6.687,2.387,9.1267,-0.5225,-1.0956,0.2261
2648611.0,-6.699,2.4852,8.8705,-0.563,-1.0866,0.2293
2648621.0,-6.5793,2.4708,9.0812,-0.4874,-1.0397,0.2395
2648631.0,-6.6128,2.6169,9.3685,-0.3241,-0.9961,0.2613
2648641.0,-6.6631,2.3942,10.0102,-0.1655,-0.9988,0.3006
2648651.0,-6.4452,2.2194,10.07,0.0048,-1.1095,0.3331
2648661.0,-6.1483,2.4301,9.4332,0.1117,-1.301,0.3368
2648671.0,-5.7293,2.8826,8.2193,0.1341,-1.4261,0.3326
2648681.0,-5.4516,3.1196,7.6471,0.0612,-1.4319,0.3326
2648691.0,-5.2553,3.1029,7.4555,-0.033,-1.3856,0.3406
2648701.0,-4.9919,2.5187,7.6854,-0.1176,-1.3478,0.3443
2648711.0,-4.7214,2.2266,7.4508,-0.1655,-1.3638,0.3193
2648721.0,-4.64,1.8603,7.5561,-0.2405,-1.3792,0.2831
2648731.0,-4.4077,1.0678,7.9583,-0.2144,-1.3521,0.2586
2648741.0,-4.0031,0.5004,8.0924,-0.0553,-1.351,0.2091
2648751.0,-3.5985,0.5507,7.4364,0.1474,-1.3675,0.1266
2648761.0,-3.3782,1.1875,6.7205,0.2347,-1.3361,0.0325
2648771.0,-3.4165,1.9345,6.4883,0.1979,-1.2558,-0.0314
2648781.0,-3.4333,2.3631,6.4955,0.1378,-1.2127,-0.049
2648791.0,-3.2322,2.5235,6.043,0.1389,-1.2004,-0.0341
2648801.0,-2.8994,2.2003,5.5665,0.1628,-1.1382,-0.009
2648811.0,-2.6049,1.7166,5.2146,0.1878,-1.0169,-0.0043
2648821.0,-2.3631,1.0678,5.3271,0.2054,-0.8727,-0.0372
2648831.0,-2.0399,0.9864,4.7142,0.2123,-0.7913,-0.1192
2648841.0,-1.6544,1.3384,3.9073,0.0793,-0.7173,-0.2331
2648851.0,-1.6472,1.8076,3.6392,-0.1612,-0.5789,-0.3363
2648861.0,-1.7071,2.2482,3.8834,-0.4124,-0.4315,-0.4023
2648871.0,-1.8364,2.217,4.2521,-0.5241,-0.3001,-0.4119
2648881.0,-1.7813,1.9489,4.2856,-0.4773,-0.1985,-0.3948
2648891.0,-1.7478,1.4605,4.1659,-0.3363,-0.067,-0.3762
2648901.0,-1.8172,0.9481,4.0582,-0.1602,0.0878,-0.3847
2648911.0,-2.0159,0.5171,4.0127,-0.0016,0.216,-0.4273
2648921.0,-1.9561,0.2514,3.4429,0.1474,0.3272,-0.5098
2648931.0,-1.9201,0.4357,2.7342,0.2325,0.48,-0.6449
2648941.0,-2.1668,1.166,2.4038,0.2315,0.7221,-0.7987
2648951.0,-2.5786,2.0183,2.8036,0.1447,0.9871,-0.9285
2648961.0,-3.1843,2.8515,3.2202,0.0213,1.1722,-1.011
2648971.0,-3.5721,3.1987,3.6655,-0.1235,1.2835,-1.0296
2648981.0,-3.6105,3.0215,3.8978,-0.257,1.3707,-1.0142
2648991.0,-3.6847,2.8491,4.0725,-0.3831,1.4617,-0.9998
2649001.0,-3.9744,2.6863,4.5562,-0.473,1.5921,-0.9796
2649011.0,-4.4388,2.4612,5.5186,-0.4464,1.7437,-0.9317
2649021.0,-4.8363,2.1332,6.6391,-0.2554,1.8528,-0.8642
2649031.0,-5.2218,1.6879,7.434,0.0995,1.9199,-0.7913
2649041.0,-5.5115,1.5227,7.6136,0.5172,1.9353,-0.7423
2649051.0,-5.7892,1.7454,7.3789,0.8673,1.938,-0.7263
2649061.0,-5.9496,2.0279,7.2329,1.1105,1.9917,-0.7279
2649071.0,-6.4021,2.3942,7.3957,1.2537,2.0955,-0.7402
2649081.0,-6.8283,2.6217,7.92,1.3047,2.2008,-0.7599
2649091.0,-7.2544,2.727,8.6431,1.267,2.2636,-0.7966
2649101.0,-7.8051,2.9137,9.4619,1.1137,2.262,-0.8562
2649111.0,-8.4276,3.0311,10.6997,0.828,2.1801,-0.9179
2649121.0,-8.9735,2.9185,12.3469,0.5364,1.9779,-0.9631
2649131.0,-9.347,2.5953,13.532,0.4241,1.6974,-0.9828
2649141.0,-9.4475,2.2936,13.9007,0.5028,1.3899,-1.002
2649151.0,-9.4834,2.3679,13.4794,0.6364,1.1111,-1.0344
2649161.0,-9.5337,2.7581,12.9694,0.6667,0.8599,-1.086
2649171.0,-9.5217,3.3327,12.3756,0.5497,0.6204,-1.1377
2649181.0,-9.4475,3.6871,11.9854,0.315,0.4044,-1.168
2649191.0,-9.4691,3.6583,11.7938,0.0537,0.2224,-1.1717
2649201.0,-9.4715,3.2346,11.7603,-0.158,0.049,-1.16
2649211.0,-9.4164,2.6959,11.6669,-0.2703,-0.1171,-1.1547
2649221.0,-9.4475,2.1356,11.7675,-0.2352,-0.2336,-1.1478
2649231.0,-9.4355,1.8124,11.8441,0.0059,-0.3342,-1.135
2649241.0,-9.2536,2.15,11.303,0.4315,-0.4385,-1.1169
2649251.0,-9.1291,2.794,10.2304,0.8689,-0.4917,-1.0791
2649261.0,-9.0309,3.4022,9.1578,1.144,-0.4773,-1.028
2649271.0,-8.9376,3.802,8.7221,1.1499,-0.4475,-0.9919
2649281.0,-8.8418,3.9552,8.8633,0.9525,-0.4369,-0.9738
2649291.0,-8.9256,3.9624,9.6199,0.6316,-0.4837,-0.9684
2649301.0,-9.0477,3.7565,10.6757,0.3475,-0.6045,-0.953
2649311.0,-9.1051,3.4309,11.5041,0.223,-0.803,-0.919
2649321.0,-9.1722,3.2944,11.4347,0.2831,-1.0483,-0.8663
2649331.0,-8.9471,3.0382,10.8481,0.4507,-1.2744,-0.8019
2649341.0,-8.7173,2.9521,9.5648,0.6423,-1.4314,-0.754
2649351.0,-8.4204,2.976,8.3653,0.7444,-1.5,-0.7359
2649361.0,-8.1163,3.0861,7.2832,0.7194,-1.4851,-0.7529
2649371.0,-7.8338,3.2848,6.8163,0.5598,-1.4016,-0.795
2649381.0,-7.6758,3.5291,7.1898,0.3134,-1.2866,-0.8439
2649391.0,-7.8075,3.6727,8.3246,0.0639,-1.2217,-0.8705
2649401.0,-8.023,3.4093,9.7803,-0.0772,-1.2717,-0.8514
2649411.0,-8.1307,3.0119,10.6303,-0.0021,-1.4255,-0.7966
2649421.0,-8.0756,2.4804,10.738,0.2666,-1.6086,-0.7311
2649431.0,-7.8506,2.2075,10.0748,0.6157,-1.7703,-0.6896
2649441.0,-7.513,2.32,8.7484,0.8359,-1.9129,-0.6997
2649451.0,-7.0581,2.9568,7.082,0.7907,-2.0114,-0.7615
2649461.0,-6.7924,3.7733,6.1531,0.4581,-2.0188,-0.8423
2649471.0,-6.5912,4.3263,5.9855,-0.0138,-1.9816,-0.9046
2649481.0,-6.4548,4.4963,6.213,-0.4544,-1.9582,-0.9344
2649491.0,-6.3327,4.3096,6.5314,-0.746,-1.9465,-0.928
2649501.0,-6.1794,4.0701,6.7612,-0.8567,-1.9364,-0.8934
2649511.0,-5.9041,3.6224,7.0198,-0.7928,-1.9076,-0.8455
2649521.0,-5.521,3.6081,6.6942,-0.5843,-1.8725,-0.8051
2649531.0,-5.2888,3.8259,6.189,-0.39,-1.8305,-0.7673
2649541.0,-4.9823,4.1875,5.4516,-0.2708,-1.7953,-0.7311
2649551.0,-4.5538,4.6184,4.7166,-0.2607,-1.7347,-0.6891
2649561.0,-4.1755,5.1212,4.039,-0.3411,-1.6362,-0.6439
2649571.0,-3.8834,5.4803,3.5961,-0.4885,-1.499,-0.588
2649581.0,-3.6272,5.6192,3.395,-0.6689,-1.3303,-0.5146
2649591.0,-3.5147,5.4516,3.6631,-0.8386,-1.1462,-0.4262
2649601.0,-3.3232,5.1499,4.0917,-0.9488,-0.9711,-0.3278
2649611.0,-3.1077,5.0326,4.4556,-1.0014,-0.8434,-0.2357
2649621.0,-2.9329,5.2481,4.4796,-1.0142,-0.7487,-0.1378
2649631.0,-2.9497,5.5067,4.5562,-1.0248,-0.6481,-0.0064
2649641.0,-2.9281,5.5186,4.7836,-0.969,-0.5295,0.1666
2649651.0,-2.8012,5.1619,5.023,-0.8312,-0.4081,0.3624
2649661.0,-2.6169,4.7525,4.8914,-0.6375,-0.2884,0.5534
2649671.0,-2.4565,4.3958,4.458,-0.506,-0.1671,0.712
2649681.0,-2.3942,4.1252,4.1372,-0.4773,-0.0106,0.8429
2649691.0,-2.375,3.869,4.2377,-0.5481,0.1447,0.9456
2649701.0,-2.4062,3.6607,4.3646,-0.6588,0.2682,1.0366
2649711.0,-2.4181,3.4333,4.4412,-0.7748,0.3757,1.1222
2649721.0,-2.4948,3.0861,4.6687,-0.8966,0.48,1.1978
2649731.0,-2.6815,2.806,4.8842,-0.9988,0.5651,1.2712
2649741.0,-2.8299,2.308,5.4037,-1.069,0.6119,1.3516
2649751.0,-2.9568,1.7526,5.6,-0.9897,0.6598,1.4426
2649761.0,-2.9401,1.245,5.2864,-0.8296,0.6907,1.516
2649771.0,-2.885,1.0439,4.4508,-0.6763,0.7508,1.558
2649781.0,-3.134,0.9409,3.7517,-0.6119,0.8939,1.5735
2649791.0,-3.4165,0.7925,3.2513,-0.6353,1.0781,1.566
2649801.0,-3.4979,0.5483,3.0215,-0.721,1.267,1.5272
2649811.0,-3.7254,0.2705,2.8898,-0.854,1.4782,1.4569
2649821.0,-4.0534,0.6536,2.6815,-1.0648,1.6607,1.3606
2649831.0,-4.9536,1.4245,2.9544,-1.309,1.88,1.3106
2649841.0,-6.0621,1.6975,4.2353,-1.434,2.1636,1.3654
2649851.0,-6.8091,1.0367,6.1124,-1.292,2.4238,1.5048
2649861.0,-7.3454,0.3304,7.2305,-0.9041,2.5616,1.641
2649871.0,-7.7596,-0.0168,7.999,-0.4358,2.6638,1.7352
2649881.0,-8.0972,0.1963,8.3606,0.0149,2.7883,1.7831
2649891.0,-8.7628,0.2634,8.5545,0.2613,2.8676,1.7847
2649901.0,-9.2033,1.2115,8.4755,0.2618,2.8846,1.7592
2649911.0,-9.9407,1.9058,9.2895,0.0527,2.958,1.7475
2649921.0,-10.975,1.9369,11.2791,-0.1437,3.0831,1.8001
2649931.0,-11.4994,1.1229,14.1689,-0.2458,3.0682,1.8831
2649941.0,-11.8058,0.407,16.3548,-0.1894,2.8032,1.9454
2649951.0,-11.813,-0.1269,17.5016,-0.0798,2.344,1.9752
2649961.0,-11.4156,-0.5555,17.4082,0.0506,1.814,1.9693
2649971.0,-10.8936,-0.6033,16.3165,0.1612,1.3239,1.9028
2649981.0,-10.3118,-0.1891,14.6549,0.1692,0.9493,1.7799
2649991.0,-10.0892,0.4956,13.1849,0.008,0.7168,1.6341
2650001.0,-9.9671,1.1037,12.1171,-0.3251,0.5577,1.4979
2650011.0,-9.9096,1.1732,11.9207,-0.7311,0.448,1.3952
2650021.0,-9.7061,0.5626,12.5528,-1.0493,0.365,1.3297
2650031.0,-9.426,-0.0096,13.2495,-1.1595,0.2315,1.2717
2650041.0,-9.1578,-0.1796,13.3573,-1.0898,0.0213,1.2148
2650051.0,-8.8992,0.0287,12.6749,-0.936,-0.2097,1.1738
2650061.0,-8.6024,0.395,11.6382,-0.7918,-0.3911,1.1515
2650071.0,-8.5329,0.7709,10.7907,-0.6577,-0.4736,1.1542
2650081.0,-8.6143,0.893,10.4172,-0.5188,-0.472,1.1797
2650091.0,-8.7173,0.8284,10.1993,-0.3421,-0.4422,1.2122
2650101.0,-8.7317,0.5483,10.398,-0.1415,-0.4007,1.2329
2650111.0,-8.5856,0.3017,10.7955,0.0819,-0.3672,1.2271
2650121.0,-8.3797,0.1053,11.2911,0.2932,-0.3735,1.1914
2650131.0,-8.2073,0.237,11.5377,0.4608,-0.4672,1.1302
2650141.0,-8.0397,0.4836,11.4108,0.5523,-0.6268,1.0616
2650151.0,-7.8578,0.7829,11.0349,0.5853,-0.8035,0.994
2650161.0,-7.7476,1.1947,10.5105,0.5906,-0.9557,0.9275
2650171.0,-7.5896,1.6903,9.912,0.6024,-1.0515,0.8647
2650181.0,-7.4388,2.0758,9.4882,0.588,-1.1015,0.812
2650191.0,-7.1635,2.4469,9.074,0.5108,-1.1515,0.7636
2650201.0,-6.8474,2.7031,8.6479,0.3187,-1.2228,0.7125
2650211.0,-6.5434,2.806,8.4396,0.0335,-1.3,0.6662
2650221.0,-6.2896,2.5546,8.5904,-0.2655,-1.3862,0.6274
2650231.0,-6.1363,2.1715,8.6718,-0.4491,-1.4867,0.5976
2650241.0,-5.873,1.5778,8.5449,-0.4667,-1.5671,0.5736
2650251.0,-5.5091,1.1444,8.1882,-0.3278,-1.615,0.5332
2650261.0,-5.2361,1.0534,7.616,-0.1064,-1.608,0.4794
2650271.0,-4.9177,1.3575,6.8666,0.1314,-1.5522,0.4177
2650281.0,-4.64,1.8699,6.3398,0.2916,-1.4644,0.3634
2650291.0,-4.3479,2.3559,5.9544,0.3741,-1.3505,0.3315
2650301.0,-4.0701,2.5762,5.9735,0.3778,-1.2388,0.3235
2650311.0,-3.9073,2.5522,6.1411,0.3517,-1.152,0.3315
2650321.0,-3.6919,2.1452,6.426,0.3139,-1.1095,0.3437
2650331.0,-3.4572,1.5395,6.6295,0.3177,-1.0988,0.3427
2650341.0,-3.3016,0.9768,6.8402,0.4087,-1.0908,0.3129
2650351.0,-3.1029,0.826,6.6607,0.605,-1.0882,0.2597
2650361.0,-2.8587,1.0846,6.1986,0.8466,-1.0754,0.1948
2650371.0,-2.5426,1.4772,5.7269,1.1089,-0.9972,0.1426
2650381.0,-2.3583,1.7142,5.5713,1.3601,-0.8652,0.1171
2650391.0,-2.1045,1.9896,5.1236,1.558,-0.7769,0.0968
2650401.0,-1.8172,2.308,4.446,1.6091,-0.7306,0.0654
2650411.0,-1.5179,2.5402,3.644,1.5192,-0.638,0.0282
2650421.0,-1.3743,2.6001,3.4093,1.276,-0.5082,-0.0234
2650431.0,-1.1708,2.2889,3.6224,0.9626,-0.3906,-0.0899
2650441.0,-1.1133,1.8866,3.8762,0.6753,-0.2868,-0.1687
2650451.0,-1.087,1.4653,3.9672,0.3996,-0.2352,-0.2724
2650461.0,-0.9218,1.221,3.8738,0.1224,-0.2139,-0.4044
2650471.0,-1.0199,1.2043,3.8786,-0.1288,-0.1607,-0.5454
2650481.0,-1.2546,1.221,4.0486,-0.3134,-0.0963,-0.6721
2650491.0,-1.5514,1.0989,4.2904,-0.3672,-0.033,-0.7774
2650501.0,-1.7645,0.8045,4.1396,-0.2565,0.0442,-0.8716
2650511.0,-1.743,0.723,3.5075,-0.0537,0.1405,-0.9903
2650521.0,-1.7478,1.0774,2.806,0.124,0.2879,-1.135
2650531.0,-1.9848,1.7813,2.2314,0.2128,0.4997,-1.2856
2650541.0,-2.636,2.5067,2.1979,0.1729,0.7375,-1.4112
2650551.0,-3.1173,2.8946,2.66,0.0729,0.9418,-1.4974
2650561.0,-3.4069,3.1532,3.2034,-0.0021,1.0834,-1.5575
2650571.0,-3.7565,3.6799,3.4261,0.0245,1.2191,-1.5947
2650581.0,-4.1922,3.7685,4.1084,0.1282,1.4085,-1.5878
2650591.0,-4.5729,3.9361,4.8602,0.3049,1.5639,-1.5596
2650601.0,-5.1212,4.3694,5.3391,0.489,1.641,-1.5256
2650611.0,-5.6479,4.9033,5.5186,0.6486,1.665,-1.4718
2650621.0,-5.8754,5.1499,5.4205,0.7487,1.6708,-1.3963
2650631.0,-6.2273,5.0781,5.047,0.7966,1.7038,-1.3255
2650641.0,-6.3566,5.2313,4.7645,0.7508,1.7991,-1.2702
2650651.0,-6.948,5.3295,5.4899,0.6258,1.9747,-1.2324
2650661.0,-7.5776,5.5306,6.5146,0.4991,2.0981,-1.1808
2650671.0,-7.9823,5.1284,7.9511,0.4262,2.1396,-1.1116
2650681.0,-8.4156,4.5705,9.5936,0.5332,2.154,-1.0339
2650691.0,-8.667,4.2521,10.9966,0.7971,2.0885,-0.9791
2650701.0,-8.7388,4.8076,11.0995,1.0637,1.8714,-0.9663
2650711.0,-8.9136,5.612,10.3477,1.1057,1.6059,-0.9605
2650721.0,-8.9064,6.1555,9.6702,0.8578,1.3968,-0.9413
2650731.0,-9.0166,6.0023,9.9958,0.3868,1.242,-0.92
2650741.0,-9.323,5.2241,11.1474,-0.049,1.0951,-0.8971
2650751.0,-9.5553,4.3574,12.1937,-0.2629,0.8711,-0.8828
2650761.0,-9.56,3.9816,12.2823,-0.2102,0.5912,-0.8769
2650771.0,-9.4355,3.9097,11.4658,-0.0543,0.3517,-0.8748
2650781.0,-9.1866,3.8116,10.4411,0.049,0.2001,-0.8796
2650791.0,-8.8562,3.9073,9.4116,-0.0138,0.1054,-0.919
2650801.0,-8.8346,3.972,9.1123,-0.2671,0.0639,-0.9849
2650811.0,-9.1028,3.7206,9.5577,-0.5944,0.0282,-1.0382
2650821.0,-9.3111,2.9928,10.6039,-0.8328,-0.0681,-1.0791
2650831.0,-9.4978,2.9712,11.1833,-0.7955,-0.216,-1.1169
2650841.0,-9.4068,3.6631,10.884,-0.5231,-0.3555,-1.1185
2650851.0,-9.4355,3.0382,10.0963,-0.2543,-0.4576,-1.0882
2650861.0,-8.6119,3.3303,9.3661,-0.1644,-0.531,-1.0999
2650871.0,-8.9208,4.0534,9.335,-0.1618,-0.5215,-1.127
2650881.0,-8.9447,4.4867,9.5457,-0.1921,-0.5683,-1.0903
2650891.0,-8.8657,4.5346,9.2249,-0.2331,-0.7035,-1.0195
2650901.0,-8.6957,4.312,8.6311,-0.298,-0.8035,-0.9424
2650911.0,-8.6862,3.6536,8.7843,-0.4007,-0.8242,-0.8785
2650921.0,-8.8298,3.0694,9.1363,-0.4065,-0.8455,-0.845
2650931.0,-8.8107,2.5786,9.347,-0.2975,-0.9099,-0.8359
2650941.0,-8.6598,2.3607,9.1315,-0.0952,-0.9764,-0.8445
2650951.0,-8.5521,2.5379,8.7436,0.0979,-1.0248,-0.8684
2650961.0,-8.2504,2.9784,8.2791,0.2336,-1.0642,-0.8945
2650971.0,-8.0445,3.6512,7.8171,0.2671,-1.0882,-0.9136
2650981.0,-7.9583,4.367,7.5178,0.1783,-1.0908,-0.9067
2650991.0,-7.9296,4.628,7.9224,0.0176,-1.0823,-0.8562
2651001.0,-7.8985,4.5562,8.497,-0.1006,-1.1068,-0.7694
2651011.0,-7.7428,4.063,8.9016,-0.1463,-1.1845,-0.6683
2651021.0,-7.592,3.4429,8.9591,-0.133,-1.3005,-0.5816
2651031.0,-7.4005,2.8108,8.837,-0.0937,-1.4191,-0.5289
2651041.0,-7.1658,2.387,8.418,-0.0165,-1.5197,-0.5172
2651051.0,-7.0533,2.4684,7.4962,0.0357,-1.6107,-0.5438
2651061.0,-6.8307,2.6576,6.7469,0.0197,-1.6277,-0.5795
2651071.0,-6.6415,2.4708,6.8067,0.0192,-1.5038,-0.6002
2651081.0,-6.4955,2.3248,7.2712,0.0452,-1.3883,-0.629
2651091.0,-6.4787,2.466,7.434,0.0351,-1.3824,-0.6667
2651101.0,-6.3638,2.5642,7.6614,-0.041,-1.4197,-0.6912
2651111.0,-6.1818,2.4684,7.8003,-0.1224,-1.4713,-0.7029
2651121.0,-6.0334,2.5331,7.6878,-0.1751,-1.5367,-0.7194
2651131.0,-5.9256,2.4756,7.8626,-0.1926,-1.5548,-0.7295
2651141.0,-5.861,2.3894,7.9368,-0.1405,-1.5421,-0.7301
2651151.0,-5.8514,2.4708,7.9368,-0.1192,-1.6064,-0.7407
2651161.0,-5.6,2.5881,7.3622,-0.1192,-1.7022,-0.7471
2651171.0,-5.0996,2.8874,6.5194,-0.1697,-1.7645,-0.7561
2651181.0,-4.6424,3.304,5.5689,-0.3081,-1.7698,-0.7673
2651191.0,-4.4221,3.8355,4.8794,-0.4975,-1.7129,-0.7684
2651201.0,-4.1851,4.3191,4.4604,-0.6944,-1.6134,-0.7364
2651211.0,-3.9289,4.5897,4.063,-0.8136,-1.4873,-0.6598
2651221.0,-3.6009,4.6232,3.5913,-0.8642,-1.3351,-0.5545
2651231.0,-3.2513,4.5705,3.0933,-0.8679,-1.1217,-0.4427
2651241.0,-2.9975,4.4748,3.0718,-0.8876,-0.8711,-0.3326
2651251.0,-2.8611,4.3886,3.2633,-0.9168,-0.6364,-0.2198
2651261.0,-2.7366,4.3886,3.4644,-0.9184,-0.4438,-0.0979
2651271.0,-2.6025,4.4843,3.5554,-0.8966,-0.2826,0.0383
2651281.0,-2.6193,4.6615,3.5769,-0.8195,-0.1096,0.1963
2651291.0,-2.648,4.7262,3.6775,-0.7045,0.0729,0.3842
2651301.0,-2.6863,4.4724,3.7134,-0.5475,0.2522,0.5875
2651311.0,-2.7509,4.027,3.4979,-0.3847,0.415,0.7795
2651321.0,-2.7533,3.4644,3.1125,-0.2607,0.5938,0.9307
2651331.0,-2.8467,2.8419,3.0646,-0.2251,0.8131,1.0291
2651341.0,-3.0813,2.2434,3.3734,-0.2746,1.0158,1.0738
2651351.0,-3.3974,1.8172,3.6823,-0.397,1.1371,1.0632
2651361.0,-3.7158,1.6305,3.8738,-0.5465,1.2292,1.019
2651371.0,-4.2593,2.8156,4.0773,-0.6619,1.3393,0.9812
2651381.0,-4.8123,2.0039,4.4915,-0.7588,1.4452,0.9966
2651391.0,-4.9321,1.4892,4.8411,-0.8567,1.5218,1.0046
2651401.0,-5.1882,1.1779,5.8969,-0.8647,1.6485,0.9472
2651411.0,-5.9496,1.7334,6.2776,-0.7779,1.7139,0.8785
2651421.0,-6.2991,1.8675,7.1467,-0.7125,1.7256,0.8487
2651431.0,-6.3997,2.5881,6.6152,-0.6343,1.6357,0.8242
2651441.0,-6.4739,3.3255,5.9496,-0.7279,1.557,0.8179
2651451.0,-6.766,4.1587,5.6647,-0.9269,1.5947,0.8626
2651461.0,-7.3263,4.5681,6.2584,-1.1451,1.6746,0.9706
2651471.0,-7.7692,4.5514,6.8738,-1.2441,1.7086,1.1371
2651481.0,-8.1116,4.1922,7.1108,-1.2404,1.7054,1.3319
2651491.0,-8.3845,3.6081,7.3358,-1.1765,1.7193,1.5256
2651501.0,-8.6072,3.1484,7.5034,-1.0653,1.7624,1.6985
2651511.0,-8.9639,3.0335,7.6016,-0.9397,1.8134,1.8571
2651521.0,-9.347,2.6576,8.2193,-0.7918,1.9199,2.0332
2651531.0,-9.7875,1.7669,9.5864,-0.5422,2.0657,2.2253
2651541.0,-10.0533,1.2522,11.0828,-0.1799,2.1183,2.3934
2651551.0,-10.1921,0.6081,11.8657,0.2331,2.0433,2.5249
2651561.0,-10.003,0.3591,11.746,0.5289,1.8736,2.5951
2651571.0,-9.7707,-0.4788,11.2432,0.5853,1.6825,2.5887
2651581.0,-9.4092,-0.9218,10.2927,0.3932,1.4686,2.4717
2651591.0,-9.1961,-1.1061,9.5385,0.0208,1.3372,2.2705
2651601.0,-9.232,-0.9409,9.2895,-0.4315,1.2994,2.0289
2651611.0,-9.3972,-1.154,10.1897,-0.8801,1.3005,1.798
2651621.0,-9.5122,-1.2522,11.2695,-1.185,1.2127,1.5931
2651631.0,-9.4236,-1.4964,12.1242,-1.3393,1.0052,1.4106
2651641.0,-9.2153,-1.6209,12.2416,-1.3707,0.7359,1.2457
2651651.0,-8.9567,-1.5802,11.9854,-1.3516,0.4534,1.0871
2651661.0,-8.7436,-1.3575,11.2408,-1.2686,0.2075,0.9456
2651671.0,-8.5329,-0.431,10.1897,-1.1228,0.0474,0.8328
2651681.0,-8.4515,0.565,9.256,-0.9248,0.0293,0.7811
2651691.0,-8.5545,1.3168,8.8681,-0.7295,0.1149,0.8019
2651701.0,-8.7029,1.6927,9.1123,-0.5428,0.2267,0.8775
2651711.0,-8.7843,1.6448,9.5912,-0.3762,0.2815,0.9796
2651721.0,-8.8657,1.324,9.9695,-0.2469,0.2416,1.0797
2651731.0,-8.9352,0.8595,10.3262,-0.1383,0.158,1.1632
2651741.0,-8.9136,0.2705,10.8074,0.0303,0.0931,1.226
2651751.0,-8.9615,-0.4429,11.4227,0.281,0.0388,1.2616
2651761.0,-8.7771,-1.0056,11.7148,0.563,-0.0814,1.2483
2651771.0,-8.4276,-1.1492,11.4754,0.8093,-0.2442,1.1733
2651781.0,-8.2408,-0.4956,10.8577,0.9695,-0.3735,1.0509
2651791.0,-8.1714,0.2107,10.2951,0.9323,-0.473,0.9158
2651801.0,-8.1618,0.905,9.7468,0.6657,-0.6141,0.7764
2651811.0,-8.1307,1.1061,9.5002,0.2086,-0.7934,0.6364
2651821.0,-7.8171,0.7973,9.3182,-0.2826,-0.9674,0.4917
2651831.0,-7.6423,0.3041,9.517,-0.7024,-1.1047,0.3267
2651841.0,-7.4723,0.0742,9.6702,-0.944,-1.2169,0.1575
2651851.0,-7.4484,0.182,9.7133,-1.0195,-1.3388,0.009
2651861.0,-7.1658,0.5291,9.4667,-0.9557,-1.4606,-0.1027
2651871.0,-7.1419,0.8404,9.0908,-0.7726,-1.524,-0.1623
2651881.0,-6.9743,1.0223,8.837,-0.4901,-1.5383,-0.1724
2651891.0,-6.79,1.0726,8.4204,-0.124,-1.524,-0.1548
2651901.0,-6.4955,0.9385,7.9152,0.24,-1.4936,-0.1373
2651911.0,-6.1459,1.2115,7.0366,0.5289,-1.4532,-0.1399
2651921.0,-5.94,1.6065,6.4787,0.6258,-1.3979,-0.1602
2651931.0,-5.77,1.9872,6.2632,0.5763,-1.3319,-0.1815
2651941.0,-5.703,1.9441,6.7301,0.4949,-1.2638,-0.1873
2651951.0,-5.4229,1.7957,6.9456,0.4949,-1.2425,-0.1857
2651961.0,-5.1092,1.5945,7.0126,0.538,-1.2462,-0.1974
2651971.0,-4.8243,1.5036,6.7612,0.5896,-1.2361,-0.2192
2651981.0,-4.6567,1.3934,6.7109,0.5736,-1.234,-0.2602
2651991.0,-4.4532,1.4365,6.4404,0.5369,-1.2638,-0.307
2652001.0,-4.1683,1.5083,6.0286,0.4677,-1.3079,-0.3629
2652011.0,-3.8666,1.6735,5.0925,0.3778,-1.3271,-0.4225
2652021.0,-3.4572,1.8675,4.3263,0.2118,-1.2909,-0.4917
2652031.0,-3.2872,2.0255,3.7445,0.0048,-1.1866,-0.5619
2652041.0,-3.0765,2.1715,3.5003,-0.2341,-1.0711,-0.6284
2652051.0,-2.9305,2.3152,3.2274,-0.455,-0.9642,-0.6816
2652061.0,-2.8443,2.3583,2.9401,-0.6167,-0.8461,-0.7098
2652071.0,-2.7821,2.1883,2.8587,-0.6859,-0.6912,-0.712
2652081.0,-2.7557,1.8627,2.7581,-0.6151,-0.4943,-0.6965
2652091.0,-2.7581,1.561,2.5833,-0.4262,-0.2778,-0.6896
2652101.0,-2.7701,1.2905,2.1021,-0.1777,-0.0202,-0.704
2652111.0,-2.7773,1.1037,1.6376,0.009,0.2788,-0.7604
2652121.0,-2.9018,1.0774,1.6496,0.0351,0.5837,-0.8626
2652131.0,-3.2274,1.2857,2.1979,-0.0777,0.8508,-0.9849
2652141.0,-3.6416,1.6233,3.0813,-0.2112,1.0525,-1.0898
2652151.0,-4.0079,2.083,3.7469,-0.274,1.1829,-1.1547
2652161.0,-4.3335,2.4062,4.3814,-0.2533,1.3031,-1.1648
2652171.0,-4.6208,2.4684,5.3175,-0.1362,1.4495,-1.1281
2652181.0,-4.9632,2.3894,6.5122,0.0846,1.5687,-1.0642
2652191.0,-5.2936,2.2673,7.4388,0.3831,1.6027,-0.9924
2652201.0,-5.4827,2.2913,7.5848,0.655,1.525,-0.9333
2652211.0,-5.5976,2.4684,7.094,0.7811,1.3984,-0.9025
2652221.0,-5.7652,2.7629,6.268,0.7173,1.2957,-0.8961
2652231.0,-5.928,2.8587,5.7221,0.489,1.2531,-0.9014
2652241.0,-6.2704,2.5235,5.8131,0.2182,1.3244,-0.8993
2652251.0,-6.7038,1.6783,6.8019,0.0149,1.4516,-0.8998
2652261.0,-7.0485,0.9936,7.999,-0.0468,1.5059,-0.9222
2652271.0,-7.5322,0.8691,8.8155,0.0197,1.4803,-0.961
2652281.0,-7.9583,1.063,9.3901,0.2001,1.4314,-0.9775
2652291.0,-8.1547,1.2761,9.8162,0.4635,1.3622,-0.9706
2652301.0,-8.181,1.7214,9.4571,0.7886,1.3042,-0.9488
2652311.0,-8.2696,1.9249,9.1195,1.0185,1.3101,-0.9232
2652321.0,-8.5162,2.071,8.9543,1.0685,1.3335,-0.9078
2652331.0,-8.837,2.047,9.3278,0.8982,1.3026,-0.9222
2652341.0,-9.2584,1.9872,9.8713,0.6407,1.2185,-0.9509
2652351.0,-9.4954,1.4988,11.133,0.4385,1.1313,-0.9711
2652361.0,-9.663,0.984,12.4163,0.4768,1.0344,-0.9855
2652371.0,-9.7707,0.9433,13.1154,0.7141,0.8732,-1.0147
2652381.0,-9.8904,1.494,12.8401,0.9748,0.6497,-1.052
2652391.0,-9.8162,2.2505,12.0237,1.0424,0.4044,-1.0892
2652401.0,-9.7013,2.9688,11.2863,0.8471,0.1724,-1.1228
2652411.0,-9.7707,3.3495,10.9726,0.4736,-0.0245,-1.1393
2652421.0,-9.7492,3.1771,11.0636,0.0851,-0.2112,-1.1302
2652431.0,-9.7779,2.7629,11.1857,-0.1878,-0.3906,-1.1132
2652441.0,-9.8186,2.3296,11.406,-0.2639,-0.5412,-1.0834
2652451.0,-9.754,2.0423,11.485,-0.1091,-0.6758,-1.044
2652461.0,-9.572,2.1524,10.8673,0.2421,-0.7875,-0.9924
2652471.0,-9.3446,2.49,9.8138,0.6204,-0.8562,-0.9349
2652481.0,-9.0597,2.818,8.7245,0.861,-0.8583,-0.8796
2652491.0,-8.8466,2.9233,8.4108,0.9136,-0.804,-0.8344
2652501.0,-8.6694,2.9592,8.5808,0.8477,-0.77,-0.8046
2652511.0,-8.6215,2.9377,8.9112,0.7253,-0.8003,-0.7865
2652521.0,-8.5258,2.8754,9.0908,0.5832,-0.8892,-0.7737
2652531.0,-8.4683,2.6815,9.3158,0.4496,-0.9919,-0.7577
2652541.0,-8.3797,2.4229,9.4044,0.3842,-1.1057,-0.7412
2652551.0,-8.3007,2.2122,9.2344,0.3932,-1.2196,-0.7311
2652561.0,-8.1379,1.9154,8.8585,0.4619,-1.2984,-0.7247
2652571.0,-7.9176,1.7166,8.3438,0.5236,-1.3574,-0.7444
2652581.0,-7.6998,1.6783,7.841,0.5156,-1.3872,-0.7966
2652591.0,-7.5202,1.9154,7.5824,0.4113,-1.4037,-0.8711
2652601.0,-7.4555,2.2434,7.5633,0.2389,-1.4229,-0.9456
2652611.0,-7.422,2.4995,7.7045,0.0777,-1.458,-0.9982
2652621.0,-7.3598,2.6911,7.6495,-0.041,-1.524,-1.0254
2652631.0,-7.1132,2.7916,7.2449,-0.0947,-1.5735,-1.0334
2652641.0,-6.9288,2.739,6.9552,-0.1155,-1.5495,-1.0275
2652651.0,-6.6846,2.4972,6.9983,-0.132,-1.4819,-1.0275
2652661.0,-6.5984,1.9417,7.4124,-0.1772,-1.4218,-1.0467
2652671.0,-6.5984,1.561,8.0685,-0.2336,-1.4356,-1.0977
2652681.0,-6.4931,1.3288,8.5186,-0.2868,-1.5256,-1.1664
2652691.0,-6.4045,1.4509,8.5281,-0.323,-1.6857,-1.2478
2652701.0,-6.1842,2.0063,7.6806,-0.3491,-1.8613,-1.3196
2652711.0,-5.8586,2.7246,6.2872,-0.4257,-1.9688,-1.3697
2652721.0,-5.6168,3.3279,5.1547,-0.5859,-1.9422,-1.3888
2652731.0,-5.4061,3.3734,5.1308,-0.7913,-1.7938,-1.3702
2652741.0,-5.2122,3.1005,5.849,-0.8892,-1.6096,-1.3335
2652751.0,-5.0637,3.043,6.7397,-0.8466,-1.4952,-1.2861
2652761.0,-5.0206,3.3184,7.1778,-0.713,-1.4777,-1.21
2652771.0,-4.8722,3.6488,6.9791,-0.571,-1.5373,-1.0908
2652781.0,-4.5442,3.7948,6.2058,-0.4353,-1.5852,-0.9408
2652791.0,-4.0797,3.8523,5.521,-0.2895,-1.5213,-0.7795
2652801.0,-3.5793,4.0534,4.8722,-0.1564,-1.3723,-0.6146
2652811.0,-3.4333,4.2234,4.5514,-0.0958,-1.1893,-0.4417
2652821.0,-3.2202,4.0677,4.4293,-0.1022,-1.0121,-0.2543
2652831.0,-2.897,3.6847,4.5753,-0.1272,-0.8455,-0.066
2652841.0,-2.6408,3.3854,4.6831,-0.1149,-0.687,0.1075
2652851.0,-2.4684,3.1915,4.8028,-0.0665,-0.5321,0.2671
2652861.0,-2.332,2.9185,4.8315,0.0394,-0.3602,0.4268
2652871.0,-2.1308,2.6935,4.6974,0.1538,-0.1969,0.5741
2652881.0,-1.9321,2.4804,4.4508,0.2336,-0.041,0.7035
2652891.0,-1.7478,2.3104,4.2808,0.2496,0.132,0.8093
2652901.0,-1.8579,2.1691,4.1994,0.191,0.3145,0.9003
2652911.0,-2.1308,1.6951,4.877,0.1219,0.513,0.9945
2652921.0,-2.308,1.1732,5.4444,0.1437,0.6561,1.0855
2652931.0,-2.3727,0.7254,5.5258,0.2256,0.7274,1.1494
2652941.0,-2.6169,0.6033,4.9297,0.3283,0.8237,1.1808
2652951.0,-2.8539,0.3232,4.5083,0.3363,1.002,1.1781
2652961.0,-3.2657,-0.0144,4.7309,0.2639,1.2361,1.1313
2652971.0,-3.735,-0.3424,5.5545,0.1655,1.4559,1.0515
2652981.0,-4.039,-0.7757,6.7947,0.1144,1.6176,0.9472
2652991.0,-4.1611,-0.7278,7.58,0.1272,1.6751,0.8136
2653001.0,-4.5274,-0.2897,7.9631,0.1256,1.6607,0.6816
2653011.0,-4.7716,0.4717,8.1714,0.1117,1.6134,0.5789
2653021.0,-4.9919,1.2186,7.9224,0.0931,1.549,0.5135
2653031.0,-5.1547,1.992,7.1587,0.049,1.5096,0.4683
2653041.0,-5.5498,2.5905,6.6415,-0.1011,1.5633,0.4369
2653051.0,-6.0142,2.6169,7.3358,-0.3155,1.7033,0.4225
2653061.0,-6.3351,2.5929,8.5066,-0.4997,1.7624,0.4028
2653071.0,-6.6726,2.9951,9.2632,-0.6476,1.6565,0.3778
2653081.0,-6.9695,3.6727,9.3829,-0.7327,1.5064,0.3954
2653091.0,-7.2688,4.1468,9.5433,-0.7684,1.3883,0.4773
2653101.0,-7.4915,4.3766,9.5313,-0.7008,1.2957,0.6039
2653111.0,-7.5513,4.4867,8.9878,-0.5789,1.2106,0.7343
2653121.0,-7.5872,4.7429,7.9464,-0.5305,1.1579,0.8445
2653131.0,-7.7093,5.0949,7.2927,-0.6385,1.1797,0.9488
2653141.0,-8.181,5.3463,7.6088,-0.8141,1.292,1.0828
2653151.0,-8.6024,5.1667,8.6766,-0.9158,1.3968,1.267
2653161.0,-8.8514,4.4652,9.7037,-0.8663,1.4186,1.4809
2653171.0,-8.8466,3.6248,10.1682,-0.7088,1.3606,1.6863
2653181.0,-8.8202,2.8635,10.2065,-0.555,1.268,1.8459
2653191.0,-8.7125,2.2362,10.0149,-0.4507,1.1637,1.9491
2653201.0,-8.5784,1.8747,9.3853,-0.4145,1.044,1.9896
2653211.0,-8.5425,1.9656,8.4132,-0.4683,0.9519,1.9874
2653221.0,-8.6095,2.2051,7.5609,-0.5981,0.9573,1.9848
2653231.0,-8.8059,2.1189,7.6136,-0.7689,1.0711,2.0013
2653241.0,-9.2177,1.4844,8.5425,-0.9104,1.2164,2.0343
2653251.0,-9.347,0.5602,9.9671,-0.97,1.2494,2.0513
2653261.0,-9.2943,-0.1389,10.8912,-0.9094,1.1488,2.0311
2653271.0,-9.1578,-0.4908,11.1091,-0.7843,0.9653,1.9779
2653281.0,-9.019,-0.2035,10.5632,-0.6758,0.7503,1.9018
2653291.0,-8.916,0.5387,9.6367,-0.6204,0.6087,1.8379
2653301.0,-8.9016,1.1995,8.9519,-0.613,0.5981,1.8166
2653311.0,-9.0525,1.5036,8.9639,-0.6481,0.6816,1.8347
2653321.0,-9.2991,1.4509,9.5313,-0.7221,0.7588,1.8736
2653331.0,-9.5217,0.6201,11.2025,-0.7992,0.7769,1.931
2653341.0,-9.7109,-0.5076,12.876,-0.729,0.6604,1.98
2653351.0,-9.5385,-1.6233,13.9893,-0.4975,0.3746,1.9885
2653361.0,-9.0214,-2.2649,13.714,-0.1043,0.0271,1.9417
2653371.0,-8.5569,-1.9704,12.4115,0.3225,-0.2533,1.8454
2653381.0,-7.9009,-1.9225,10.3118,0.5896,-0.4289,1.7118
2653391.0,-7.4819,-1.3695,8.3773,0.5177,-0.4981,1.5128
2653401.0,-7.173,-0.8284,7.6064,0.1383,-0.4512,1.2813
2653411.0,-7.3478,-0.4357,8.0972,-0.3714,-0.3757,1.0509
2653421.0,-7.4436,-0.3352,9.2201,-0.7764,-0.3751,0.861
2653431.0,-7.4005,-0.4094,9.9886,-0.9594,-0.4667,0.7173
2653441.0,-7.1706,-0.5411,10.2999,-0.9248,-0.5853,0.6082
2653451.0,-6.9552,-0.5339,10.2232,-0.7604,-0.6896,0.5146
2653461.0,-6.8115,-0.261,9.979,-0.5428,-0.7737,0.4305
2653471.0,-6.6319,0.1556,9.663,-0.3209,-0.8397,0.3581
2653481.0,-6.541,0.7063,9.1411,-0.1266,-0.8886,0.3038
2653491.0,-6.4045,1.0989,8.7317,0.0085,-0.9184,0.2708
2653501.0,-6.2417,1.5395,8.1594,0.0601,-0.9551,0.2442
2653511.0,-6.1316,1.834,7.8769,0.0245,-0.9802,0.223
2653521.0,-5.9999,1.9369,7.774,-0.0452,-0.9887,0.2112
2653531.0,-5.8419,1.8938,7.8482,-0.0894,-0.9966,0.2001
2653541.0,-5.6719,1.8675,7.8027,-0.0553,-1.0084,0.1921
2653551.0,-5.5115,1.7166,7.7476,0.0261,-1.003,0.1862
2653561.0,-5.296,1.5036,7.7716,0.1479,-0.9684,0.1756
2653571.0,-5.1068,1.5155,7.8099,0.2847,-0.9466,0.1554
2653581.0,-4.9919,1.7023,7.7931,0.4039,-0.9589,0.1368
2653591.0,-4.8578,1.822,7.5681,0.5028,-0.9865,0.1341
2653601.0,-4.6064,1.8435,7.2401,0.5954,-1.003,0.1378
2653611.0,-4.3862,1.8459,6.8953,0.6795,-0.9908,0.1389
2653621.0,-3.2968,1.2306,6.9647,0.7615,-0.9307,0.1373
2653631.0,-4.5418,1.3408,6.936,0.8987,-0.8253,0.1133
2653641.0,-4.2856,1.4581,6.6176,0.9594,-0.8322,0.0697
2653651.0,-3.5913,1.5299,5.9328,0.9158,-0.8498,0.0027
2653661.0,-3.5075,1.5275,5.6407,0.7928,-0.7497,-0.058
2653671.0,-3.371,1.3815,5.964,0.6231,-0.6518,-0.1399
2653681.0,-3.2848,1.3551,6.268,0.4927,-0.6146,-0.2331
2653691.0,-3.1843,1.4988,6.1483,0.4214,-0.6093,-0.3251
2653701.0,-3.1077,1.7717,5.9113,0.3544,-0.5896,-0.4055
2653711.0,-3.0167,2.0399,5.5952,0.2613,-0.5412,-0.4762
2653721.0,-2.9616,1.9393,5.4588,0.1096,-0.472,-0.5491
2653731.0,-3.1101,2.0087,5.4396,-0.0958,-0.423,-0.6375
2653741.0,-3.2537,2.2146,5.7509,-0.2911,-0.3805,-0.7237
2653751.0,-3.6105,2.2913,5.9975,-0.3757,-0.3437,-0.7806
2653761.0,-3.7086,2.1835,6.2896,-0.3198,-0.3081,-0.8051
2653771.0,-3.5913,1.8986,6.2297,-0.083,-0.2299,-0.8205
2653781.0,-3.62,1.8675,6.0861,0.2341,-0.1171,-0.854
2653791.0,-3.6105,2.1548,5.9233,0.5225,0.0032,-0.8993
2653801.0,-3.7062,2.727,5.7221,0.7215,0.1027,-0.9445
2653811.0,-3.6919,2.7366,5.5474,0.804,0.1681,-0.9812
2653821.0,-3.6655,3.0311,5.2744,0.7748,0.215,-1.0302
2653831.0,-3.7541,3.395,5.3774,0.6715,0.2927,-1.0844
2653841.0,-4.1276,3.9265,5.4971,0.5704,0.3682,-1.1153
2653851.0,-4.2162,4.1228,5.9687,0.4778,0.4017,-1.102
2653861.0,-3.7804,4.0797,6.2249,0.4555,0.4166,-1.0546
2653871.0,-5.1308,4.0917,6.1148,0.4688,0.4454,-0.9897
2653881.0,-4.5562,3.9863,5.9256,0.4326,0.398,-0.9477
2653891.0,-4.312,3.8044,5.363,0.4129,0.4401,-0.9094
2653901.0,-4.5059,3.5841,5.3822,0.3459,0.5672,-0.8785
2653911.0,-4.6088,3.5219,5.6934,0.2708,0.6923,-0.8684
2653921.0,-5.0566,3.5195,6.1627,0.2097,0.8056,-0.8626
2653931.0,-5.3367,3.2705,6.7564,0.1607,0.8982,-0.8503
2653941.0,-5.5785,2.8228,7.422,0.1027,0.9626,-0.8503
2653951.0,-5.8754,2.2529,8.3366,0.0186,0.9754,-0.8775
2653961.0,-6.1196,1.8555,9.2727,-0.0569,0.9046,-0.9371
2653971.0,-6.2537,1.8794,9.833,-0.0532,0.7673,-1.0057
2653981.0,-6.3997,2.1284,10.0173,0.0846,0.6407,-1.0562
2653991.0,-6.5434,2.5235,9.6055,0.307,0.5545,-1.077
2654001.0,-6.6463,3.0502,8.9208,0.4672,0.4991,-1.0914
2654011.0,-6.8833,3.5123,8.09,0.448,0.4656,-1.1015
2654021.0,-6.9959,3.5099,7.6591,0.2107,0.4629,-1.1153
2654031.0,-7.1012,3.2202,7.7883,-0.1341,0.4965,-1.1462
2654041.0,-7.3933,2.6887,8.8466,-0.4512,0.5401,-1.1866
2654051.0,-7.7261,2.162,10.161,-0.5672,0.5289,-1.2217
2654061.0,-7.8243,1.9082,10.8649,-0.4358,0.4363,-1.2521
2654071.0,-7.853,2.0949,10.7811,-0.1288,0.3411,-1.267
2654081.0,-7.8266,2.5331,10.3884,0.1974,0.3001,-1.2643
2654091.0,-7.8051,3.1077,9.9503,0.4108,0.2783,-1.2563
2654101.0,-7.9272,3.7565,9.4739,0.423,0.2373,-1.2441
2654111.0,-8.0254,3.9576,9.3302,0.2224,0.1783,-1.2169
2654121.0,-8.0469,3.7302,9.3972,-0.1016,0.1032,-1.1893
2654131.0,-8.1523,3.1843,10.1873,-0.4092,0.0452,-1.1749
2654141.0,-8.2839,2.7581,10.9559,-0.5406,-0.0325,-1.1616
2654151.0,-8.3079,2.4684,11.7029,-0.4672,-0.1463,-1.1451
2654161.0,-8.2073,2.6312,11.4012,-0.2139,-0.274,-1.1126
2654171.0,-8.1259,2.8659,10.92,0.0117,-0.3868,-1.0701
2654181.0,-7.9775,3.1627,10.0078,0.1288,-0.4874,-1.0248
2654191.0,-7.8673,3.1149,9.3087,0.0521,-0.5598,-0.9892
2654201.0,-7.6351,2.7869,8.8394,-0.1383,-0.5938,-0.977
2654211.0,-7.5393,2.2865,8.9471,-0.3789,-0.5885,-0.9956
2654221.0,-7.4699,1.7933,9.3661,-0.5529,-0.5853,-1.0312
2654231.0,-7.5609,1.5203,9.8761,-0.6125,-0.6061,-1.0807
2654241.0,-7.604,1.6137,10.0341,-0.5539,-0.6455,-1.1206
2654251.0,-7.7213,1.7166,10.1778,-0.4252,-0.6715,-1.1371
2654261.0,-7.7381,1.7526,10.2903,-0.24,-0.6843,-1.1329
2654271.0,-7.7333,1.8675,10.2951,-0.0564,-0.712,-1.1275
2654281.0,-7.5944,2.3056,10.0556,0.0537,-0.7577,-1.1265
2654291.0,-7.5082,2.7629,9.9934,0.0037,-0.8147,-1.126
2654301.0,-7.4986,3.2058,10.0341,-0.157,-0.8977,-1.1057
2654311.0,-7.4699,3.3351,10.3669,-0.3501,-1.0084,-1.0562
2654321.0,-7.331,3.1532,10.4842,-0.4741,-1.1382,-0.9828
2654331.0,-7.2616,2.8347,10.3837,-0.4965,-1.2521,-0.9073
2654341.0,-7.1012,2.5067,10.1035,-0.4294,-1.3319,-0.8338
2654351.0,-6.9791,2.1069,9.6391,-0.3459,-1.3883,-0.7838
2654361.0,-6.8115,2.0039,9.2488,-0.2778,-1.4096,-0.762
2654371.0,-6.6032,1.8555,9.3254,-0.2432,-1.3792,-0.7519
2654381.0,-6.5793,2.1141,9.6007,-0.1953,-1.3372,-0.7418
2654391.0,-6.5434,2.1117,10.2352,-0.1777,-1.3494,-0.7098
2654401.0,-6.4643,2.1093,10.671,-0.1298,-1.4351,-0.6726
2654411.0,-6.3638,2.2841,10.5656,-0.0495,-1.5761,-0.6337
2654421.0,-6.2153,2.4804,9.8761,-0.0138,-1.7299,-0.589
2654431.0,-5.9927,2.5474,9.0214,-0.0362,-1.8241,-0.538
2654441.0,-5.7078,2.4421,8.6024,-0.0889,-1.823,-0.4911
2654451.0,-5.5091,2.2697,8.6119,-0.0889,-1.7485,-0.4507
2654461.0,-5.3175,2.1189,8.6072,-0.0713,-1.6751,-0.4305
2654471.0,-5.0757,2.2194,8.5305,-0.1346,-1.6522,-0.4289
2654481.0,-5.035,2.1452,8.5904,-0.3299,-1.6751,-0.4369
2654491.0,-4.7573,2.2913,8.5545,-0.5859,-1.7469,-0.4635
2654501.0,-4.5586,2.6528,8.7101,-0.7742,-1.7538,-0.4789
2654511.0,-4.4891,2.9257,8.9998,-0.8604,-1.724,-0.4534
2654521.0,-4.5155,2.9521,9.3063,-0.8546,-1.7278,-0.3815
2654531.0,-4.4245,2.8515,9.3374,-0.7891,-1.7762,-0.2714
2654541.0,-4.1037,2.4205,9.5026,-0.6173,-1.7762,-0.1357
2654551.0,-3.9289,2.0255,9.4403,-0.3352,-1.7389,-0.0053
2654561.0,-3.7637,1.7526,8.8729,-0.1064,-1.7645,0.0905
2654571.0,-3.3136,1.5299,8.2456,0.0521,-1.7363,0.1559
2654581.0,-2.9521,1.6544,8.0349,0.0952,-1.6469,0.1783
2654591.0,-2.8395,2.2122,8.248,0.033,-1.5527,0.1841
2654601.0,-2.7701,2.624,8.6095,-0.1139,-1.5431,0.216
2654611.0,-2.5115,2.8276,8.4994,-0.3044,-1.64,0.2794
2654621.0,-2.2194,2.7725,7.9799,-0.4986,-1.7352,0.3634
2654631.0,-1.8004,2.4684,7.4939,-0.6779,-1.7804,0.4544
2654641.0,-1.5155,2.0949,7.2568,-0.7795,-1.7602,0.5364
2654651.0,-1.4581,1.8124,7.1826,-0.729,-1.6676,0.621
2654661.0,-1.3192,1.4676,7.027,-0.572,-1.5649,0.7125
2654671.0,-1.0582,1.1516,6.4811,-0.3613,-1.4793,0.7987
2654681.0,-0.6632,0.8667,5.6383,-0.2123,-1.3931,0.8604
2654691.0,-0.3879,1.1396,5.047,-0.1421,-1.2547,0.8924
2654701.0,0.0168,1.0702,4.7764,-0.0926,-1.0669,0.9275
2654711.0,0.2514,0.7518,4.6615,-0.0271,-0.8775,0.9637
2654721.0,0.4381,0.735,4.197,0.0612,-0.7088,0.9961
2654731.0,0.7805,0.7638,3.7685,0.1383,-0.5087,1.0254
2654741.0,0.9457,0.8308,3.4117,0.1868,-0.2661,1.052
2654751.0,0.8164,0.8787,3.5386,0.1948,-0.0059,1.086
2654761.0,0.7278,0.814,4.0175,0.2453,0.2639,1.1361
2654771.0,0.6057,0.6488,4.5681,0.3613,0.497,1.1973
2654781.0,0.407,0.3639,5.0566,0.5215,0.6753,1.2595
2654791.0,0.4118,0.4741,5.2433,0.7221,0.8168,1.317
2654801.0,0.4621,0.2203,5.375,0.8854,0.9312,1.3675
2654811.0,0.4549,-0.0407,5.0757,0.9998,1.0302,1.3941
2654821.0,0.5411,-0.3136,5.0039,1.0408,1.1648,1.3787
2654831.0,0.5387,-0.2634,4.6376,1.0243,1.3186,1.3159
2654841.0,0.1963,-0.2083,4.5633,0.8429,1.4569,1.2196
2654851.0,-0.17,-0.1676,4.5586,0.5177,1.5575,1.1137
2654861.0,-0.4812,-0.249,4.865,0.0889,1.608,0.9988
2654871.0,-0.814,-0.2011,4.889,-0.3203,1.5862,0.8886
2654881.0,-1.0415,-0.1844,4.4652,-0.629,1.5777,0.7944
2654891.0,-1.3336,0.1221,3.8092,-0.7471,1.706,0.7301
2654901.0,-1.7621,0.1484,3.881,-0.6848,2.0295,0.7136
2654911.0,-2.3176,0.1197,4.6208,-0.4486,2.4472,0.7226
2654921.0,-2.7964,0.0479,5.8371,-0.1389,2.8048,0.729
2654931.0,-3.2561,0.3591,6.5817,0.1309,2.999,0.7194
2654941.0,-3.7445,0.7877,7.1084,0.2581,3.0698,0.7072
2654951.0,-4.288,1.3958,7.1132,0.2613,3.0442,0.7082
2654961.0,-4.889,1.8411,6.9839,0.2144,3.0314,0.7428
2654971.0,-5.6838,2.4517,6.5314,0.2219,3.1075,0.7982
2654981.0,-6.2513,2.7078,6.3231,0.2458,3.3193,0.8647
2654991.0,-7.5633,2.7749,6.924,0.2469,3.6822,0.912
2655001.0,-8.7676,2.715,8.5641,0.0915,4.0031,0.945
2655011.0,-9.1961,2.2673,11.959,-0.2134,4.159,0.9626
2655021.0,-10.8409,2.2458,15.2487,-0.4784,4.0675,1.0217
2655031.0,-11.904,1.7454,18.433,-0.6965,3.6024,1.1361
2655041.0,-12.1362,1.4964,19.1871,-0.6321,2.9293,1.2787
2655051.0,-12.0716,0.9433,18.1911,-0.4076,2.3594,1.4197
2655061.0,-11.9159,0.2753,16.7403,-0.1958,2.0407,1.4889
2655071.0,-12.0979,-0.2394,16.6636,-0.0803,1.9874,1.4575
2655081.0,-12.4929,-0.7685,18.1935,-0.025,1.9954,1.3686
2655091.0,-12.7204,-1.008,20.2645,0.0378,1.7938,1.2478
2655101.0,-12.5408,-1.3982,21.1767,0.158,1.3505,1.1158
2655111.0,-11.9542,-1.0798,20.5375,0.2043,0.7897,0.9535
2655121.0,-11.5065,-0.182,19.4433,0.0245,0.3054,0.7737
2655131.0,-11.3964,0.6512,18.8735,-0.3544,-0.0867,0.6082
2655141.0,-11.3605,1.0247,18.5263,-0.821,-0.5055,0.4938
2655151.0,-10.963,0.8332,17.765,-1.2478,-0.994,0.4188
2655161.0,-10.4172,0.5555,16.5344,-1.5293,-1.4245,0.3672
2655171.0,-9.9766,0.2825,15.3373,-1.607,-1.6825,0.3347
2655181.0,-9.7444,-0.0551,14.6645,-1.4899,-1.8017,0.3262
2655191.0,-9.5241,-0.17,14.0085,-1.185,-1.8784,0.3363
2655201.0,-9.1889,-0.1891,13.1944,-0.7471,-1.9358,0.3677
2655211.0,-8.7915,-0.3017,12.0141,-0.2985,-1.9576,0.398
2655221.0,-8.1594,-0.328,10.7093,-0.0005,-1.9369,0.3895
2655231.0,-7.695,-0.2993,9.9742,0.0399,-1.8752,0.3219
2655241.0,-7.4508,0.0359,10.0796,-0.1011,-1.8214,0.2107
