time_ms,ax,ay,az,gx,gy,gz
1914871.0,-2.8922,5.0805,8.3701,-0.1022,0.0021,-0.0718
1914881.0,-2.8515,5.1044,8.2815,-0.1091,0.0069,-0.0734
1914891.0,-2.8946,5.1523,8.327,-0.1192,0.0154,-0.075
1914901.0,-2.9137,5.1978,8.2935,-0.1213,0.0186,-0.0697
1914911.0,-2.9497,5.1404,8.3007,-0.1181,0.0192,-0.0633
1914921.0,-2.9185,5.1547,8.2815,-0.1086,0.025,-0.0543
1914931.0,-2.897,5.0829,8.3701,-0.0921,0.0388,-0.0436
1914941.0,-2.9018,4.9632,8.442,-0.0702,0.0569,-0.0362
1914951.0,-2.8706,4.944,8.5425,-0.0543,0.0553,-0.0362
1914961.0,-2.9281,4.9512,8.5521,-0.0495,0.0303,-0.0388
1914971.0,-2.8491,4.8243,8.4276,-0.0495,-0.016,-0.041
1914981.0,-2.7821,4.7477,8.169,-0.0511,-0.0378,-0.0506
1914991.0,-2.7174,4.6112,8.0421,-0.0607,-0.0255,-0.0697
1915001.0,-2.7701,4.5921,8.1068,-0.0649,0.0059,-0.0979
1915011.0,-2.8467,4.7453,8.2145,-0.0729,0.0255,-0.1272
1915021.0,-2.9066,4.8722,8.3725,-0.0878,0.0128,-0.149
1915031.0,-2.897,4.9752,8.3103,-0.0894,-0.0149,-0.1596
1915041.0,-2.8419,5.0206,8.1954,-0.0841,-0.0261,-0.1644
1915051.0,-2.8611,5.1092,8.1403,-0.0708,-0.0176,-0.1644
1915061.0,-2.8946,5.1475,8.1235,-0.0665,-0.0128,-0.1612
1915071.0,-2.8802,5.1308,8.0972,-0.0553,-0.0096,-0.1538
1915081.0,-2.873,5.0901,8.0828,-0.0436,0.0027,-0.1506
1915091.0,-2.9281,5.0446,7.9511,-0.033,0.0239,-0.1501
1915101.0,-2.9616,5.0254,7.92,-0.0372,0.0506,-0.1559
1915111.0,-2.9832,5.0374,7.9272,-0.0543,0.0825,-0.1639
1915121.0,-3.0311,5.0254,8.1259,-0.0841,0.116,-0.1724
1915131.0,-3.0765,5.0494,8.3486,-0.1112,0.1437,-0.1761
1915141.0,-3.1651,5.0877,8.7005,-0.1325,0.1538,-0.1761
1915151.0,-3.1747,5.1356,8.8777,-0.1469,0.125,-0.1708
1915161.0,-3.1795,5.1834,8.8633,-0.1676,0.0798,-0.1628
1915171.0,-3.1795,5.2074,8.7628,-0.1995,0.0303,-0.1501
1915181.0,-3.134,5.0853,8.588,-0.2331,-0.0032,-0.1362
1915191.0,-3.0263,4.9081,8.4611,-0.2565,-0.0027,-0.1272
1915201.0,-3.0718,4.8004,8.4132,-0.2671,0.0165,-0.1256
1915211.0,-3.0694,4.7764,8.5066,-0.2889,0.0197,-0.1304
1915221.0,-2.976,4.6543,8.4443,-0.3001,0.0059,-0.1293
1915231.0,-2.9401,4.5562,8.1451,-0.306,-0.0059,-0.1288
1915241.0,-2.8299,4.4508,8.0517,-0.3113,0.0154,-0.1314
1915251.0,-2.739,4.2473,7.999,-0.3124,0.0319,-0.1362
1915261.0,-2.6815,4.1324,7.8506,-0.2916,0.0543,-0.149
1915271.0,-2.5953,3.9648,7.8961,-0.2607,0.1022,-0.1692
1915281.0,-2.6839,4.0055,7.9559,-0.2373,0.1389,-0.199
1915291.0,-2.7916,4.0701,7.932,-0.2277,0.158,-0.2315
1915301.0,-2.8132,4.2617,8.0493,-0.2692,0.166,-0.2714
1915311.0,-2.8802,4.5418,7.9942,-0.3092,0.1586,-0.2996
1915321.0,-2.8802,4.6064,8.1139,-0.3416,0.1788,-0.3092
1915331.0,-2.964,4.7549,8.2432,-0.3507,0.2182,-0.307
1915341.0,-3.1125,4.9536,8.4587,-0.3533,0.2432,-0.2975
1915351.0,-3.225,5.1691,8.7317,-0.3453,0.248,-0.2714
1915361.0,-3.2537,5.2433,8.8059,-0.323,0.2384,-0.2304
1915371.0,-3.2154,4.9823,8.8777,-0.3161,0.2187,-0.1932
1915381.0,-3.1723,4.8267,8.8538,-0.3134,0.2001,-0.1729
1915391.0,-3.158,4.7453,8.8394,-0.3209,0.1815,-0.1687
1915401.0,-3.1005,4.7166,8.8585,-0.3235,0.1559,-0.1655
1915411.0,-2.9975,4.6208,8.6838,-0.3161,0.1426,-0.1628
1915421.0,-2.9185,4.5107,8.5808,-0.3235,0.1352,-0.1676
1915431.0,-2.8778,4.4388,8.5377,-0.3294,0.1266,-0.1772
1915441.0,-2.7797,4.3096,8.3294,-0.3352,0.1096,-0.1878
1915451.0,-2.7102,4.2401,8.0756,-0.3326,0.1117,-0.2038
1915461.0,-2.7102,4.288,7.92,-0.331,0.1421,-0.2251
1915471.0,-2.7725,4.3981,7.8386,-0.3182,0.1862,-0.2379
1915481.0,-2.7222,4.4269,7.8314,-0.29,0.2405,-0.2352
1915491.0,-2.7485,4.2832,7.9823,-0.2485,0.3113,-0.2224
1915501.0,-2.7126,4.039,8.1594,-0.1868,0.3677,-0.2118
1915511.0,-2.7485,3.8666,8.2265,-0.1352,0.4108,-0.216
1915521.0,-2.7749,3.7948,8.2911,-0.1282,0.4507,-0.2421
1915531.0,-2.8515,3.8164,8.497,-0.1671,0.4778,-0.2836
1915541.0,-2.9449,3.9696,8.8059,-0.2144,0.5023,-0.3272
1915551.0,-3.1005,4.1228,9.3494,-0.2533,0.5225,-0.3634
1915561.0,-3.3184,4.3646,9.8114,-0.2613,0.5161,-0.3815
1915571.0,-3.4668,4.5729,10.0437,-0.2756,0.4427,-0.3778
1915581.0,-3.3806,4.4939,9.9096,-0.2841,0.348,-0.3533
1915591.0,-3.2944,4.3598,9.5577,-0.2836,0.3028,-0.3315
1915601.0,-3.3399,4.2329,9.6127,-0.306,0.3299,-0.3267
1915611.0,-3.5841,4.1515,10.1155,-0.3235,0.3746,-0.3363
1915621.0,-3.8331,4.2617,10.5896,-0.3209,0.3576,-0.3485
1915631.0,-4.0175,4.3814,11.0397,-0.3326,0.2788,-0.357
1915641.0,-4.1348,4.5203,10.975,-0.3469,0.1506,-0.3592
1915651.0,-4.1372,4.7788,10.5536,-0.3608,0.0239,-0.3528
1915661.0,-4.1444,5.2146,10.137,-0.3964,-0.049,-0.3331
1915671.0,-4.2066,5.4851,9.9982,-0.4592,-0.0686,-0.2969
1915681.0,-4.3263,5.3846,10.2376,-0.531,-0.0591,-0.2464
1915691.0,-4.5035,5.2505,10.6159,-0.6119,-0.0937,-0.2059
1915701.0,-4.5538,5.1356,11.0301,-0.705,-0.1793,-0.1804
1915711.0,-4.5993,4.9321,11.1139,-0.7795,-0.2943,-0.1602
1915721.0,-4.549,4.5131,11.3964,-0.8179,-0.4028,-0.1405
1915731.0,-4.4772,4.2353,11.382,-0.7641,-0.4959,-0.1245
1915741.0,-4.5011,4.1324,11.3102,-0.6572,-0.58,-0.1101
1915751.0,-4.4748,4.1013,10.9439,-0.538,-0.6667,-0.0873
1915761.0,-4.3694,4.1899,10.4627,-0.4645,-0.7519,-0.0654
1915771.0,-4.209,4.2066,9.9168,-0.4491,-0.8157,-0.0442
1915781.0,-4.1587,3.9097,9.7229,-0.4725,-0.8439,-0.0186
1915791.0,-4.0366,3.4477,9.5289,-0.4895,-0.8652,-0.0059
1915801.0,-3.9002,3.0191,9.2464,-0.5449,-0.8892,-0.0239
1915811.0,-3.7685,2.6264,9.232,-0.6332,-0.9142,-0.0713
1915821.0,-3.6464,2.1644,9.3948,-0.7146,-0.9429,-0.1304
1915831.0,-3.45,1.6305,9.414,-0.7322,-0.9855,-0.199
1915841.0,-3.3495,1.3934,9.2464,-0.6955,-1.0328,-0.2836
1915851.0,-3.2394,1.2881,9.0429,-0.6284,-1.0525,-0.3672
1915861.0,-3.1053,1.2713,8.8609,-0.5209,-1.0445,-0.4411
1915871.0,-3.1053,1.2761,8.6311,-0.415,-1.0259,-0.5082
1915881.0,-3.043,1.1971,8.4108,-0.3257,-1.0131,-0.5715
1915891.0,-2.8228,1.2641,7.7859,-0.2756,-0.9993,-0.6391
1915901.0,-2.7174,1.3431,7.5417,-0.3757,-0.994,-0.7263
1915911.0,-2.5857,1.6975,7.2472,-0.4959,-0.9855,-0.8008
1915921.0,-2.4229,1.822,6.9983,-0.6268,-0.9562,-0.8418
1915931.0,-2.1308,1.2426,7.4771,-0.6997,-0.8647,-0.8524
1915941.0,-1.992,0.5962,8.3893,-0.5837,-0.7364,-0.8615
1915951.0,-1.9872,0.4453,9.0022,-0.3219,-0.6705,-0.8838
1915961.0,-2.2362,0.917,9.1123,-0.0202,-0.6753,-0.9035
1915971.0,-2.2194,1.7478,8.509,0.232,-0.738,-0.8902
1915981.0,-2.0542,2.5498,7.3646,0.3863,-0.7913,-0.8413
1915991.0,-1.7478,3.2585,6.1411,0.4023,-0.7577,-0.7657
1916001.0,-1.6041,3.7661,5.6407,0.207,-0.6651,-0.6891
1916011.0,-1.4724,4.0654,5.3151,-0.124,-0.613,-0.5997
1916021.0,-1.3791,3.9433,4.8746,-0.5369,-0.6252,-0.5071
1916031.0,-1.3791,3.9433,4.8746,-0.5369,-0.6252,-0.5071
1916041.0,-1.3096,3.6919,4.4101,-0.9754,-0.6689,-0.423
1916051.0,-1.3288,3.5506,3.3543,-1.3239,-0.6822,-0.3342
1916061.0,-1.2905,3.7397,2.0997,-1.5751,-0.6433,-0.2341
1916071.0,-1.257,4.3814,0.5148,-1.6565,-0.5321,-0.091
1916081.0,-1.245,5.2577,-1.7549,-1.4771,-0.3134,0.132
1916091.0,-1.0942,5.7126,-4.4005,-1.0233,0.1054,0.4507
1916101.0,-0.8978,5.7581,-7.3765,-0.3118,0.8157,0.8237
1916111.0,-2.071,4.6208,-9.2823,0.3459,1.7991,1.1882
1916121.0,-2.7653,1.2785,-9.821,0.779,2.8245,1.466
1916131.0,-4.0486,-1.1899,-10.0006,0.8652,3.7168,1.475
1916141.0,-5.8873,-3.7397,-7.9918,0.7311,4.6166,1.2765
1916151.0,-7.525,-5.8299,-4.2042,1.0163,5.7133,0.9738
1916161.0,-10.6326,-5.4109,2.1141,1.6293,6.7977,0.5247
1916171.0,-14.1856,-0.7661,9.2273,2.3871,7.4049,0.0745
1916181.0,-18.5072,4.9584,13.5991,2.999,7.2601,-0.1293
1916191.0,-14.8297,6.7995,15.3349,3.0283,6.4742,-0.0809
1916201.0,-16.1058,6.869,17.6692,2.684,6.0698,0.0016
1916211.0,-16.7546,6.2824,21.3706,1.9098,5.3632,0.0053
1916221.0,-16.0364,5.0757,22.9221,1.0376,4.1968,-0.0069
1916231.0,-14.8632,3.8235,22.2493,0.3187,3.0889,-0.0458
1916241.0,-14.0516,2.5259,21.6651,-0.3858,2.1582,-0.1511
1916251.0,-13.6517,1.8555,20.5015,-0.8838,1.3473,-0.2783
1916261.0,-12.5911,1.8555,18.2079,-1.1903,0.6109,-0.3938
1916271.0,-11.4778,2.1979,15.5695,-1.3202,0.1048,-0.4746
1916281.0,-10.6159,2.5331,13.5009,-1.1909,-0.0362,-0.4853
1916291.0,-10.1778,2.545,12.9407,-0.895,0.0537,-0.439
1916301.0,-9.73,2.7653,12.6845,-0.4555,0.1676,-0.3565
1916311.0,-9.3877,2.1787,13.5943,-0.0543,0.2315,-0.2586
1916321.0,-9.0357,1.6544,14.4203,0.3922,0.1852,-0.1772
1916331.0,-8.8514,1.3838,14.6118,0.7652,0.0,-0.1357
1916341.0,-8.8897,1.494,13.8576,0.9243,-0.3225,-0.1399
1916351.0,-8.5928,1.4581,12.56,0.8195,-0.7157,-0.1809
1916361.0,-8.2887,1.1947,11.1354,0.613,-0.9919,-0.2469
1916371.0,-8.0541,1.0965,9.4499,0.3581,-1.1451,-0.3379
1916381.0,-7.8027,0.0168,9.3015,0.0064,-1.2249,-0.4576
1916391.0,-7.513,-0.3543,9.0501,-0.0782,-1.2084,-0.6018
1916401.0,-7.6495,-0.5243,9.7588,-0.0463,-1.1329,-0.7577
1916411.0,-7.8386,0.1221,10.0987,0.0878,-1.1313,-0.903
1916421.0,-8.0756,1.0654,10.7332,0.1368,-1.2372,-1.0227
1916431.0,-8.2768,1.9297,11.3174,0.2112,-1.3952,-1.0823
1916441.0,-8.509,2.6408,11.5664,0.3507,-1.6086,-1.0781
1916451.0,-8.7053,3.5674,11.0205,0.5066,-1.8778,-1.0286
1916461.0,-8.5976,4.3694,9.4786,0.6055,-2.1476,-0.9301
1916471.0,-8.1547,4.9512,7.3263,0.5358,-2.3445,-0.8109
1916481.0,-7.8314,4.9632,5.9472,0.2469,-2.3982,-0.7024
1916491.0,-7.2496,4.5633,5.3295,-0.0506,-2.3344,-0.6045
1916501.0,-7.039,3.9361,5.7413,-0.2559,-2.1811,-0.5257
1916511.0,-6.9623,3.2633,6.3375,-0.332,-2.0896,-0.4645
1916521.0,-6.5362,2.5474,6.438,-0.2719,-2.0869,-0.4182
1916531.0,-6.043,2.4804,5.7293,-0.1144,-2.0657,-0.3922
1916541.0,-5.6958,2.4493,5.2984,0.0628,-1.9396,-0.3725
1916551.0,-5.4253,2.9688,4.537,0.2421,-1.7629,-0.3523
1916561.0,-5.193,3.4046,4.0869,0.2565,-1.5825,-0.3272
1916571.0,-4.8507,3.4069,3.9792,0.1165,-1.4117,-0.3001
1916581.0,-4.5801,3.1819,4.367,-0.0905,-1.2489,-0.2879
1916591.0,-4.4652,2.4708,5.2098,-0.2368,-1.0914,-0.2799
1916601.0,-4.276,1.5993,6.1292,-0.2772,-0.9796,-0.2905
1916611.0,-4.1372,1.482,6.359,-0.2629,-0.9594,-0.3416
1916621.0,-4.0677,1.798,6.3375,-0.2304,-0.9599,-0.3911
1916631.0,-3.9169,2.296,5.8275,-0.1341,-0.8934,-0.3959
1916641.0,-3.814,2.7701,5.6024,-0.091,-0.7636,-0.3719
1916651.0,-3.8283,3.1149,6.0478,-0.1181,-0.5976,-0.3299
1916661.0,-3.9624,3.1053,6.936,-0.1586,-0.4736,-0.2666
1916671.0,-3.9097,2.6911,7.7069,-0.1793,-0.4385,-0.1969
1916681.0,-3.6727,2.1189,8.0709,-0.2102,-0.4805,-0.1532
1916691.0,-3.4716,1.798,7.9559,-0.3097,-0.5843,-0.1596
1916701.0,-3.3327,1.4772,7.7045,-0.4821,-0.7066,-0.1953
1916711.0,-3.0526,0.9912,7.2089,-0.6178,-0.7955,-0.2405
1916721.0,-2.8826,0.5602,6.3638,-0.7035,-0.8349,-0.3028
1916731.0,-2.6695,0.3352,5.5522,-0.7513,-0.795,-0.3831
1916741.0,-2.4205,0.6345,4.8028,-0.7641,-0.6705,-0.4699
1916751.0,-2.4253,1.2258,4.6878,-0.7662,-0.4826,-0.5305
1916761.0,-2.4565,1.8842,4.6352,-0.6939,-0.2953,-0.5348
1916771.0,-2.478,2.4588,4.64,-0.5741,-0.1346,-0.4837
1916781.0,-2.4421,3.1125,3.8978,-0.3874,-0.0112,-0.3847
1916791.0,-2.4062,3.5554,2.557,-0.215,0.1187,-0.2458
1916801.0,-2.4349,3.5554,0.9337,-0.0894,0.3001,-0.0873
1916811.0,-2.1404,3.4764,-1.9297,0.0016,0.5438,0.0676
1916821.0,-1.822,2.1763,-3.4907,-0.1431,0.953,0.1745
1916831.0,-2.4804,1.1947,-4.1204,-0.2166,1.5171,0.2192
1916841.0,-2.6336,0.7063,-3.8355,-0.0607,2.1535,0.2256
1916851.0,-3.8978,1.2857,-3.1675,0.3315,2.8867,0.2432
1916861.0,-5.2361,1.7382,-2.217,0.6992,3.4561,0.2996
1916871.0,-6.3255,1.8411,-1.6807,0.9807,3.8935,0.3762
1916881.0,-7.7261,1.3192,-0.6009,1.2084,4.3474,0.4353
1916891.0,-9.177,0.6776,1.2354,1.5032,4.8928,0.4475
1916901.0,-11.3677,0.9816,4.1563,1.7943,5.444,0.3757
1916911.0,-15.105,2.2003,8.7843,1.9773,5.7761,0.2767
1916921.0,-14.3987,2.5929,12.0716,2.2141,5.6872,0.2464
1916931.0,-15.4426,3.0909,15.5551,2.3056,5.5063,0.1788
1916941.0,-15.3995,3.1699,19.3619,2.2141,5.0641,0.0819
1916951.0,-15.1481,3.7972,22.0602,1.947,4.2979,-0.049
1916961.0,-15.0547,5.0374,23.5566,1.4857,3.3092,-0.1841
1916971.0,-14.4275,5.7916,23.5637,0.8998,2.1944,-0.2538
1916981.0,-13.7762,6.2656,22.5318,0.2873,1.1403,-0.2629
1916991.0,-12.7707,6.0094,20.5853,-0.2969,0.1841,-0.2246
1917001.0,-11.8345,5.0398,18.8136,-0.762,-0.5678,-0.1681
1917011.0,-11.2432,3.9959,17.0898,-0.8775,-1.0499,-0.1048
1917021.0,-10.647,2.8395,15.196,-0.7423,-1.3862,-0.0378
1917031.0,-10.082,2.3822,12.9167,-0.4794,-1.5947,-0.009
1917041.0,-9.5002,2.4517,10.5225,-0.307,-1.6815,-0.0112
1917051.0,-8.8083,1.6855,9.2632,-0.3757,-1.7006,-0.0431
1917061.0,-8.2025,1.1444,8.7245,-0.4544,-1.6416,-0.1165
1917071.0,-7.9631,1.1277,8.4611,-0.4736,-1.5543,-0.2102
1917081.0,-7.8434,1.1899,8.3582,-0.5103,-1.5325,-0.2975
1917091.0,-7.6016,1.324,8.0613,-0.5204,-1.5484,-0.3634
1917101.0,-7.5178,1.2809,8.09,-0.4784,-1.5027,-0.4129
1917111.0,-7.6423,1.0582,8.5856,-0.3672,-1.4064,-0.4581
1917121.0,-7.8195,1.1061,9.1435,-0.2778,-1.4213,-0.5193
1917131.0,-7.8769,1.233,9.4499,-0.1974,-1.5495,-0.5757
1917141.0,-7.6734,1.7669,8.6957,-0.0591,-1.7129,-0.6146
1917151.0,-7.6519,2.9018,7.2951,0.0144,-1.8278,-0.6321
1917161.0,-7.5322,3.7206,5.5282,-0.107,-1.898,-0.6077
1917171.0,-7.2209,3.2896,4.5346,-0.4321,-1.8869,-0.564
1917181.0,-6.8474,2.2458,4.6304,-0.6768,-1.7294,-0.5428
1917191.0,-6.7732,1.4485,5.5737,-0.671,-1.4793,-0.5534
1917201.0,-6.9073,1.1588,6.6008,-0.4879,-1.3074,-0.5811
1917211.0,-6.9192,1.4868,6.9312,-0.2895,-1.3063,-0.6114
1917221.0,-6.5841,2.0087,6.6966,-0.1596,-1.3633,-0.6252
1917231.0,-6.2824,2.7821,6.359,-0.0559,-1.3441,-0.613
1917241.0,-6.3566,3.5171,6.5625,-0.0085,-1.276,-0.5678
1917251.0,-6.2848,3.869,6.6511,0.009,-1.2616,-0.4784
1917261.0,-6.1842,3.6966,6.7133,-0.0245,-1.2909,-0.3767
1917271.0,-5.9879,3.1867,7.1084,-0.0394,-1.2856,-0.2884
1917281.0,-5.8826,2.8156,7.343,0.0027,-1.2872,-0.223
1917291.0,-5.7557,2.4157,7.2568,0.0202,-1.3484,-0.1767
1917301.0,-5.3606,1.7693,6.754,-0.0176,-1.4436,-0.1532
1917311.0,-4.9129,1.4198,6.1172,-0.1139,-1.5096,-0.1729
1917321.0,-4.537,1.4413,5.5713,-0.1634,-1.4793,-0.2128
1917331.0,-4.2904,1.6712,5.0996,-0.1878,-1.3819,-0.2437
1917341.0,-4.0558,1.8842,5.2337,-0.2224,-1.2521,-0.2607
1917351.0,-3.9241,2.0446,5.7628,-0.2038,-1.1281,-0.2549
1917361.0,-3.7948,2.1907,5.9065,-0.132,-1.0552,-0.2256
1917371.0,-3.6081,2.0949,6.1292,-0.0516,-1.0036,-0.1761
1917381.0,-3.3615,1.9297,5.703,0.0431,-0.9823,-0.1235
1917391.0,-3.213,1.5419,5.3726,0.0532,-0.9488,-0.0889
1917401.0,-2.9497,1.1875,5.1044,0.0452,-0.8844,-0.0724
1917411.0,-2.6959,1.0391,4.944,0.083,-0.7753,-0.0686
1917421.0,-2.6863,1.2067,4.7621,0.1799,-0.6284,-0.066
1917431.0,-2.6624,1.4485,4.5083,0.2607,-0.4874,-0.0511
1917441.0,-2.7438,1.9321,4.2856,0.3049,-0.3065,-0.033
1917451.0,-3.0789,2.6743,4.3862,0.2304,-0.1341,-0.0138
1917461.0,-3.2681,2.9951,4.6998,0.0644,-0.0319,0.033
1917471.0,-3.1101,3.043,4.6687,-0.1022,0.042,0.0968
1917481.0,-3.1125,3.0861,4.5466,-0.2948,0.1229,0.1543
1917491.0,-3.0358,2.8635,4.5801,-0.5428,0.1841,0.2059
1917501.0,-2.9377,2.9449,4.7333,-0.7684,0.2341,0.2469
1917511.0,-3.1819,3.7996,3.9552,-0.8987,0.207,0.3124
1917521.0,-2.9329,4.4269,1.6041,-0.9855,0.0952,0.4539
1917531.0,-3.0047,4.0199,-1.652,-1.0179,0.1602,0.646
1917541.0,-3.1101,3.7733,-5.8179,-0.9504,0.5018,0.8429
1917551.0,-2.9928,3.2441,-10.1323,-0.9637,1.1196,1.0137
1917561.0,-4.0989,1.9369,-11.4179,-0.9461,2.2801,1.1653
1917571.0,-5.5138,-0.2753,-9.9359,-0.6827,3.6402,1.2696
1917581.0,-8.1379,-2.9401,-5.0278,-0.1836,5.0354,1.2803
1917591.0,-10.6111,-4.5801,1.3168,0.6891,6.0927,1.1632
1917601.0,-12.797,-4.3622,6.031,1.7464,6.6966,0.9142
1917611.0,-13.6781,-2.9137,9.8952,2.4919,6.9387,0.5593
1917621.0,-15.4785,-0.316,14.4299,2.8346,6.9313,0.1729
1917631.0,-15.6868,2.1931,18.069,2.8697,6.578,-0.1415
1917641.0,-16.5176,4.719,22.7186,2.3397,5.9458,-0.4166
1917651.0,-15.8137,5.8514,27.6195,1.3819,4.7965,-0.605
1917661.0,-17.413,6.5936,30.155,0.3331,3.2549,-0.7199
1917671.0,-16.9438,6.9695,30.9355,-0.6609,1.4984,-0.7295
1917681.0,-15.682,6.608,27.5142,-1.3329,-0.2405,-0.63
1917691.0,-14.3939,5.6455,22.2278,-1.8821,-1.6213,-0.5204
1917701.0,-13.0125,4.3431,17.1568,-2.154,-2.4089,-0.4156
1917711.0,-11.9016,3.2465,12.9742,-2.0093,-2.6489,-0.3049
1917721.0,-10.6422,2.0734,9.2608,-1.5862,-2.56,-0.1804
1917731.0,-9.2344,0.8188,6.9168,-1.0536,-2.2269,-0.0734
1917741.0,-8.26,0.1197,5.5474,-0.447,-1.7267,-0.009
1917751.0,-7.7021,-0.5698,5.6192,0.042,-1.1903,0.009
1917761.0,-7.4579,-0.7566,6.3853,0.3491,-0.7833,-0.0298
1917771.0,-7.4268,-0.5842,8.0709,0.4603,-0.5545,-0.108
1917781.0,-7.5537,-0.0479,9.5864,0.5475,-0.4906,-0.1777
1917791.0,-7.7668,-0.1269,11.145,0.6055,-0.5779,-0.2224
1917801.0,-7.9727,-0.2227,11.8298,0.6582,-0.8195,-0.2687
1917811.0,-8.011,-0.7661,11.9566,0.6747,-1.1313,-0.3257
1917821.0,-7.8123,-0.7566,10.8984,0.6689,-1.458,-0.4188
1917831.0,-7.7476,-0.0575,9.7205,0.5348,-1.7054,-0.5369
1917841.0,-7.8554,1.1037,8.3438,0.3129,-1.8608,-0.6321
1917851.0,-7.8338,1.8028,6.7086,-0.1149,-2.0273,-0.6912
1917861.0,-7.4316,0.8547,6.5673,-0.6204,-2.0971,-0.7295
1917871.0,-7.1371,0.0503,6.6176,-0.7199,-1.9725,-0.7732
1917881.0,-7.2281,-0.3519,7.5322,-0.5183,-1.74,-0.8237
1917891.0,-7.3694,0.0383,8.2313,-0.1969,-1.6182,-0.8673
1917901.0,-7.2065,0.395,8.916,0.0708,-1.641,-0.886
1917911.0,-6.7588,1.403,8.2576,0.3358,-1.7336,-0.8759
1917921.0,-6.5577,2.2314,8.2863,0.4911,-1.7363,-0.8296
1917931.0,-6.5194,3.371,7.8961,0.6412,-1.7145,-0.7348
1917941.0,-6.608,4.0199,7.6303,0.6337,-1.7613,-0.596
1917951.0,-6.4763,4.4412,6.2393,0.4986,-1.8645,-0.4379
1917961.0,-6.0358,3.8068,5.0877,0.1133,-1.9294,-0.3049
1917971.0,-5.5426,2.6169,4.7645,-0.3044,-1.8587,-0.2293
1917981.0,-5.3175,1.1851,5.6455,-0.5369,-1.6692,-0.2054
1917991.0,-5.1475,-0.0192,6.5601,-0.4927,-1.524,-0.2203
1918001.0,-5.0398,-0.5411,6.9097,-0.2772,-1.4622,-0.2719
1918011.0,-4.7309,-0.4932,6.1986,-0.0128,-1.4548,-0.3384
1918021.0,-4.2521,0.4262,4.81,0.1538,-1.4106,-0.4161
1918031.0,-4.0917,1.5227,4.13,0.1687,-1.2207,-0.4661
1918041.0,-4.0007,2.6336,4.0031,0.1101,-0.9626,-0.4645
1918051.0,-4.2377,3.3543,4.5993,-0.0809,-0.7583,-0.423
1918061.0,-4.2521,3.1532,5.4923,-0.2905,-0.6747,-0.3395
1918071.0,-3.9361,2.9928,5.5617,-0.3565,-0.6598,-0.2448
1918081.0,-3.7517,2.5498,5.6934,-0.3267,-0.5736,-0.1479
1918091.0,-3.6631,1.5682,5.9161,-0.2043,-0.4379,-0.0591
1918101.0,-3.5314,0.7398,6.0142,-0.0585,-0.3576,-0.0192
1918111.0,-3.3255,0.5052,5.8131,0.0905,-0.2953,-0.0287
1918121.0,-3.1867,1.0534,5.1978,0.2155,-0.2081,-0.0559
1918131.0,-3.146,1.8651,4.9153,0.2208,-0.0905,-0.0713
1918141.0,-3.0574,2.8683,4.6998,0.1288,0.0458,-0.058
1918151.0,-3.3806,3.7709,5.533,-0.0809,0.1958,-0.0048
1918161.0,-3.814,3.6631,6.6726,-0.2559,0.2735,0.116
1918171.0,-4.0869,2.1069,7.4771,-0.3922,0.2022,0.2559
1918181.0,-3.8618,0.2059,7.4771,-0.4262,0.0527,0.3262
1918191.0,-3.5434,-0.7901,6.6367,-0.34,-0.0085,0.2921
1918201.0,-3.4907,-0.7111,5.6886,-0.2852,0.0963,0.1804
1918211.0,-3.7852,0.2514,4.9991,-0.455,0.1948,0.0399
1918221.0,-3.6823,1.1468,4.1252,-0.8939,0.1852,-0.0686
1918231.0,-3.3375,1.3671,3.4788,-1.4569,0.1948,-0.1383
1918241.0,-2.9664,1.2186,3.4644,-1.8592,0.3155,-0.165
1918251.0,-2.9257,1.5802,3.5578,-1.8725,0.5252,-0.1362
1918261.0,-3.2489,2.8611,2.4277,-1.615,0.7136,-0.0309
1918271.0,-3.6847,3.9241,-0.0455,-1.4037,0.8578,0.166
1918281.0,-3.0143,3.7326,-2.0566,-1.2579,1.1451,0.4321
1918291.0,-4.8842,2.6336,-3.1484,-0.8046,1.7932,0.7423
1918301.0,-4.5083,0.6393,-4.4005,0.0325,2.5972,1.0275
1918311.0,-5.4588,-0.3567,-3.9552,0.8897,3.7136,1.1595
1918321.0,-7.1658,-0.3184,-1.6376,1.4128,4.6895,1.1579
1918331.0,-8.6574,-0.4669,1.7406,1.5038,5.2424,1.0924
1918341.0,-9.6702,-1.1229,6.1842,1.5495,5.5084,1.0073
1918351.0,-10.9295,-0.7638,9.651,1.9912,5.6452,0.9152
1918361.0,-12.3613,0.8667,12.1506,2.5978,5.5627,0.8333
1918371.0,-12.9598,2.8395,11.6861,3.1155,5.2626,0.8163
1918381.0,-13.0771,3.3232,11.8752,2.9538,4.9604,0.7657
1918391.0,-13.7188,2.7461,14.8225,2.4099,4.7683,0.654
1918401.0,-14.2814,2.0231,18.1361,1.9406,4.4075,0.5188
1918411.0,-14.7148,1.8914,21.0929,1.4058,3.6508,0.3421
1918421.0,-14.4299,1.8866,21.4736,0.9168,2.5376,0.1815
1918431.0,-13.6398,1.8699,19.7139,0.571,1.4942,0.0474
1918441.0,-13.2926,2.3032,18.0331,0.3374,0.8067,-0.0809
1918451.0,-13.2902,3.2441,16.0364,0.2714,0.3581,-0.1501
1918461.0,-13.0077,3.9385,13.5967,0.0458,-0.0782,-0.1719
1918471.0,-12.1745,3.1484,12.7563,-0.3251,-0.3826,-0.1564
1918481.0,-11.6334,2.4134,12.4379,-0.2756,-0.4135,-0.1086
1918491.0,-11.5568,2.1883,12.1027,0.017,-0.3219,-0.0559
1918501.0,-11.4371,1.7262,12.3828,0.1399,-0.3315,-0.025
1918511.0,-11.2216,1.6017,12.9335,0.1623,-0.4379,-0.0346
1918521.0,-11.3222,2.1979,13.5009,0.1479,-0.5523,-0.0692
1918531.0,-11.631,2.3415,14.5974,0.0585,-0.7508,-0.0894
1918541.0,-11.9926,2.7198,14.8081,-0.0341,-1.1196,-0.1016
1918551.0,-12.0093,2.4541,14.3939,-0.1745,-1.5575,-0.1107
1918561.0,-11.6526,1.8172,13.4674,-0.2602,-1.9252,-0.1293
1918571.0,-11.4778,1.3719,12.8521,-0.2767,-2.1396,-0.1777
1918581.0,-11.3653,1.3192,12.2679,-0.2783,-2.3046,-0.2512
1918591.0,-11.2432,2.0063,10.7045,-0.4427,-2.5456,-0.3448
1918601.0,-10.8697,2.5594,9.5457,-0.9301,-2.8159,-0.4566
1918611.0,-10.6757,2.648,9.6175,-1.2994,-2.9405,-0.5295
1918621.0,-10.7595,2.9066,8.7604,-1.1893,-2.9064,-0.5231
1918631.0,-10.4555,2.6695,8.3677,-1.0009,-2.8569,-0.481
1918641.0,-9.6079,2.9185,7.3023,-0.8439,-2.8378,-0.448
1918651.0,-9.0956,3.1053,7.5992,-0.7928,-2.692,-0.4257
1918661.0,-8.7987,3.8642,7.9272,-0.7726,-2.6223,-0.3874
1918671.0,-8.7125,3.8188,8.7915,-0.8477,-2.6909,-0.3118
1918681.0,-8.4108,4.0175,8.3725,-0.7992,-2.8825,-0.2097
1918691.0,-7.7907,4.051,6.5864,-0.7231,-3.0682,-0.0921
1918701.0,-7.1108,3.6272,4.4652,-0.7673,-3.1192,0.0101
1918711.0,-6.3279,2.0494,3.7685,-0.9253,-3.0112,0.0692
1918721.0,-5.3893,0.9816,2.988,-0.9445,-2.8415,0.0585
1918731.0,-4.7956,0.8691,2.4134,-0.903,-2.6089,-0.0043
1918741.0,-3.9624,0.8595,1.9369,-0.8519,-2.3684,-0.0521
1918751.0,-3.4357,1.0511,1.9848,-0.7599,-2.0337,-0.0809
1918761.0,-3.4022,0.8906,2.9353,-0.6316,-1.6703,-0.0926
1918771.0,-3.2274,0.9553,3.632,-0.4879,-1.4314,-0.1054
1918781.0,-3.3423,1.8603,4.3981,-0.4268,-1.284,-0.132
1918791.0,-3.3686,2.4493,5.0111,-0.3533,-1.1749,-0.1059
1918801.0,-3.3064,2.7533,5.4013,-0.2698,-1.0823,-0.0388
1918811.0,-3.1939,2.5714,5.952,-0.1868,-1.011,0.0537
1918821.0,-2.8108,2.4038,5.5306,-0.0506,-0.9599,0.1522
1918831.0,-2.6145,1.889,5.7126,-0.0149,-0.8562,0.223
1918841.0,-2.4732,0.8092,6.2752,0.0436,-0.7162,0.2682
1918851.0,-2.466,0.0024,6.8953,0.1043,-0.6375,0.2501
1918861.0,-2.6863,0.2274,7.1706,0.1011,-0.6476,0.1729
1918871.0,-2.7054,0.5315,7.0318,-0.0181,-0.729,0.0931
1918881.0,-2.5067,0.5722,7.2975,-0.1288,-0.7263,0.0303
1918891.0,-2.794,0.9744,7.6471,-0.133,-0.6396,-0.0218
1918901.0,-2.8515,0.8571,8.2265,-0.1809,-0.6375,-0.049
1918911.0,-2.7509,0.9026,8.2337,-0.207,-0.7072,-0.0734
1918921.0,-2.6743,1.8364,6.7325,-0.3278,-0.7902,-0.1022
1918931.0,-2.1883,1.4605,6.6894,-0.762,-0.8727,-0.124
1918941.0,-2.0806,1.4653,6.8139,-0.961,-0.8083,-0.1219
1918951.0,-2.2434,0.8045,7.5729,-0.928,-0.6694,-0.0782
1918961.0,-2.1045,0.3687,7.3478,-0.7056,-0.605,-0.0271
1918971.0,-2.0734,0.2203,7.2975,-0.5342,-0.5497,-0.0059
1918981.0,-1.8675,0.3352,7.1658,-0.3331,-0.4571,0.0074
1918991.0,-1.9513,1.2139,7.1108,-0.1517,-0.3331,0.017
1919001.0,-2.229,2.8802,5.928,-0.1666,-0.3304,0.0532
1919011.0,-1.482,3.201,4.142,-0.6667,-0.5438,0.1171
1919021.0,-0.8547,3.8188,1.9034,-1.2978,-0.6641,0.1751
1919031.0,-0.7877,5.4181,-2.2769,-2.0061,-0.6875,0.2597
1919041.0,-0.0886,5.0661,-3.7828,-2.8958,-0.6327,0.4353
1919051.0,-2.375,4.118,-5.4109,-2.7707,-0.2203,0.7886
1919061.0,-1.8579,0.8212,-7.4795,-1.2866,0.6827,1.3042
1919071.0,-2.6193,-2.0327,-10.3382,0.994,2.3019,1.7006
1919081.0,-3.8714,-3.8858,-8.8897,2.6648,4.1281,1.7687
1919091.0,-5.8706,-3.7685,-2.5977,3.662,5.8905,1.5554
1919101.0,-8.8059,-1.5658,7.3119,4.0441,7.0968,1.1914
1919111.0,-12.1985,1.0654,17.4346,3.8381,7.3314,0.8482
1919121.0,-13.6541,4.367,25.8957,3.2326,6.5663,0.5976
1919131.0,-13.149,3.9337,30.8134,2.2609,5.1115,0.4943
1919141.0,-12.3756,0.6081,34.6154,1.0318,3.3119,0.3299
1919151.0,-11.7723,-1.4269,33.8349,0.1038,1.2898,-0.0005
1919161.0,-10.999,-1.4078,28.9004,-0.4858,-0.5279,-0.3879
1919171.0,-9.8282,0.7542,20.5806,-0.8833,-1.7789,-0.7136
1919181.0,-8.691,2.138,15.2846,-1.4974,-2.2147,-0.9285
1919191.0,-7.9559,2.5259,13.6206,-1.8076,-2.0481,-0.9833
1919201.0,-8.1977,2.5594,14.0372,-1.5852,-1.7224,-0.9025
1919211.0,-8.181,3.0789,13.0221,-1.0775,-1.7342,-0.7306
1919221.0,-7.2425,3.3327,10.2927,-0.5992,-1.8816,-0.5082
1919231.0,-6.1052,3.0502,7.5202,-0.2687,-1.7326,-0.3054
1919241.0,-5.7054,1.8794,7.5561,-0.2033,-1.318,-0.191
1919251.0,-5.5354,1.0271,8.8274,-0.2283,-1.0445,-0.174
1919261.0,-5.5402,1.1396,10.1155,-0.2927,-1.0483,-0.2208
1919271.0,-5.2816,2.0638,9.8354,-0.3326,-1.2717,-0.2496
1919281.0,-5.1308,3.1699,8.4491,-0.4017,-1.4947,-0.2261
1919291.0,-4.6232,3.4572,6.3973,-0.5241,-1.6299,-0.1442
1919301.0,-4.1252,2.5594,5.1571,-0.6295,-1.5421,-0.0388
1919311.0,-3.8283,1.0487,4.6232,-0.539,-1.2733,0.0447
1919321.0,-3.4596,-0.1221,4.4748,-0.2996,-0.9732,0.0718
1919331.0,-3.1101,-0.0311,4.2018,-0.0032,-0.6247,0.0484
1919341.0,-3.0789,0.2729,5.3103,0.1346,-0.2363,0.0027
1919351.0,-3.2825,0.5339,7.3694,0.1298,0.0319,-0.0463
1919361.0,-3.7134,1.2067,9.5888,0.0234,0.0772,-0.0899
1919371.0,-3.948,1.6209,10.8936,-0.1538,-0.1325,-0.1006
1919381.0,-3.9002,1.7669,11.0492,-0.3858,-0.472,-0.0931
1919391.0,-4.1755,2.0231,10.7069,-0.6066,-0.7881,-0.074
1919401.0,-3.9576,1.8124,8.9615,-0.7306,-1.1158,-0.0149
1919411.0,-3.3998,1.1827,6.5936,-0.7311,-1.2366,0.0553
1919421.0,-2.9832,0.1508,5.0757,-0.6178,-0.9935,0.107
1919431.0,-2.6217,-1.7861,5.6407,-0.4182,-0.5412,0.1133
1919441.0,-2.6504,-2.0638,6.845,-0.1628,-0.1501,0.0271
1919451.0,-2.7581,-1.5371,8.6526,-0.016,0.074,-0.0894
1919461.0,-2.8826,-0.6297,10.0916,-0.0314,0.0867,-0.191
1919471.0,-3.237,0.3017,11.9471,-0.2203,-0.0878,-0.2634
1919481.0,-3.3854,1.4461,11.88,-0.2815,-0.4518,-0.2528
1919491.0,-3.134,2.2194,9.7181,-0.3246,-0.8423,-0.1655
1919501.0,-2.4086,2.1189,7.0054,-0.4954,-1.0408,-0.0569
1919511.0,-1.8555,1.4461,5.7341,-0.6486,-0.8743,0.0399
1919521.0,-1.9345,1.1779,5.7964,-0.629,-0.4725,0.1219
1919531.0,-2.2721,0.6847,7.4268,-0.5167,-0.1431,0.2112
1919541.0,-2.2889,0.6823,7.9416,-0.2251,-0.0404,0.3108
1919551.0,-2.2266,0.7326,7.3622,0.0676,-0.0319,0.4097
1919561.0,-1.9154,0.0311,6.3279,0.2996,0.0484,0.4954
1919571.0,-1.7382,-0.6201,5.8107,0.4001,0.2405,0.5044
1919581.0,-1.9225,-1.3144,6.1986,0.3656,0.4773,0.4379
1919591.0,-1.8411,-2.1979,7.3574,0.3113,0.6577,0.3257
1919601.0,-2.0303,-1.5754,8.0876,0.2873,0.763,0.158
1919611.0,-2.3248,-0.3639,9.0094,0.1474,0.7769,0.0112
1919621.0,-2.569,0.9433,9.5289,-0.0633,0.6859,-0.067
1919631.0,-2.794,1.3815,10.0197,-0.3501,0.5071,-0.0713
1919641.0,-2.6288,1.1827,9.3039,-0.5231,0.29,-0.0181
1919651.0,-2.6528,0.8116,8.3366,-0.6146,0.166,0.0452
1919661.0,-2.5115,0.5794,6.6894,-0.5284,0.1133,0.1256
1919671.0,-2.296,0.9218,4.0103,-0.2836,0.2192,0.2246
1919681.0,-2.5115,1.6903,2.0255,-0.0612,0.5295,0.3363
1919691.0,-2.3152,2.2577,-0.5483,0.2001,0.9019,0.4959
1919701.0,-2.2434,2.3487,-2.7557,0.3326,1.4883,0.654
1919711.0,-2.7485,2.1763,-2.2075,0.2017,2.3248,0.7625
1919721.0,-4.4005,0.8523,2.9592,0.0239,3.1991,0.8493
1919731.0,-6.7229,0.8045,8.9208,0.3592,3.7195,0.9413
1919741.0,-8.4204,1.4006,11.5329,1.0749,3.6625,1.0733
1919751.0,-9.1267,1.6017,11.3461,1.6836,3.4492,1.1765
1919761.0,-9.833,1.075,12.2918,1.9044,3.4401,1.1488
1919771.0,-10.2927,-0.8356,15.9621,1.996,3.5859,1.0099
1919781.0,-10.4794,0.4477,18.0499,2.0582,3.4092,0.762
1919791.0,-10.8625,0.3112,19.9605,1.3995,2.85,0.4518
1919801.0,-10.6159,0.17,24.4616,0.3251,2.0752,0.0883
1919811.0,-10.5058,1.2378,25.8167,-0.2118,1.1174,-0.1548
1919821.0,-10.5273,1.8962,25.5246,-0.6268,0.058,-0.2618
1919831.0,-9.8067,1.9369,22.472,-0.9562,-1.0568,-0.2528
1919841.0,-8.5138,0.0982,18.7346,-1.1669,-1.8789,-0.1884
1919851.0,-7.3789,-1.1636,14.358,-1.0339,-2.1982,-0.1618
1919861.0,-6.857,-1.9728,11.4874,-0.8365,-2.1247,-0.2017
1919871.0,-6.426,-2.5331,10.228,-0.6348,-1.9289,-0.2879
1919881.0,-5.9089,-2.296,9.2009,-0.3954,-1.7666,-0.4055
1919891.0,-5.5737,-1.5395,8.5353,-0.2363,-1.6182,-0.5369
1919901.0,-5.3391,-0.498,8.3366,-0.1735,-1.4904,-0.6524
1919911.0,-5.5282,0.68,8.4659,-0.2299,-1.4181,-0.7375
1919921.0,-5.6216,1.4916,8.1044,-0.398,-1.5123,-0.7811
1919931.0,-5.3893,1.5945,7.8195,-0.5608,-1.6373,-0.7913
1919941.0,-5.1954,2.0207,6.7014,-0.4661,-1.5985,-0.7742
1919951.0,-4.9967,1.8675,6.4476,-0.3544,-1.4165,-0.7407
1919961.0,-4.707,1.8076,6.7684,-0.2352,-1.2095,-0.7152
1919971.0,-4.7836,2.4277,7.8817,-0.1431,-1.0355,-0.6987
1919981.0,-4.8219,3.5219,7.8482,-0.0314,-1.0153,-0.6284
1919991.0,-4.3503,3.723,7.3789,-0.1469,-1.1265,-0.5199
1920001.0,-3.972,3.5338,7.3047,-0.2778,-1.1568,-0.4055
1920011.0,-3.7086,3.1795,6.4907,-0.223,-1.0977,-0.2762
1920021.0,-3.5698,2.4995,6.0166,-0.2006,-0.9977,-0.1655
1920031.0,-3.2609,1.1325,6.0382,-0.1857,-0.8402,-0.0862
1920041.0,-2.9209,-0.6488,6.6918,-0.1117,-0.6295,-0.0734
1920051.0,-2.794,-1.312,7.4196,-0.0074,-0.4411,-0.1575
1920061.0,-2.9473,-0.8691,8.8442,-0.0208,-0.3624,-0.2937
1920071.0,-2.976,0.1197,9.6726,-0.0149,-0.4417,-0.39
1920081.0,-3.0095,1.1636,9.7947,0.0319,-0.5848,-0.415
1920091.0,-2.9137,2.3439,8.5521,0.0926,-0.7418,-0.3682
1920101.0,-2.5379,2.806,6.6248,-0.0474,-0.8508,-0.2804
1920111.0,-1.968,2.0542,5.9951,-0.3688,-0.8008,-0.2038
1920121.0,-1.8771,1.2091,6.3614,-0.5199,-0.5683,-0.1506
1920131.0,-1.9154,0.0646,7.6758,-0.4879,-0.3139,-0.1229
1920141.0,-2.1356,-0.3567,8.8681,-0.3757,-0.2235,-0.1421
1920151.0,-2.2553,0.0072,9.4619,-0.224,-0.3166,-0.1756
1920161.0,-1.9968,0.6967,7.8626,-0.0027,-0.4544,-0.1777
1920171.0,-1.9178,1.4533,6.2728,0.0186,-0.4475,-0.1751
1920181.0,-1.8603,1.6352,5.4444,-0.1735,-0.3193,-0.1612
1920191.0,-1.6975,0.9146,6.3039,-0.3884,-0.1006,-0.1399
1920201.0,-1.8316,1.1037,7.0916,-0.3986,0.1181,-0.1229
1920211.0,-2.0399,0.9984,8.3151,-0.4172,0.2469,-0.0862
1920221.0,-1.98,0.7542,9.1363,-0.4677,0.2277,-0.0431
1920231.0,-2.3679,0.8188,10.3525,-0.564,0.1282,-0.0181
1920241.0,-2.3655,0.5363,9.9623,-0.4869,-0.1149,0.0474
1920251.0,-1.7262,0.0407,7.8889,-0.3209,-0.3235,0.1112
1920261.0,-1.6424,0.1604,5.8778,-0.2405,-0.3044,0.1224
1920271.0,-1.3671,-0.3232,4.2042,-0.2884,-0.1783,0.1197
1920281.0,-1.1779,-0.8691,3.3064,-0.4188,0.0319,0.0835
1920291.0,-0.972,-0.9481,2.7677,-0.5678,0.2943,0.016
1920301.0,-0.7183,-0.8308,3.237,-0.6753,0.5928,-0.0436
1920311.0,-0.7518,-0.2251,3.3567,-0.7162,0.8503,-0.075
1920321.0,-1.0798,-0.2274,4.0103,-0.9147,0.9184,-0.0825
1920331.0,-1.2977,-0.0431,2.5905,-1.0366,0.7599,-0.075
1920341.0,-1.4269,0.589,-0.9864,-1.0701,0.6465,-0.0447
1920351.0,-1.7334,1.3791,-5.217,-1.0238,0.9509,0.0309
1920361.0,-3.043,1.8675,-6.9767,-0.8769,1.8486,0.1788
1920371.0,-5.0566,1.4317,-4.7501,-0.4879,3.0969,0.4257
1920381.0,-7.3789,0.4453,0.1221,0.3395,4.3889,0.7407
1920391.0,-9.8378,-0.6177,5.9113,1.3941,5.402,1.0243
1920401.0,-12.7228,-1.6424,12.2056,2.4493,6.073,1.2074
1920411.0,-12.7515,-1.0726,15.7778,3.2581,6.2497,1.2478
1920421.0,-13.6709,-2.6193,21.4066,3.1214,6.1177,1.0674
1920431.0,-14.5591,-2.2817,28.8645,2.42,5.5031,0.6343
1920441.0,-15.2128,-1.2953,34.1102,1.492,4.0164,0.174
1920451.0,-14.7507,0.4884,34.2131,0.6412,2.0779,-0.191
1920461.0,-14.2168,2.3631,31.115,-0.2283,0.207,-0.4385
1920471.0,-13.3549,3.3567,25.9915,-0.9126,-1.2244,-0.5225
1920481.0,-12.3876,2.9185,20.9876,-1.3058,-2.105,-0.4757
1920491.0,-11.3174,2.2194,15.9334,-1.3106,-2.4876,-0.3693
1920501.0,-10.2089,1.0918,12.2607,-1.1557,-2.5148,-0.2613
1920511.0,-9.1315,0.1149,9.8354,-0.8258,-2.2907,-0.182
1920521.0,-8.1451,-0.419,7.9559,-0.3916,-1.9385,-0.1399
1920531.0,-7.3861,-0.3424,7.1467,-0.1272,-1.5926,-0.1591
1920541.0,-6.948,0.2227,7.4268,-0.0851,-1.3212,-0.2128
1920551.0,-6.6798,0.6656,8.2839,-0.1623,-1.2084,-0.2517
1920561.0,-6.3159,0.7015,8.5162,-0.2528,-1.2962,-0.2623
1920571.0,-5.8227,0.6656,7.8123,-0.2746,-1.433,-0.2581
1920581.0,-5.3582,0.9936,6.4931,-0.2735,-1.4793,-0.2533
1920591.0,-5.1332,0.9768,5.7964,-0.3672,-1.4042,-0.2506
1920601.0,-4.7142,0.4094,6.1627,-0.4214,-1.2803,-0.2421
1920611.0,-4.889,0.1676,6.2201,-0.2794,-1.1403,-0.2283
1920621.0,-4.3479,0.2298,5.7964,-0.1091,-1.0291,-0.2182
1920631.0,-3.948,0.2203,5.7245,-0.0309,-0.8775,-0.2182
1920641.0,-3.6607,0.2945,6.1914,-0.0122,-0.7088,-0.2272
1920651.0,-4.0199,0.9649,6.7516,-0.0154,-0.5608,-0.2299
1920661.0,-3.96,1.3096,7.3047,-0.1091,-0.5534,-0.1963
1920671.0,-3.8451,0.6991,8.0637,-0.2001,-0.5699,-0.1352
1920681.0,-3.7709,-0.1413,8.5904,-0.1139,-0.5507,-0.0798
1920691.0,-3.6847,-0.9409,8.7317,0.0436,-0.555,-0.0639
1920701.0,-3.2082,-1.4437,8.7652,0.1304,-0.5965,-0.1096
1920711.0,-3.9265,-1.4269,9.3087,0.1293,-0.6199,-0.2139
1920721.0,-3.5889,-0.6752,8.9854,0.1373,-0.7524,-0.3139
1920731.0,-3.146,0.0838,8.1307,0.0681,-0.8668,-0.3821
1920741.0,-3.5314,1.1325,7.4053,-0.0686,-0.8429,-0.4135
1920751.0,-3.486,1.5203,7.2496,-0.3065,-0.8179,-0.3874
1920761.0,-3.213,0.7853,7.5872,-0.5092,-0.7428,-0.3219
1920771.0,-3.1388,0.0958,8.2289,-0.5843,-0.6412,-0.2804
1920781.0,-3.4333,-0.4429,9.347,-0.5268,-0.5678,-0.2586
1920791.0,-3.644,-0.6297,9.8881,-0.3161,-0.6093,-0.2379
1920801.0,-3.5219,-0.3376,9.0046,-0.0234,-0.7418,-0.2171
1920811.0,-2.2338,-0.3448,7.5537,0.2389,-0.7774,-0.1958
1920821.0,-3.3998,0.2897,7.0006,0.4156,-0.597,-0.2001
1920831.0,-2.9233,0.8164,6.3375,0.4901,-0.4879,-0.1889
1920841.0,-2.8323,1.0271,6.4715,0.4092,-0.3352,-0.1761
1920851.0,-2.7198,1.2354,6.8785,0.2756,-0.2293,-0.165
1920861.0,-2.5259,1.4844,7.0102,0.108,-0.207,-0.1511
1920871.0,-2.4397,1.5874,7.0533,-0.1096,-0.2203,-0.1325
1920881.0,-2.332,1.2282,7.4124,-0.3145,-0.2251,-0.1027
1920891.0,-2.4229,0.6369,7.5369,-0.4049,-0.2549,-0.0724
1920901.0,-2.1261,-0.067,6.3805,-0.4166,-0.3608,-0.0575
1920911.0,-1.6448,-0.5124,4.9799,-0.4592,-0.3725,-0.0867
1920921.0,-1.494,-0.3519,4.1611,-0.4773,-0.1958,-0.1458
1920931.0,-1.6257,0.2562,4.051,-0.4363,0.0601,-0.1793
1920941.0,-1.6233,0.7709,4.1372,-0.3421,0.3038,-0.1586
1920951.0,-1.6735,1.2186,4.4293,-0.2618,0.4842,-0.1075
1920961.0,-1.5754,1.4581,4.3048,-0.1644,0.5816,-0.0287
1920971.0,-1.5897,1.798,3.4836,-0.1107,0.6332,0.0548
1920981.0,-1.3862,1.166,2.375,-0.191,0.6572,0.1213
1920991.0,-2.3655,2.3703,-0.1149,-0.3177,0.6949,0.1692
1921001.0,-2.5522,2.8419,-3.5721,-0.5614,0.8179,0.2841
1921011.0,-3.1675,2.3703,-5.5761,-0.7817,1.4473,0.4571
1921021.0,-3.7158,1.1923,-4.8794,-0.8062,2.3977,0.6407
1921031.0,-5.5857,0.1628,-1.5443,-0.4246,3.5034,0.8184
1921041.0,-7.4771,-0.0192,2.1404,0.2554,4.3059,0.97
1921051.0,-9.3829,0.2298,4.5179,1.002,4.7576,1.1009
1921061.0,-10.7308,-0.9553,7.6806,1.6841,5.22,1.2068
1921071.0,-11.7986,-3.0406,11.9854,2.2689,5.5989,1.1946
1921081.0,-14.0396,-3.1101,16.3069,2.66,5.7074,0.9855
1921091.0,-13.7906,-2.9209,21.0163,2.6781,5.4765,0.6657
1921101.0,-14.765,-1.6855,26.7097,2.3764,5.0439,0.2921
1921111.0,-15.9119,0.9529,32.7455,1.8156,4.0536,-0.0601
1921121.0,-16.2351,3.9504,35.178,1.2451,2.4498,-0.2267
1921131.0,-15.9933,5.3223,33.7223,0.5901,0.6029,-0.2043
1921141.0,-14.947,4.786,29.6426,-0.1048,-1.0892,-0.1016
1921151.0,-14.0659,3.5195,24.4448,-0.6236,-2.3221,-0.008
1921161.0,-12.9957,1.7957,19.2087,-0.8812,-3.0511,0.0516
1921171.0,-11.8992,0.2634,14.7674,-0.9658,-3.3715,0.0388
1921181.0,-10.9391,-0.1532,11.2791,-0.9674,-3.4343,-0.0426
1921191.0,-9.8186,-0.2729,8.7245,-0.9152,-3.3103,-0.133
1921201.0,-8.916,0.1532,6.9983,-0.8668,-3.0751,-0.2224
1921211.0,-8.2456,0.5291,6.4907,-0.8828,-2.8138,-0.2905
1921221.0,-7.7596,0.7997,6.2297,-0.8173,-2.6196,-0.3171
1921231.0,-7.1658,0.929,5.1499,-0.6651,-2.5132,-0.3038
1921241.0,-6.2776,0.6177,4.2114,-0.5183,-2.3376,-0.2762
1921251.0,-5.5833,0.2322,3.6655,-0.3581,-2.0529,-0.2661
1921261.0,-5.1547,-0.3903,4.0654,-0.2458,-1.715,-0.2863
1921271.0,-4.8411,-0.8978,4.7788,-0.1602,-1.4521,-0.3469
1921281.0,-4.2952,-0.6153,5.193,-0.1894,-1.334,-0.4518
1921291.0,-3.8523,-0.0263,5.6934,-0.3363,-1.2755,-0.5619
1921301.0,-3.9361,0.5914,6.3063,-0.4858,-1.2425,-0.6369
1921311.0,-3.6775,0.7901,6.505,-0.5204,-1.2819,-0.6497
1921321.0,-3.2417,0.6105,5.7461,-0.3634,-1.2872,-0.6103
1921331.0,-3.134,0.5722,4.6567,-0.1399,-1.16,-0.5688
1921341.0,-3.0694,0.6297,4.1563,-0.0096,-0.9184,-0.5412
1921351.0,-2.7509,0.1149,5.0182,0.0229,-0.6141,-0.5257
1921361.0,-2.8156,0.158,5.9783,-0.0085,-0.4161,-0.5539
1921371.0,-2.9975,0.1939,7.422,-0.1564,-0.3608,-0.605
1921381.0,-2.976,0.8906,7.8314,-0.2916,-0.4315,-0.654
1921391.0,-3.0071,1.5443,8.497,-0.5252,-0.5555,-0.6832
1921401.0,-3.134,2.0351,8.5329,-0.68,-0.7008,-0.6588
1921411.0,-3.2226,2.3415,8.2911,-0.7657,-0.8349,-0.5805
1921421.0,-2.9185,2.0877,8.0254,-0.6753,-0.8429,-0.4475
1921431.0,-2.7031,1.7406,7.4508,-0.4624,-0.7599,-0.2985
1921441.0,-2.7342,1.5467,7.4939,-0.3118,-0.6492,-0.1751
1921451.0,-2.7797,1.6017,7.4843,-0.1687,-0.5672,-0.0601
1921461.0,-2.7318,1.5945,6.9911,-0.041,-0.5172,0.0617
1921471.0,-2.5355,1.4126,6.1459,0.0218,-0.439,0.1772
1921481.0,-2.3798,0.9026,5.8179,0.0128,-0.2772,0.2682
1921491.0,-2.49,0.1748,6.0501,0.0101,-0.0527,0.3294
1921501.0,-2.6336,-1.1013,7.1084,0.0415,0.1602,0.3528
1921511.0,-2.6695,-2.0997,8.023,0.1644,0.2996,0.3155
1921521.0,-2.7174,-2.1356,8.3773,0.257,0.3203,0.2075
1921531.0,-2.7725,-1.3958,8.3773,0.2437,0.2852,0.0766
1921541.0,-2.7342,-0.4238,8.1618,0.1501,0.2432,-0.0202
1921551.0,-2.7414,0.723,7.9057,0.0037,0.2384,-0.0628
1921561.0,-2.7198,1.5562,8.0685,-0.166,0.2692,-0.0357
1921571.0,-2.5714,2.1237,8.0182,-0.2735,0.2969,0.0553
1921581.0,-2.6576,2.2673,8.1547,-0.3565,0.3203,0.1884
1921591.0,-2.4565,1.8938,7.8362,-0.3501,0.3081,0.357
1921601.0,-2.4588,1.245,7.118,-0.3028,0.2895,0.5082
1921611.0,-2.6504,1.0032,4.7022,-0.2873,0.191,0.605
1921621.0,-2.4708,1.0774,-0.4573,-0.5678,0.0426,0.6444
1921631.0,-3.3615,0.4836,-5.2337,-1.4026,0.0974,0.5976
1921641.0,-3.2394,0.6871,-10.0365,-2.2865,0.4587,0.5507
1921651.0,-3.2394,0.8332,-11.9926,-2.5525,1.6038,0.6125
1921661.0,-5.6407,1.2977,-7.9272,-1.7469,3.62,0.8205
1921671.0,-9.8976,1.3168,-0.0072,-0.0521,5.5244,1.1589
1921681.0,-13.1633,1.0534,8.6215,2.005,6.736,1.5559
1921691.0,-14.6429,-0.838,15.8041,3.7807,7.2218,1.8911
1921701.0,-13.4674,-2.2458,20.8846,4.7741,7.1702,1.9066
1921711.0,-13.963,-3.8978,29.4654,4.2675,6.6732,1.4931
1921721.0,-14.1497,-4.3096,38.3024,2.5621,5.0827,0.7604
1921731.0,-14.7555,-3.4955,43.5218,0.5289,2.4254,-0.0197
1921741.0,-14.7028,-1.6209,39.9903,-0.8955,-0.6151,-0.5715
1921751.0,-13.9343,-0.1006,29.8174,-1.6059,-3.0463,-0.8461
1921761.0,-12.4834,1.4892,18.816,-1.8688,-4.1553,-0.9323
1921771.0,-11.1163,2.4014,12.1961,-1.9044,-4.0563,-0.8828
1921781.0,-10.5273,2.6504,9.8521,-1.5703,-3.3592,-0.6965
1921791.0,-10.0892,2.083,9.7276,-0.9206,-2.693,-0.4076
1921801.0,-9.3685,1.8483,8.9591,-0.1144,-2.3163,-0.1043
1921811.0,-8.157,1.6712,6.9456,0.5044,-2.113,0.149
1921821.0,-6.8498,1.0965,5.1882,0.679,-1.9055,0.2873
1921831.0,-6.1914,0.3855,4.853,0.4358,-1.6767,0.281
1921841.0,-5.94,-0.0982,5.2936,0.0692,-1.5421,0.1815
1921851.0,-5.5569,-0.0766,5.1978,-0.2799,-1.5256,0.0447
1921861.0,-5.1356,-0.1293,5.7365,-0.6034,-1.4894,-0.0947
1921871.0,-4.9201,0.5171,6.0549,-0.7226,-1.4016,-0.2033
1921881.0,-4.9799,1.4868,6.7229,-0.6907,-1.317,-0.2448
1921891.0,-4.5418,1.9776,6.1531,-0.4624,-1.2776,-0.1751
1921901.0,-4.1156,1.8076,5.6814,-0.2139,-1.1552,-0.0569
1921911.0,-3.6512,1.257,4.9536,0.0713,-0.945,0.0702
1921921.0,-3.292,0.4932,4.7118,0.2453,-0.6635,0.1527
1921931.0,-3.2681,-0.4405,5.5785,0.2384,-0.3837,0.1671
1921941.0,-3.2154,-1.2522,6.9384,0.207,-0.1804,0.1224
1921951.0,-3.2753,-1.2186,8.3438,0.1336,-0.0963,0.0181
1921961.0,-3.4309,-0.6584,9.4308,-0.0255,-0.1655,-0.1038
1921971.0,-3.5769,0.0694,9.9838,-0.2778,-0.3714,-0.2123
1921981.0,-3.644,0.8164,10.0078,-0.5193,-0.6449,-0.2751
1921991.0,-3.5314,1.391,8.9783,-0.6173,-0.8716,-0.265
1922001.0,-3.1819,1.4509,7.6327,-0.5779,-0.9445,-0.1889
1922011.0,-2.9137,1.2067,6.517,-0.4571,-0.8077,-0.0873
1922021.0,-2.9113,0.5794,6.1938,-0.3688,-0.5763,0.0074
1922031.0,-2.7653,-0.7925,6.8354,-0.2826,-0.3469,0.0761
1922041.0,-2.6121,-1.8411,7.4915,-0.0772,-0.1341,0.0873
1922051.0,-2.6647,-2.0087,8.2361,0.165,0.0569,0.0388
1922061.0,-2.8826,-1.549,8.8633,0.2879,0.1517,-0.0458
1922071.0,-3.0095,-1.1109,9.5744,0.2246,0.1213,-0.1368
1922081.0,-3.1627,-0.3879,10.0102,0.0942,0.0229,-0.2203
1922091.0,-3.4285,0.3089,10.41,-0.0639,-0.1059,-0.273
1922101.0,-3.5219,0.7254,10.3262,-0.2182,-0.29,-0.2831
1922111.0,-3.4261,0.9409,9.8689,-0.3618,-0.4688,-0.2698
1922121.0,-3.2681,0.9266,9.3853,-0.4539,-0.5619,-0.2395
1922131.0,-3.201,0.8212,8.9328,-0.464,-0.589,-0.1953
1922141.0,-3.1651,0.5195,8.6024,-0.4342,-0.5843,-0.1532
1922151.0,-3.1125,0.2346,8.3941,-0.365,-0.5805,-0.1197
1922161.0,-1.6352,-0.4645,7.9224,-0.1985,-0.6039,-0.0835
1922171.0,-3.213,-0.6057,7.4579,0.1075,-0.4757,-0.0686
1922181.0,-2.4732,-0.0551,5.4851,0.3384,-0.4741,-0.0665
1922191.0,-1.8723,0.3879,4.1755,0.2512,-0.3294,-0.0889
1922201.0,-2.047,1.2258,4.0773,-0.0048,-0.0106,-0.1155
1922211.0,-1.9752,1.5299,5.2625,-0.3448,0.2283,-0.099
1922221.0,-1.8124,1.1756,6.5577,-0.6013,0.3475,-0.0394
1922231.0,-1.6664,0.6488,7.1299,-0.7939,0.2799,0.0197
1922241.0,-1.9872,0.668,6.0789,-0.895,0.0963,0.0697
1922251.0,-1.8292,0.5483,2.4181,-1.0062,-0.1745,0.1282
1922261.0,-1.47,0.012,-2.296,-1.2122,-0.1969,0.1564
1922271.0,-2.1428,0.4717,-6.6176,-1.4218,0.2639,0.1602
1922281.0,-1.901,1.2282,-8.8585,-1.4654,1.1621,0.2208
1922291.0,-3.2322,1.9082,-6.9384,-1.0195,2.7026,0.3906
1922301.0,-6.1818,3.1771,-2.2338,-0.3155,4.1425,0.6524
1922311.0,-9.0668,3.96,3.5674,0.3629,5.0503,1.0185
1922321.0,-10.6159,1.7765,9.6127,1.0791,5.5473,1.4452
1922331.0,-12.7395,-0.0982,14.3676,1.8858,5.7894,1.7278
1922341.0,-12.718,-1.1612,18.1744,2.287,5.6936,1.7666
1922351.0,-13.5153,-2.7869,23.2333,1.9385,5.2605,1.5852
1922361.0,-12.9071,-4.1013,27.6506,1.2031,4.2447,1.209
1922371.0,-12.8186,-3.8882,30.3297,0.4241,2.9346,0.7375
1922381.0,-12.864,-2.7078,30.5787,-0.2309,1.4191,0.3086
1922391.0,-12.7922,-1.6065,27.8781,-0.6827,-0.0702,0.0154
1922401.0,-12.0117,-1.0678,23.0921,-0.9807,-1.2702,-0.1708
1922411.0,-11.1306,-0.8236,18.2989,-1.135,-1.9747,-0.2905
1922421.0,-10.228,-0.8906,14.4682,-1.0307,-2.1822,-0.3453
1922431.0,-9.3733,-1.1181,12.1889,-0.7327,-2.0481,-0.3581
1922441.0,-8.8083,-0.5195,10.6614,-0.3437,-1.7874,-0.3549
1922451.0,-8.2863,-0.0814,9.9958,-0.1485,-1.6049,-0.339
1922461.0,-7.6902,0.3208,9.9335,-0.1554,-1.5527,-0.3262
1922471.0,-7.3095,0.5626,9.9144,-0.2176,-1.5804,-0.3102
1922481.0,-6.9887,0.5243,9.7133,-0.2921,-1.6804,-0.2921
1922491.0,-6.6032,0.2993,8.9471,-0.3512,-1.847,-0.2799
1922501.0,-5.9209,0.0718,7.5872,-0.3166,-1.9571,-0.2708
1922511.0,-5.3367,0.0455,6.1507,-0.2368,-1.8964,-0.2783
1922521.0,-4.8435,-0.0455,5.6024,-0.165,-1.6958,-0.2889
1922531.0,-4.4101,0.2705,5.5258,-0.0623,-1.4426,-0.3033
1922541.0,-4.4388,0.6632,6.687,-0.0298,-1.2244,-0.3139
1922551.0,-4.6855,1.1564,7.2401,0.0702,-1.1568,-0.2831
1922561.0,-4.3814,0.9218,6.7109,0.1224,-1.2446,-0.2203
1922571.0,-3.7373,0.3041,5.7748,0.1203,-1.26,-0.1799
1922581.0,-3.2753,-0.4214,5.4277,0.1298,-1.0706,-0.1852
1922591.0,-3.3208,-0.7398,6.1363,0.1016,-0.8104,-0.2453
1922601.0,-3.4884,-1.1899,7.8171,0.016,-0.6662,-0.3315
1922611.0,-3.5267,-0.8428,8.6048,-0.0043,-0.712,-0.4252
1922621.0,-3.6296,0.0,8.8418,-0.0569,-0.8312,-0.5066
1922631.0,-10.805,0.5507,-3.7038,0.5156,-0.6045,-0.4826
1922641.0,-8.1403,6.1124,-10.7619,2.3887,0.7402,-0.1963
1922651.0,-9.8234,-1.7047,26.4224,-0.6848,0.8833,-0.1751
1922661.0,-3.5841,3.6081,13.4626,0.2666,-1.3297,-0.0623
1922671.0,-3.2034,-0.7374,5.6767,0.1921,-1.7778,0.0841
1922681.0,-1.5514,-1.8555,7.8673,0.2171,-0.6859,0.0037
1922691.0,-2.9377,-0.9337,9.2512,0.0601,-0.1969,-0.1995
1922701.0,-5.5737,1.1564,6.3734,-0.049,-0.2905,-0.3182
1922711.0,-4.5179,1.8148,9.7085,-0.5885,-0.6689,-0.373
1922721.0,-4.5993,1.889,13.2399,-0.8519,-1.2297,-0.3437
1922731.0,-3.2992,3.96,6.3422,-0.3022,-1.5378,-0.1809
1922741.0,-2.8994,3.2394,4.6017,-0.3278,-1.1909,0.0011
1922751.0,-2.9185,2.8922,3.9983,-0.2953,-0.6455,0.1724
1922761.0,-2.7174,0.9673,5.5593,-0.3986,-0.3214,0.3209
1922771.0,-1.9369,-0.2777,6.1483,-0.2597,-0.1059,0.415
1922781.0,-1.8675,-0.5626,7.0054,0.0431,0.1963,0.4645
1922791.0,-2.1021,-0.0862,7.9679,0.3443,0.406,0.4997
1922801.0,-2.1596,0.5483,7.7812,0.5055,0.4209,0.5374
1922811.0,-2.138,0.8452,7.0366,0.3368,0.2863,0.5566
1922821.0,-1.8962,0.4741,5.9448,0.0027,0.0937,0.5534
1922831.0,-1.4317,0.2418,3.5386,-0.2485,-0.0037,0.53
1922841.0,-1.3384,-0.0599,1.7789,-0.5172,0.1383,0.4848
1922851.0,-1.2977,-0.2131,0.5722,-0.7141,0.4576,0.4443
1922861.0,-1.7142,-0.4741,1.3384,-0.7795,0.945,0.4347
1922871.0,-2.1428,-0.0814,2.1093,-0.5098,1.4213,0.4816
1922881.0,-2.5929,1.2953,1.5538,-0.1543,1.8097,0.571
1922891.0,-3.3543,2.0518,1.1684,-0.2251,2.1167,0.6779
1922901.0,-3.8618,1.0846,1.391,-0.6321,2.3163,0.7774
1922911.0,-4.8195,0.4621,1.1636,-1.1462,2.4898,0.8008
1922921.0,-5.8059,0.0168,1.3072,-1.8214,2.5994,0.7583
1922931.0,-7.2281,0.1006,2.1668,-2.3642,2.8543,0.7242
1922941.0,-8.77,-0.68,4.9464,-2.6164,3.2571,0.7636
1922951.0,-10.0461,-2.5953,9.7947,-2.344,3.7141,0.8695
1922961.0,-12.3517,-2.0901,13.5751,-1.4926,4.0249,0.9658
1922971.0,-11.9614,-0.7997,16.0507,-0.7343,4.0387,1.0648
1922982.0,-12.7587,-1.1612,20.1089,-0.4315,3.9366,1.1499
1922991.0,-12.8473,-2.569,24.7704,-0.3624,3.4374,1.1701
1923001.0,-12.5767,-4.3981,27.5716,-0.3033,2.4887,1.0946
1923011.0,-11.7579,-5.5186,27.3083,-0.2927,1.3042,0.8977
1923021.0,-11.2073,-6.0765,26.0513,-0.4204,0.2208,0.5944
1923031.0,-11.0157,-4.64,23.3052,-0.4991,-0.663,0.2724
1923041.0,-10.8553,-3.5291,20.7075,-0.6029,-1.3431,0.0447
1923051.0,-10.1658,-3.4117,17.7291,-0.5805,-1.8374,-0.0692
1923061.0,-9.4212,-3.6823,15.3851,-0.4486,-2.0987,-0.1442
1923071.0,-8.9112,-3.213,12.8042,-0.1628,-2.1806,-0.2043
1923081.0,-8.406,-2.6552,10.4555,-0.0362,-2.2237,-0.2618
1923091.0,-7.1587,-2.8036,8.3965,-0.1282,-2.2711,-0.3267
1923101.0,-6.6535,-3.6679,7.4603,-0.2783,-2.2189,-0.4289
1923111.0,-5.782,-3.5769,6.3662,-0.2304,-2.0598,-0.5741
1923121.0,-5.6527,-2.9832,6.4093,-0.1586,-1.8204,-0.7263
1923131.0,-5.4037,-2.0638,6.3327,-0.0314,-1.6676,-0.8312
1923141.0,-5.126,-1.3024,6.1866,0.0889,-1.5905,-0.8801
1923151.0,-4.6855,-0.8643,5.6527,0.2352,-1.5218,-0.8844
1923161.0,-4.4532,-0.3017,5.1667,0.3741,-1.4037,-0.8652
1923171.0,-4.2114,-0.1652,5.0518,0.489,-1.2345,-0.8226
1923181.0,-4.1803,-0.0335,5.2792,0.6151,-1.0382,-0.7774
1923191.0,-4.063,0.4118,5.1811,0.6928,-0.8886,-0.7396
1923201.0,-4.0917,0.8787,5.6958,0.6204,-0.7434,-0.7024
1923211.0,-4.3191,1.7765,6.2896,0.5044,-0.6455,-0.647
1923221.0,-4.0247,1.5969,6.8761,0.3533,-0.6247,-0.5465
1923231.0,-3.7493,0.4956,7.1802,0.2442,-0.6119,-0.455
1923241.0,-3.5051,-1.0774,8.2768,0.19,-0.5885,-0.4246
1923251.0,-3.3806,-1.2761,7.7093,0.3379,-0.6013,-0.4496
1923261.0,-3.4141,-0.6201,7.3215,0.3379,-0.5773,-0.5082
1923271.0,-3.4261,0.0934,7.4077,0.2219,-0.513,-0.5449
1923281.0,-3.6129,0.8116,8.0613,0.0905,-0.4534,-0.5406
1923291.0,-3.8068,1.4964,8.8538,0.0101,-0.4432,-0.4832
1923301.0,-3.7852,2.0159,8.7676,0.0197,-0.5358,-0.3688
1923311.0,-3.5147,1.743,7.6447,-0.0021,-0.68,-0.2219
1923321.0,-2.6408,0.4262,6.2513,-0.0835,-0.7418,-0.0968
1923331.0,-2.15,-0.6273,5.5258,-0.0952,-0.563,-0.0394
1923341.0,-2.1572,-1.3264,5.8562,0.0106,-0.2347,-0.0287
1923351.0,-2.2697,-1.1253,6.2991,0.1383,0.0319,-0.0442
1923361.0,-2.5355,-0.316,7.0797,0.1165,0.1745,-0.0617
1923371.0,-2.7078,0.1173,8.1642,0.058,0.2208,-0.0399
1923381.0,-2.976,0.3256,8.5928,0.0681,0.1985,0.0165
1923391.0,-3.0694,0.0263,8.916,0.083,0.1256,0.0846
1923401.0,-2.9113,-0.1987,8.3318,0.1729,0.0521,0.1447
1923411.0,-2.8276,-0.5674,7.9703,0.2549,0.1107,0.1836
1923421.0,-2.8802,-1.336,8.4563,0.3155,0.2522,0.191
1923431.0,-3.0215,-1.3408,8.8633,0.3475,0.3342,0.1506
1923441.0,-3.2274,-0.8212,9.4475,0.2767,0.3352,0.0968
1923451.0,-3.2992,-0.3017,9.8785,0.1735,0.29,0.0734
1923461.0,-3.2896,-0.4094,10.5848,0.0681,0.2522,0.0873
1923471.0,-3.4093,-0.7733,11.4826,0.0059,0.1783,0.1027
1923481.0,-3.5865,-0.8667,11.813,-0.025,0.0085,0.1022
1923491.0,-3.5985,-0.7039,11.5353,-0.1086,-0.2453,0.0857
1923501.0,-3.6775,-0.4812,10.9008,-0.1894,-0.4725,0.0702
1923511.0,-3.5051,-0.5148,10.3813,-0.1836,-0.5614,0.0766
1923521.0,-3.4237,-0.4453,9.9,-0.074,-0.5662,0.091
1923531.0,-3.2513,0.0192,9.0285,0.0069,-0.5747,0.1016
1923541.0,-3.201,0.3543,8.6981,-0.0511,-0.5598,0.1144
1923551.0,-2.9688,0.7542,8.3055,-0.149,-0.5491,0.1437
1923561.0,-2.7198,0.6225,7.908,-0.365,-0.5965,0.1836
1923571.0,-2.7892,0.3065,6.9839,-0.6832,-0.7295,0.2091
1923581.0,-3.6679,-0.6009,5.2289,-1.0914,-0.953,0.2187
1923591.0,-3.1508,-1.8507,0.0934,-1.5836,-1.3441,0.1974
1923601.0,-2.3535,-4.8507,-7.4771,-2.3594,-1.5506,0.0803
1923611.0,0.1125,-6.8307,-14.1138,-3.0086,-0.9658,-0.2208
1923621.0,0.2514,-7.2856,-12.7252,-2.5446,1.2137,-0.5348
1923631.0,-3.8978,-5.7676,-5.533,-0.9839,3.7413,-0.7412
1923641.0,-8.1044,-1.4222,2.1284,0.5827,5.1024,-0.8088
1923651.0,-10.7188,3.3208,6.1028,1.6964,5.3738,-0.6588
1923661.0,-9.9862,5.3415,7.8123,2.2402,5.4244,-0.3257
1923671.0,-11.4922,4.0438,13.884,2.1614,5.8208,-0.0314
1923681.0,-13.0819,3.0957,22.0314,1.6671,5.6819,0.1107
1923691.0,-12.4738,1.4533,29.0225,1.0185,4.6081,0.1756
1923701.0,-11.8752,-0.2586,31.06,0.6944,3.1682,0.215
1923711.0,-11.5377,-0.972,31.4909,0.4071,1.6762,0.1437
1923721.0,-12.0309,1.6041,27.1479,0.357,0.331,0.0878
1923731.0,-11.3796,1.5131,21.9405,-0.0527,-0.7838,0.1314
1923741.0,-10.1466,-0.3879,18.1026,-0.5731,-1.4144,0.1676
1923751.0,-9.5553,-1.1277,15.5719,-0.6694,-1.566,0.1735
1923761.0,-8.6407,-2.4636,13.1514,-0.3868,-1.4766,0.2033
1923771.0,-7.8554,-3.7852,12.6534,-0.149,-1.2723,0.1639
1923781.0,-7.2688,-4.3191,12.7132,0.0841,-1.126,0.0463
1923791.0,-7.0413,-3.9049,13.1298,0.1671,-1.1536,-0.1288
1923801.0,-6.7708,-2.4349,12.5576,0.1352,-1.367,-0.2911
1923811.0,-6.505,-0.984,11.6286,-0.0633,-1.6288,-0.3863
1923821.0,-6.2704,-0.1652,10.6566,-0.331,-1.8603,-0.4081
1923831.0,-5.8873,-0.2418,9.5792,-0.531,-2.0438,-0.3719
1923841.0,-5.2936,-0.9984,8.2528,-0.5832,-2.1476,-0.3161
1923851.0,-4.6376,-1.6137,6.5481,-0.4794,-2.1093,-0.2841
1923861.0,-3.9337,-2.296,5.4013,-0.3358,-1.8938,-0.2863
1923871.0,-3.4836,-2.9401,5.3822,-0.1751,-1.5437,-0.331
1923881.0,-3.3064,-3.0358,6.1387,-0.0106,-1.2372,-0.4166
1923891.0,-3.2394,-2.466,7.0222,0.1777,-1.0227,-0.5023
1923901.0,-3.2633,-1.4796,7.5729,0.2852,-0.9413,-0.5672
1923911.0,-3.3806,-0.4669,7.9535,0.2464,-0.9514,-0.5954
1923921.0,-3.4453,0.1053,7.8386,0.0756,-1.0552,-0.5848
1923931.0,-3.2441,-0.1724,7.6183,-0.2006,-1.2036,-0.5534
1923941.0,-2.8323,-0.4166,6.9456,-0.3842,-1.2829,-0.5268
1923951.0,-2.5881,-0.7949,6.7947,-0.4363,-1.202,-0.5034
1923961.0,-2.6528,-1.549,7.1682,-0.3113,-1.0456,-0.4725
1923971.0,-2.4876,-2.2865,7.3215,-0.0181,-0.9104,-0.4544
1923981.0,-2.2936,-2.1452,6.9145,0.2863,-0.7992,-0.4794
1923991.0,-2.2936,-1.3024,6.5362,0.4097,-0.6832,-0.5295
1924001.0,-2.5163,-0.2825,6.687,0.315,-0.5672,-0.5683
1924011.0,-2.5642,0.3879,7.1754,0.0713,-0.514,-0.572
1924021.0,-2.3056,-0.0287,8.2097,-0.2059,-0.4975,-0.5577
1924031.0,-2.8012,0.735,9.1459,-0.3496,-0.5098,-0.5433
1924041.0,-3.0406,1.2139,9.6319,-0.3001,-0.5805,-0.4464
1924051.0,-3.1196,1.0151,9.7827,-0.157,-0.6455,-0.2927
1924061.0,-2.885,-0.2251,9.6774,0.008,-0.7247,-0.1442
1924071.0,-2.5163,-1.5131,9.1961,0.207,-0.7737,-0.074
1924081.0,-2.2218,-1.6352,8.0685,0.3384,-0.8306,-0.1112
1924091.0,-1.8387,-0.7087,6.7995,0.364,-0.8035,-0.1804
1924101.0,-1.6807,-0.0455,6.7062,0.2799,-0.5859,-0.2198
1924111.0,-2.3798,0.9218,7.7309,0.1038,-0.4081,-0.223
1924121.0,-2.2458,1.8076,7.8434,-0.1272,-0.4975,-0.1729
1924131.0,-2.5019,2.3224,7.4364,-0.3539,-0.6173,-0.0591
1924141.0,-1.889,1.6544,5.9496,-0.4486,-0.7199,0.1171
1924151.0,-1.0127,-0.0168,4.719,-0.4017,-0.5539,0.2724
1924161.0,-0.7326,-1.2186,4.7908,-0.1852,-0.1564,0.3406
1924171.0,-0.6393,-1.1779,4.8937,0.1719,0.2128,0.3533
1924181.0,-0.8428,-0.4932,5.0757,0.4613,0.5193,0.3592
1924191.0,-1.0678,0.6009,4.7142,0.5353,0.6715,0.3783
1924201.0,-0.9457,1.6233,3.8882,0.3161,0.6917,0.4193
1924211.0,-0.8356,2.4373,2.4445,-0.1064,0.6795,0.5076
1924221.0,-0.0622,1.9944,-0.1125,-0.6534,0.6359,0.6561
1924231.0,0.7757,1.1349,-3.3016,-1.235,0.7322,0.8067
1924241.0,-1.5969,0.9337,-5.7054,-1.6671,1.2132,0.9562
1924251.0,-2.8994,0.2753,-6.6583,-1.7028,1.9938,1.1855
1924261.0,-5.3678,-0.3208,-4.1252,-1.0967,3.2523,1.4777
1924271.0,-8.1451,-1.889,0.0192,0.0426,4.5315,1.7959
1924281.0,-11.7268,-4.5586,4.7022,1.1994,5.5249,2.0045
1924291.0,-10.647,-7.1563,8.6024,1.9247,6.089,1.9294
1924301.0,-12.3086,-9.2081,15.6629,1.847,6.6094,1.4798
1924311.0,-13.3429,-9.5505,24.9619,1.2505,6.4551,0.7716
1924321.0,-13.702,-7.8338,33.2818,0.3847,5.2961,0.0144
1924331.0,-13.4889,-3.9935,35.3935,-0.2389,3.4683,-0.5933
1924341.0,-13.1059,-0.0072,34.6369,-0.8743,1.5649,-0.9291
1924351.0,-13.2902,1.5155,32.2403,-1.1142,0.0495,-0.9264
1924361.0,-12.5336,1.3719,26.7121,-0.8753,-1.2191,-0.738
1924371.0,-11.5137,1.324,20.9995,-0.4704,-2.0135,-0.5332
1924381.0,-10.058,1.3767,14.3245,0.1144,-2.2727,-0.298
1924391.0,-8.4539,0.2083,10.41,0.306,-2.0992,-0.1256
1924401.0,-8.2648,-0.4262,8.8921,0.248,-1.765,-0.0639
1924411.0,-6.8546,-2.0039,8.6503,0.0314,-1.532,-0.0681
1924421.0,-6.5697,-3.4333,9.979,-0.2256,-1.3713,-0.182
1924431.0,-6.0286,-3.553,10.4435,-0.2496,-1.4175,-0.3523
1924441.0,-5.6336,-3.5841,10.7164,-0.1729,-1.5256,-0.5156
1924451.0,-5.3534,-3.0143,9.6678,0.0261,-1.6639,-0.6604
1924461.0,-5.2744,-1.7262,8.0086,0.0883,-1.781,-0.7966
1924471.0,-5.126,0.182,6.936,-0.0298,-1.7826,-0.8881
1924481.0,-4.8961,0.9577,6.5625,-0.1639,-1.6554,-0.8705
1924491.0,-5.0422,1.1396,7.5657,-0.2692,-1.5165,-0.7928
1924501.0,-4.889,1.3743,7.8554,-0.1825,-1.4958,-0.6763
1924511.0,-4.6352,1.0032,7.9176,0.0319,-1.4628,-0.5215
1924521.0,-4.2282,0.2753,7.5513,0.323,-1.3931,-0.3735
1924531.0,-3.8762,-0.5794,7.4747,0.5183,-1.3037,-0.2905
1924541.0,-3.62,-1.3408,7.92,0.6295,-1.2329,-0.2815
1924551.0,-3.3806,-0.9768,7.2449,0.6774,-1.2664,-0.3272
1924561.0,-3.1484,-0.0958,6.4979,0.5108,-1.2904,-0.3762
1924571.0,-2.8874,0.4812,5.9711,0.1815,-1.2553,-0.3948
1924581.0,-2.7007,0.5411,6.2249,-0.2155,-1.1882,-0.3895
1924591.0,-2.5905,0.3112,6.857,-0.4688,-1.0962,-0.3586
1924601.0,-2.3966,-0.2394,7.4915,-0.4848,-1.003,-0.3006
1924611.0,-2.2434,-0.8212,7.422,-0.3161,-0.9355,-0.24
1924621.0,-1.9034,-1.4174,7.0749,-0.1197,-0.8652,-0.1985
1924631.0,-1.4317,-1.8148,6.4763,0.091,-0.7178,-0.1884
1924641.0,-1.1492,-1.3791,6.0118,0.1628,-0.5193,-0.2246
1924651.0,-1.336,-0.7997,6.8163,0.0144,-0.298,-0.2661
1924661.0,-1.5897,-0.3831,7.7644,-0.2049,-0.1932,-0.2783
1924671.0,-1.7789,-0.1317,8.5712,-0.4475,-0.2331,-0.265
1924681.0,-1.8938,0.0335,9.0549,-0.5896,-0.332,-0.2176
1924691.0,-1.8603,-0.0646,8.5377,-0.5364,-0.4103,-0.133
1924701.0,-1.6783,-0.5866,7.9559,-0.3895,-0.3826,-0.0463
1924711.0,-1.5921,-0.905,7.501,-0.2011,-0.2661,0.0096
1924721.0,-1.5347,-0.9601,7.1682,-0.0378,-0.1123,0.0399
1924731.0,-1.6161,-0.5459,6.8498,0.0144,0.042,0.0506
1924741.0,-1.7669,-0.0192,7.252,-0.0889,0.1846,0.0623
1924751.0,-2.0375,0.3017,8.0469,-0.2246,0.3012,0.1064
1924761.0,-2.2362,0.1963,9.0381,-0.3358,0.3347,0.1809
1924771.0,-2.229,-0.1604,9.6103,-0.3416,0.2921,0.274
1924781.0,-2.3032,-0.893,10.0724,-0.2815,0.2421,0.3592
1924791.0,-2.296,-2.1835,10.4148,-0.1399,0.1963,0.4124
1924801.0,-1.9872,-3.3208,10.24,0.0426,0.1266,0.3959
1924811.0,-1.8316,-3.6823,9.7181,0.1112,0.0553,0.2799
1924821.0,-1.9154,-2.9928,9.0573,0.0426,-0.0287,0.1107
1924831.0,-1.8316,-1.4413,7.9727,-0.1208,-0.0814,-0.0293
1924841.0,-1.8842,-0.1413,7.5274,-0.3852,-0.0293,-0.0798
1924851.0,-1.9656,0.9864,6.948,-0.6731,0.0181,-0.0383
1924861.0,-2.0135,1.7286,5.1284,-1.0802,-0.042,0.0814
1924871.0,-0.7111,-0.0359,3.8116,-1.7677,-0.1336,0.2246
1924881.0,-2.6312,-0.3807,2.5546,-2.3104,-0.1341,0.3278
1924891.0,-1.47,-1.4437,-0.9409,-2.344,-0.157,0.4784
1924901.0,-0.8212,-2.6743,-5.0542,-1.9332,0.4805,0.6279
1924911.0,-1.8579,-3.292,-4.5729,-1.4207,1.7299,0.6737
1924921.0,-4.0821,-1.6328,-1.7478,-0.6992,2.9852,0.6806
1924931.0,-6.2608,0.0,2.2721,-0.0681,3.8738,0.7668
1924941.0,-7.6591,1.1253,5.375,0.3352,4.3782,0.9115
1924951.0,-9.2081,1.8004,10.0413,0.2937,4.656,1.0515
1924961.0,-10.2472,0.9026,15.9502,0.158,4.6996,1.2334
1924971.0,-10.8362,-0.5914,21.3419,0.0809,4.4011,1.3867
1924981.0,-10.2137,-3.3543,25.6371,-0.2432,3.5221,1.4293
1924991.0,-10.1347,-5.2361,27.8661,-0.5784,2.2902,1.3303
1925001.0,-8.9807,-6.9767,25.8622,-0.6683,0.9621,1.1478
1925011.0,-8.0756,-8.6766,24.6004,-0.7285,0.0378,0.8583
1925021.0,-7.9128,-8.849,19.9269,-0.4081,-0.6311,0.5028
1925031.0,-8.2169,-8.7269,18.567,-0.3475,-0.9993,0.1165
1925041.0,-8.26,-4.6663,14.5759,0.107,-1.2031,-0.1724
1925051.0,-7.8793,-2.9209,11.8106,0.2895,-1.127,-0.2341
1925061.0,-7.3598,-3.1029,12.0572,0.0495,-0.9892,-0.2288
1925071.0,-7.1275,-3.3734,13.374,-0.1165,-0.9253,-0.2261
1925081.0,-7.1251,-4.1084,15.2606,-0.133,-1.0445,-0.2224
1925091.0,-6.9408,-4.4341,14.6836,0.0628,-1.4553,-0.2315
1925101.0,-6.0597,-4.8698,12.1458,0.1607,-1.9773,-0.2884
1925111.0,-4.9608,-4.8818,8.5784,0.1729,-2.2647,-0.4044
1925121.0,-4.2784,-4.0654,5.7245,0.1086,-2.1481,-0.5534
1925131.0,-3.7014,-3.4884,4.9847,-0.1139,-1.8246,-0.6917
1925141.0,-4.1731,-3.0789,6.2201,-0.3145,-1.5234,-0.7955
1925151.0,-4.0821,-2.4301,6.8881,-0.2309,-1.3941,-0.8285
1925161.0,-3.8235,-2.0997,7.0006,0.0458,-1.3138,-0.7955
1925171.0,-3.4788,-1.3815,6.4189,0.4172,-1.1994,-0.7359
1925181.0,-3.213,-1.0702,6.2153,0.6896,-1.0217,-0.6593
1925191.0,-2.9688,-1.3671,6.7804,0.8375,-0.8093,-0.5912
1925201.0,-2.8108,-1.9106,7.106,0.845,-0.7205,-0.5683
1925211.0,-2.6145,-1.664,7.4388,0.6444,-0.7375,-0.6109
1925221.0,-2.5714,-1.0487,7.5776,0.3783,-0.7609,-0.6572
1925231.0,-2.5355,-0.735,7.8243,0.0995,-0.762,-0.6694
1925241.0,-2.5522,-0.7111,8.667,-0.1442,-0.7641,-0.6593
1925251.0,-2.49,-1.2402,9.6055,-0.1532,-0.7402,-0.6103
1925261.0,-2.3918,-1.7885,10.4267,0.0351,-0.7306,-0.5624
1925271.0,-2.4205,-2.1332,11.0636,0.3214,-0.7646,-0.531
1925281.0,-2.3894,-1.6448,10.3741,0.6018,-0.887,-0.5188
1925291.0,-2.4086,-0.5483,9.1626,0.6013,-1.0568,-0.5225
1925301.0,-2.2266,0.3304,7.8721,0.3799,-1.1659,-0.4922
1925311.0,-1.9896,-0.6608,7.6303,0.0447,-1.1494,-0.4379
1925321.0,-1.3671,-1.1827,8.3199,-0.1745,-1.0919,-0.4268
1925331.0,-2.2194,-1.3096,8.7939,-0.0601,-1.0328,-0.3996
1925341.0,-1.6831,-1.2234,7.6806,0.2543,-1.028,-0.3395
1925351.0,-1.3168,-1.9297,7.2832,0.4188,-0.9168,-0.3038
1925361.0,-1.1995,-2.0327,7.1635,0.5231,-0.7503,-0.3278
1925371.0,-1.3144,-1.142,6.7469,0.4507,-0.705,-0.4001
1925381.0,-1.2737,-0.4046,6.4308,0.2448,-0.6747,-0.4417
1925391.0,-0.577,-0.6919,6.6942,0.0463,-0.5699,-0.4401
1925401.0,-1.4293,0.1293,7.5489,-0.0803,-0.4587,-0.4443
1925411.0,-0.9816,1.0678,7.2736,0.0463,-0.4342,-0.364
1925421.0,-1.2977,1.1301,6.9695,0.1793,-0.3161,-0.2033
1925431.0,-1.1277,1.0822,6.9504,0.2373,-0.2267,-0.0479
1925441.0,-0.7183,0.8284,6.9025,0.3704,-0.1006,0.108
1925451.0,-0.6345,0.0838,7.1036,0.4874,0.0889,0.2384
1925461.0,-0.826,-0.0838,7.3741,0.4342,0.1383,0.2985
1925471.0,-0.8164,0.4501,6.7876,0.2469,0.0346,0.3262
1925481.0,-0.7183,1.0511,5.4612,0.0176,-0.0112,0.3746
1925491.0,-0.668,1.2378,4.6471,-0.2549,0.1027,0.447
1925501.0,-0.1365,0.8428,4.0941,-0.5465,0.2655,0.5279
1925511.0,-1.9848,1.2689,3.6847,-0.9668,0.3448,0.5896
1925521.0,-1.1732,0.8428,2.1859,-1.3995,0.1761,0.6987
1925531.0,-1.482,0.3663,-0.8859,-1.5405,0.2464,0.8407
1925541.0,-2.1428,-0.2322,-4.027,-1.5075,0.6588,0.9759
1925551.0,-1.8292,-1.0511,-5.9783,-1.2052,1.5618,1.102
1925561.0,-3.5913,-2.1955,-3.6895,-0.721,2.9894,1.2052
1925571.0,-5.8634,-2.5786,1.8842,-0.1953,4.1702,1.2627
1925581.0,-7.9607,-3.3279,7.0222,0.4385,4.8295,1.3223
1925591.0,-9.4978,-4.0845,11.5305,1.028,5.1402,1.3542
1925601.0,-8.6431,-4.8219,15.4905,1.4761,5.2525,1.2994
1925611.0,-8.9735,-5.7293,20.243,1.416,5.2605,1.094
1925621.0,-9.4044,-7.0198,26.3841,0.6263,4.6922,0.7024
1925631.0,-10.2304,-7.1635,32.2547,-0.4874,3.3065,0.207
1925641.0,-8.995,-6.3303,31.3281,-1.1031,1.4692,-0.1852
1925651.0,-9.7372,-3.7541,28.807,-1.3074,0.0351,-0.4268
1925661.0,-9.5146,-0.9194,22.3116,-0.9498,-0.9647,-0.4135
1925671.0,-8.8131,-0.3687,17.504,-0.6486,-1.3372,-0.2315
1925681.0,-8.0158,-1.1588,14.4394,-0.2559,-1.2462,-0.0144
1925691.0,-7.2712,-2.6384,13.228,0.1559,-0.9397,0.1394
1925701.0,-6.8953,-3.5506,13.6589,0.4214,-0.7029,0.1671
1925711.0,-6.4691,-3.6823,13.5823,0.4789,-0.7716,0.0947
1925721.0,-5.9544,-3.4093,12.8521,0.2112,-1.0621,-0.0527
1925731.0,-5.4492,-2.8946,11.813,-0.2288,-1.3739,-0.2261
1925741.0,-5.126,-2.4397,11.236,-0.5997,-1.5878,-0.373
1925751.0,-4.6735,-2.0087,10.4387,-0.6508,-1.69,-0.4432
1925761.0,-4.6591,-1.8507,9.5624,-0.4645,-1.7038,-0.4454
1925771.0,-4.3335,-1.2067,7.9296,-0.1548,-1.6889,-0.4071
1925781.0,-3.4716,-1.4365,6.2537,0.0511,-1.615,-0.3448
1925791.0,-3.1436,-1.4581,5.0494,0.1559,-1.3617,-0.3171
1925801.0,-3.1316,-1.4605,5.102,0.1213,-1.0908,-0.3235
1925811.0,-2.9688,-1.731,5.4851,0.1027,-0.845,-0.3246
1925821.0,-2.7031,-1.9034,5.9568,0.0931,-0.6316,-0.3427
1925831.0,-2.7078,-2.0853,7.3741,0.0511,-0.4363,-0.3842
1925841.0,-2.8635,-2.0063,8.3821,0.0623,-0.3656,-0.4315
1925851.0,-2.8443,-1.8004,9.1674,0.0229,-0.4236,-0.4821
1925861.0,-2.806,-1.4413,9.5792,0.0298,-0.497,-0.5114
1925871.0,-2.9137,-1.1061,9.7013,0.016,-0.5821,-0.5215
1925881.0,-2.8826,-1.1708,9.8067,-0.016,-0.6795,-0.5098
1925891.0,-2.7078,-1.0822,9.3685,0.0021,-0.7849,-0.4858
1925901.0,-2.648,-0.8667,8.7364,0.0271,-0.8232,-0.4518
1925911.0,-2.4038,-1.2641,8.6574,0.0835,-0.7556,-0.3895
1925921.0,-2.2889,-1.64,8.7077,0.1751,-0.6641,-0.3437
1925931.0,-2.2075,-2.1045,9.5289,0.2033,-0.5992,-0.331
1925941.0,-2.1715,-2.2721,10.0485,0.281,-0.6024,-0.3443
1925951.0,-2.1045,-2.1117,9.9934,0.3129,-0.7003,-0.381
1925961.0,-1.9656,-1.7238,9.5984,0.223,-0.8157,-0.4299
1925971.0,-1.9178,-1.324,9.2344,0.0208,-0.9259,-0.4768
1925981.0,-1.9609,-0.7638,8.7532,-0.2134,-1.0307,-0.5066
1925991.0,-1.9513,-0.4477,7.9871,-0.3682,-1.0983,-0.4837
1926001.0,-1.6783,-0.984,7.2832,-0.3852,-1.0674,-0.4182
1926011.0,-1.2977,-1.6879,6.6631,-0.2299,-0.9003,-0.3592
1926021.0,-0.984,-2.6456,6.936,0.008,-0.6242,-0.3347
1926031.0,-0.8954,-2.5977,7.2592,0.3171,-0.3272,-0.3565
1926041.0,-1.1708,-1.4581,7.6758,0.4145,-0.1612,-0.4113
1926051.0,-1.324,-0.2682,8.2768,0.2911,-0.1229,-0.4204
1926061.0,-1.4676,0.3831,8.8107,0.0676,-0.166,-0.3704
1926071.0,-1.3288,-0.0263,9.4308,-0.1362,-0.2496,-0.2767
1926081.0,-1.2354,-0.5531,9.2656,-0.1713,-0.3352,-0.1777
1926091.0,-1.0654,-1.7573,9.3374,-0.1022,-0.3539,-0.0979
1926101.0,-0.7159,-2.9928,9.3206,0.1038,-0.2964,-0.0734
1926111.0,-0.6823,-2.9113,9.1051,0.2629,-0.248,-0.1394
1926121.0,-0.9002,-1.9369,9.3494,0.2634,-0.2325,-0.2325
1926131.0,-1.1396,-0.3974,8.9112,0.2001,-0.2677,-0.2655
1926141.0,-1.1612,0.838,8.6143,-0.0037,-0.3278,-0.216
1926151.0,-0.8068,0.3855,7.9679,-0.2102,-0.373,-0.0867
1926161.0,0.6536,-0.0311,7.8482,-0.4071,-0.3411,0.0266
1926171.0,-1.3982,0.7542,8.3486,-0.5821,-0.3166,0.1022
1926181.0,-0.6536,2.1931,3.9049,-0.6465,-0.6375,0.2607
1926191.0,-0.668,1.3743,0.4932,-1.2803,-0.8056,0.4448
1926201.0,-0.4429,0.6345,-5.1451,-1.8257,-0.7615,0.5859
1926211.0,-0.0958,-1.2809,-9.3039,-2.2854,-0.2538,0.6891
1926221.0,0.1149,-3.146,-11.3318,-2.0896,1.0137,0.7577
1926231.0,-1.573,-4.0845,-8.4539,-1.3345,2.8404,0.7769
1926241.0,-4.4149,-3.9624,-2.5043,-0.356,4.4144,0.7865
1926251.0,-7.2616,-2.9329,4.8842,0.6492,5.4914,0.804
1926261.0,-9.9527,-1.3431,10.6757,1.492,5.9799,0.853
1926271.0,-8.9639,0.2179,15.0523,1.6331,5.948,0.8572
1926281.0,-10.6734,0.6871,22.5246,0.8099,5.708,0.7966
1926291.0,-11.2887,-0.3807,30.2005,-0.3773,4.6773,0.7258
1926301.0,-11.1785,-2.4349,36.0375,-1.2398,2.9724,0.7077
1926311.0,-9.9024,-3.158,33.7343,-1.052,1.035,0.7843
1926321.0,-8.8538,-5.3678,27.4854,-0.6055,-0.4353,0.8711
1926331.0,-7.683,-7.094,23.128,-0.2128,-1.1818,0.8115
1926341.0,-7.2449,-6.031,16.6852,0.5662,-1.4282,0.6731
1926351.0,-6.4404,-5.4037,12.9167,0.8402,-1.3319,0.5374
1926361.0,-5.7557,-4.2545,10.7069,0.6917,-1.1132,0.3815
1926371.0,-5.4348,-4.0989,11.4395,0.2049,-0.8695,0.2421
1926381.0,-5.1523,-4.4772,13.0101,-0.216,-0.8312,0.1133
1926391.0,-5.0996,-4.3646,13.6493,-0.4454,-1.0382,-0.0069
1926401.0,-4.6232,-4.2665,13.1585,-0.4741,-1.3718,-0.0873
1926411.0,-3.6057,-3.9265,11.0349,-0.2847,-1.624,-0.1368
1926421.0,-3.6607,-3.6152,9.2105,-0.1,-1.6362,-0.1815
1926431.0,-3.1196,-3.1987,7.276,0.0452,-1.5841,-0.224
1926441.0,-2.8778,-2.8371,5.9711,0.0937,-1.417,-0.2682
1926451.0,-2.6815,-2.2218,4.8722,0.1213,-1.1366,-0.306
1926461.0,-2.4924,-1.9393,5.3415,0.0495,-0.7774,-0.3374
1926471.0,-2.5929,-2.0686,6.7732,0.0234,-0.4236,-0.3459
1926481.0,-2.7414,-2.399,8.5353,0.0059,-0.2432,-0.3629
1926491.0,-2.8084,-2.5283,10.0221,0.0362,-0.2464,-0.3938
1926501.0,-2.9137,-2.2721,10.635,0.1453,-0.3331,-0.4262
1926511.0,-3.0311,-1.8364,10.6925,0.2086,-0.4848,-0.455
1926521.0,-3.0981,-0.9337,9.6103,0.1793,-0.7088,-0.4821
1926531.0,-3.0287,0.2155,7.5729,-0.0128,-0.8897,-0.4869
1926541.0,-2.6935,0.996,5.7437,-0.3666,-0.9083,-0.4539
1926551.0,-2.4708,0.9577,5.2936,-0.7279,-0.6997,-0.3863
1926561.0,-2.6432,0.4286,6.6295,-0.8684,-0.3507,-0.2879
1926571.0,-2.8802,-0.3136,8.6694,-0.6694,-0.058,-0.158
1926581.0,-2.9305,-1.1923,10.3549,-0.215,0.0745,-0.0165
1926591.0,-2.7198,-2.071,10.975,0.3161,0.0548,0.0979
1926601.0,-2.3439,-2.3894,10.3621,0.646,-0.0713,0.1314
1926611.0,-2.0446,-2.2745,9.7061,0.5986,-0.1868,0.0835
1926621.0,-2.0351,-1.7526,9.5337,0.2426,-0.2735,-0.0106
1926631.0,-2.2697,-1.3982,10.2687,-0.2389,-0.3783,-0.0947
1926641.0,-2.3846,-1.0942,10.7284,-0.5646,-0.538,-0.1235
1926651.0,-2.3176,-1.0415,10.7643,-0.6598,-0.679,-0.0846
1926661.0,-2.2434,-1.2234,10.6063,-0.5603,-0.7215,0.0016
1926671.0,-2.1332,-2.0566,11.0157,-0.3235,-0.7003,0.107
1926681.0,-1.9417,-2.7174,10.5728,0.0208,-0.7072,0.1857
1926691.0,-1.7789,-3.3543,10.2208,0.2352,-0.7354,0.2054
1926701.0,-1.4245,-4.0869,9.6462,0.3602,-0.7689,0.1697
1926711.0,-0.996,-4.2042,8.9184,0.3624,-0.7907,0.0623
1926721.0,-0.929,-3.5841,8.4156,0.2006,-0.7811,-0.0952
1926731.0,-1.0032,-2.6647,8.4731,-0.0958,-0.7982,-0.2432
1926741.0,-1.0798,-1.901,8.2648,-0.3672,-0.8423,-0.3363
1926751.0,-1.1444,-1.5155,8.0972,-0.5853,-0.8955,-0.373
1926761.0,-0.8428,-1.9321,8.3773,-0.6385,-0.8764,-0.3592
1926771.0,-0.7398,-2.071,8.3797,-0.464,-0.7833,-0.339
1926781.0,-0.8428,-2.0063,8.5784,-0.2528,-0.7237,-0.3257
1926791.0,-0.7853,-1.889,8.2911,-0.0122,-0.7173,-0.3028
1926801.0,-0.4932,-1.8076,7.5824,0.2075,-0.7215,-0.2826
1926811.0,0.0383,-1.6113,6.4811,0.3693,-0.6651,-0.2772
1926821.0,0.3663,-1.2737,5.7413,0.4049,-0.522,-0.2841
1926831.0,0.4908,-1.0942,5.7533,0.3437,-0.3523,-0.29
1926841.0,0.4669,-0.917,5.8802,0.2884,-0.2453,-0.281
1926851.0,0.5004,-0.6728,5.2337,0.2916,-0.2347,-0.2528
1926861.0,0.4429,0.103,3.6105,0.3022,-0.2022,-0.2059
1926871.0,0.5411,-0.4022,1.7382,0.2038,-0.0915,-0.1309
1926881.0,1.901,-0.2825,0.3352,-0.0692,0.099,-0.1181
1926891.0,-1.0343,0.9481,0.2945,-0.4869,0.3544,-0.1469
1926901.0,-0.328,2.2697,-4.0941,-0.8317,0.2677,-0.0569
1926911.0,-0.6871,2.0255,-7.1132,-1.3308,0.6034,0.1038
1926921.0,-2.0542,2.3846,-9.7133,-1.4356,1.5383,0.3272
1926931.0,-3.6129,1.3312,-8.9088,-1.2398,2.867,0.6306
1926941.0,-5.3941,-0.8116,-4.4628,-0.4778,4.5246,0.9594
1926951.0,-10.1466,-2.0901,2.4349,0.4555,5.9426,1.1946
1926961.0,-11.2767,-1.8651,7.4292,1.2191,6.4982,1.3319
1926971.0,-11.3964,-1.6065,12.378,1.4777,6.7823,1.3744
1926981.0,-12.1961,-2.4397,19.8264,1.242,6.9606,1.3521
1926991.0,-13.8505,-2.8419,30.289,0.5444,6.4875,1.2191
1927001.0,-13.5105,-4.1707,36.3799,-0.0979,5.0428,1.1073
1927011.0,-12.8832,-6.6607,41.142,-0.9019,3.0469,0.9445
1927021.0,-11.7867,-7.5489,36.4565,-1.1946,0.7907,0.7258
1927031.0,-11.2551,-8.6335,31.4478,-1.4803,-1.0046,0.448
1927041.0,-9.8402,-7.2999,21.9668,-1.1222,-2.0465,0.1948
1927051.0,-8.9112,-6.11,16.1824,-0.8344,-2.1529,-0.0096
1927061.0,-8.3031,-4.4748,13.2375,-0.4225,-1.7358,-0.1171
1927071.0,-8.2289,-3.6919,13.7906,-0.0612,-1.2324,-0.124
1927081.0,-8.1954,-3.2394,15.2104,0.273,-1.0658,-0.0718
1927091.0,-7.4244,-3.213,15.4115,0.4773,-1.3303,-0.0101
1927101.0,-6.4212,-3.2825,13.9486,0.4661,-1.8049,0.0016
1927111.0,-5.4708,-3.4429,11.7388,0.2671,-2.2306,-0.0564
1927121.0,-5.3654,-3.6152,9.2536,-0.0021,-2.5227,-0.1618
1927131.0,-4.3024,-3.7469,5.7174,-0.2347,-2.7441,-0.2969
1927141.0,-3.2489,-3.7086,2.3942,-0.397,-2.6281,-0.4502
1927151.0,-2.3822,-3.6057,0.5004,-0.4252,-2.129,-0.5938
1927161.0,-2.4062,-3.1556,0.6177,-0.281,-1.3819,-0.7136
1927171.0,-2.3176,-2.6169,2.2817,-0.033,-0.6662,-0.7843
1927181.0,-2.557,-1.8938,4.5562,0.1942,-0.1463,-0.8205
1927191.0,-2.7725,-0.6369,6.8019,0.2943,0.0889,-0.8349
1927201.0,-3.0335,-0.1245,8.4731,0.2639,0.1133,-0.7955
1927211.0,-2.9975,-0.1077,10.5297,0.0835,-0.0282,-0.7466
1927221.0,-3.2848,0.8021,11.801,0.0117,-0.3257,-0.6907
1927231.0,-3.4117,1.4006,10.5872,0.1729,-0.6502,-0.5358
1927241.0,-2.9975,0.2729,8.8322,0.1394,-0.9174,-0.3656
1927251.0,-2.3176,-1.257,7.5393,-0.0197,-1.0206,-0.2831
1927261.0,-2.0973,-2.2984,7.1515,-0.0617,-0.8987,-0.2932
1927271.0,-2.071,-2.4612,6.8378,0.0596,-0.6806,-0.3374
1927281.0,-2.1955,-1.9872,7.2664,0.133,-0.4895,-0.3852
1927291.0,-2.2242,-1.0965,7.7165,0.1485,-0.3586,-0.4023
1927301.0,-2.2817,-0.9649,8.9447,0.0979,-0.2698,-0.3682
1927311.0,-2.2841,-1.6065,10.3406,0.0921,-0.273,-0.3113
1927321.0,-2.2505,-2.66,11.3246,0.1474,-0.4124,-0.2794
1927331.0,-2.0111,-3.8355,11.552,0.2501,-0.6306,-0.3022
1927341.0,-1.5467,-4.4053,11.212,0.3613,-0.8413,-0.4017
1927351.0,-1.4629,-3.9145,10.5369,0.4129,-1.0009,-0.5513
1927361.0,-1.5993,-2.6312,9.5744,0.3267,-1.1542,-0.6902
1927371.0,-1.7095,-1.1588,8.4132,0.0644,-1.3074,-0.7657
1927381.0,-1.731,-0.2538,7.4939,-0.2847,-1.3925,-0.7551
1927391.0,-1.6688,-0.1772,7.0222,-0.5763,-1.3782,-0.6753
1927401.0,-1.2905,-1.4557,7.7692,-0.712,-1.2255,-0.5624
1927411.0,-1.0534,-3.2226,9.3541,-0.622,-1.0834,-0.4938
1927421.0,-0.984,-4.209,10.6279,-0.3384,-1.1398,-0.5087
1927431.0,-1.0487,-4.0079,10.3789,0.1011,-1.3681,-0.5608
1927441.0,-1.075,-2.9928,8.5665,0.5417,-1.6591,-0.6018
1927451.0,-0.3615,-1.8244,5.466,0.8626,-1.8512,-0.6103
1927461.0,0.7566,-2.1356,3.45,0.9312,-1.7794,-0.6263
1927471.0,-0.4621,-1.1037,2.4493,0.8136,-1.5852,-0.7072
1927481.0,0.3208,-0.3615,0.8045,0.5273,-1.6485,-0.7854
1927491.0,0.759,0.7973,-1.6448,0.3709,-1.4718,-0.8189
1927501.0,0.8811,2.0111,-3.2513,0.1953,-1.0248,-0.7662
1927511.0,0.2825,3.9576,-4.798,-0.0074,-0.5396,-0.6236
1927521.0,-0.5722,6.7038,-8.1762,-0.364,-0.1884,-0.3539
1927531.0,-0.5387,7.7644,-13.3094,-1.0664,0.1681,0.0559
1927541.0,-1.7142,8.1092,-17.346,-1.8816,1.0461,0.5332
1927551.0,-3.2609,6.256,-17.6692,-2.2998,2.4621,1.1041
1927561.0,-4.9728,1.7909,-14.4203,-1.7602,4.474,1.6942
1927571.0,-10.0844,-1.3599,-4.2186,-0.6513,6.6562,2.1167
1927581.0,-13.4243,-3.814,4.0654,0.9945,7.9194,2.4169
1927591.0,-13.8624,-6.596,12.0404,2.3557,8.6314,2.4456
1927601.0,-13.6254,-8.2241,19.7163,3.0565,8.898,2.1125
1927611.0,-14.9446,-4.7262,28.6945,2.8085,8.3494,1.5011
1927621.0,-13.8193,-0.8428,34.9937,2.1396,6.8472,1.0137
1927631.0,-13.2902,0.4621,37.9026,1.235,5.0673,0.7737
1927641.0,-13.0269,-1.415,41.9895,0.1192,3.0463,0.6252
1927651.0,-11.7675,-2.8467,37.4477,-0.3741,0.6508,0.522
1927661.0,-10.2879,-4.2784,30.3226,-0.7987,-1.3143,0.3368
1927671.0,-8.4587,-4.6902,22.132,-0.9073,-2.3716,0.1022
1927681.0,-7.2808,-4.8171,17.1545,-0.9365,-2.5877,-0.1687
1927691.0,-6.9264,-3.6512,15.5551,-0.9035,-2.4498,-0.4369
1927701.0,-7.2401,-1.992,15.6461,-0.7194,-2.4195,-0.5901
1927711.0,-7.343,-0.5267,14.5663,-0.3597,-2.6196,-0.5986
1927721.0,-7.2688,0.2514,12.6917,-0.1788,-3.0346,-0.5507
1927731.0,-6.3686,0.6369,9.3925,-0.0346,-3.4619,-0.4906
1927741.0,-4.3048,0.5555,5.2577,0.1458,-3.6104,-0.4528
1927751.0,-3.9073,0.8428,3.158,0.3076,-3.2608,-0.4592
1927761.0,-3.2896,1.2953,3.2441,0.5997,-2.7484,-0.4464
1927771.0,-2.2577,1.3264,3.213,1.1238,-2.2572,-0.365
1927781.0,-1.9896,1.2378,4.1587,1.5692,-1.79,-0.3012
1927791.0,-2.897,2.2338,5.6192,1.8805,-1.5128,-0.2677
1927801.0,-3.6727,2.66,5.4396,2.0885,-1.5782,-0.1942
1927811.0,-3.201,3.7062,2.8683,2.0391,-1.8826,-0.1421
1927821.0,-2.6959,4.3383,-0.237,1.7134,-2.0513,-0.1197
1927831.0,-1.7813,4.9153,-3.5051,1.4612,-1.8491,-0.0559
1927841.0,-1.1181,5.5713,-5.8251,1.3042,-1.2143,0.0309
1927851.0,-0.3304,6.1052,-5.0542,1.1611,-0.2395,0.1591
1927861.0,-0.6105,6.2201,-0.9936,1.0967,0.7769,0.3437
1927871.0,-1.1947,5.0709,3.9935,1.118,1.3564,0.5821
1927881.0,-1.4485,3.1029,7.5872,1.2435,1.4271,0.787
1927891.0,-1.7597,2.4541,9.4906,1.492,1.3047,0.887
1927901.0,-1.5179,2.5019,9.8162,1.7139,1.0589,0.9243
1927911.0,-2.241,2.5187,8.8681,1.6511,0.7662,0.9418
1927921.0,-2.2505,2.5211,7.6614,1.2169,0.3826,0.912
1927931.0,-1.8387,2.1045,5.8466,0.8301,0.1948,0.8854
1927941.0,-1.1947,0.9529,5.1212,0.688,0.4507,0.8663
1927951.0,-1.2498,0.9529,5.6982,0.7684,0.9126,0.8141
1927961.0,-1.4509,0.146,6.6032,0.8711,1.3015,0.7583
1927971.0,-1.4653,-0.0838,7.5082,0.7519,1.4873,0.6055
1927981.0,-2.0997,0.103,8.2887,0.539,1.5979,0.4331
1927991.0,-2.8659,0.7685,8.9759,0.3416,1.6942,0.3113
1928001.0,-3.1771,0.838,9.9096,0.1953,1.8299,0.273
1928011.0,-3.3567,0.5986,11.4491,0.0772,1.9619,0.2836
1928021.0,-4.0438,0.0862,14.2383,-0.0229,1.9342,0.3134
1928031.0,-3.8906,-0.4764,15.8257,0.2442,1.558,0.3938
1928041.0,-3.3327,-0.3759,12.2511,0.9919,0.9637,0.5257
1928051.0,-2.2529,1.7166,3.7493,1.5703,0.5518,0.6114
1928061.0,-1.9561,4.5107,-5.3247,1.2861,0.7354,0.663
1928071.0,-3.7182,6.4859,-12.6558,0.0138,1.4404,0.7497
1928081.0,-9.0692,7.9775,-16.1968,-1.9071,2.4376,0.936
1928091.0,-12.7467,6.7205,-15.1361,-3.3656,3.9052,1.3776
1928101.0,-18.2821,0.7422,-3.0861,-3.3885,6.2821,2.0263
1928111.0,-25.4528,-5.2289,9.4978,-1.8182,7.9242,2.5504
1928121.0,-22.0745,-11.5089,18.354,0.2927,8.3643,2.6419
1928131.0,-20.2933,-14.4251,26.657,2.4307,8.8969,1.9986
1928141.0,-20.1065,-7.8721,36.1979,3.1033,8.3834,0.7487
1928151.0,-23.3411,1.7166,45.2217,2.1444,6.5551,-0.3272
1928161.0,-20.9349,8.8585,43.0238,1.0238,3.3502,-0.7215
1928171.0,-18.7705,10.1778,35.5563,-0.4752,0.4299,-0.6082
1928181.0,-16.4099,8.0709,28.0912,-1.8667,-1.6384,-0.3416
1928191.0,-12.9119,4.7357,18.7083,-2.129,-2.6265,0.008
1928201.0,-11.4443,0.7254,13.2495,-1.8895,-2.618,0.2506
1928211.0,-10.1634,-0.7853,9.2632,-1.1286,-2.1865,0.3326
1928221.0,-8.4587,-1.3048,6.6295,-0.3283,-1.7006,0.3209
1928231.0,-7.1706,-0.1844,4.9464,0.3677,-1.0531,0.2464
1928241.0,-6.7924,0.7566,5.387,0.5986,-0.4842,0.1559
1928251.0,-6.5386,1.1636,6.9192,0.464,-0.1995,0.0628
1928261.0,-6.3351,0.9816,8.3773,0.1724,-0.2331,-0.0399
1928271.0,-6.0789,0.7829,8.9543,-0.0979,-0.4411,-0.1543
1928281.0,-5.7413,0.4166,8.7077,-0.3124,-0.7114,-0.274
1928291.0,-5.375,-0.0766,7.932,-0.4677,-0.9722,-0.4092
1928301.0,-5.3965,0.0886,6.687,-0.4789,-1.127,-0.547
1928311.0,-5.2481,0.7973,4.7429,-0.3986,-1.1855,-0.6476
1928321.0,-5.1284,1.1995,3.4093,-0.29,-1.0568,-0.6875
1928331.0,-5.2337,1.7358,2.8299,-0.1277,-0.7418,-0.6784
1928341.0,-5.4229,2.4708,3.292,-0.0106,-0.3794,-0.6311
1928351.0,-5.8466,2.794,4.6998,0.0239,-0.0814,-0.5571
1928361.0,-5.8251,1.3575,6.4715,-0.0293,0.0255,-0.4965
1928371.0,-5.8012,1.652,7.6519,-0.0835,-0.0846,-0.5295
1928381.0,-6.1268,1.8531,8.2073,-0.0245,-0.2565,-0.5305
1928391.0,-5.9711,1.1181,7.8841,0.1378,-0.381,-0.4869
1928401.0,-6.0525,-0.5171,8.4013,0.2778,-0.4257,-0.4938
1928411.0,-6.2034,-1.8364,9.1028,0.4842,-0.4518,-0.5938
1928421.0,-6.4859,-1.7406,9.3972,0.7098,-0.539,-0.7854
1928431.0,-7.2425,0.2969,8.9759,0.8109,-0.6768,-1.0009
1928441.0,-7.6088,2.636,7.6207,0.6194,-0.8908,-1.1382
1928451.0,-7.1251,2.7174,6.6152,0.1038,-1.0376,-1.2106
1928461.0,-7.2113,4.13,6.8331,-0.4145,-0.9972,-1.2872
1928471.0,-7.5369,4.6567,8.8633,-0.5875,-0.8014,-1.2047
1928481.0,-7.8673,2.5283,11.3198,-0.2405,-0.6093,-0.9722
1928491.0,-7.3981,-0.7614,13.1729,0.3539,-0.6492,-0.8051
1928501.0,-7.1395,-2.1979,14.0061,0.9573,-0.8987,-0.8455
1928511.0,-7.3358,-0.8906,13.0604,1.5107,-1.2531,-0.9807
1928521.0,-7.2951,1.8196,10.2137,1.8342,-1.5793,-1.061
1928531.0,-6.8857,4.3503,6.9288,1.6538,-1.7969,-1.0531
1928541.0,-6.1196,4.5226,4.8052,1.0419,-1.7453,-0.9775
1928551.0,-5.4468,5.1667,5.2218,0.2464,-1.5367,-0.9461
1928561.0,-6.1363,5.6767,7.3765,-0.315,-1.2765,-0.8594
1928571.0,-6.1531,3.7182,9.9623,-0.4241,-1.1015,-0.6385
1928581.0,-5.9376,1.8651,11.3916,-0.3374,-1.2185,-0.4981
1928591.0,-6.2369,1.8364,10.8912,-0.3198,-1.6059,-0.4869
1928601.0,-5.7604,0.0215,9.8904,-0.2543,-1.88,-0.4645
1928611.0,-4.8315,-1.1468,7.8099,0.0192,-1.9438,-0.5188
1928621.0,-4.2928,0.2514,6.201,0.2059,-1.7985,-0.6747
1928631.0,-4.4317,3.0239,5.5737,0.2549,-1.5192,-0.7641
1928641.0,-4.4676,5.2792,5.0111,0.0803,-1.3734,-0.7013
1928651.0,-2.1763,4.7956,2.5187,-0.5279,-1.4612,-0.5694
1928661.0,-3.8379,4.877,-0.261,-1.8784,-1.6964,-0.5252
1928671.0,-2.4421,4.8937,-4.8195,-3.3071,-2.1769,-0.4848
1928681.0,-0.6249,4.5203,-11.8321,-3.8046,-1.9273,-0.257
1928691.0,-0.2322,3.4117,-16.2207,-3.3496,-0.4874,0.1437
1928701.0,-2.5762,3.9169,-17.8344,-2.2434,1.3542,0.547
1928711.0,-5.4492,6.3686,-19.6229,-0.7678,3.1443,1.0248
1928721.0,-9.3278,5.7557,-16.0124,0.8796,5.4573,1.6315
1928731.0,-13.0316,0.7829,-3.0526,2.9059,8.0615,2.1806
1928741.0,-19.3116,-1.3503,8.0254,4.6938,9.3795,2.3131
1928751.0,-14.3317,-2.6671,13.8145,4.8177,8.8937,1.9491
1928761.0,-13.7906,-2.3152,23.1639,3.2507,8.0913,1.1435
1928771.0,-15.1361,1.6951,33.4231,1.3814,6.6104,0.3661
1928781.0,-15.8903,4.1324,40.2058,0.2357,4.5208,0.0138
1928791.0,-15.8688,1.7334,41.7932,-0.2618,2.0705,0.0106
1928801.0,-14.6214,-0.1844,33.5667,-0.6103,-0.795,-0.0926
1928811.0,-12.7324,-0.1293,22.8,-1.0525,-2.7989,-0.3789
1928821.0,-11.2767,1.2115,13.2088,-1.1398,-3.3592,-0.6268
1928831.0,-9.9168,2.0016,7.908,-1.1196,-2.9985,-0.7471
1928841.0,-8.928,1.9704,6.9192,-1.011,-2.3126,-0.7583
1928851.0,-8.8346,1.9872,7.6207,-0.6508,-1.7389,-0.688
1928861.0,-7.9679,2.1261,8.3797,-0.0937,-1.4218,-0.5608
1928871.0,-7.3478,2.5786,8.1283,0.5768,-1.1621,-0.3884
1928881.0,-6.8187,2.7773,8.4491,0.9929,-0.9727,-0.2309
1928891.0,-6.9336,2.8802,9.0405,1.1089,-0.8982,-0.1224
1928901.0,-6.9456,2.4565,9.323,0.9551,-1.0477,-0.0697
1928911.0,-6.7373,1.8028,9.0597,0.6423,-1.3361,-0.0862
1928921.0,-6.6583,1.8244,7.8195,0.3257,-1.6182,-0.165
1928931.0,-6.4212,1.6951,6.1172,0.0468,-1.7725,-0.2379
1928941.0,-5.5665,1.1756,4.8578,-0.1841,-1.748,-0.2996
1928951.0,-5.8826,1.6376,4.1803,-0.3996,-1.5644,-0.3858
1928961.0,-6.2153,2.3798,4.4843,-0.5523,-1.3744,-0.4294
1928971.0,-5.9065,2.7821,4.7357,-0.4337,-1.1393,-0.3725
1928981.0,-5.7868,2.3583,6.0238,-0.124,-0.7625,-0.2597
1928991.0,-5.9975,1.743,8.0804,0.2224,-0.4635,-0.1713
1929001.0,-6.2249,2.0997,9.7324,0.4566,-0.4794,-0.1501
1929011.0,-6.347,2.8419,10.1682,0.5406,-0.7269,-0.1378
1929021.0,-6.2369,3.5793,9.2943,0.4885,-1.0429,-0.1032
1929031.0,-5.9041,3.0526,7.7309,0.2629,-1.2978,-0.0644
1929041.0,-5.533,4.0079,6.2896,-0.0857,-1.4309,-0.074
1929051.0,-5.8227,4.0869,5.5091,-0.4358,-1.4261,-0.0303
1929061.0,-5.3008,2.6001,4.8267,-0.6737,-1.3154,0.0569
1929071.0,-4.6735,0.3759,5.9041,-0.8578,-1.093,0.0623
1929081.0,-4.6759,-0.4549,7.6183,-0.7689,-0.8642,-0.0282
1929091.0,-4.7764,-0.0718,8.5928,-0.4704,-0.7944,-0.1256
1929101.0,-4.8004,1.0343,8.4611,-0.1485,-0.8397,-0.1777
1929111.0,-4.5849,2.138,7.6375,0.0383,-0.9104,-0.1692
1929121.0,-4.3167,2.9497,6.7229,0.0974,-0.8982,-0.1112
1929131.0,-4.2832,3.1292,6.2968,0.0548,-0.7923,-0.0186
1929141.0,-4.3718,2.3104,6.5529,-0.0564,-0.679,0.075
1929151.0,-4.1228,0.7685,7.3885,-0.1532,-0.5885,0.1213
1929161.0,-4.1108,-0.3448,8.6431,-0.1485,-0.5273,0.083
1929171.0,-4.3096,0.2729,8.7676,-0.0899,-0.6364,-0.017
1929181.0,-4.2377,1.5347,7.7955,-0.1149,-0.8253,-0.083
1929191.0,-3.9217,2.2098,6.3063,-0.2442,-0.9583,-0.0841
1929201.0,-3.3495,2.4541,4.8004,-0.4007,-0.9498,-0.0506
1929211.0,-3.2082,3.0718,3.7158,-0.5507,-0.7758,-0.0011
1929221.0,-2.4852,2.7246,3.3878,-0.7434,-0.6135,0.0931
1929231.0,-3.0622,2.0806,1.8699,-0.8562,-0.5539,0.1948
1929241.0,-2.4229,1.7645,-1.5586,-1.0099,-0.6768,0.273
1929251.0,-1.8842,0.9912,-7.6638,-0.9408,-0.5571,0.4092
1929261.0,-1.3982,0.8882,-14.5783,-0.5944,0.3209,0.5396
1929271.0,-2.3535,1.5921,-19.0387,-0.3054,1.8475,0.6263
1929281.0,-5.5426,3.0718,-19.7546,-0.1022,3.7982,0.7279
1929291.0,-9.6151,5.0925,-15.0212,-0.0415,5.7628,0.8955
1929301.0,-16.3069,2.9712,-3.6464,0.3012,7.5619,1.2494
1929311.0,-18.2271,2.047,4.6687,1.2776,8.3909,1.5735
1929321.0,-17.2574,-0.1197,12.3996,1.8033,8.3781,1.6501
1929331.0,-16.2949,-1.5012,19.9748,2.337,8.4478,1.5186
1929341.0,-16.0603,-1.6855,31.3856,2.3205,7.8077,1.1387
1929351.0,-15.5982,0.4788,38.2905,2.1407,6.0661,0.7168
1929361.0,-16.1896,3.6775,39.241,1.5394,3.4492,0.3704
1929371.0,-14.6884,4.2569,31.3449,0.621,0.5917,0.1857
1929381.0,-12.7491,2.4253,21.883,-0.6944,-1.3766,-0.0426
1929391.0,-11.4946,1.142,14.2694,-1.8996,-2.2588,-0.3672
1929401.0,-10.2496,-0.1317,10.5465,-2.6345,-2.2987,-0.6705
1929411.0,-10.0365,-0.4645,10.2137,-2.6217,-1.8267,-0.8833
1929421.0,-10.0628,0.2538,11.5808,-2.0013,-1.3196,-0.9743
1929431.0,-9.8904,1.5347,13.0029,-1.1589,-1.0695,-0.9466
1929441.0,-9.5816,2.4277,14.3173,-0.3842,-1.0578,-0.8216
1929451.0,-9.323,3.3255,14.7722,0.241,-1.2537,-0.6529
1929461.0,-9.2129,4.0654,14.2287,0.5986,-1.6027,-0.4656
1929471.0,-9.0477,4.0677,12.6414,0.6247,-2.0651,-0.2873
1929481.0,-8.5234,3.2202,10.9152,0.4135,-2.5041,-0.1511
1929491.0,-8.0613,2.1189,8.7915,0.2815,-2.7324,-0.0692
1929501.0,-7.5824,1.0319,6.8474,0.1958,-2.7734,-0.058
1929511.0,-6.8785,0.3089,5.2864,0.116,-2.6845,-0.1197
1929521.0,-6.2728,0.1077,4.1946,0.0202,-2.4866,-0.2357
1929531.0,-5.9161,0.4717,3.7397,-0.1336,-2.2253,-0.3735
1929541.0,-5.7293,1.1325,4.0486,-0.3006,-1.963,-0.4853
1929551.0,-5.8945,2.1141,4.6376,-0.3767,-1.7485,-0.5396
1929561.0,-5.782,2.9281,4.968,-0.3278,-1.5937,-0.5023
1929571.0,-5.7317,3.4093,5.0015,-0.1399,-1.4388,-0.3863
1929581.0,-5.4133,3.2729,4.7262,0.1187,-1.2723,-0.2219
1929591.0,-4.8985,2.0255,4.4987,0.3427,-1.0626,-0.0745
1929601.0,-4.5562,1.5993,4.7357,0.4406,-0.8477,-0.0325
1929611.0,-4.7525,2.4349,5.2792,0.422,-0.6529,-0.0447
1929621.0,-5.1332,3.4788,6.0597,0.2554,-0.5651,-0.0309
1929631.0,-5.2912,4.1156,6.4308,-0.008,-0.6231,0.0388
1929641.0,-5.2098,3.8595,6.4093,-0.2155,-0.6896,0.157
1929651.0,-4.853,2.4086,6.5912,-0.2959,-0.6593,0.2799
1929661.0,-4.6424,0.7997,7.252,-0.1634,-0.5124,0.3459
1929671.0,-4.7669,-0.0359,8.1547,0.0857,-0.3581,0.3278
1929681.0,-4.9823,0.0503,8.9088,0.3044,-0.3379,0.2554
1929691.0,-5.1451,0.9337,9.074,0.4369,-0.4427,0.1751
1929701.0,-5.0518,1.968,8.1259,0.4608,-0.6071,0.1304
1929711.0,-4.8028,2.7461,6.9384,0.3299,-0.7056,0.1219
1929721.0,-4.6184,3.2202,6.2225,0.0947,-0.6896,0.1394
1929731.0,-4.4604,3.1077,6.62,-0.1612,-0.5784,0.1772
1929741.0,-4.6376,2.66,7.7596,-0.3155,-0.4699,0.2246
1929751.0,-4.8123,2.3008,8.4228,-0.3863,-0.5406,0.2666
1929761.0,-4.6543,2.0279,8.011,-0.4198,-0.7364,0.2937
1929771.0,-4.3455,1.9249,6.7947,-0.4422,-0.8987,0.307
1929781.0,-4.0725,1.8842,5.0925,-0.431,-0.9674,0.3219
1929791.0,-3.5123,2.1715,2.071,-0.431,-0.9812,0.3395
1929801.0,-1.5083,2.2362,-2.0686,-0.6619,-0.8971,0.3597
1929811.0,-2.8204,1.9345,-5.3582,-1.2547,-0.5672,0.3677
1929821.0,-1.5586,2.1428,-8.9064,-1.8879,-0.2059,0.3789
1929831.0,-1.8435,2.3942,-10.9415,-2.0683,0.7231,0.4741
1929841.0,-3.4429,3.9433,-11.4706,-1.7155,2.0609,0.6619
1929851.0,-5.8466,4.9368,-7.9583,-1.1206,3.5194,0.9727
1929861.0,-8.9974,5.4731,-2.083,-0.0708,4.7486,1.3755
