time_ms,ax,ay,az,gx,gy,gz
5074191.0,0.182,0.1437,41.6974,-0.2581,0.1958,-0.0713
5074201.0,0.0383,0.1628,41.7549,-0.2586,0.2033,-0.0686
5074211.0,0.0575,0.1053,42.0613,-0.257,0.2299,-0.067
5074221.0,0.2203,0.1532,41.7357,-0.2671,0.224,-0.066
5074231.0,0.0479,0.1053,41.8506,-0.2501,0.2235,-0.0724
5074241.0,0.1437,0.2873,41.7166,-0.2714,0.2235,-0.0649
5074251.0,0.1532,0.182,41.8219,-0.2698,0.2139,-0.0585
5074261.0,0.2969,0.1053,41.8794,-0.2469,0.2347,-0.0607
5074271.0,0.1532,-0.0192,41.8506,-0.2565,0.232,-0.0612
5074281.0,-0.0192,0.1437,42.1188,-0.2613,0.2224,-0.0692
5074291.0,0.0479,0.2011,41.6687,-0.2634,0.2155,-0.0612
5074301.0,0.0575,0.2203,41.774,-0.2714,0.2203,-0.0654
5074311.0,0.1437,0.0766,41.7357,-0.2559,0.2038,-0.0607
5074321.0,0.0862,0.0862,41.8506,-0.2677,0.2112,-0.0585
5074331.0,0.2203,0.1053,41.9273,-0.2591,0.223,-0.0591
5074341.0,0.0958,0.3065,41.8219,-0.2671,0.2299,-0.0628
5074351.0,0.2011,0.1149,41.956,-0.2645,0.2107,-0.0665
5074361.0,0.3065,0.1053,41.4771,-0.273,0.2182,-0.0628
5074371.0,0.2682,0.2011,41.889,-0.2703,0.2171,-0.0633
5074381.0,0.067,0.1245,41.8602,-0.2522,0.2368,-0.05
5074391.0,0.2394,0.249,41.6591,-0.2506,0.2251,-0.067
5074401.0,0.0479,0.0383,41.889,-0.265,0.2304,-0.0857
5074411.0,0.0383,0.2394,41.64,-0.2538,0.2304,-0.0692
5074421.0,0.2394,0.1341,41.9177,-0.2756,0.2261,-0.0756
5074431.0,0.2107,0.1245,41.6783,-0.2629,0.232,-0.0803
5074441.0,0.0192,0.1915,42.0135,-0.2714,0.2203,-0.0543
5074451.0,0.1915,0.1437,41.6783,-0.2639,0.2166,-0.074
5074461.0,0.0958,-0.0192,41.4963,-0.2501,0.2102,-0.0729
5074471.0,-0.0862,0.0766,41.8602,-0.2666,0.2118,-0.0665
5074481.0,0.0862,0.3735,41.9368,-0.2575,0.2208,-0.066
5074491.0,0.0287,0.2969,41.7166,-0.2565,0.1979,-0.0553
5074501.0,0.1245,0.2107,41.7932,-0.2639,0.224,-0.0702
5074511.0,0.0862,0.1149,41.6208,-0.2826,0.2166,-0.066
5074521.0,0.1532,0.1915,41.9177,-0.2591,0.2182,-0.0772
5074531.0,0.1437,0.2777,42.1092,-0.2597,0.2006,-0.0697
5074541.0,0.0096,0.1915,41.9943,-0.2554,0.2155,-0.066
5074551.0,0.2203,0.2298,41.9081,-0.2666,0.2097,-0.0724
5074561.0,0.2682,0.1915,41.8698,-0.2528,0.2251,-0.0559
5074571.0,0.0958,0.067,41.6878,-0.273,0.2341,-0.0575
5074581.0,0.2107,0.0958,42.0996,-0.2512,0.2219,-0.0654
5074591.0,0.0575,0.4022,41.6974,-0.2549,0.2155,-0.0745
5074601.0,0.2203,0.0287,41.9081,-0.2623,0.2325,-0.0676
5074611.0,0.2586,0.2107,41.6495,-0.2559,0.2304,-0.0708
5074621.0,0.3448,0.3065,41.9943,-0.2714,0.2272,-0.0628
5074631.0,0.3352,0.1341,41.9464,-0.2767,0.2277,-0.0793
5074641.0,0.0383,0.1245,41.5825,-0.2602,0.2049,-0.0649
5074651.0,0.2394,0.1245,41.707,-0.2671,0.2315,-0.0724
5074661.0,0.1628,0.1628,41.7549,-0.2618,0.2097,-0.0596
5074671.0,-0.0383,0.182,41.8985,-0.2719,0.2309,-0.0676
5074681.0,0.2011,0.2298,41.8315,-0.2623,0.2123,-0.0745
5074691.0,0.3256,0.1724,41.7261,-0.2522,0.2187,-0.0718
5074701.0,-0.1245,0.1437,41.8028,-0.2607,0.2251,-0.074
5074711.0,0.0383,0.2107,41.8985,-0.2655,0.2246,-0.0569
5074721.0,0.2298,0.1532,41.9081,-0.2666,0.2123,-0.0633
5074731.0,0.0479,0.1053,42.0039,-0.2501,0.2166,-0.0777
5074741.0,0.1245,0.0766,41.9943,-0.2602,0.2192,-0.0633
5074751.0,0.1245,0.1437,41.6974,-0.2586,0.1974,-0.0585
5074761.0,0.0,0.0862,42.1475,-0.2549,0.2214,-0.0644
5074771.0,0.1628,0.0383,41.5059,-0.2719,0.2261,-0.0697
5074781.0,0.0575,0.0287,42.1092,-0.2639,0.2171,-0.067
5074791.0,0.0958,0.2203,41.9943,-0.2554,0.215,-0.0772
5074801.0,0.2107,0.1341,41.707,-0.2687,0.2107,-0.0601
5074811.0,0.1053,0.2873,42.1475,-0.2703,0.224,-0.0612
5074821.0,0.067,0.1724,41.9177,-0.2591,0.223,-0.0718
5074831.0,0.1628,0.2682,41.956,-0.2543,0.2277,-0.0601
5074841.0,0.1341,0.0766,41.9081,-0.2708,0.2123,-0.0686
5074851.0,0.2586,0.0862,41.8315,-0.2804,0.2139,-0.0724
5074861.0,0.1245,0.1532,42.0709,-0.2719,0.2208,-0.0766
5074871.0,0.0383,-0.0766,42.0518,-0.2703,0.2049,-0.0543
5074881.0,0.0192,0.1628,41.7261,-0.2586,0.223,-0.0654
5074891.0,0.2682,0.0766,41.7357,-0.2496,0.2192,-0.0649
5074901.0,0.1724,0.182,41.7261,-0.2618,0.2054,-0.0708
5074911.0,-0.0575,0.0192,41.8123,-0.2597,0.216,-0.0639
5074921.0,0.0575,0.1437,42.0613,-0.2661,0.2192,-0.0782
5074931.0,0.2203,0.1245,41.8123,-0.2841,0.2166,-0.0596
5074951.0,0.2107,0.3448,41.889,-0.273,0.2139,-0.0612
5074961.0,0.0862,0.2203,41.8123,-0.2618,0.2155,-0.0718
5074971.0,0.0,0.1724,41.7645,-0.2677,0.2112,-0.0649
5074981.0,0.0958,0.1915,41.8698,-0.2671,0.2006,-0.0495
5074991.0,0.1628,0.249,41.6112,-0.2602,0.2261,-0.0702
5075001.0,0.2777,0.1341,41.956,-0.2666,0.2155,-0.0527
5075011.0,0.067,0.1437,41.8219,-0.2714,0.2112,-0.0724
5075021.0,0.1724,0.1915,41.9081,-0.265,0.2091,-0.0607
5075031.0,0.1341,0.1724,42.3199,-0.2746,0.224,-0.0809
5075041.0,0.1341,0.1628,41.9273,-0.2671,0.2081,-0.0676
5075051.0,0.0192,0.1341,41.6016,-0.2623,0.2304,-0.0734
5075061.0,0.1628,0.2011,41.5729,-0.2682,0.2267,-0.0639
5075071.0,0.2873,0.2682,41.5921,-0.2767,0.2155,-0.0623
5075081.0,0.0479,0.0862,41.6016,-0.257,0.2176,-0.0724
5075091.0,0.0766,0.2873,41.9177,-0.2788,0.2203,-0.0639
5075101.0,0.249,0.0862,41.7549,-0.2692,0.2261,-0.0596
5075111.0,0.1437,0.067,41.8028,-0.2703,0.2049,-0.0559
5075121.0,0.0958,0.2682,42.0326,-0.2586,0.2107,-0.0697
5075131.0,0.0958,0.249,41.9943,-0.2554,0.2128,-0.0623
5075141.0,0.1341,0.2298,41.6974,-0.2623,0.224,-0.0782
5075151.0,0.2394,0.316,42.0135,-0.2597,0.2293,-0.0819
5075161.0,0.1532,0.182,41.774,-0.2719,0.2267,-0.0654
5075171.0,0.1053,0.1149,41.7836,-0.2692,0.2166,-0.067
5075181.0,0.182,0.2107,42.2433,-0.2634,0.2219,-0.066
5075191.0,0.1437,0.1532,42.0805,-0.2703,0.215,-0.0569
5075201.0,-0.0575,0.1628,41.5442,-0.2581,0.2453,-0.0819
5075211.0,0.1724,0.1628,42.0518,-0.2735,0.1788,-0.0697
5075221.0,0.2203,0.1915,41.458,-0.2788,0.2352,-0.075
5075231.0,0.1915,0.249,41.8219,-0.2363,0.199,-0.0686
5075241.0,0.1341,0.1149,41.8506,-0.2826,0.2336,-0.067
5075251.0,-0.067,-0.1149,41.8698,-0.2469,0.2118,-0.0665
5075261.0,0.3543,0.4214,42.023,-0.2889,0.2256,-0.0564
5075271.0,0.0479,0.0479,41.4676,-0.2512,0.2102,-0.0607
5075281.0,0.2394,0.316,42.0518,-0.2543,0.2027,-0.0713
5075291.0,0.1245,0.0096,41.9177,-0.2959,0.2277,-0.0665
5075301.0,0.0,0.0766,41.7549,-0.2203,0.2081,-0.0713
5075311.0,0.0096,0.2777,41.5442,-0.2943,0.2299,-0.0676
5075321.0,-0.0383,0.0766,41.8794,-0.2384,0.2102,-0.0452
5075331.0,0.1532,0.431,41.6974,-0.3054,0.2336,-0.0734
5075341.0,0.0862,-0.0383,41.5538,-0.2432,0.1926,-0.0633
5075351.0,0.0958,0.2011,42.1188,-0.2655,0.2214,-0.0585
5075361.0,-0.0192,0.1724,41.5633,-0.2655,0.2235,-0.0788
5075371.0,0.1724,0.316,41.8602,-0.257,0.2112,-0.0601
5075381.0,0.182,0.1245,41.8602,-0.2661,0.2235,-0.0777
5075391.0,-0.067,0.0575,41.8602,-0.2719,0.2038,-0.0468
5075401.0,0.0096,0.0958,41.8794,-0.29,0.2357,-0.0654
5075411.0,0.0575,0.0287,41.6687,-0.2565,0.215,-0.0649
5075421.0,0.1341,0.1437,41.9751,-0.265,0.223,-0.0798
5075431.0,0.2777,0.1149,41.6974,-0.2559,0.2065,-0.0681
5075441.0,0.249,0.182,41.8315,-0.2687,0.2256,-0.0681
5075451.0,0.0862,0.1149,41.7549,-0.2565,0.2054,-0.0724
5075461.0,0.2394,0.1149,42.0518,-0.2623,0.2187,-0.0644
5075471.0,0.0383,0.0766,41.6112,-0.2708,0.2102,-0.0681
5075481.0,-0.0287,0.0862,42.0135,-0.2735,0.2214,-0.0708
5075491.0,0.067,0.1532,41.5921,-0.2575,0.2144,-0.0724
5075501.0,0.0862,0.2873,41.8698,-0.2554,0.2208,-0.0548
5075511.0,0.1915,0.2298,41.5921,-0.2645,0.2118,-0.0596
5075521.0,0.1053,0.0862,41.8506,-0.2645,0.216,-0.0644
5075531.0,0.1245,0.0479,41.8123,-0.2735,0.2246,-0.0681
5075541.0,0.182,0.2298,41.8698,-0.2549,0.2203,-0.0559
5075551.0,0.1245,0.2298,41.8602,-0.2698,0.2134,-0.0713
5075561.0,0.0958,0.2394,41.956,-0.2666,0.2192,-0.0644
5075571.0,0.0192,0.1915,42.0326,-0.2719,0.2166,-0.0639
5075581.0,0.2011,0.2107,41.8028,-0.2751,0.2155,-0.0729
5075591.0,0.0862,0.0479,41.8028,-0.2724,0.215,-0.0553
5075601.0,0.0479,0.3065,41.64,-0.249,0.2054,-0.0569
5075611.0,0.0383,-0.0096,41.7261,-0.2639,0.2304,-0.0729
5075621.0,0.1341,0.0766,41.7549,-0.274,0.2112,-0.0607
5075631.0,0.2682,0.1053,41.9081,-0.2543,0.2144,-0.0484
5075641.0,0.1915,0.1341,41.458,-0.2581,0.2123,-0.0766
5075651.0,0.0383,0.1341,41.8506,-0.2762,0.2144,-0.0644
5075661.0,0.1628,0.0766,41.7836,-0.2543,0.2027,-0.0713
5075671.0,0.2011,0.1245,41.6687,-0.2639,0.2251,-0.0724
5075681.0,0.0287,-0.0192,41.6974,-0.2565,0.2187,-0.0612
5075691.0,0.249,0.067,41.774,-0.2682,0.223,-0.0585
5075701.0,0.0096,0.2298,41.9368,-0.2666,0.2198,-0.067
5075711.0,0.2969,0.1724,41.8411,-0.2666,0.215,-0.0724
5075721.0,0.0287,0.067,42.0518,-0.274,0.2166,-0.0729
5075731.0,0.0287,0.2011,41.9943,-0.2421,0.2347,-0.0713
5075741.0,0.1628,0.3735,41.8411,-0.2528,0.2352,-0.0702
5075751.0,0.3065,0.3065,41.956,-0.2751,0.2086,-0.0644
5075761.0,0.0958,0.2298,41.6112,-0.2666,0.2219,-0.0798
5075771.0,0.0958,0.2394,41.8698,-0.2634,0.1969,-0.0665
5075781.0,0.1628,0.1628,41.889,-0.2756,0.216,-0.0686
5075791.0,0.1532,0.2873,41.5921,-0.2613,0.216,-0.0793
5075801.0,0.0766,0.0766,41.5059,-0.2677,0.2144,-0.0814
5075811.0,0.2394,0.1628,41.7357,-0.2671,0.2006,-0.0612
5075821.0,0.1724,0.2298,41.6687,-0.2634,0.2214,-0.066
5075831.0,0.1149,0.0096,41.9368,-0.2735,0.215,-0.0697
5075841.0,0.1724,0.0383,41.8123,-0.2602,0.2214,-0.0654
5075851.0,0.0766,0.1149,42.0996,-0.2708,0.2187,-0.0654
5075861.0,-0.0383,0.0862,41.8794,-0.257,0.2065,-0.0724
5075871.0,0.1532,0.0958,41.5442,-0.2666,0.2118,-0.0665
5075881.0,0.1053,0.3926,41.8123,-0.2405,0.2246,-0.074
5075891.0,0.2203,0.0479,41.7836,-0.2602,0.224,-0.0676
5075901.0,0.1149,0.182,41.6687,-0.2506,0.2246,-0.0484
5075911.0,0.1437,0.2682,41.7932,-0.2559,0.2187,-0.0697
5075921.0,0.1437,0.182,41.7261,-0.2666,0.2235,-0.0708
5075931.0,0.067,0.2586,41.9943,-0.2655,0.2043,-0.0686
5075941.0,0.2298,0.1437,41.9081,-0.2554,0.2176,-0.0724
5075951.0,0.182,0.1724,41.8315,-0.2581,0.2219,-0.0777
5075961.0,0.1149,0.1915,41.9943,-0.2655,0.2187,-0.0697
5075971.0,0.2298,0.0862,41.7645,-0.2623,0.2017,-0.0708
5075981.0,0.1149,0.1915,41.9177,-0.2623,0.2171,-0.0692
5075991.0,0.1053,0.249,41.8985,-0.2618,0.2299,-0.0766
5076001.0,0.1532,0.2203,42.1092,-0.2448,0.2128,-0.0697
5076011.0,0.0958,0.182,41.8698,-0.2634,0.2091,-0.0676
5076021.0,0.182,0.1341,41.9081,-0.2661,0.224,-0.0788
5076031.0,0.2298,0.0766,41.8506,-0.2692,0.2065,-0.0654
5076041.0,0.2107,0.2107,41.7932,-0.2629,0.207,-0.0825
5076051.0,0.1532,0.1149,41.6591,-0.2677,0.2081,-0.0575
5076061.0,0.2107,0.316,41.774,-0.2677,0.2176,-0.0697
5076071.0,0.2203,0.0766,41.5633,-0.2677,0.2134,-0.0676
5076081.0,0.2969,0.1149,41.8411,-0.2602,0.215,-0.0729
5076091.0,0.0287,0.2107,41.64,-0.2703,0.2235,-0.0809
5076101.0,0.1245,0.1532,42.0422,-0.2496,0.2128,-0.0665
5076111.0,0.182,0.1724,41.8315,-0.2767,0.2256,-0.0724
5076121.0,0.1628,0.0575,41.8794,-0.2645,0.215,-0.0484
5076131.0,0.067,0.1341,41.6783,-0.281,0.2027,-0.0649
5076141.0,0.1341,0.0479,41.64,-0.2639,0.2049,-0.0601
5076151.0,0.1437,0.2682,41.7836,-0.257,0.2272,-0.0665
5076161.0,0.0479,0.0575,41.774,-0.2543,0.2288,-0.0772
5076171.0,0.1341,0.0958,41.6783,-0.273,0.2171,-0.0692
5076181.0,0.2777,0.067,41.8411,-0.2772,0.2155,-0.0644
5076191.0,0.1628,0.1149,41.9177,-0.2581,0.2283,-0.0702
5076201.0,0.067,0.2873,41.8506,-0.2692,0.2251,-0.0569
5076211.0,0.0862,0.1437,41.8315,-0.2677,0.2203,-0.0607
5076221.0,0.2203,0.1149,41.9273,-0.274,0.2261,-0.0782
5076231.0,0.2011,0.2203,41.7453,-0.257,0.2102,-0.0633
5076241.0,0.2586,0.1245,42.023,-0.2661,0.1958,-0.0686
5076251.0,0.0096,0.1149,41.7453,-0.265,0.216,-0.0819
5076261.0,0.2394,0.1437,41.8985,-0.2618,0.215,-0.0788
5076271.0,0.0862,-0.0096,41.9751,-0.2655,0.2059,-0.0729
5076281.0,0.2394,0.1915,41.8698,-0.2607,0.2081,-0.0617
5076291.0,0.0862,0.1724,41.7166,-0.2677,0.2235,-0.0521
5076301.0,0.2107,0.0862,41.774,-0.2783,0.224,-0.0654
5076311.0,0.0958,0.1053,41.9081,-0.274,0.2246,-0.0644
5076321.0,0.1532,0.1628,41.8411,-0.2735,0.2033,-0.0718
5076331.0,0.2203,0.1724,41.7261,-0.2666,0.2288,-0.0633
5076341.0,0.2586,0.1053,41.7166,-0.2597,0.2155,-0.0537
5076351.0,0.1628,0.2298,41.5538,-0.2629,0.2293,-0.0676
5076361.0,0.0,0.2586,41.956,-0.2655,0.2134,-0.058
5076371.0,0.1341,0.2203,41.8315,-0.2794,0.2192,-0.0713
5076381.0,0.2203,0.2394,41.8123,-0.2767,0.2219,-0.0729
5076391.0,0.182,0.2298,41.8602,-0.2549,0.2214,-0.0803
5076401.0,0.182,0.1437,41.8219,-0.2575,0.2224,-0.0654
5076411.0,0.1437,0.0287,41.9464,-0.2575,0.2118,-0.0623
5076421.0,0.0479,0.1532,41.9847,-0.2724,0.2097,-0.0681
5076431.0,0.182,0.0958,41.6016,-0.2682,0.2208,-0.0654
5076441.0,0.3352,0.2394,41.7453,-0.2698,0.2097,-0.0474
5076451.0,0.067,0.0575,41.707,-0.2666,0.2134,-0.0702
5076461.0,0.2682,0.0766,41.9081,-0.265,0.2166,-0.0676
5076471.0,0.1149,0.1915,41.774,-0.2629,0.2182,-0.0628
5076481.0,0.182,0.0479,41.8985,-0.2453,0.207,-0.0788
5076491.0,0.2586,0.0766,41.9464,-0.2799,0.215,-0.0649
5076501.0,0.2011,0.2394,41.5921,-0.2506,0.1963,-0.0718
5076511.0,0.1437,0.2586,41.5346,-0.2762,0.2112,-0.0899
5076521.0,0.0575,0.316,41.774,-0.273,0.2144,-0.0686
5076531.0,-0.0575,0.2011,41.7549,-0.2549,0.2203,-0.067
5076541.0,0.1149,0.182,41.8028,-0.265,0.2134,-0.0559
5076551.0,0.0862,0.182,41.889,-0.2629,0.232,-0.0681
5076561.0,0.1245,0.1532,41.9177,-0.2639,0.215,-0.067
5076571.0,0.1437,0.1628,41.8506,-0.2735,0.2038,-0.0686
5076581.0,0.1532,0.2011,41.9177,-0.2788,0.2192,-0.0633
5076591.0,0.2586,0.1245,41.7453,-0.2629,0.2155,-0.0617
5076601.0,0.2011,0.0766,42.1667,-0.2629,0.2256,-0.0612
5076611.0,0.1437,0.0958,41.7166,-0.2506,0.2288,-0.0681
5076621.0,0.0766,0.2586,41.889,-0.2485,0.2049,-0.0686
5076631.0,0.1341,0.1628,42.2433,-0.2623,0.2203,-0.0543
5076641.0,0.1532,0.2586,41.956,-0.2512,0.2097,-0.074
5076651.0,0.1915,0.1628,41.7932,-0.2671,0.2261,-0.0665
5076661.0,0.2586,-0.0287,41.5059,-0.2512,0.223,-0.0686
5076671.0,0.182,0.1915,41.9656,-0.2586,0.2261,-0.0708
5076681.0,0.2011,0.2969,41.7836,-0.2687,0.2283,-0.0681
5076691.0,0.1915,0.2586,41.8698,-0.2581,0.2134,-0.0676
5076701.0,0.2298,0.1628,41.9751,-0.281,0.1937,-0.075
5076711.0,0.067,-0.0383,41.5442,-0.281,0.2043,-0.0601
5076721.0,0.0383,0.1915,41.6591,-0.2597,0.2166,-0.0692
5076731.0,0.0958,0.1053,41.6112,-0.2559,0.2261,-0.0654
5076741.0,0.1437,0.2586,42.0326,-0.2692,0.2267,-0.0713
5076751.0,0.0192,0.067,41.8794,-0.2682,0.2235,-0.0559
5076761.0,0.1437,0.0958,42.0805,-0.2607,0.2081,-0.0676
5076771.0,0.1149,0.1341,41.7549,-0.2714,0.2246,-0.0543
5076781.0,0.1915,0.3065,41.6878,-0.2591,0.2341,-0.0713
5076791.0,0.0383,0.0958,41.6783,-0.2464,0.2139,-0.0708
5076801.0,0.316,0.1724,42.0996,-0.2703,0.223,-0.0623
5076811.0,0.1628,0.1532,41.9081,-0.2485,0.2224,-0.0734
5076821.0,0.1245,0.1053,42.138,-0.2687,0.207,-0.0761
5076831.0,0.182,0.0096,41.8506,-0.265,0.2235,-0.0676
5076841.0,0.1532,0.1149,41.7261,-0.2623,0.2235,-0.0697
5076851.0,0.0192,0.2298,41.4676,-0.2607,0.2123,-0.0692
5076861.0,0.0479,0.2394,41.774,-0.257,0.2224,-0.0654
5076871.0,0.0862,0.1437,41.9081,-0.2671,0.2049,-0.0681
5076881.0,0.2777,0.182,42.1475,-0.2692,0.2171,-0.0564
5076891.0,0.1437,0.2011,42.1858,-0.2623,0.2155,-0.0633
5076901.0,0.1245,0.1341,41.7549,-0.2613,0.2065,-0.0708
5076911.0,0.0862,0.0766,41.774,-0.2714,0.2112,-0.0793
5076921.0,0.1915,0.182,41.9464,-0.2698,0.2139,-0.0596
5076931.0,0.2203,0.1341,41.6112,-0.2618,0.2171,-0.0745
5076941.0,0.1915,0.1437,41.774,-0.2724,0.2097,-0.0623
5076951.0,0.1915,0.1341,41.7453,-0.2565,0.2118,-0.0729
5076961.0,0.1341,0.2586,41.9368,-0.2591,0.2277,-0.0724
5076971.0,0.0862,0.0766,41.6687,-0.2692,0.232,-0.0543
5076981.0,0.2586,0.1532,41.7549,-0.2586,0.2251,-0.0724
5076991.0,0.1915,0.182,41.6783,-0.2623,0.2379,-0.0633
5077001.0,0.1724,0.0766,41.7645,-0.265,0.2134,-0.0639
5077011.0,0.067,0.1628,41.7549,-0.2421,0.2144,-0.074
5077021.0,0.1532,0.1149,41.889,-0.2575,0.2325,-0.074
5077031.0,0.1053,0.0766,41.64,-0.2634,0.2134,-0.0537
5077041.0,0.0766,0.1532,41.6878,-0.2671,0.2325,-0.0612
5077051.0,0.0766,0.1628,41.7549,-0.2815,0.223,-0.0681
5077061.0,0.182,0.2107,41.7836,-0.2613,0.2203,-0.0745
5077071.0,0.249,0.1053,41.7645,-0.265,0.2166,-0.0612
5077081.0,-0.0287,0.2203,42.0039,-0.2538,0.215,-0.0623
5077091.0,0.2682,0.3065,41.7932,-0.2559,0.2219,-0.0607
5077101.0,0.067,0.3543,41.7549,-0.2645,0.2208,-0.0702
5077111.0,0.0766,0.067,41.4676,-0.2538,0.216,-0.0782
5077121.0,0.1724,0.249,42.1188,-0.2634,0.2059,-0.0532
5077131.0,0.1437,0.0479,41.7261,-0.2575,0.2246,-0.0708
5077141.0,0.0479,0.0862,42.1475,-0.2485,0.2112,-0.0814
5077151.0,0.2011,0.2394,41.8028,-0.2639,0.2166,-0.0841
5077161.0,0.1437,0.2777,41.6974,-0.2703,0.2261,-0.0644
5077171.0,0.1245,0.2394,41.7453,-0.2661,0.2203,-0.0601
5077181.0,0.1245,0.182,41.889,-0.2645,0.2155,-0.0724
5077191.0,0.0287,0.1915,41.6687,-0.2597,0.2134,-0.0665
5077201.0,0.2011,0.1053,41.956,-0.2778,0.2203,-0.0617
5077211.0,0.1245,0.2873,41.8219,-0.2618,0.2123,-0.0649
5077221.0,0.2682,0.2011,41.6783,-0.2756,0.1995,-0.0607
5077231.0,0.1341,0.2107,41.889,-0.2607,0.2251,-0.0649
5077241.0,0.1341,0.1437,41.6974,-0.2559,0.2102,-0.0729
5077251.0,0.249,0.1915,41.9273,-0.2645,0.2086,-0.0639
5077261.0,0.2777,0.0575,42.0805,-0.2639,0.2235,-0.0756
5077271.0,0.0287,0.0096,41.7357,-0.2629,0.2192,-0.0734
5077281.0,0.1532,0.1149,41.889,-0.2724,0.2038,-0.0724
5077291.0,0.0383,0.0862,41.7357,-0.2496,0.2134,-0.0729
5077301.0,0.2682,0.3448,42.0613,-0.2687,0.2054,-0.0724
5077311.0,0.1341,-0.0479,41.6783,-0.2448,0.2155,-0.0803
5077321.0,0.0862,0.2011,42.0996,-0.2549,0.2144,-0.0665
5077331.0,0.3065,0.0479,41.8698,-0.2661,0.2139,-0.0559
5077341.0,0.182,0.1724,41.9943,-0.257,0.223,-0.0601
5077351.0,0.2107,-0.0192,41.9847,-0.2708,0.2155,-0.0591
5077361.0,0.2777,0.0575,41.7453,-0.2666,0.2198,-0.0756
5077371.0,0.0479,0.1628,41.7166,-0.2613,0.2118,-0.0633
5077381.0,0.0383,0.067,41.8411,-0.2714,0.2043,-0.0819
5077391.0,0.067,0.1628,41.9464,-0.2453,0.2182,-0.075
5077401.0,0.1245,0.1053,41.8315,-0.2554,0.2309,-0.0654
5077411.0,0.1053,0.2873,41.707,-0.2602,0.2315,-0.0617
5077421.0,0.1245,0.0383,41.8123,-0.2677,0.215,-0.058
5077431.0,0.1053,0.2107,41.6591,-0.2549,0.2128,-0.0649
5077441.0,0.2011,0.0096,41.6208,-0.2778,0.2261,-0.0708
5077451.0,0.0958,0.2203,42.138,-0.2506,0.2246,-0.0665
5077461.0,0.182,0.1149,41.8028,-0.257,0.2368,-0.0649
5077471.0,0.1724,0.0479,41.7166,-0.2708,0.2256,-0.0559
5077481.0,0.0383,0.2394,41.9177,-0.265,0.2251,-0.0649
5077491.0,0.1915,0.1532,41.8698,-0.265,0.2325,-0.0521
5077501.0,0.0096,0.1149,41.7166,-0.2634,0.224,-0.0761
5077511.0,0.182,0.1532,41.8602,-0.2575,0.215,-0.0734
5077521.0,0.2394,0.1628,41.4676,-0.2543,0.215,-0.0686
5077531.0,0.2777,-0.0287,41.6112,-0.2788,0.2075,-0.0575
5077541.0,0.2203,0.0479,42.0422,-0.2549,0.2059,-0.0798
5077551.0,0.1532,0.1149,41.7932,-0.2554,0.2134,-0.0665
5077561.0,0.1915,0.0383,41.7357,-0.2746,0.2187,-0.0654
5077571.0,0.0383,0.1628,41.7836,-0.2634,0.2208,-0.0521
5077581.0,0.1437,0.0287,41.8602,-0.2762,0.2187,-0.0612
5077591.0,0.1915,0.0287,41.8506,-0.2395,0.2091,-0.0713
5077601.0,0.1149,0.1628,41.9177,-0.2661,0.2261,-0.0724
5077611.0,0.067,0.1628,41.8315,-0.2677,0.2288,-0.0633
5077621.0,0.1724,0.1915,41.9656,-0.2692,0.2293,-0.0644
5077631.0,0.182,0.1245,41.7645,-0.2618,0.2198,-0.0665
5077641.0,0.1053,0.067,41.7932,-0.2559,0.2123,-0.0729
5077651.0,0.2969,0.1724,41.8698,-0.2623,0.2203,-0.0644
5077661.0,0.1628,0.2011,41.956,-0.2666,0.2235,-0.0569
5077671.0,0.0479,0.0958,41.9464,-0.2512,0.2086,-0.0686
5077681.0,0.2586,0.182,41.6016,-0.2751,0.2277,-0.0686
5077691.0,0.1149,0.2107,41.8506,-0.2794,0.2203,-0.0708
5077701.0,0.2203,0.067,41.7453,-0.2634,0.2049,-0.0766
5077711.0,0.2011,0.2107,42.138,-0.2512,0.2267,-0.067
5077721.0,0.2586,0.1053,41.7932,-0.2565,0.2139,-0.0639
5077731.0,0.1532,0.1245,41.7836,-0.2666,0.2208,-0.0761
5077741.0,0.1628,0.1532,41.9943,-0.2762,0.2261,-0.0607
5077751.0,0.1628,0.249,41.8985,-0.2586,0.2187,-0.0772
5077761.0,0.0479,0.0958,41.7645,-0.2756,0.2256,-0.0676
5077771.0,-0.1149,0.1724,41.9368,-0.2661,0.216,-0.066
5077781.0,0.1724,0.2298,41.6591,-0.2575,0.215,-0.0686
5077791.0,0.2298,0.1341,41.8028,-0.2597,0.2219,-0.0633
5077801.0,0.1053,0.0479,41.9368,-0.2597,0.2139,-0.0702
5077811.0,0.1437,0.1724,41.6112,-0.2501,0.2144,-0.0537
5077821.0,0.1341,0.1053,41.7836,-0.2692,0.223,-0.0639
5077831.0,0.2586,0.1053,41.7166,-0.2485,0.2155,-0.0692
5077841.0,0.067,0.0287,41.9751,-0.2501,0.207,-0.0628
5077851.0,0.1341,0.2298,42.1571,-0.2586,0.215,-0.0686
5077861.0,0.1628,0.0958,41.7549,-0.2756,0.2208,-0.0724
5077871.0,0.249,0.0575,41.7453,-0.2453,0.215,-0.0761
5077881.0,0.1532,0.0575,41.5346,-0.2618,0.2134,-0.0756
5077891.0,0.1245,0.1245,41.7836,-0.2719,0.2176,-0.066
5077901.0,0.1245,0.0287,41.774,-0.2581,0.2123,-0.0633
5077911.0,-0.0096,0.2873,41.6495,-0.2677,0.2171,-0.0788
5077921.0,0.2107,0.2682,41.9081,-0.2496,0.2187,-0.0612
5077931.0,0.1149,0.2107,41.774,-0.2645,0.215,-0.0867
5077941.0,0.067,0.2682,41.8315,-0.2623,0.2171,-0.058
5077951.0,0.2298,0.0383,41.8123,-0.2645,0.2203,-0.0676
5077961.0,0.0862,0.1724,41.8698,-0.2746,0.2118,-0.074
5077971.0,0.2107,0.0575,41.8602,-0.2735,0.2075,-0.075
5077981.0,0.0862,0.1532,41.7166,-0.273,0.2091,-0.0718
5077991.0,0.0287,0.1532,42.0039,-0.2826,0.2246,-0.0724
5078001.0,0.0383,0.0383,42.0805,-0.2698,0.2208,-0.0654
5078011.0,0.1724,0.0096,41.7261,-0.2714,0.2176,-0.0708
5078021.0,0.2107,0.2011,42.0422,-0.2554,0.2171,-0.0639
5078031.0,0.0287,0.2682,41.8123,-0.2597,0.2091,-0.0617
5078041.0,0.2586,0.1341,42.1954,-0.2639,0.2214,-0.0639
5078051.0,0.1053,0.1532,41.8985,-0.2735,0.2112,-0.0729
5078061.0,0.1628,0.0575,41.7357,-0.2634,0.2128,-0.0708
5078071.0,0.1149,0.1532,41.8506,-0.281,0.2134,-0.0835
5078081.0,0.1341,0.249,41.8602,-0.2687,0.2219,-0.0553
5078091.0,0.2394,0.2107,41.7645,-0.2666,0.2134,-0.0607
5078101.0,0.2586,0.1437,41.9464,-0.2873,0.2187,-0.0681
5078111.0,0.1437,0.1628,42.0709,-0.2666,0.2293,-0.0591
5078121.0,0.2107,0.249,42.1092,-0.2751,0.2176,-0.0681
5078131.0,0.1149,0.0958,41.8985,-0.2602,0.2293,-0.067
5078141.0,0.0383,0.2107,41.7357,-0.2554,0.2251,-0.0639
5078151.0,0.1915,0.1724,41.7261,-0.2703,0.2086,-0.0649
5078161.0,0.1149,0.2011,41.774,-0.2533,0.2086,-0.058
5078171.0,0.0862,0.0,41.8123,-0.2602,0.2198,-0.0617
5078181.0,0.067,0.1628,41.8506,-0.2735,0.2224,-0.05
5078191.0,0.0958,0.1245,41.6783,-0.2565,0.2102,-0.0724
5078201.0,0.1149,0.0958,41.5921,-0.2826,0.2203,-0.0681
5078211.0,0.2011,0.1628,41.6974,-0.2698,0.2203,-0.0607
5078221.0,0.2011,0.1628,41.7836,-0.2692,0.232,-0.0612
5078231.0,0.2394,0.1628,41.7645,-0.2666,0.2341,-0.0639
5078241.0,0.1341,0.1245,42.1092,-0.2794,0.2139,-0.0718
5078251.0,0.2682,0.2107,41.8506,-0.2581,0.2309,-0.0617
5078261.0,0.2394,0.1149,41.7357,-0.2687,0.2405,-0.0686
5078271.0,0.0575,0.0766,41.6016,-0.2687,0.2187,-0.0713
5078281.0,0.1724,0.0862,42.023,-0.2591,0.2107,-0.0793
5078291.0,0.249,0.1245,41.8123,-0.2756,0.2065,-0.0702
5078301.0,0.2011,0.0192,41.6974,-0.2639,0.2155,-0.0628
5078311.0,0.2203,-0.0096,41.9751,-0.2501,0.2144,-0.0623
5078321.0,0.067,0.1341,42.0901,-0.2581,0.2155,-0.0623
5078331.0,0.0766,0.067,41.5538,-0.2724,0.2288,-0.075
5078341.0,0.1915,0.2107,41.7357,-0.2645,0.2219,-0.0718
5078351.0,0.1724,0.1053,41.8506,-0.2448,0.2224,-0.0734
5078361.0,0.2586,0.2203,41.774,-0.2602,0.2203,-0.0777
5078371.0,0.1915,0.067,41.9751,-0.2549,0.2299,-0.0745
5078381.0,0.0096,0.2107,41.8506,-0.2746,0.2171,-0.0564
5078391.0,0.2203,0.0096,41.8411,-0.2528,0.2118,-0.0575
5078401.0,0.2777,0.2682,41.7261,-0.2645,0.2214,-0.0623
5078411.0,0.0862,0.2107,41.6591,-0.2623,0.2208,-0.0617
5078421.0,0.1915,0.1053,41.9751,-0.2591,0.2166,-0.0596
5078431.0,0.3352,0.2011,42.1571,-0.2581,0.2112,-0.0607
5078441.0,0.2107,-0.0958,41.6495,-0.2666,0.2176,-0.0633
5078451.0,0.249,0.1149,41.774,-0.2666,0.2075,-0.0686
5078461.0,0.1341,0.182,41.7645,-0.281,0.2038,-0.0841
5078471.0,0.2969,0.1915,41.7261,-0.2618,0.2059,-0.074
5078481.0,0.0766,0.2586,42.0422,-0.2719,0.216,-0.0782
5078491.0,0.1245,0.2203,41.6208,-0.2645,0.2134,-0.0724
5078501.0,0.0766,0.1532,42.1763,-0.2687,0.2432,-0.067
5078511.0,0.1341,0.3543,41.6974,-0.2629,0.2214,-0.0772
5078521.0,0.1053,0.1915,41.8315,-0.2692,0.2182,-0.0575
5078531.0,0.2011,0.2298,41.9081,-0.257,0.2293,-0.0708
5078541.0,0.1437,0.182,41.8315,-0.2597,0.2022,-0.0596
5078551.0,0.1915,0.1341,41.9368,-0.2517,0.2107,-0.0766
5078561.0,0.182,0.1915,41.6974,-0.2448,0.2107,-0.067
5078571.0,0.1437,0.1628,41.889,-0.2618,0.2277,-0.0772
5078581.0,0.1915,0.1724,41.9081,-0.2666,0.2166,-0.0713
5078591.0,0.1915,-0.0096,41.9368,-0.2581,0.2075,-0.0708
5078601.0,-0.0862,0.1437,42.0518,-0.2655,0.2144,-0.0633
5078611.0,0.1532,0.2107,41.8794,-0.2623,0.2203,-0.0697
5078621.0,0.1628,0.3735,41.6112,-0.2841,0.216,-0.0686
5078631.0,0.0958,0.2394,41.8219,-0.2586,0.2235,-0.0665
5078641.0,0.0862,0.0192,41.9273,-0.2687,0.2118,-0.0596
5078651.0,0.0958,0.0096,41.889,-0.2698,0.2214,-0.0585
5078661.0,0.1437,0.182,41.889,-0.2671,0.2176,-0.0575
5078671.0,0.0862,0.2586,41.9751,-0.2528,0.241,-0.0718
5078681.0,0.0766,0.1149,41.8794,-0.2698,0.2022,-0.0782
5078691.0,0.182,0.1628,41.6304,-0.2464,0.2187,-0.0575
5078701.0,0.2203,0.2298,41.707,-0.2703,0.2139,-0.0665
5078711.0,0.0287,0.2011,41.6591,-0.2607,0.2171,-0.0702
5078721.0,0.0575,0.1341,41.7932,-0.2661,0.2107,-0.0718
5078731.0,0.0862,0.1437,42.0518,-0.2607,0.2341,-0.0745
5078741.0,0.0766,0.0575,41.8794,-0.2623,0.2256,-0.0628
5078751.0,0.1628,0.1532,41.9081,-0.2517,0.2224,-0.0654
5078761.0,0.1149,0.1053,42.0039,-0.2671,0.2155,-0.0772
5078771.0,0.1532,0.1149,41.9368,-0.2607,0.2363,-0.0713
5078781.0,0.1915,0.1341,41.9273,-0.2496,0.2256,-0.0676
5078791.0,0.1532,0.249,41.8506,-0.2671,0.2198,-0.0628
5078801.0,0.0958,0.2682,41.9273,-0.2724,0.2309,-0.0623
5078811.0,0.2203,0.0383,41.7357,-0.2639,0.216,-0.0686
5078821.0,0.2107,0.1724,42.0422,-0.2714,0.2288,-0.0484
5078831.0,0.0575,0.1628,41.956,-0.2586,0.2182,-0.0553
5078841.0,0.3735,0.1724,41.7549,-0.2698,0.2182,-0.0761
5078851.0,0.1437,0.1628,41.9273,-0.2538,0.2075,-0.0697
5078861.0,0.1341,0.1437,41.889,-0.265,0.2214,-0.0628
5078871.0,0.2586,0.1341,41.6208,-0.2655,0.2235,-0.0569
5078881.0,0.1628,0.2873,41.6878,-0.2517,0.2288,-0.067
5078891.0,0.067,0.3448,42.1763,-0.2714,0.2097,-0.0612
5078901.0,0.1245,0.1053,41.8602,-0.2623,0.2219,-0.0607
5078911.0,0.1915,0.0862,41.5921,-0.282,0.2214,-0.0649
5078921.0,0.1532,0.3352,41.956,-0.2708,0.2102,-0.066
5078931.0,0.2969,0.1724,41.64,-0.2559,0.2309,-0.0729
5078941.0,0.2107,0.1341,42.0709,-0.2517,0.2027,-0.0809
5078951.0,0.1149,0.1915,41.8028,-0.2677,0.2033,-0.0681
5078961.0,0.3256,0.2394,41.7453,-0.2804,0.2261,-0.0633
5078971.0,0.0958,0.1628,42.0518,-0.2655,0.2293,-0.0649
5078981.0,-0.0479,0.0766,41.9273,-0.2464,0.2134,-0.0617
5078991.0,0.1628,0.1341,41.5346,-0.2575,0.2097,-0.0676
5079001.0,0.2298,0.1915,41.6304,-0.2724,0.2182,-0.0665
5079011.0,0.182,0.0766,41.7261,-0.2496,0.2299,-0.0734
5079021.0,0.0096,0.0766,41.6783,-0.2549,0.2107,-0.0745
5079031.0,0.0766,0.1628,41.5538,-0.2815,0.2065,-0.0617
5079041.0,0.1724,-0.0096,41.8219,-0.2597,0.2192,-0.0697
5079051.0,0.1532,0.1341,41.4867,-0.2623,0.2102,-0.0633
5079061.0,0.1532,0.1915,41.7836,-0.257,0.2155,-0.075
5079071.0,0.249,0.2203,41.8698,-0.2831,0.2166,-0.0681
5079081.0,-0.0192,0.0958,42.1188,-0.2831,0.2049,-0.0612
5079091.0,0.0958,0.067,41.6495,-0.2575,0.2171,-0.0825
5079101.0,0.182,0.0958,41.7453,-0.2677,0.2176,-0.067
5079111.0,0.1437,-0.0287,41.6974,-0.2714,0.223,-0.058
5079121.0,0.2011,0.1149,41.7836,-0.2575,0.2054,-0.0569
5079131.0,0.2586,0.2011,41.8219,-0.2719,0.2102,-0.0553
5079141.0,0.1724,0.2586,41.7453,-0.2517,0.2123,-0.067
5079151.0,0.1437,0.2107,41.9751,-0.2708,0.2198,-0.058
5079161.0,0.0862,0.1341,41.7645,-0.2618,0.224,-0.0681
5079171.0,0.1532,0.1149,41.9464,-0.2597,0.2155,-0.0633
5079181.0,0.1053,0.0383,41.8602,-0.2756,0.224,-0.066
5079191.0,0.1724,0.1628,41.4484,-0.2501,0.2198,-0.0628
5079201.0,0.2011,0.0383,41.8123,-0.2607,0.2171,-0.0639
5079211.0,0.0096,0.2298,42.0135,-0.2597,0.2049,-0.0702
5079221.0,0.0575,0.2777,41.8028,-0.2655,0.2107,-0.049
5079231.0,0.067,0.182,41.7645,-0.2554,0.215,-0.0825
5079241.0,0.182,0.1724,41.8219,-0.2634,0.2155,-0.0516
5079251.0,0.182,0.2394,41.9177,-0.2618,0.223,-0.0649
5079261.0,0.1437,0.1245,41.7932,-0.2666,0.2224,-0.0596
5079271.0,0.1532,0.0096,41.8028,-0.2677,0.2075,-0.0702
5079281.0,0.0287,0.0,41.9177,-0.2607,0.2251,-0.083
5079291.0,0.0766,0.1245,41.5921,-0.2607,0.2288,-0.0851
5079301.0,0.1532,0.2777,41.6974,-0.2703,0.2235,-0.0644
5079311.0,0.1915,0.1245,41.956,-0.2538,0.2214,-0.0681
5079321.0,0.0,0.1053,41.6783,-0.2655,0.2054,-0.0686
5079331.0,0.2777,0.1245,41.8028,-0.2735,0.2235,-0.0702
5079341.0,0.067,0.1532,41.9368,-0.2597,0.223,-0.075
5079351.0,0.0192,0.1915,41.8219,-0.2549,0.2187,-0.0654
5079361.0,0.1532,0.316,41.64,-0.2639,0.2283,-0.0591
5079371.0,0.1149,0.1724,41.7357,-0.2512,0.2097,-0.0756
5079381.0,0.067,0.1532,42.0996,-0.2581,0.2086,-0.058
5079391.0,0.2298,0.0862,41.8794,-0.2692,0.216,-0.0575
5079401.0,0.182,0.1341,42.0135,-0.2692,0.224,-0.0585
5079411.0,0.1245,0.1245,41.6591,-0.2714,0.2261,-0.0543
5079421.0,0.1437,0.1245,41.956,-0.2618,0.2112,-0.0761
5079431.0,0.2203,0.1341,41.7453,-0.2661,0.216,-0.0702
5079441.0,0.2873,0.067,41.7357,-0.2565,0.2347,-0.0745
5079451.0,0.1149,0.0862,42.0709,-0.2719,0.2043,-0.0729
5079461.0,0.0862,0.2107,41.4005,-0.2607,0.223,-0.0591
5079471.0,0.1724,0.2777,41.8602,-0.2618,0.2091,-0.0702
5079481.0,0.067,0.1437,41.8028,-0.2581,0.2187,-0.0708
5079491.0,0.1628,0.2682,41.9081,-0.2618,0.2187,-0.0718
5079501.0,0.067,0.1628,41.6208,-0.2543,0.2017,-0.0665
5079511.0,0.2203,0.2682,42.0039,-0.2698,0.2182,-0.0623
5079521.0,0.3352,0.1053,42.023,-0.2661,0.2325,-0.0766
5079531.0,0.0958,0.1915,41.7166,-0.2554,0.2006,-0.0676
5079541.0,0.1341,0.2107,41.774,-0.273,0.216,-0.0607
5079551.0,0.0766,0.1532,41.6591,-0.2682,0.2224,-0.0575
5079561.0,0.2873,0.2969,41.9464,-0.2682,0.2134,-0.0708
5079571.0,0.1628,0.1915,41.8411,-0.2602,0.2171,-0.0548
5079581.0,0.0287,0.1915,41.6016,-0.2522,0.2198,-0.0676
5079591.0,0.182,0.1053,42.023,-0.2677,0.2203,-0.0569
5079601.0,0.1532,0.0192,41.7166,-0.2629,0.2224,-0.067
5079611.0,0.182,0.1053,42.0135,-0.2772,0.2166,-0.058
5079621.0,0.1245,0.1915,42.2241,-0.2756,0.2293,-0.0633
5079631.0,0.1437,0.1915,41.9464,-0.2591,0.2235,-0.0686
5079641.0,0.0,0.1532,41.7932,-0.257,0.2235,-0.0851
5079651.0,0.0575,0.2586,41.9273,-0.2762,0.2075,-0.0601
5079661.0,0.0575,0.182,42.1667,-0.2591,0.2192,-0.0654
5079671.0,0.2011,0.2969,41.9177,-0.2687,0.2256,-0.0564
5079681.0,0.0479,0.2203,42.1763,-0.2639,0.2187,-0.0649
5079691.0,0.3256,0.3256,41.8123,-0.2708,0.2081,-0.0793
5079701.0,0.0287,0.1628,41.9273,-0.2618,0.2224,-0.0676
5079711.0,0.0479,0.2969,41.5538,-0.2645,0.2288,-0.0596
5079721.0,-0.1053,0.1245,41.8123,-0.2783,0.223,-0.0702
5079731.0,0.0383,-0.0287,41.9273,-0.2677,0.2256,-0.0633
5079741.0,0.182,0.1437,41.7261,-0.2549,0.2187,-0.0559
5079751.0,0.0383,0.0766,41.774,-0.249,0.2208,-0.0591
5079761.0,-0.0096,0.1149,42.0805,-0.2442,0.2325,-0.0745
5079771.0,0.0192,0.0287,42.0135,-0.2602,0.2198,-0.0708
5079781.0,0.1628,0.1724,41.7261,-0.2565,0.2038,-0.0814
5079791.0,0.1437,0.0287,41.9273,-0.273,0.2198,-0.067
5079801.0,0.1245,0.1245,41.8028,-0.2719,0.1926,-0.0596
5079811.0,0.1532,0.0862,41.5346,-0.2554,0.2107,-0.058
5079821.0,0.0766,0.2777,41.8411,-0.2671,0.2128,-0.0676
5079831.0,-0.0575,0.0958,41.7549,-0.2554,0.2246,-0.0841
5079841.0,0.1341,0.0192,41.9081,-0.2575,0.2097,-0.0745
5079851.0,-0.0383,0.0862,41.889,-0.2671,0.2144,-0.0633
5079861.0,0.0958,0.1437,41.8698,-0.257,0.2134,-0.0596
5079871.0,0.0766,0.3352,42.0709,-0.273,0.2107,-0.0809
5079881.0,-0.0958,0.1915,41.8794,-0.2549,0.2224,-0.0734
5079891.0,0.182,0.2586,41.9368,-0.2629,0.1937,-0.0575
5079901.0,0.0766,0.1149,41.6783,-0.2607,0.2357,-0.0734
5079911.0,0.2203,0.1149,41.9177,-0.2671,0.2144,-0.0724
5079921.0,0.1149,0.1532,41.4771,-0.2762,0.2171,-0.0649
5079931.0,0.2873,0.1628,41.7836,-0.2554,0.2203,-0.0537
5079941.0,0.1149,0.0958,41.9847,-0.2719,0.2139,-0.0564
5079951.0,0.1149,0.2203,41.8411,-0.2565,0.2128,-0.0713
5079961.0,0.067,0.1437,42.1284,-0.2559,0.2187,-0.0607
5079971.0,-0.0096,0.1245,41.707,-0.2607,0.2081,-0.0644
5079981.0,0.1245,-0.0766,41.8794,-0.2671,0.2118,-0.067
5079991.0,0.1341,0.182,41.8794,-0.2661,0.2293,-0.0612
5080001.0,0.1053,0.0862,41.707,-0.2591,0.2144,-0.0569
5080011.0,-0.0958,0.2682,41.6974,-0.2554,0.2049,-0.0766
5080021.0,0.1053,0.1149,42.1188,-0.2618,0.2203,-0.0569
5080031.0,0.182,0.1149,41.7453,-0.265,0.2097,-0.0644
5080041.0,0.0958,0.1628,42.023,-0.2714,0.2134,-0.0718
5080051.0,0.0862,0.1437,41.8028,-0.2607,0.2155,-0.0686
5080061.0,0.182,0.2298,41.5825,-0.248,0.2192,-0.0612
5080071.0,0.0192,0.2011,41.8123,-0.2724,0.2315,-0.0734
5080081.0,0.067,0.1628,41.956,-0.2591,0.2208,-0.0665
5080091.0,0.0479,0.2203,41.7261,-0.265,0.224,-0.0633
5080101.0,0.0575,0.1532,41.7836,-0.2432,0.2219,-0.0506
5080111.0,0.182,0.2011,41.8411,-0.2549,0.224,-0.0697
5080121.0,0.249,-0.0192,41.6783,-0.2661,0.2224,-0.0756
5080131.0,0.1149,-0.0192,41.9656,-0.273,0.215,-0.0548
5080141.0,0.0766,0.1053,41.6974,-0.2618,0.2139,-0.0745
5080151.0,0.0958,0.2107,41.7453,-0.2634,0.2208,-0.0628
5080161.0,0.2682,0.067,41.5633,-0.2565,0.2208,-0.0729
5080171.0,0.1245,0.0862,41.9464,-0.2607,0.2144,-0.0543
5080181.0,0.067,0.182,41.8602,-0.2591,0.2357,-0.0819
5080191.0,0.0,0.1532,41.9177,-0.2719,0.2139,-0.0506
5080201.0,0.1149,0.249,42.1571,-0.2538,0.2171,-0.0649
5080211.0,0.1628,-0.0479,41.5155,-0.2549,0.2182,-0.0665
5080221.0,0.1149,0.0383,41.64,-0.2538,0.2128,-0.0564
5080231.0,0.1437,0.0862,41.6304,-0.2543,0.2097,-0.0564
5080241.0,0.182,0.2203,41.7166,-0.2549,0.2192,-0.0702
5080251.0,0.1724,0.1053,41.7453,-0.2671,0.2128,-0.0617
5080261.0,0.067,0.2682,41.9368,-0.2645,0.2171,-0.0601
5080271.0,0.067,0.1915,41.8315,-0.2692,0.2256,-0.0569
5080281.0,0.1724,0.1437,41.9368,-0.2666,0.2123,-0.0623
5080291.0,0.1628,0.0958,41.6591,-0.2602,0.2176,-0.0623
5080301.0,-0.0192,0.2203,41.5921,-0.2533,0.2304,-0.0777
5080311.0,0.0479,0.1341,42.0805,-0.2751,0.2277,-0.0697
5080321.0,0.182,0.1245,41.9751,-0.2629,0.2246,-0.0633
5080331.0,0.182,0.2873,41.9943,-0.2645,0.2192,-0.0548
5080341.0,0.2394,0.1053,42.0901,-0.2549,0.2331,-0.0591
5080351.0,0.2682,0.1053,41.8602,-0.2692,0.2198,-0.0686
5080361.0,0.1915,0.2586,41.64,-0.2735,0.2272,-0.0697
5080371.0,0.2107,0.2107,41.5538,-0.257,0.2192,-0.0686
5080381.0,0.1341,0.0479,41.7836,-0.2714,0.2166,-0.0713
5080391.0,0.1532,0.1149,42.0709,-0.2655,0.2065,-0.0697
5080401.0,0.0383,0.1053,41.8602,-0.265,0.2208,-0.0612
5080411.0,0.1053,-0.0096,41.7836,-0.2708,0.2123,-0.0772
5080421.0,0.0575,0.1724,42.1667,-0.2458,0.2267,-0.0788
5080431.0,0.0383,0.0958,41.9177,-0.2778,0.2107,-0.0654
5080441.0,0.2969,0.3352,41.5442,-0.2783,0.2059,-0.0681
5080451.0,0.0192,0.1437,42.0039,-0.2469,0.2134,-0.0708
5080461.0,0.1628,0.2011,41.5825,-0.2735,0.2038,-0.0702
5080471.0,0.0958,0.2777,41.5633,-0.2575,0.1937,-0.0649
5080481.0,0.2298,0.1149,41.6112,-0.2724,0.2219,-0.0612
5080491.0,0.249,-0.0096,41.9464,-0.2772,0.2267,-0.0644
5080501.0,0.0287,0.0,41.5346,-0.2639,0.2203,-0.0612
5080511.0,0.182,0.3065,41.7453,-0.2714,0.2182,-0.0639
5080521.0,0.0,0.1341,41.7932,-0.2655,0.2373,-0.0686
5080531.0,-0.0096,0.0862,41.9847,-0.2746,0.2155,-0.0649
5080541.0,-0.0096,0.0575,41.8219,-0.2756,0.2224,-0.0644
5080551.0,0.0192,0.0766,41.9081,-0.2645,0.2086,-0.0601
5080561.0,0.1245,0.0479,41.6208,-0.2671,0.2102,-0.0628
5080571.0,0.2777,0.182,41.8219,-0.2645,0.223,-0.0702
5080581.0,0.1532,0.1915,41.8794,-0.2613,0.2315,-0.0702
5080591.0,0.1437,0.1437,41.7549,-0.2708,0.1985,-0.0692
5080601.0,0.2969,0.067,41.9751,-0.273,0.223,-0.067
5080611.0,0.1149,0.0766,41.6208,-0.2703,0.2001,-0.0516
5080621.0,0.1149,0.0383,41.9081,-0.2661,0.2331,-0.0708
5080631.0,-0.0096,0.1245,41.8985,-0.2543,0.2139,-0.0867
5080641.0,0.182,0.1341,41.8315,-0.2645,0.2277,-0.0633
5080651.0,0.1532,0.3256,41.7357,-0.2661,0.2017,-0.0639
5080661.0,0.0958,0.0766,41.9943,-0.2618,0.2065,-0.0569
5080671.0,0.1245,0.0383,41.6591,-0.257,0.2277,-0.0639
5080681.0,0.2682,0.1149,41.8123,-0.2794,0.2267,-0.0617
5080691.0,0.0958,0.0958,41.3622,-0.2453,0.2081,-0.0548
5080701.0,0.1437,0.0862,41.7932,-0.2517,0.1985,-0.0676
5080711.0,0.0862,0.1915,41.7357,-0.2756,0.2309,-0.0766
5080721.0,0.2298,0.1724,41.8506,-0.2618,0.2166,-0.0623
5080731.0,0.0383,0.1341,42.0326,-0.2565,0.2144,-0.0654
5080741.0,0.1724,0.316,41.9656,-0.2645,0.1969,-0.0718
5080751.0,0.3543,0.1915,41.6304,-0.2778,0.2251,-0.0612
5080761.0,0.0479,0.1341,41.889,-0.2623,0.2128,-0.0708
5080771.0,0.1532,0.1628,41.6591,-0.265,0.1921,-0.0697
5080781.0,0.1915,0.249,41.6974,-0.257,0.2022,-0.05
5080791.0,0.3639,0.0862,41.7453,-0.2602,0.2049,-0.0729
5080801.0,0.1915,0.0958,41.7932,-0.2538,0.2256,-0.0692
5080811.0,-0.0192,0.0766,41.6016,-0.2575,0.2214,-0.0548
5080821.0,0.2394,0.0575,41.7836,-0.2634,0.2251,-0.0654
5080831.0,0.316,0.1532,41.9751,-0.274,0.216,-0.0665
5080841.0,0.1724,0.1245,41.8698,-0.2559,0.2155,-0.0819
5080851.0,0.1915,0.2011,41.4867,-0.2586,0.2325,-0.074
5080861.0,0.1437,0.2873,41.9943,-0.2634,0.2224,-0.0697
5080871.0,0.2011,0.249,41.7453,-0.2629,0.2251,-0.0591
5080881.0,0.1149,0.0766,41.64,-0.2559,0.2139,-0.0665
5080891.0,0.1149,0.1149,42.1188,-0.2575,0.2128,-0.0676
5080901.0,0.1341,0.0575,41.8506,-0.2629,0.2256,-0.0803
5080911.0,0.1532,0.1245,41.8028,-0.2677,0.2192,-0.0708
5080921.0,0.1532,0.1437,41.9081,-0.2597,0.2192,-0.0676
5080931.0,-0.0479,0.0862,41.889,-0.2645,0.2219,-0.0718
5080941.0,-0.0192,0.1628,41.64,-0.2543,0.2054,-0.058
5080951.0,0.1532,0.182,41.8028,-0.2565,0.2107,-0.0569
5080961.0,0.1437,0.0958,42.0135,-0.2591,0.2261,-0.0734
5080971.0,0.1532,0.2969,41.889,-0.2645,0.2182,-0.0543
5080981.0,0.067,0.1915,41.5633,-0.2597,0.2235,-0.0819
5080991.0,0.2203,0.1053,41.8315,-0.2469,0.2081,-0.0692
5081001.0,0.2969,0.0383,41.9177,-0.2772,0.2208,-0.0819
5081011.0,0.0766,0.2107,41.7549,-0.2703,0.2171,-0.0692
5081021.0,0.2203,0.4693,41.9177,-0.2623,0.2081,-0.0607
5081031.0,0.2394,0.2107,41.9751,-0.2485,0.2214,-0.0692
5081041.0,0.1245,0.1628,41.7836,-0.2799,0.2192,-0.0766
5081051.0,0.0766,0.1149,42.0422,-0.2735,0.215,-0.0559
5081061.0,0.1341,0.1915,41.5155,-0.2687,0.224,-0.0585
5081071.0,0.2969,0.1628,41.7166,-0.2554,0.2272,-0.067
5081081.0,0.0958,0.182,42.023,-0.265,0.207,-0.0623
5081091.0,0.1245,0.2011,41.7645,-0.2682,0.2187,-0.0591
5081101.0,0.1628,0.0096,41.8411,-0.2517,0.2059,-0.0617
5081111.0,0.1532,0.1724,41.9751,-0.2629,0.223,-0.0777
5081121.0,0.1245,0.2203,41.7645,-0.2602,0.2384,-0.0633
5081131.0,0.0862,0.0958,41.8602,-0.265,0.216,-0.0708
5081141.0,0.2873,0.0958,41.6878,-0.2543,0.2182,-0.0718
5081151.0,0.1053,0.0096,42.0039,-0.2512,0.2251,-0.074
5081161.0,0.2107,0.2203,41.6783,-0.274,0.2267,-0.0724
5081171.0,0.1149,0.1628,41.8123,-0.2485,0.2299,-0.0686
5081181.0,0.3448,0.1532,42.0135,-0.2634,0.224,-0.0686
5081191.0,0.0575,0.2298,41.7166,-0.2586,0.2017,-0.066
5081201.0,0.0862,0.1341,41.707,-0.2613,0.2166,-0.0734
5081211.0,0.182,0.2203,41.8315,-0.273,0.2214,-0.0644
5081221.0,0.2586,0.0287,41.9847,-0.2607,0.2214,-0.0654
5081231.0,0.1724,0.1532,41.7453,-0.2575,0.2017,-0.0766
5081241.0,0.3256,0.1915,41.6878,-0.2895,0.1995,-0.075
5081251.0,0.2298,0.2298,41.8411,-0.2677,0.224,-0.0745
5081261.0,0.0862,0.0766,41.8698,-0.2719,0.224,-0.0782
5081271.0,0.067,0.0096,41.9656,-0.2533,0.2182,-0.0617
5081281.0,0.2777,0.2011,41.8794,-0.2522,0.2267,-0.0681
5081291.0,0.2011,0.249,41.7549,-0.2687,0.223,-0.0612
5081301.0,0.1724,0.1915,41.6208,-0.2554,0.2107,-0.0601
5081311.0,0.2203,0.1628,41.5921,-0.2501,0.2144,-0.0681
5081321.0,0.0958,0.067,41.8411,-0.2666,0.2075,-0.0819
5081331.0,0.2394,0.1628,41.6495,-0.2538,0.2288,-0.0665
5081341.0,0.0766,0.1724,41.8985,-0.2559,0.224,-0.0628
5081351.0,0.1628,0.2203,41.7261,-0.2522,0.2267,-0.0798
5081361.0,0.1341,0.067,41.8794,-0.2703,0.2128,-0.0697
5081371.0,0.0479,0.1532,41.8411,-0.2735,0.2097,-0.0649
5081381.0,0.0958,0.2777,41.8602,-0.2591,0.2118,-0.0585
5081391.0,0.067,0.2586,41.5825,-0.2703,0.2107,-0.067
5081401.0,0.2586,0.1149,41.5346,-0.2677,0.2038,-0.0623
5081411.0,0.1532,0.2203,41.5059,-0.2554,0.2283,-0.0607
5081421.0,0.1149,0.1245,41.8028,-0.2602,0.2128,-0.0734
5081431.0,0.0287,0.1437,41.8315,-0.2618,0.2171,-0.0639
5081441.0,0.182,0.1053,41.9273,-0.2661,0.2261,-0.0841
5081451.0,0.2777,0.1437,41.8028,-0.2554,0.2171,-0.0772
5081461.0,0.182,0.1245,41.6112,-0.2575,0.215,-0.075
5081471.0,0.1724,0.2011,41.7549,-0.2618,0.2075,-0.0782
5081481.0,0.1628,-0.0766,41.8602,-0.2618,0.2182,-0.0564
5081491.0,0.182,0.1245,41.9943,-0.2613,0.2144,-0.0596
5081501.0,0.1532,0.0862,41.8219,-0.2746,0.207,-0.0782
5081511.0,0.1915,0.1532,41.6016,-0.2698,0.2219,-0.0772
5081521.0,0.2586,0.1724,41.8794,-0.2565,0.2208,-0.067
5081531.0,0.1628,0.0862,41.7261,-0.2666,0.2171,-0.0559
5081541.0,0.1628,0.2298,41.8123,-0.274,0.2065,-0.0665
5081551.0,0.1532,0.1053,42.0518,-0.2474,0.2283,-0.0702
5081561.0,0.1053,0.3352,41.7932,-0.2565,0.2219,-0.0734
5081571.0,0.1437,0.1532,41.8028,-0.2528,0.2155,-0.0617
5081581.0,0.2777,0.0766,41.64,-0.2772,0.2166,-0.0788
5081591.0,0.1628,0.1149,41.8411,-0.2847,0.2192,-0.0718
5081601.0,0.0862,0.2011,42.0326,-0.2639,0.2198,-0.0676
5081611.0,0.0287,0.1149,41.7645,-0.2703,0.2379,-0.0772
5081621.0,0.1532,0.1245,42.1284,-0.2735,0.2235,-0.0788
5081631.0,0.249,0.2969,41.8219,-0.2671,0.223,-0.0681
5081641.0,0.182,0.0958,41.707,-0.274,0.2224,-0.0596
5081651.0,0.1245,0.1915,41.8698,-0.2687,0.2118,-0.0479
5081661.0,0.1149,0.0575,41.6783,-0.2719,0.2283,-0.0591
5081671.0,0.2873,-0.0192,41.9081,-0.2762,0.1995,-0.0569
5081681.0,0.0766,0.1341,41.8794,-0.2661,0.2309,-0.0569
5081691.0,0.1149,-0.1245,41.5825,-0.2485,0.1963,-0.066
5081701.0,0.249,0.1245,41.9943,-0.2623,0.2293,-0.0564
5081711.0,0.1628,0.1245,41.5729,-0.2575,0.2304,-0.0591
5081721.0,0.1628,0.0,42.1954,-0.2554,0.2166,-0.0745
5081731.0,0.0192,0.2011,41.5921,-0.2474,0.216,-0.0734
5081741.0,0.1915,0.2394,42.0709,-0.2618,0.2187,-0.067
5081751.0,0.1245,0.2107,41.7932,-0.257,0.2187,-0.0697
5081761.0,0.0,0.1149,41.8315,-0.2629,0.2198,-0.0601
5081771.0,0.2777,0.0958,41.525,-0.2496,0.2208,-0.0537
5081781.0,0.2682,0.1532,41.6495,-0.2655,0.2182,-0.0681
5081791.0,0.1532,0.0096,41.64,-0.2756,0.2293,-0.0527
5081801.0,0.1341,0.0287,41.9656,-0.274,0.2187,-0.0702
5081811.0,0.1149,0.1532,41.6878,-0.265,0.2043,-0.0745
5081821.0,0.1341,0.2203,41.5825,-0.2714,0.2017,-0.0681
5081831.0,0.1149,0.249,41.5155,-0.2677,0.2118,-0.0745
5081841.0,0.2682,0.067,41.8794,-0.2618,0.224,-0.0649
5081851.0,0.0287,0.3065,41.8219,-0.2602,0.2065,-0.0639
5081861.0,0.0958,0.1149,42.0422,-0.2767,0.207,-0.0686
5081871.0,0.0862,0.0192,41.6974,-0.2522,0.2277,-0.0639
5081881.0,0.0958,0.1915,41.7453,-0.257,0.2224,-0.0851
5081891.0,0.0383,0.0862,42.1092,-0.2543,0.2086,-0.0686
5081901.0,0.2011,0.1053,42.1475,-0.2703,0.2187,-0.0724
5081911.0,0.1532,0.1628,41.7261,-0.2581,0.2144,-0.075
5081921.0,0.0192,0.1915,41.6016,-0.2607,0.2065,-0.0633
5081931.0,0.2203,0.1915,41.8698,-0.2602,0.2065,-0.0569
5081941.0,0.1915,0.1628,41.7836,-0.2645,0.2176,-0.0692
5081951.0,0.1724,0.2203,41.7549,-0.2618,0.2123,-0.0612
5081961.0,0.0862,0.0958,41.8315,-0.2522,0.215,-0.0628
5081971.0,0.2586,0.1245,41.8506,-0.2581,0.2224,-0.0676
5081981.0,0.0958,0.0096,41.5921,-0.2522,0.2224,-0.0788
5081991.0,0.0,0.1915,41.8123,-0.2634,0.2155,-0.0788
5082001.0,0.2394,0.2107,42.0709,-0.2485,0.207,-0.0702
5082011.0,0.2011,0.1437,42.1284,-0.273,0.2086,-0.0639
5082021.0,0.2586,0.1245,41.8506,-0.2645,0.2123,-0.0772
5082031.0,0.3065,0.0479,41.7453,-0.2533,0.2187,-0.0617
5082041.0,0.1628,0.1245,41.9273,-0.2719,0.2112,-0.0548
5082051.0,0.2203,0.2394,41.64,-0.2634,0.2198,-0.0766
5082061.0,0.1149,0.182,41.8794,-0.2543,0.2208,-0.0766
5082071.0,0.2107,0.1149,42.0422,-0.2565,0.2017,-0.067
5082081.0,0.1437,0.2873,41.8985,-0.2543,0.2134,-0.0697
5082091.0,0.1053,0.2586,41.9943,-0.24,0.2293,-0.0596
5082101.0,0.0862,0.1724,41.7836,-0.2671,0.2144,-0.0612
5082111.0,0.1149,0.3065,41.64,-0.2634,0.2107,-0.0708
5082121.0,0.1341,0.2777,42.0039,-0.2618,0.2176,-0.058
5082131.0,-0.0192,0.0479,41.8219,-0.2751,0.2059,-0.0617
5082141.0,0.0862,0.0096,41.391,-0.2677,0.2091,-0.0766
5082151.0,-0.0192,0.1724,41.5921,-0.2661,0.1905,-0.0857
5082161.0,0.1915,0.2107,41.4771,-0.2687,0.2203,-0.075
5082171.0,0.0575,0.2107,41.9081,-0.2677,0.2107,-0.0713
5082181.0,0.1532,0.0575,42.0422,-0.2533,0.216,-0.0654
5082191.0,0.1532,0.067,42.1475,-0.2613,0.2182,-0.0575
5082201.0,0.316,0.1532,41.7645,-0.2586,0.2166,-0.0596
5082211.0,0.2394,0.1053,42.0135,-0.2528,0.2171,-0.0718
5082221.0,0.0766,0.2107,41.5633,-0.2618,0.2081,-0.0585
5082231.0,0.2777,0.2873,42.205,-0.2703,0.2192,-0.0506
5082241.0,0.2203,0.1724,42.0422,-0.2634,0.2219,-0.0718
5082251.0,0.1915,0.0766,41.5538,-0.2554,0.2123,-0.0686
5082261.0,0.1437,0.0096,41.6112,-0.2629,0.2208,-0.0676
5082271.0,0.1915,0.2873,41.6783,-0.2597,0.2192,-0.0591
5082281.0,0.1245,0.1628,41.8985,-0.2772,0.1916,-0.0788
5082291.0,0.1532,0.2107,41.9751,-0.281,0.2219,-0.0474
5082301.0,0.1532,0.0766,42.2433,-0.2549,0.223,-0.0734
5082311.0,0.2682,0.1915,42.0805,-0.2682,0.2293,-0.0591
5082321.0,0.1245,0.1437,42.0422,-0.2586,0.2166,-0.0793
5082331.0,0.1245,0.2298,41.4101,-0.2575,0.2107,-0.0756
5082341.0,0.2586,0.1149,41.8123,-0.2746,0.2075,-0.0569
5082351.0,0.1724,0.0096,41.7836,-0.2554,0.2288,-0.0617
5082361.0,0.1149,0.1341,41.9081,-0.2772,0.1948,-0.0654
5082371.0,0.1532,0.1628,41.8602,-0.2533,0.2277,-0.0654
5082381.0,0.182,-0.0192,41.8315,-0.2719,0.2107,-0.0692
5082391.0,0.1149,0.1245,41.6304,-0.2533,0.215,-0.083
5082401.0,0.3065,0.182,41.7261,-0.2639,0.2091,-0.0708
5082411.0,0.1915,0.249,41.8602,-0.2687,0.2118,-0.0724
5082421.0,0.1724,0.1915,41.8411,-0.2549,0.2176,-0.0724
5082431.0,0.0766,0.0479,41.8698,-0.2639,0.2251,-0.0623
5082441.0,0.1628,0.1053,41.7261,-0.2607,0.2219,-0.0772
5082451.0,0.1341,0.1724,41.6208,-0.2586,0.2192,-0.0601
5082461.0,-0.0192,0.1724,41.8028,-0.2575,0.207,-0.0644
5082471.0,0.1341,0.3735,41.9177,-0.2634,0.2293,-0.0745
5082481.0,0.1341,0.0,41.8315,-0.2554,0.2144,-0.0607
5082491.0,0.0958,0.0862,41.9273,-0.2528,0.2166,-0.0745
5082501.0,0.0766,0.3639,41.9943,-0.2623,0.216,-0.075
5082511.0,0.2969,0.182,42.0135,-0.2698,0.2097,-0.083
5082521.0,0.0096,0.0766,41.5346,-0.2767,0.2198,-0.0686
5082531.0,0.1532,0.182,41.6878,-0.2629,0.2304,-0.0756
5082541.0,0.1628,0.2586,41.7645,-0.2666,0.2256,-0.0623
5082551.0,0.1437,0.1628,41.9081,-0.2831,0.216,-0.0718
5082561.0,0.1437,0.182,42.0613,-0.2746,0.2235,-0.0702
5082571.0,0.1532,0.1053,41.6208,-0.257,0.2267,-0.0708
5082581.0,0.316,0.1724,42.205,-0.2629,0.2112,-0.0612
5082591.0,0.1437,0.3352,42.0326,-0.2607,0.223,-0.0665
5082601.0,0.2107,0.1915,41.6974,-0.2586,0.2176,-0.0851
5082611.0,0.1724,0.0192,41.7357,-0.2623,0.2182,-0.0665
5082621.0,0.0862,0.1053,41.8315,-0.2645,0.2065,-0.0729
5082631.0,0.1915,0.0383,41.889,-0.2724,0.2166,-0.0527
5082641.0,-0.0096,0.2682,41.8315,-0.2528,0.2421,-0.0681
5082651.0,0.0383,0.2011,41.6208,-0.2666,0.2128,-0.0766
5082661.0,0.2298,0.2873,41.6878,-0.2581,0.223,-0.0644
5082671.0,0.1437,0.1437,41.9273,-0.2645,0.2246,-0.049
5082681.0,0.2011,0.0958,41.9177,-0.2639,0.2128,-0.0692
5082691.0,0.0383,0.249,42.0326,-0.2581,0.2198,-0.0601
5082701.0,0.0958,0.182,41.8219,-0.2549,0.2256,-0.067
5082711.0,0.2682,0.249,41.6591,-0.248,0.224,-0.0702
5082721.0,0.2203,0.0766,42.0709,-0.2661,0.2219,-0.0756
5082731.0,0.1053,0.182,41.9081,-0.2682,0.2139,-0.0734
5082741.0,0.2203,0.2203,41.6878,-0.2597,0.2331,-0.0633
5082751.0,0.067,0.0096,41.889,-0.2857,0.2267,-0.0559
5082761.0,0.1628,-0.0192,41.9847,-0.2591,0.2017,-0.0803
5082771.0,0.0287,0.1915,41.8602,-0.2565,0.2182,-0.0623
5082781.0,0.1053,0.2203,41.6208,-0.2778,0.2251,-0.0686
5082791.0,0.2107,0.0575,41.6878,-0.2772,0.2075,-0.0798
5082801.0,-0.0096,0.1053,41.6208,-0.2618,0.2112,-0.0681
5082811.0,0.2203,0.1437,42.138,-0.2597,0.2357,-0.066
5082821.0,-0.0096,0.067,41.8219,-0.2575,0.215,-0.0681
5082831.0,0.1053,0.1149,41.6591,-0.2682,0.2336,-0.0692
5082841.0,0.316,0.1341,41.8794,-0.257,0.2134,-0.0569
5082851.0,0.067,0.067,41.707,-0.2437,0.2091,-0.0601
5082861.0,0.1245,0.067,41.8123,-0.2783,0.2134,-0.0654
5082871.0,0.2203,0.2873,41.5921,-0.2506,0.2182,-0.066
5082881.0,0.249,0.1724,42.0135,-0.2618,0.2171,-0.0553
5082891.0,0.1149,0.1724,41.9847,-0.2863,0.223,-0.0436
5082901.0,0.1149,0.1149,41.9177,-0.2533,0.2065,-0.0708
5082911.0,0.0383,0.0862,42.1475,-0.2639,0.2139,-0.0681
5082921.0,0.2682,0.0862,41.7932,-0.2597,0.2139,-0.0585
5082931.0,-0.0192,0.0862,41.64,-0.2751,0.2192,-0.0665
5082941.0,-0.0287,0.2777,42.0422,-0.2623,0.215,-0.0463
5082951.0,0.1053,-0.0192,41.9081,-0.2395,0.2128,-0.0702
5082961.0,0.2298,0.2586,41.5729,-0.2703,0.2049,-0.0628
5082971.0,0.2107,0.3065,41.7453,-0.257,0.2011,-0.0548
5082981.0,0.3256,-0.0096,41.6783,-0.2714,0.2171,-0.0745
5082991.0,0.0575,0.1532,41.5729,-0.2645,0.2192,-0.0734
5083001.0,0.1724,0.2586,41.8698,-0.2602,0.2214,-0.0676
5083011.0,0.2682,0.1532,42.0613,-0.2613,0.2134,-0.0702
5083021.0,0.1724,0.2203,41.7166,-0.2671,0.2198,-0.0639
5083031.0,0.1724,0.2107,41.9368,-0.2629,0.2325,-0.0665
5083041.0,0.1245,0.0862,41.8985,-0.2565,0.2198,-0.0639
5083051.0,0.1628,0.0479,41.5825,-0.2629,0.2144,-0.0681
5083061.0,0.2777,0.0287,41.7261,-0.2384,0.2277,-0.066
5083071.0,0.0862,0.1341,41.4676,-0.2586,0.2288,-0.0889
5083081.0,0.1341,0.1053,41.8411,-0.2724,0.216,-0.0681
5083091.0,0.2107,0.0575,41.8219,-0.2485,0.2288,-0.0628
5083101.0,0.1915,0.1628,41.8411,-0.2512,0.2107,-0.0569
5083111.0,0.2107,0.2969,41.9177,-0.2522,0.2155,-0.0537
5083121.0,0.1245,0.0383,41.8698,-0.2639,0.2219,-0.066
5083131.0,0.067,-0.0096,41.8028,-0.2575,0.2139,-0.0569
5083141.0,0.0766,0.2394,41.7932,-0.2575,0.2011,-0.0713
5083151.0,0.249,0.1628,42.0039,-0.2506,0.2075,-0.0745
5083161.0,0.0383,0.2777,41.64,-0.2714,0.2139,-0.0702
5083171.0,0.1341,0.1532,41.3526,-0.273,0.2086,-0.0644
5083181.0,0.0766,0.0575,41.5729,-0.2607,0.2192,-0.0788
5083191.0,0.2107,0.2298,41.9943,-0.2474,0.2049,-0.0543
5083201.0,0.1915,0.0383,41.7932,-0.2698,0.2107,-0.0702
5083211.0,0.1245,0.1245,41.7166,-0.2661,0.2182,-0.0564
5083221.0,0.1149,0.2011,41.8411,-0.2607,0.2187,-0.0681
5083231.0,-0.0096,0.2682,41.8602,-0.2629,0.224,-0.0612
5083241.0,0.0479,0.1245,41.9273,-0.2639,0.2309,-0.0649
5083251.0,0.2873,0.067,41.7357,-0.2661,0.2256,-0.074
5083261.0,0.2203,0.182,41.8411,-0.2714,0.2277,-0.0654
5083271.0,0.2682,0.2107,41.8698,-0.2623,0.2139,-0.0633
5083281.0,0.1915,0.2011,41.956,-0.2708,0.2166,-0.0617
5083291.0,0.2011,0.0383,42.138,-0.265,0.2293,-0.0734
5083301.0,0.2873,0.2394,41.6783,-0.2762,0.2331,-0.0654
5083311.0,0.2777,0.1245,41.7357,-0.2469,0.2277,-0.0713
5083321.0,0.1437,0.1437,41.7836,-0.2719,0.2166,-0.0713
5083331.0,0.182,0.1053,41.8506,-0.2421,0.2304,-0.0612
5083341.0,0.2203,0.0575,42.023,-0.2448,0.2219,-0.074
5083351.0,0.1724,0.0766,41.8985,-0.2687,0.2107,-0.0654
5083361.0,0.1532,0.0575,41.525,-0.2661,0.2097,-0.0575
5083371.0,0.1437,0.1341,41.9368,-0.2655,0.2006,-0.0607
5083381.0,0.2969,0.1437,41.7166,-0.2565,0.2123,-0.0548
5083391.0,0.2394,0.2107,41.9177,-0.2517,0.2192,-0.0596
5083401.0,0.0287,0.0575,41.3526,-0.2666,0.2203,-0.0777
5083411.0,0.3639,0.0383,41.956,-0.2623,0.2118,-0.0654
5083421.0,0.1437,0.067,41.7645,-0.2607,0.2192,-0.0665
5083431.0,0.1532,0.2394,42.138,-0.2586,0.2134,-0.0756
5083441.0,0.182,0.2394,41.6878,-0.2559,0.2166,-0.0575
5083451.0,0.067,0.0862,41.7357,-0.2618,0.2198,-0.0809
5083461.0,0.2011,0.0383,41.8985,-0.2464,0.2187,-0.0617
5083471.0,0.1149,0.2969,41.5346,-0.2692,0.2128,-0.0569
5083481.0,0.1053,-0.0575,41.8028,-0.2559,0.2224,-0.066
5083491.0,0.1724,0.0192,41.525,-0.2623,0.2166,-0.0495
5083501.0,0.0575,0.1437,41.6304,-0.2613,0.2208,-0.0713
5083511.0,0.2298,0.1341,41.7357,-0.2559,0.2214,-0.0772
5083521.0,0.2107,0.0766,41.7549,-0.2645,0.215,-0.0607
5083531.0,0.1341,-0.0479,41.7836,-0.2607,0.2198,-0.0623
5083541.0,0.067,0.067,41.707,-0.274,0.2059,-0.0612
5083551.0,0.2394,0.067,42.2433,-0.2661,0.2075,-0.0676
5083561.0,0.1341,0.0766,41.8602,-0.2528,0.224,-0.0665
5083571.0,0.249,0.067,41.6878,-0.2671,0.2187,-0.0607
5083581.0,0.1532,0.182,42.0422,-0.2623,0.2038,-0.0697
5083591.0,0.2203,0.249,41.7453,-0.2735,0.2256,-0.0851
5083601.0,0.182,0.067,41.7645,-0.2682,0.2187,-0.0623
5083611.0,0.1437,0.2394,41.5729,-0.2623,0.2043,-0.0713
5083621.0,0.1915,0.2107,41.889,-0.2692,0.2134,-0.0729
5083631.0,0.1532,0.1628,41.6878,-0.282,0.2219,-0.074
5083641.0,0.3352,0.1724,41.8411,-0.2655,0.2166,-0.0585
5083651.0,0.1149,0.1053,41.7645,-0.2629,0.1995,-0.0681
5083661.0,0.2394,0.1915,41.8506,-0.273,0.224,-0.0793
5083671.0,0.1532,0.1341,41.6783,-0.265,0.2049,-0.0793
5083681.0,0.1532,0.182,41.5825,-0.2751,0.216,-0.0766
5083691.0,0.067,0.1915,41.9847,-0.2453,0.2155,-0.058
5083701.0,0.0766,0.2777,41.7645,-0.2735,0.2033,-0.0734
5083711.0,0.0287,0.1341,41.6974,-0.2586,0.2373,-0.0654
5083721.0,0.1724,0.1053,41.7453,-0.2655,0.2081,-0.0708
5083731.0,0.1053,0.2011,42.1858,-0.2661,0.2267,-0.0665
5083741.0,0.2203,0.1341,41.64,-0.2607,0.1953,-0.0708
5083751.0,0.1915,0.2107,41.6878,-0.2543,0.2171,-0.0649
5083761.0,0.182,0.1915,41.8698,-0.2841,0.2182,-0.0676
5083771.0,0.182,0.2969,41.6591,-0.2661,0.1932,-0.0654
5083781.0,0.1532,0.1149,41.9368,-0.2565,0.2331,-0.075
5083791.0,0.2969,0.1053,41.889,-0.2703,0.2203,-0.0654
5083801.0,0.0862,0.1628,41.8506,-0.2586,0.2277,-0.0692
5083811.0,0.1149,0.1149,41.64,-0.2698,0.215,-0.075
5083821.0,0.1149,0.0958,41.9273,-0.2724,0.2166,-0.0623
5083831.0,0.0862,0.067,41.6016,-0.2655,0.2081,-0.074
5083841.0,0.249,0.1437,42.0326,-0.2623,0.2272,-0.0607
5083851.0,0.0958,0.1437,41.9273,-0.2597,0.2246,-0.0607
5083861.0,0.2873,0.2777,41.7166,-0.2533,0.2256,-0.0756
5083871.0,0.1915,0.0096,41.8602,-0.274,0.2224,-0.0761
5083881.0,0.2586,0.1437,41.6783,-0.2714,0.2091,-0.066
5083891.0,0.1724,0.182,41.8315,-0.2746,0.2166,-0.0766
5083901.0,0.2107,0.1341,41.9177,-0.2682,0.223,-0.0644
5083911.0,0.2777,0.0,41.707,-0.2634,0.241,-0.0686
5083921.0,0.1245,0.0958,41.7836,-0.2623,0.2091,-0.0543
5083931.0,0.249,0.067,41.6304,-0.2719,0.2128,-0.0729
5083941.0,0.2107,0.0862,41.7453,-0.2613,0.2155,-0.0697
5083951.0,0.2586,0.1437,41.8985,-0.2692,0.2128,-0.0766
5083961.0,0.1053,0.1149,41.4963,-0.2416,0.2123,-0.0527
5083971.0,-0.067,0.0958,41.889,-0.2543,0.2277,-0.0585
5083981.0,0.1532,0.1628,41.8219,-0.2591,0.215,-0.0628
5083991.0,0.2586,0.1437,41.6687,-0.2602,0.2166,-0.0617
5084001.0,0.0766,0.2011,41.707,-0.2863,0.2134,-0.0639
5084011.0,0.2011,0.1053,41.7166,-0.2831,0.2357,-0.0681
5084021.0,0.1149,0.2873,41.5921,-0.274,0.2224,-0.0905
5084031.0,-0.0479,0.2011,41.7549,-0.2661,0.2112,-0.0681
5084041.0,0.1341,0.1053,41.7645,-0.2613,0.2049,-0.0697
5084051.0,0.1532,0.1149,41.7549,-0.2528,0.224,-0.075
5084061.0,0.0958,0.1437,41.7932,-0.2677,0.2277,-0.0745
5084071.0,0.1437,0.1341,41.6591,-0.2767,0.2102,-0.0628
5084081.0,0.0192,0.1341,41.7932,-0.282,0.2166,-0.0628
5084091.0,0.0096,0.1437,41.707,-0.2607,0.2176,-0.083
5084101.0,0.2682,0.1437,41.9464,-0.2618,0.2224,-0.0713
5084111.0,0.182,0.1532,41.7932,-0.2677,0.2144,-0.0713
5084121.0,-0.0192,0.1053,41.7261,-0.2522,0.2192,-0.0623
5084131.0,0.2298,0.1341,41.9943,-0.2724,0.2251,-0.066
5084141.0,0.067,0.1437,42.023,-0.2559,0.2256,-0.0718
5084151.0,0.1053,0.2203,41.7166,-0.2655,0.2128,-0.0718
5084161.0,-0.067,0.1532,41.7932,-0.2575,0.2123,-0.0851
5084171.0,0.1532,0.1341,41.6112,-0.2671,0.2219,-0.0596
5084181.0,0.0287,0.1915,41.774,-0.2666,0.2267,-0.0633
5084191.0,0.1628,0.067,41.8985,-0.2591,0.2102,-0.0857
5084201.0,0.182,0.1532,41.8602,-0.2645,0.2134,-0.067
5084211.0,0.1915,0.1437,42.0996,-0.2645,0.2144,-0.0633
5084221.0,0.0575,0.0192,41.7453,-0.2575,0.2283,-0.0729
5084231.0,0.2203,0.1724,41.6208,-0.2517,0.2081,-0.0564
5084241.0,0.1628,0.2394,41.9656,-0.2873,0.2118,-0.0708
5084251.0,0.0192,0.2394,41.7645,-0.2565,0.2203,-0.066
5084261.0,0.2011,0.1532,41.6495,-0.274,0.2235,-0.0676
5084271.0,0.2011,0.1245,41.8985,-0.2751,0.2097,-0.0692
5084281.0,0.1724,0.0575,41.7261,-0.2634,0.2128,-0.0745
5084291.0,0.1724,0.1628,41.6304,-0.2597,0.2192,-0.0569
5084301.0,0.1532,0.067,41.6878,-0.2533,0.2049,-0.0654
5084311.0,0.1149,0.1245,41.774,-0.2698,0.224,-0.0601
5084321.0,0.1149,0.1245,41.6591,-0.2549,0.2134,-0.0692
5084331.0,0.1532,0.1341,41.8315,-0.2698,0.2299,-0.0915
5084341.0,0.0958,0.1149,42.0326,-0.2634,0.2134,-0.0628
5084351.0,0.2298,0.1053,41.956,-0.2661,0.2224,-0.0569
5084361.0,0.0958,0.1437,42.0613,-0.2687,0.2112,-0.0537
5084371.0,0.1532,0.182,42.0709,-0.2799,0.2267,-0.0612
5084381.0,0.0479,0.1341,41.525,-0.2379,0.1932,-0.075
5084391.0,0.0862,0.0958,41.9081,-0.2591,0.2102,-0.0623
5084401.0,0.1915,0.0192,41.9368,-0.2719,0.2171,-0.0745
5084411.0,0.1341,0.2203,41.8219,-0.2565,0.2022,-0.074
5084421.0,0.0192,0.1724,41.5538,-0.2645,0.2081,-0.0681
5084431.0,0.182,0.2011,41.7357,-0.2575,0.2224,-0.0665
5084441.0,0.0575,0.2873,41.9751,-0.2474,0.2075,-0.0708
5084451.0,0.1532,0.0575,41.8219,-0.2645,0.2097,-0.0686
5084461.0,0.0287,0.2777,42.0805,-0.2724,0.2081,-0.0569
5084471.0,0.1245,0.3256,41.774,-0.2618,0.2272,-0.0708
5084481.0,0.0479,0.0862,41.8698,-0.2634,0.2235,-0.0633
5084491.0,0.1245,0.1245,41.8698,-0.2724,0.2091,-0.058
5084501.0,0.1724,0.182,41.9847,-0.2714,0.2176,-0.0718
5084511.0,0.1053,0.0862,41.7166,-0.2645,0.224,-0.0543
5084521.0,0.1915,0.0096,41.8411,-0.2565,0.215,-0.0697
5084531.0,0.182,0.1437,41.8506,-0.2671,0.2139,-0.0729
5084541.0,0.1053,0.0862,41.7932,-0.2602,0.2091,-0.0772
5084551.0,0.067,0.1053,41.774,-0.2586,0.224,-0.0569
5084561.0,0.1149,0.2107,41.8315,-0.2591,0.216,-0.0548
5084571.0,0.2777,0.1149,41.8411,-0.2682,0.2112,-0.0644
5084581.0,0.2203,0.2107,41.5059,-0.2501,0.223,-0.0761
5084591.0,0.1628,0.2777,42.0326,-0.2714,0.223,-0.0617
5084601.0,0.1245,0.249,41.8219,-0.2565,0.2256,-0.0479
5084611.0,0.1724,0.1915,41.9656,-0.257,0.2187,-0.0665
5084621.0,0.1628,0.2394,42.0135,-0.2655,0.216,-0.0564
5084631.0,0.1053,0.182,41.4197,-0.2634,0.2336,-0.0772
5084641.0,0.1245,-0.0479,41.9368,-0.2692,0.2006,-0.0761
5084651.0,0.1053,0.0479,41.9656,-0.2639,0.2235,-0.0628
5084661.0,0.0766,0.2969,41.774,-0.2661,0.2033,-0.0766
5084671.0,0.2586,0.0287,41.7261,-0.2607,0.224,-0.0575
5084681.0,0.1724,0.1437,42.1284,-0.2559,0.2224,-0.0612
5084691.0,0.0192,0.1245,42.1763,-0.2698,0.2155,-0.0702
5084701.0,0.249,0.2203,41.5538,-0.2586,0.2128,-0.0601
5084711.0,0.2203,0.0575,42.0709,-0.2687,0.2128,-0.0553
5084721.0,0.2873,0.1245,42.0901,-0.2714,0.2288,-0.0633
5084731.0,0.1245,0.0862,41.7357,-0.2661,0.2208,-0.0761
5084741.0,0.0766,0.067,41.6783,-0.2522,0.2261,-0.0564
5084751.0,0.182,0.182,41.889,-0.2565,0.2224,-0.0607
5084761.0,0.2011,0.1341,42.2816,-0.2703,0.224,-0.0617
5084771.0,0.3831,0.1724,41.8411,-0.2607,0.2176,-0.0772
5084781.0,0.1149,0.2394,41.9273,-0.257,0.2155,-0.0734
5084791.0,0.1053,0.316,42.0613,-0.2634,0.2011,-0.067
5084801.0,0.2394,-0.0479,41.9368,-0.2597,0.2097,-0.0724
5084811.0,0.1053,0.182,41.8123,-0.265,0.2054,-0.0654
5084821.0,0.067,0.1724,41.8985,-0.265,0.2139,-0.0654
5084831.0,0.0958,0.2873,41.889,-0.2485,0.2341,-0.0724
5084841.0,0.2011,0.0862,41.8411,-0.2623,0.2224,-0.0766
5084851.0,0.1724,0.0862,41.9081,-0.2613,0.2086,-0.0825
5084861.0,0.2586,0.0958,41.8123,-0.2554,0.2251,-0.0633
5084871.0,0.0958,0.2011,41.8315,-0.257,0.2166,-0.0596
5084881.0,0.0479,0.249,41.956,-0.2687,0.2187,-0.0665
5084891.0,0.2107,0.2586,41.8411,-0.2783,0.2299,-0.0559
5084901.0,0.2011,0.3256,41.5729,-0.2522,0.2166,-0.075
5084911.0,0.1532,0.1341,42.0039,-0.2645,0.2139,-0.058
5084921.0,0.1724,0.2011,41.6783,-0.2607,0.2219,-0.0521
5084931.0,0.1628,0.2394,41.889,-0.2645,0.2272,-0.0612
5084941.0,0.0575,0.1341,41.9177,-0.2554,0.2182,-0.0697
5084951.0,0.2969,0.1724,41.7166,-0.2682,0.2219,-0.0676
5084961.0,0.2298,0.182,41.7453,-0.2794,0.1985,-0.0708
5084971.0,0.0192,0.1628,41.7357,-0.2708,0.2123,-0.0633
5084981.0,0.0862,-0.0287,41.889,-0.2804,0.2022,-0.0575
5084991.0,0.0096,0.1341,41.9081,-0.2543,0.2144,-0.0729
5085001.0,0.1053,0.1628,41.9464,-0.2629,0.2075,-0.0569
5085011.0,0.2394,0.1341,41.7357,-0.2559,0.2182,-0.0607
5085021.0,0.182,0.1053,41.8028,-0.2645,0.2118,-0.0681
5085031.0,0.1149,0.1915,41.9751,-0.2623,0.2033,-0.0607
5085041.0,0.0287,0.0192,41.5921,-0.2581,0.2198,-0.0527
5085051.0,0.1437,0.1532,41.889,-0.2543,0.2192,-0.0819
5085061.0,0.3352,0.1149,41.7645,-0.2607,0.2022,-0.0495
5085071.0,-0.1053,0.0192,41.707,-0.2682,0.2059,-0.0644
5085081.0,0.1245,0.2394,42.0039,-0.265,0.2219,-0.0644
5085091.0,0.2394,0.0862,41.7549,-0.2634,0.2219,-0.0601
5085101.0,0.0479,0.0192,41.8506,-0.274,0.2214,-0.0692
5085111.0,0.0383,0.0192,41.7453,-0.2671,0.2272,-0.066
5085121.0,0.2011,0.1053,41.7645,-0.2522,0.2198,-0.0564
5085131.0,0.1532,0.182,41.8411,-0.2645,0.2272,-0.067
5085141.0,-0.0287,0.1437,41.9273,-0.2607,0.2049,-0.0585
5085151.0,0.1532,-0.0287,41.956,-0.2639,0.2081,-0.0654
5085161.0,0.3065,0.1341,41.7932,-0.2794,0.2134,-0.0702
5085171.0,0.1437,0.1628,41.7453,-0.2363,0.216,-0.0607
5085181.0,0.2298,0.0287,41.6783,-0.2559,0.2054,-0.0729
5085191.0,0.0862,0.0,41.7932,-0.2671,0.2027,-0.0633
5085201.0,0.2107,0.2298,41.8028,-0.2719,0.2219,-0.0649
5085211.0,0.1532,0.1149,41.4197,-0.2724,0.2059,-0.0559
5085221.0,0.2107,0.1437,41.7357,-0.2714,0.2102,-0.0601
5085231.0,0.2682,0.0479,41.64,-0.2607,0.2336,-0.0686
5085241.0,0.1053,0.0096,41.8698,-0.2586,0.2112,-0.0692
5085251.0,0.1437,0.3065,41.9081,-0.265,0.2198,-0.0692
5085261.0,0.1053,0.0479,41.8028,-0.2724,0.2166,-0.0692
5085271.0,0.2011,0.0958,41.8315,-0.2543,0.2256,-0.0644
5085281.0,0.0096,0.2682,41.9081,-0.2778,0.2224,-0.0623
5085291.0,0.1532,0.0,41.9751,-0.2597,0.2059,-0.0729
5085301.0,0.1532,0.1437,41.8315,-0.2645,0.2192,-0.0623
5085311.0,0.1341,0.2394,41.8506,-0.2618,0.2155,-0.0585
5085321.0,0.0383,0.1245,42.0613,-0.2618,0.2304,-0.0686
5085331.0,0.2203,0.0479,41.956,-0.2629,0.2198,-0.0591
5085341.0,0.0096,0.1053,41.64,-0.2597,0.223,-0.0601
5085351.0,0.0575,0.1532,41.6591,-0.2613,0.2171,-0.0601
5085361.0,-0.0192,0.1149,42.0326,-0.2708,0.2176,-0.0601
5085371.0,0.2394,0.0958,41.9273,-0.2751,0.224,-0.0708
5085381.0,0.1915,0.1437,41.5155,-0.2581,0.2171,-0.067
5085391.0,0.0862,0.0575,41.5921,-0.2575,0.2283,-0.0676
5085401.0,0.1437,0.182,41.6783,-0.2554,0.2198,-0.0761
5085411.0,0.1245,0.0862,41.8506,-0.2767,0.2336,-0.0681
5085421.0,0.0287,0.067,41.3143,-0.2517,0.2256,-0.0633
5085431.0,0.182,0.2777,41.8411,-0.2682,0.2219,-0.0756
5085441.0,0.1245,0.2394,41.6208,-0.2634,0.2219,-0.0532
5085451.0,0.2394,0.3352,41.7645,-0.2639,0.2144,-0.058
5085461.0,0.0,0.1628,41.7261,-0.2607,0.2198,-0.0734
5085471.0,0.0287,0.2011,41.9081,-0.2533,0.2182,-0.0644
5085481.0,0.0575,0.2298,42.0709,-0.2708,0.2272,-0.066
5085491.0,0.1724,0.1628,41.7549,-0.2682,0.2171,-0.0644
5085501.0,0.067,0.1245,41.6974,-0.2575,0.2128,-0.0639
5085511.0,0.2203,0.2011,42.2337,-0.2831,0.2208,-0.0697
5085521.0,-0.0479,0.2011,41.8698,-0.2634,0.223,-0.0623
5085531.0,0.1341,0.0862,41.6974,-0.2661,0.223,-0.0756
5085541.0,0.1532,0.2011,41.8315,-0.273,0.2065,-0.0724
5085551.0,0.0,0.2011,41.7836,-0.2618,0.2139,-0.0601
5085561.0,0.0,0.0766,41.6687,-0.2645,0.2198,-0.075
5085571.0,0.067,0.0479,41.6687,-0.2639,0.2118,-0.0734
5085581.0,0.1437,0.0862,41.7836,-0.2666,0.2176,-0.0825
5085591.0,0.0958,0.2586,41.6783,-0.2677,0.2107,-0.0686
5085601.0,-0.0575,0.2107,42.023,-0.2677,0.2123,-0.0676
5085611.0,0.0383,0.0575,41.9751,-0.2841,0.2171,-0.0585
5085621.0,0.1149,0.2777,41.8794,-0.2533,0.2155,-0.0766
5085631.0,0.2777,0.0479,41.7836,-0.265,0.2081,-0.058
5085641.0,0.1724,0.1341,41.7836,-0.2575,0.2219,-0.074
5085651.0,0.0766,0.249,41.5729,-0.2724,0.2187,-0.0718
5085661.0,0.1341,0.2203,41.774,-0.2538,0.2182,-0.0734
5085671.0,0.182,0.1724,41.9368,-0.2661,0.2139,-0.0883
5085681.0,0.0,0.0766,42.1954,-0.2549,0.2203,-0.0681
5085691.0,0.1724,0.249,41.7932,-0.2559,0.2192,-0.0564
5085701.0,0.2203,0.1149,41.8698,-0.274,0.2054,-0.0575
5085711.0,0.1341,0.0287,41.8123,-0.2671,0.2176,-0.0628
5085721.0,0.1437,0.0862,41.8315,-0.2613,0.2112,-0.0596
5085731.0,0.2969,0.249,41.9464,-0.2703,0.2192,-0.0681
5085741.0,0.2586,0.1437,41.7453,-0.2613,0.2086,-0.067
5085751.0,0.1628,0.2394,41.5825,-0.2554,0.2203,-0.0644
5085761.0,0.1053,0.0862,41.7645,-0.2671,0.2198,-0.0607
5085771.0,-0.0862,0.249,42.1284,-0.2661,0.2256,-0.0623
5085781.0,0.0,0.0287,41.6687,-0.2634,0.2187,-0.0612
5085791.0,0.1724,0.0862,41.7932,-0.2677,0.2112,-0.0676
5085801.0,0.067,0.0862,41.5825,-0.2522,0.2219,-0.0569
5085811.0,0.1341,0.1341,41.9081,-0.2581,0.2166,-0.0692
5085821.0,0.1341,0.1341,42.0613,-0.2512,0.2192,-0.0793
5085831.0,0.249,0.2682,42.0901,-0.2714,0.2192,-0.0676
5085841.0,0.1532,0.0766,41.6783,-0.2613,0.2203,-0.0686
5085851.0,0.2586,0.1341,41.5921,-0.2538,0.2235,-0.0543
5085861.0,0.0575,-0.0096,41.8698,-0.2607,0.2144,-0.0633
5085871.0,0.1149,0.1724,41.8698,-0.2772,0.2288,-0.0649
5085881.0,0.3065,0.1915,41.7836,-0.2655,0.2224,-0.0591
5085891.0,0.0383,0.2011,42.0518,-0.2746,0.2144,-0.0713
5085901.0,0.2203,0.1724,41.6783,-0.2677,0.2315,-0.0697
5085911.0,0.1724,0.2203,42.0901,-0.2597,0.2304,-0.067
5085921.0,0.0958,0.249,41.9273,-0.2543,0.2134,-0.0756
5085931.0,-0.0192,-0.0192,41.8315,-0.2661,0.2341,-0.0649
5085941.0,0.2107,0.1628,41.7836,-0.273,0.2235,-0.075
5085951.0,-0.0479,0.0479,41.8506,-0.2708,0.2198,-0.0649
5085961.0,0.1245,0.182,41.9081,-0.2559,0.2251,-0.0724
5085971.0,0.0575,0.2394,41.6495,-0.2575,0.2182,-0.0617
5085981.0,0.0192,0.2873,41.6112,-0.2554,0.2182,-0.0718
5085991.0,0.1915,0.2011,41.6687,-0.2565,0.2208,-0.0628
5086001.0,0.2298,0.2203,41.9656,-0.248,0.2081,-0.0676
5086011.0,0.182,0.0479,41.5729,-0.2591,0.215,-0.0702
5086021.0,0.1053,0.2011,41.7357,-0.2623,0.2203,-0.0644
5086031.0,0.0096,0.2298,41.6783,-0.2666,0.2357,-0.066
5086041.0,0.1341,0.1245,41.6687,-0.248,0.2049,-0.0468
5086051.0,0.3065,0.067,41.7453,-0.2666,0.2224,-0.0612
5086061.0,0.0575,0.2394,41.8506,-0.2442,0.2166,-0.0686
5086071.0,0.2969,0.1149,41.7645,-0.2623,0.216,-0.058
5086081.0,0.249,0.067,41.8794,-0.2692,0.2309,-0.0628
5086091.0,0.2203,0.2107,41.8315,-0.2639,0.2208,-0.0644
5086101.0,0.2107,-0.067,41.8602,-0.2607,0.2128,-0.0601
5086111.0,0.1724,0.249,41.6591,-0.2528,0.2261,-0.0702
5086121.0,0.0287,0.0192,41.956,-0.2575,0.2198,-0.0777
5086131.0,0.2107,0.0958,41.956,-0.2671,0.2118,-0.0756
5086141.0,0.1532,0.0096,41.9656,-0.2559,0.2235,-0.0708
5086151.0,0.1149,0.1724,41.7836,-0.2565,0.2235,-0.0713
5086161.0,0.0958,0.2011,41.8698,-0.273,0.2277,-0.0676
5086171.0,0.0479,0.2298,41.5729,-0.2591,0.2155,-0.0639
5086181.0,0.0383,0.1149,41.6208,-0.2661,0.2166,-0.0612
5086191.0,0.0766,0.2394,42.1858,-0.281,0.2171,-0.0718
5086201.0,0.1149,0.1437,41.5825,-0.2687,0.2283,-0.0639
5086211.0,0.2107,0.0862,42.205,-0.2618,0.2139,-0.0654
5086221.0,0.0766,-0.1245,41.707,-0.2655,0.2134,-0.0777
5086231.0,0.3065,0.1149,41.7836,-0.2826,0.2171,-0.0596
5086241.0,0.0,0.1532,41.6974,-0.2591,0.2251,-0.0676
5086251.0,0.067,0.1532,41.9656,-0.2698,0.1995,-0.0511
5086261.0,0.1437,0.2011,41.8123,-0.2671,0.2368,-0.0729
5086271.0,0.1532,0.1532,41.9464,-0.2586,0.2097,-0.0553
5086281.0,0.2777,0.1915,41.8123,-0.274,0.2043,-0.0676
5086291.0,0.182,0.1532,42.0326,-0.273,0.2017,-0.0569
5086301.0,0.1341,0.0,41.6878,-0.2538,0.2038,-0.0686
5086311.0,0.0862,0.067,41.8315,-0.2629,0.2118,-0.067
5086321.0,0.1915,0.0862,41.7261,-0.2586,0.2123,-0.0772
5086331.0,0.1053,0.2777,41.8411,-0.2575,0.2368,-0.0697
5086341.0,0.0862,0.182,41.7645,-0.2586,0.2134,-0.0708
5086351.0,0.1053,0.1437,41.8219,-0.2565,0.2033,-0.0601
5086361.0,0.1341,0.0766,41.8315,-0.2639,0.2261,-0.0681
5086371.0,0.067,0.1341,41.6878,-0.2618,0.2097,-0.0665
5086381.0,0.1053,0.0862,41.6974,-0.2543,0.2081,-0.0729
5086391.0,0.067,0.1149,41.7166,-0.2591,0.2251,-0.0766
5086401.0,0.1724,0.2011,41.64,-0.2565,0.2214,-0.0681
5086411.0,0.1341,0.1915,41.64,-0.2607,0.223,-0.0654
5086421.0,0.182,0.2682,41.8698,-0.2836,0.223,-0.0708
5086431.0,0.249,0.1628,41.9847,-0.2597,0.2128,-0.067
5086441.0,0.0862,0.1437,42.0709,-0.2719,0.2182,-0.067
5086451.0,0.2011,0.1245,41.8123,-0.2666,0.2246,-0.0718
5086461.0,0.3352,-0.0383,41.8123,-0.2788,0.2118,-0.0612
5086471.0,0.1245,0.182,41.8123,-0.2708,0.2246,-0.0692
5086481.0,0.2011,0.1149,41.6783,-0.2613,0.2293,-0.0899
5086491.0,0.0479,0.1245,41.8506,-0.2474,0.2171,-0.0654
5086501.0,0.2394,0.2011,42.1188,-0.2623,0.2203,-0.0617
5086511.0,0.1149,0.2298,41.8602,-0.2655,0.2347,-0.0633
5086521.0,0.1724,0.1341,41.956,-0.274,0.2049,-0.0596
5086531.0,0.1053,0.0862,41.5921,-0.2692,0.2299,-0.0708
5086541.0,0.1341,0.2586,41.6208,-0.2634,0.1974,-0.0713
5086551.0,0.1149,0.0096,41.8028,-0.2815,0.223,-0.0702
5086561.0,0.2011,0.1628,41.8602,-0.265,0.2272,-0.0628
5086571.0,0.0096,0.2394,41.525,-0.2575,0.2208,-0.0639
5086581.0,0.1532,0.0383,41.7261,-0.2565,0.2198,-0.0724
5086591.0,0.0479,0.1053,41.8123,-0.2474,0.2214,-0.0814
5086601.0,0.2011,0.1628,41.5921,-0.2751,0.2123,-0.0692
5086611.0,0.1915,0.2203,41.707,-0.265,0.2192,-0.0665
5086621.0,0.0862,0.2107,42.0039,-0.2522,0.215,-0.0724
5086631.0,0.0766,0.1915,41.9656,-0.2602,0.2182,-0.0724
5086641.0,0.0575,0.2203,41.6974,-0.2655,0.1995,-0.0607
5086651.0,-0.0096,0.1245,41.6112,-0.2613,0.216,-0.0564
5086661.0,0.1915,0.2298,41.7645,-0.2687,0.2182,-0.0639
5086671.0,0.0192,0.1053,41.9464,-0.2815,0.2139,-0.0649
5086681.0,0.1628,0.2203,42.0518,-0.2756,0.2192,-0.0745
5086691.0,0.0766,0.1628,41.9177,-0.2522,0.2086,-0.0788
5086701.0,-0.0192,0.1724,41.956,-0.2708,0.2224,-0.0591
5086711.0,0.182,0.249,41.8506,-0.2517,0.2123,-0.0623
5086721.0,0.182,0.067,41.9273,-0.2586,0.2128,-0.0702
5086731.0,0.0766,0.1915,41.8602,-0.2751,0.2182,-0.0692
5086741.0,0.1437,0.1245,41.8698,-0.2671,0.2107,-0.0702
5086751.0,0.2011,0.1915,41.8315,-0.2575,0.2155,-0.0692
5086761.0,0.1532,0.0287,41.5346,-0.2735,0.2341,-0.067
5086771.0,0.0575,0.0096,41.774,-0.2506,0.2155,-0.0665
5086781.0,0.0862,0.1437,42.0422,-0.2788,0.2091,-0.0644
5086791.0,0.0766,0.249,41.9273,-0.2852,0.215,-0.058
5086801.0,0.1149,0.1341,41.9368,-0.2762,0.2075,-0.0548
5086811.0,0.2969,0.2586,41.9273,-0.2581,0.2309,-0.0575
5086821.0,0.0383,0.0383,41.6687,-0.2533,0.2001,-0.0564
5086831.0,0.2203,0.182,41.9368,-0.248,0.2293,-0.0601
5086841.0,0.2969,0.1724,41.9943,-0.2708,0.2176,-0.0686
5086851.0,-0.0287,0.0575,42.1284,-0.2698,0.2081,-0.058
5086861.0,0.2969,0.1341,41.7357,-0.2426,0.2033,-0.0521
5086871.0,0.1053,0.2011,41.6974,-0.2618,0.2182,-0.0516
5086881.0,0.0862,0.2203,41.8219,-0.2692,0.2331,-0.0697
5086891.0,0.249,0.2011,41.9464,-0.2831,0.2176,-0.075
5086901.0,0.1532,0.182,41.8985,-0.2549,0.2176,-0.0745
5086911.0,0.2873,0.0479,41.6974,-0.2692,0.2049,-0.0724
5086921.0,0.067,0.0575,41.9751,-0.2671,0.2038,-0.0559
5086931.0,0.2203,0.3448,41.8985,-0.2602,0.2118,-0.0702
5086941.0,0.1149,0.2203,42.0039,-0.2629,0.2118,-0.0761
5086951.0,0.1053,0.1437,41.8506,-0.2565,0.2267,-0.0559
5086961.0,0.0958,0.2394,41.889,-0.2703,0.2123,-0.0506
5086971.0,0.1628,0.1149,41.8315,-0.2778,0.2022,-0.066
5086981.0,0.2586,0.0479,41.5538,-0.2703,0.2144,-0.0564
5086991.0,0.1053,0.4022,41.7453,-0.2698,0.2075,-0.0734
5087001.0,0.1053,0.2682,41.9751,-0.2607,0.223,-0.0697
5087011.0,0.1149,0.1724,41.7645,-0.2639,0.2267,-0.074
5087021.0,0.0287,0.0479,41.4005,-0.2655,0.215,-0.067
5087031.0,0.1149,0.1915,41.8698,-0.2528,0.2134,-0.0708
5087041.0,0.1053,0.1053,41.9177,-0.2607,0.2187,-0.0665
5087051.0,0.182,0.0575,41.8794,-0.281,0.2176,-0.0819
5087061.0,0.0096,0.1053,41.7549,-0.2602,0.2097,-0.0617
5087071.0,0.1245,0.0287,41.9081,-0.2692,0.2182,-0.0575
5087081.0,0.2394,0.2107,41.956,-0.2719,0.2187,-0.0692
5087091.0,0.2203,0.182,41.9751,-0.2682,0.2224,-0.074
5087101.0,0.0958,0.1149,42.0039,-0.2543,0.2097,-0.0686
5087111.0,0.0383,0.2203,41.4101,-0.2533,0.2123,-0.0575
5087121.0,0.0862,0.2969,42.0709,-0.2671,0.2288,-0.0718
5087131.0,0.1532,0.2969,41.9847,-0.265,0.2224,-0.0623
5087141.0,0.0287,0.0479,41.9081,-0.2528,0.2272,-0.0649
5087151.0,0.067,0.1341,41.889,-0.2528,0.2267,-0.0644
5087161.0,0.1437,0.2011,41.7357,-0.2501,0.2203,-0.0702
5087171.0,0.2298,0.1341,41.9464,-0.2629,0.2118,-0.0569
5087181.0,0.3926,0.2298,41.6974,-0.2597,0.2102,-0.0665
5087191.0,0.1245,0.1341,41.8028,-0.2703,0.2043,-0.0607
5087201.0,0.0479,0.0383,41.7549,-0.2613,0.2182,-0.0713
5087211.0,0.0766,0.249,41.64,-0.2575,0.2363,-0.0708
5087221.0,0.182,0.1341,42.0805,-0.2464,0.2176,-0.0623
5087231.0,0.1628,0.0192,41.889,-0.2533,0.232,-0.0649
5087241.0,0.2586,0.1628,41.8028,-0.2671,0.2182,-0.0633
5087251.0,0.2011,0.0766,41.5921,-0.2559,0.215,-0.075
5087261.0,0.1341,0.0,41.8411,-0.2629,0.2214,-0.0553
5087271.0,0.1053,0.3448,41.6208,-0.2629,0.2219,-0.0745
5087281.0,0.0958,0.2203,41.7932,-0.2714,0.2027,-0.0607
5087291.0,0.2107,0.0766,41.8315,-0.2586,0.2315,-0.0702
5087301.0,0.2203,0.0479,42.0039,-0.2575,0.2246,-0.0702
5087311.0,0.0958,0.2586,41.9081,-0.2719,0.2075,-0.0692
5087321.0,0.0479,0.2394,41.9273,-0.2586,0.2107,-0.0639
5087331.0,0.0479,0.1245,42.0518,-0.2671,0.2059,-0.0756
5087341.0,0.1341,0.1437,42.1763,-0.2575,0.2139,-0.0686
5087351.0,0.1437,0.0958,41.64,-0.2559,0.2214,-0.067
5087361.0,0.1245,0.1532,41.8602,-0.2581,0.2198,-0.0686
5087371.0,0.1149,0.249,41.8219,-0.2666,0.2198,-0.0724
5087381.0,0.0862,0.0766,41.8506,-0.2687,0.2246,-0.0692
5087391.0,0.1724,0.0958,41.8794,-0.2671,0.2043,-0.0628
5087401.0,0.3735,0.1053,41.8123,-0.2618,0.215,-0.0623
5087411.0,0.2682,0.2586,41.9847,-0.2607,0.2235,-0.0654
5087421.0,-0.0192,0.3065,41.8028,-0.2586,0.2043,-0.0718
5087431.0,0.2011,0.1341,42.0039,-0.2666,0.2054,-0.0772
5087441.0,0.1245,0.1341,41.4963,-0.2719,0.2331,-0.0633
5087451.0,0.067,0.0575,41.7453,-0.2528,0.2128,-0.074
5087461.0,0.0862,0.2011,41.9081,-0.2474,0.2219,-0.0745
5087471.0,0.2107,0.1053,41.8985,-0.2708,0.2123,-0.0724
5087481.0,0.2873,0.0766,41.8219,-0.2634,0.2352,-0.0777
5087491.0,0.1245,0.0862,41.4867,-0.2623,0.2049,-0.0623
5087501.0,0.0192,0.1245,41.9656,-0.2687,0.2107,-0.0585
5087511.0,0.1437,0.1437,41.7932,-0.2618,0.2081,-0.0734
5087521.0,0.1341,0.2298,41.8794,-0.2788,0.2214,-0.0825
5087531.0,0.2969,0.1724,41.8602,-0.257,0.2102,-0.0724
5087541.0,0.2586,0.2011,41.6878,-0.2597,0.2166,-0.0569
5087551.0,0.2107,0.2011,42.0518,-0.2586,0.2128,-0.0607
5087561.0,0.1724,0.1341,41.8602,-0.2602,0.2224,-0.0649
5087571.0,0.1532,0.0479,41.6495,-0.2762,0.2139,-0.0756
5087581.0,0.3065,0.0575,41.6495,-0.2756,0.2081,-0.0527
5087591.0,0.0,0.1532,41.9751,-0.2581,0.2144,-0.0628
5087601.0,0.2107,0.0287,41.8123,-0.2554,0.2363,-0.0559
5087611.0,0.1341,0.1053,41.6495,-0.2597,0.2054,-0.0745
5087621.0,0.1341,0.1437,41.9751,-0.2581,0.2203,-0.0543
5087631.0,0.0862,0.182,41.5825,-0.2645,0.2235,-0.0724
5087641.0,0.1915,0.249,41.8123,-0.2639,0.2107,-0.0761
5087651.0,0.2777,0.2203,41.64,-0.2634,0.2293,-0.0772
5087661.0,0.1915,0.0287,41.8506,-0.2586,0.2187,-0.0665
5087671.0,0.2011,0.2394,41.6304,-0.2528,0.2315,-0.0718
5087681.0,0.1437,0.1053,41.8028,-0.257,0.2033,-0.0607
5087691.0,0.182,0.1149,41.7357,-0.2618,0.2027,-0.0686
5087701.0,0.0862,0.1437,42.0135,-0.2458,0.2107,-0.0623
5087711.0,0.1053,0.0766,41.7261,-0.2687,0.215,-0.0697
5087721.0,0.3065,0.1628,41.9847,-0.2575,0.223,-0.0559
5087731.0,0.249,0.182,42.0901,-0.2666,0.2176,-0.0788
5087741.0,0.1149,0.0862,41.7166,-0.2762,0.216,-0.0628
5087751.0,0.1437,0.067,41.7357,-0.2554,0.2224,-0.0676
5087761.0,0.1532,0.1437,41.5825,-0.2597,0.2198,-0.0601
5087771.0,0.1532,0.249,41.6208,-0.2671,0.2134,-0.0612
5087781.0,0.0575,0.2682,41.7645,-0.2554,0.2261,-0.0713
5087791.0,0.0958,0.1245,41.9368,-0.2522,0.232,-0.0639
5087801.0,0.2682,0.0287,41.5346,-0.2661,0.2293,-0.0612
5087811.0,0.1341,0.2203,41.8506,-0.2778,0.2081,-0.0585
5087821.0,0.182,0.0479,42.1092,-0.2671,0.2081,-0.0835
5087831.0,0.1915,0.2777,41.9656,-0.2602,0.2086,-0.0575
5087841.0,0.1341,0.0766,42.0709,-0.2517,0.2144,-0.0585
5087851.0,0.0862,-0.1628,41.7645,-0.2692,0.2235,-0.0814
5087861.0,0.2011,0.1532,41.8028,-0.2687,0.2107,-0.0756
5087871.0,0.1915,0.1437,42.138,-0.2543,0.2065,-0.0692
5087881.0,0.0383,0.0766,41.889,-0.2613,0.2033,-0.0649
5087891.0,0.0,0.2011,41.774,-0.2645,0.224,-0.0734
5087901.0,0.1245,0.1915,41.774,-0.2597,0.2182,-0.0798
5087911.0,0.1053,0.1245,41.8794,-0.2714,0.2112,-0.0623
5087921.0,0.1245,-0.0287,41.7357,-0.2714,0.2363,-0.0601
5087931.0,0.1915,0.2107,41.707,-0.2703,0.2261,-0.0665
5087941.0,0.1628,0.0862,41.774,-0.2629,0.2315,-0.0692
5087951.0,0.0766,0.1149,41.956,-0.2746,0.2081,-0.0692
5087961.0,0.067,0.2394,41.707,-0.257,0.2331,-0.0585
5087971.0,0.0958,0.1628,42.0518,-0.2634,0.2198,-0.0575
5087981.0,0.2107,0.1341,41.9081,-0.2618,0.216,-0.0692
5087991.0,0.2203,0.0575,41.8506,-0.2698,0.2293,-0.058
5088001.0,0.0862,0.3256,41.5729,-0.2671,0.215,-0.0564
5088011.0,0.0383,0.0383,41.7836,-0.2618,0.2128,-0.0803
5088021.0,0.1053,0.1245,41.6016,-0.2698,0.2118,-0.0772
5088031.0,0.1532,0.1628,41.7836,-0.2501,0.2112,-0.0734
5088041.0,0.1341,0.1245,41.5729,-0.2671,0.224,-0.0607
5088051.0,0.0766,0.2107,42.0135,-0.2559,0.2315,-0.0729
5088061.0,0.2777,0.0479,41.6591,-0.2591,0.2011,-0.0697
5088071.0,0.1915,0.1149,41.8315,-0.2565,0.223,-0.0591
5088081.0,-0.0192,0.1628,41.8794,-0.2543,0.2299,-0.0649
5088091.0,0.0575,0.1724,41.889,-0.2629,0.2038,-0.0649
5088101.0,0.1532,0.182,41.6112,-0.2586,0.2224,-0.0681
5088111.0,0.2682,0.2969,41.7932,-0.2687,0.2091,-0.0745
5088121.0,0.3065,0.2298,41.6687,-0.2623,0.2187,-0.0665
5088131.0,0.1149,0.0575,42.0518,-0.2778,0.2182,-0.0825
5088141.0,0.2298,0.2394,41.889,-0.2677,0.2091,-0.066
5088151.0,0.1724,0.2203,41.9081,-0.274,0.2033,-0.0718
5088161.0,0.1628,0.2969,41.5155,-0.2607,0.2347,-0.0708
5088171.0,0.2777,0.1724,41.774,-0.2661,0.216,-0.0745
5088181.0,0.0096,0.0862,41.5729,-0.2618,0.2144,-0.0633
5088191.0,0.1532,0.2873,41.5538,-0.2666,0.2336,-0.0527
5088201.0,0.182,0.0958,41.7549,-0.2565,0.2049,-0.0697
5088211.0,0.2586,0.0,41.9081,-0.2634,0.2139,-0.0532
5088221.0,0.0287,0.067,41.9847,-0.273,0.2166,-0.0575
5088231.0,0.249,0.249,41.5059,-0.2666,0.2187,-0.0825
5088241.0,0.1053,0.1724,41.6783,-0.2575,0.2123,-0.0654
5088251.0,0.1053,0.0479,41.9273,-0.2575,0.2192,-0.0686
5088261.0,0.3448,0.316,42.205,-0.2932,0.2251,-0.0612
5088271.0,0.1915,0.3256,41.7261,-0.2602,0.2272,-0.058
5088281.0,0.182,0.0766,41.7549,-0.2687,0.216,-0.0777
5088291.0,0.1915,0.0958,41.8602,-0.2549,0.2043,-0.0649
5088301.0,0.1437,0.1245,41.7645,-0.2549,0.2198,-0.0585
5088311.0,0.2107,0.067,41.9847,-0.2714,0.2155,-0.0516
5088321.0,0.2203,0.0958,41.7261,-0.2655,0.2214,-0.0585
5088331.0,0.2107,0.2107,41.9273,-0.2671,0.241,-0.0601
5088341.0,0.1628,0.0862,41.6687,-0.2772,0.2299,-0.0766
5088351.0,0.067,0.0287,42.0135,-0.2618,0.2107,-0.0718
5088361.0,0.1053,0.1149,41.9081,-0.2554,0.2214,-0.0713
5088371.0,0.1149,0.1149,42.0422,-0.2554,0.2059,-0.0665
5088381.0,0.1437,0.1532,42.0135,-0.2634,0.2192,-0.0543
5088391.0,0.0192,0.1149,41.8794,-0.2597,0.2299,-0.0724
5088401.0,0.1532,0.182,41.6591,-0.2512,0.2139,-0.0564
5088411.0,0.2107,0.0766,42.0326,-0.2474,0.2208,-0.0809
5088421.0,0.1245,0.0766,41.7836,-0.2698,0.2331,-0.0665
5088431.0,0.316,0.1724,41.9368,-0.2554,0.2144,-0.075
5088441.0,0.2203,0.067,42.0039,-0.2762,0.2065,-0.0596
5088451.0,0.0383,0.3926,42.1188,-0.2602,0.2097,-0.0596
5088461.0,0.1628,0.1724,41.8219,-0.265,0.2299,-0.0692
5088471.0,0.1532,0.1245,41.8698,-0.2485,0.1985,-0.0697
5088481.0,0.2107,0.182,41.8985,-0.265,0.2187,-0.0553
5088491.0,0.1149,0.182,41.6495,-0.2634,0.2049,-0.0644
5088501.0,0.0958,0.0287,41.6591,-0.2506,0.2203,-0.0654
5088511.0,0.0958,0.2682,41.7836,-0.2783,0.2171,-0.0591
5088521.0,0.182,0.1053,41.707,-0.2496,0.2033,-0.0756
5088531.0,0.067,0.1149,42.1571,-0.2767,0.2176,-0.0756
5088541.0,0.1437,0.1149,41.9081,-0.2645,0.207,-0.0713
5088551.0,0.1915,0.0862,41.9943,-0.2671,0.216,-0.0825
5088561.0,0.1245,0.1245,41.8028,-0.2591,0.2118,-0.0654
5088571.0,0.1724,0.1532,41.8411,-0.2639,0.2075,-0.0617
5088581.0,0.1532,0.0958,42.272,-0.2762,0.216,-0.0575
5088591.0,0.0,0.249,41.8506,-0.2602,0.2288,-0.0724
5088601.0,0.0766,0.1341,41.8219,-0.2682,0.2011,-0.0782
5088611.0,0.0958,0.1628,41.9464,-0.265,0.191,-0.0676
5088621.0,0.249,0.2011,41.8985,-0.2724,0.2128,-0.0734
5088631.0,0.1437,0.3926,41.9368,-0.2517,0.2325,-0.066
5088641.0,0.1532,0.2394,41.889,-0.2666,0.2033,-0.0697
5088651.0,0.0958,0.0958,41.9368,-0.2677,0.2134,-0.0654
5088661.0,0.1532,0.067,42.0805,-0.2581,0.2128,-0.0596
5088671.0,0.2777,0.1341,41.956,-0.2756,0.2091,-0.0756
5088681.0,0.0479,0.2298,41.8698,-0.2517,0.2293,-0.0686
5088691.0,0.2011,0.0958,41.8315,-0.2629,0.2144,-0.0724
5088701.0,0.2107,0.249,41.525,-0.2618,0.2214,-0.0612
5088711.0,0.1341,0.1724,41.7357,-0.2762,0.2198,-0.0607
5088721.0,0.182,0.1628,41.8698,-0.2613,0.2235,-0.074
5088731.0,0.0479,0.2203,42.0326,-0.2687,0.2155,-0.0617
5088741.0,0.067,0.2011,42.0135,-0.2586,0.2134,-0.0527
5088751.0,0.2777,0.1341,41.8794,-0.2613,0.2357,-0.0766
5088761.0,0.2011,0.1724,41.9177,-0.2847,0.2214,-0.0718
5088771.0,0.0958,0.1915,41.7932,-0.2735,0.2166,-0.0628
5088781.0,0.1149,0.1532,41.8602,-0.2714,0.2027,-0.0766
5088791.0,0.0383,0.2969,41.8219,-0.2661,0.2246,-0.0628
5088801.0,0.2298,0.1245,41.956,-0.2554,0.224,-0.0697
5088811.0,0.1915,-0.1149,41.4484,-0.2575,0.2176,-0.0654
5088821.0,0.1915,0.2682,41.7453,-0.2714,0.2331,-0.0617
5088831.0,0.182,0.0958,42.0613,-0.2639,0.2081,-0.0607
5088841.0,0.182,0.3352,42.0039,-0.2671,0.2219,-0.0676
5088851.0,0.0287,0.182,41.889,-0.2687,0.2251,-0.0644
5088861.0,0.0766,0.0096,41.8698,-0.2597,0.2139,-0.0537
5088871.0,0.2011,0.1628,41.707,-0.2485,0.2123,-0.0676
5088881.0,0.1341,0.2107,41.8411,-0.2746,0.215,-0.0681
5088891.0,0.2394,0.1915,41.6687,-0.2655,0.2134,-0.0803
5088901.0,0.067,0.1053,42.0135,-0.2586,0.2182,-0.074
5088911.0,0.0,-0.0096,41.8028,-0.2735,0.2235,-0.0676
5088921.0,0.1245,0.1437,41.707,-0.273,0.2065,-0.0665
5088931.0,0.1915,0.1245,41.8794,-0.2543,0.207,-0.0569
5088941.0,0.2873,0.1628,41.8315,-0.257,0.2022,-0.0617
5088951.0,0.0096,0.1724,41.7166,-0.2639,0.2416,-0.0708
5088961.0,0.1628,0.067,41.64,-0.257,0.2309,-0.0676
5088971.0,0.2394,0.2777,41.8315,-0.2517,0.2315,-0.058
5088981.0,0.067,0.0958,41.6495,-0.2395,0.2112,-0.0569
5088991.0,0.1341,0.2682,41.8698,-0.257,0.2203,-0.0718
5089001.0,0.1724,0.1341,41.7549,-0.2762,0.215,-0.0729
5089011.0,0.0287,0.0192,42.023,-0.274,0.2288,-0.0756
5089021.0,0.067,0.1628,41.7357,-0.2783,0.2235,-0.0782
5089031.0,0.3352,0.1053,42.2912,-0.2735,0.2325,-0.0617
5089041.0,0.0766,0.0479,41.8602,-0.2826,0.2214,-0.0697
5089051.0,0.1628,0.0766,41.5825,-0.2586,0.2347,-0.0607
5089061.0,0.0,0.1245,42.1475,-0.2666,0.2187,-0.0596
5089071.0,0.2969,0.067,41.8794,-0.248,0.2256,-0.0692
5089081.0,0.0287,0.2011,41.8028,-0.2692,0.2118,-0.0601
5089091.0,0.249,0.2107,41.9177,-0.2629,0.2235,-0.0649
5089101.0,0.0766,0.1053,42.0518,-0.2554,0.2389,-0.0686
5089111.0,0.1341,0.249,41.9751,-0.2522,0.216,-0.0819
5089121.0,0.2107,0.2107,41.8698,-0.257,0.2352,-0.0676
5089131.0,0.1724,0.1341,41.9177,-0.2506,0.2224,-0.0702
5089141.0,0.0862,0.2777,41.8411,-0.257,0.2208,-0.0697
5089151.0,0.067,0.3448,42.0613,-0.2655,0.2107,-0.0639
5089161.0,0.1628,0.1149,41.458,-0.2554,0.2261,-0.0681
5089171.0,0.182,0.2969,41.889,-0.2607,0.2315,-0.0639
5089181.0,0.0,0.1341,41.9464,-0.2692,0.2214,-0.0692
