time_ms,ax,ay,az,gx,gy,gz
519611.0,3.3423,-16.8169,37.8858,-0.0686,-0.6832,-0.307
519621.0,3.7541,-16.9797,37.6847,-0.016,-0.6561,-0.3406
519631.0,3.9361,-16.9126,37.4836,0.0101,-0.6476,-0.3837
519641.0,4.1946,-16.6924,36.7366,0.0048,-0.6763,-0.4496
519651.0,4.3,-16.4721,36.1333,-0.0458,-0.6641,-0.4997
519661.0,4.5107,-16.2901,35.8556,-0.0995,-0.6811,-0.5284
519671.0,4.6543,-15.4474,34.85,-0.1415,-0.6385,-0.5667
519681.0,4.6064,-15.3325,34.0743,-0.2102,-0.4943,-0.5683
519691.0,4.8171,-14.7866,33.4518,-0.1846,-0.3214,-0.5433
519701.0,4.8076,-14.2694,32.6378,-0.1559,-0.0601,-0.4842
519711.0,4.8267,-14.2886,32.6665,-0.0649,0.2426,-0.3964
519721.0,4.9608,-13.8289,32.791,0.0138,0.5624,-0.323
519731.0,4.8363,-13.4746,33.0687,0.0319,0.7684,-0.2315
519741.0,4.8746,-13.2735,33.0113,0.0319,0.9541,-0.1091
519751.0,4.7788,-13.1585,33.854,-0.0021,1.0562,0.0149
519761.0,4.8076,-13.398,33.7966,-0.0255,1.1414,0.1054
519771.0,4.865,-13.7044,34.3807,-0.0101,1.1871,0.2043
519781.0,4.9129,-13.963,34.2945,0.0064,1.2382,0.273
519791.0,4.367,-14.2407,34.1892,0.1543,1.3659,0.3421
519801.0,4.0031,-14.777,34.6585,0.6039,1.5708,0.4725
519811.0,4.367,-15.1505,34.5244,1.1052,1.9129,0.5518
519821.0,3.9073,-15.706,33.9785,1.467,2.3275,0.621
519831.0,3.9361,-15.7538,34.6776,1.6644,2.6957,0.5997
519841.0,3.8307,-15.7347,36.0854,1.7608,2.9112,0.5779
519851.0,3.2465,-15.7155,37.2825,1.6442,2.9947,0.5177
519861.0,2.8635,-15.5527,38.0774,1.3468,2.9405,0.4464
519871.0,2.5379,-15.5623,38.5083,0.9094,2.9287,0.3656
519881.0,2.1452,-15.9741,39.6192,0.4395,2.8867,0.2597
519891.0,2.1644,-16.0986,41.525,0.0601,2.8558,0.1458
519901.0,1.6759,-16.338,43.8905,-0.2985,2.6547,0.0181
519911.0,0.8811,-16.1561,46.1219,-0.4315,2.2157,-0.074
519921.0,0.9385,-15.5815,46.505,-0.3272,1.6841,-0.0697
519931.0,1.4365,-15.1409,45.6814,-0.4289,1.4229,-0.0756
519941.0,0.3831,-15.0164,45.5473,-0.4959,0.8695,-0.0947
519951.0,1.0343,-14.6525,44.4938,-0.5662,0.6024,-0.0394
519961.0,1.1971,-14.1449,42.1475,-0.6923,0.4427,-0.0069
519971.0,1.3408,-13.9247,40.6631,-0.9504,0.2607,0.0032
519981.0,1.6855,-13.6469,39.3798,-1.2143,0.1916,0.0325
519991.0,1.8579,-13.4554,38.3551,-1.4197,0.1149,0.0926
520001.0,2.0877,-13.2735,36.3919,-1.8283,0.05,0.1383
520011.0,2.2027,-13.3884,35.4821,-2.0561,0.141,0.2128
520021.0,2.5953,-13.3596,33.6625,-2.3237,0.2448,0.29
520031.0,2.9305,-13.4554,31.5747,-2.6834,0.2985,0.3406
520041.0,3.1125,-13.2064,29.6115,-3.1294,0.3741,0.389
520051.0,4.6543,-13.4937,27.2747,-3.4007,0.837,0.4518
520061.0,3.8499,-13.4554,26.9683,-3.272,1.3798,0.5193
520071.0,3.7637,-11.9997,25.7425,-3.0554,1.7783,0.6976
520081.0,3.7828,-10.9367,24.373,-3.1043,2.3706,0.9248
520091.0,2.5857,-9.8737,23.4823,-2.8553,2.7148,1.2526
520101.0,2.49,-9.1363,22.2852,-2.9777,3.214,1.5766
520111.0,1.7909,-7.6902,20.4178,-2.7984,3.8647,1.9662
520121.0,0.9002,-6.3303,18.6843,-3.0432,4.6948,2.4211
520131.0,-1.4078,-5.4588,19.1632,-2.8303,5.6122,2.9713
520141.0,-2.5474,-5.2289,19.5846,-2.6664,6.5535,3.5801
520151.0,-4.6831,-5.5737,21.6244,-2.0864,7.672,4.2005
520161.0,-6.1962,-5.3247,24.5645,-1.5293,8.7932,4.8076
520171.0,-7.2209,-4.9225,28.1271,-0.6093,9.636,5.4345
520181.0,-10.1035,-4.4436,33.7104,0.2091,10.3038,6.114
520191.0,-11.2336,-4.7214,38.5179,1.3393,10.7167,6.8488
520201.0,-12.0189,-5.6982,44.4364,2.552,10.9626,7.4804
520211.0,-14.6908,-6.7325,49.5887,3.7003,11.0413,8.0487
520221.0,-16.9318,-10.4483,56.2829,4.8816,10.9019,8.5048
520231.0,-17.0659,-14.1258,62.0673,5.7883,10.381,8.5569
520241.0,-17.3532,-15.591,67.7846,6.4066,9.6169,8.2861
520251.0,-19.3739,-14.9207,71.7782,6.4018,8.5457,7.8923
520261.0,-21.2509,-12.7276,74.9672,6.0203,7.5007,7.5203
520271.0,-23.8558,-9.8354,78.4508,5.2344,6.1975,7.2974
520281.0,-26.6044,-7.9009,78.4508,4.3474,4.4905,7.2213
520291.0,-28.3378,-6.6846,78.4508,3.388,3.0559,7.1846
520301.0,-31.3736,-6.7995,78.4508,2.9138,1.6724,7.3001
520311.0,-34.5052,-8.7436,78.4508,2.8372,0.0766,7.5108
520321.0,-35.2905,-11.789,78.4508,2.9926,-1.5623,7.5666
520331.0,-35.7406,-14.7387,78.4508,3.2374,-3.3821,7.424
520341.0,-36.4014,-15.6964,78.4508,3.1304,-5.2099,7.1026
520351.0,-36.3631,-17.1904,78.4508,2.9394,-7.0271,6.6966
520361.0,-36.8611,-18.6939,78.4508,2.7218,-8.5973,6.2316
520371.0,-37.5028,-20.2454,78.4508,2.9346,-10.2735,5.7915
520381.0,-37.5124,-19.8144,78.4508,2.9729,-12.1391,5.3286
520391.0,-38.221,-18.397,78.4508,2.6105,-14.3234,4.9369
520401.0,-38.1348,-17.9852,75.743,2.1125,-16.4056,4.6209
520411.0,-36.4398,-19.2302,65.7831,1.6889,-17.4363,4.2787
520421.0,-34.3903,-20.6284,57.9876,1.3324,-17.4363,3.7684
520431.0,-32.1493,-21.4904,51.5328,0.8051,-17.4363,3.0628
520441.0,-30.3681,-21.2988,47.2615,0.1862,-17.4363,2.2556
520451.0,-28.6921,-20.7338,42.9903,-0.2618,-17.4363,1.4117
520461.0,-26.3075,-19.6229,38.2593,-0.8551,-17.4363,0.5465
520471.0,-24.6124,-17.9565,33.4901,-1.5676,-17.4363,-0.2432
520481.0,-23.4728,-17.3149,32.0248,-1.7091,-17.4363,-0.9227
520491.0,-21.3563,-15.8017,29.3433,-1.326,-17.4363,-1.4037
520501.0,-20.6955,-14.4322,27.1215,-1.0717,-17.4363,-1.7554
520511.0,-19.7378,-14.3173,24.8614,-0.8024,-17.4363,-2.0247
520521.0,-16.3093,-14.6429,22.563,-0.224,-17.4363,-2.2668
520531.0,-14.279,-14.4418,19.9293,-0.0255,-17.4363,-2.6164
520541.0,-12.4307,-13.7044,17.1425,0.0357,-17.4363,-2.9985
520551.0,-10.5058,-13.2064,14.5567,-0.2038,-17.4363,-3.3363
520561.0,-8.1499,-13.1011,13.1202,-0.4608,-17.0962,-3.729
520571.0,-6.7421,-12.2583,11.1187,-1.1105,-16.8046,-4.1702
520581.0,-4.7214,-11.2144,9.7396,-1.839,-16.4503,-4.6006
520591.0,-2.2027,-10.2376,8.9352,-2.4105,-15.8703,-5.0242
520601.0,-1.4174,-8.9447,8.4467,-2.7569,-15.3514,-5.385
520611.0,-0.3352,-7.5369,8.2169,-2.949,-14.8736,-5.6516
520621.0,1.3024,-6.2824,7.5657,-2.9452,-14.2819,-5.8144
520631.0,1.6759,-4.5298,5.3726,-3.2629,-13.8195,-5.8793
520641.0,3.1508,-4.0893,4.7214,-3.5503,-13.2672,-5.8006
520651.0,6.6272,-5.1332,4.6543,-3.6146,-12.4126,-5.7862
520661.0,9.4044,-5.8323,4.2713,-3.5816,-11.7528,-5.9841
520671.0,10.3046,-4.7118,2.5762,-3.6194,-11.135,-6.1938
520681.0,12.22,-3.5147,2.4038,-3.4295,-10.2251,-6.3023
520691.0,14.4706,-2.2314,1.9728,-3.0942,-9.3231,-6.3784
520701.0,15.0356,0.2298,-0.0958,-2.9697,-8.6894,-6.2981
520711.0,17.832,1.2067,-0.9098,-2.6989,-7.7295,-6.1315
520721.0,18.8567,3.3327,-3.4668,-2.7191,-6.7429,-5.8916
520731.0,20.3507,5.0374,-5.0566,-3.2374,-6.0576,-5.6255
520741.0,22.3044,5.9376,-7.4124,-3.5715,-4.706,-5.1626
520751.0,23.3578,6.1483,-8.418,-3.8637,-3.2219,-4.6602
520761.0,24.507,6.3494,-8.6191,-4.0919,-1.7682,-4.1606
520771.0,26.3171,5.1906,-9.6534,-3.9829,0.0979,-3.5524
520781.0,26.5756,4.2904,-9.5481,-3.8195,2.1503,-3.1038
520791.0,27.1215,3.8499,-9.8545,-3.5859,4.1483,-2.7521
520801.0,26.2213,3.371,-8.916,-3.4002,6.3109,-2.3317
520811.0,25.9819,2.806,-7.853,-2.9234,8.4803,-1.9188
520821.0,25.3211,1.8675,-6.6463,-2.6297,10.4049,-1.608
520831.0,24.2485,1.7909,-5.7174,-2.7021,12.1162,-1.4191
520841.0,22.5055,1.743,-4.8746,-3.04,13.6875,-1.2521
520851.0,19.7761,2.806,-2.8252,-3.555,15.0684,-0.9844
520861.0,15.9454,2.2122,-0.814,-4.0478,16.1736,-0.506
520871.0,13.8098,0.4405,-0.5363,-3.9573,17.4357,0.0362
520881.0,9.7013,-2.5474,1.2929,-3.4816,17.4357,0.5438
520891.0,6.5697,-6.5122,4.0414,-2.3312,17.4357,0.8673
520901.0,3.4381,-10.0269,6.7612,-0.4778,17.4357,0.861
520911.0,-0.8906,-13.2256,10.4579,1.6203,17.4357,0.4816
520921.0,-5.8993,-15.0643,15.3325,4.1287,17.4357,-0.1149
520931.0,-10.6207,-14.279,18.9812,6.2725,17.4357,-0.9748
520941.0,-14.8632,-12.3732,22.6683,7.3852,17.4357,-1.8778
520951.0,-21.0402,-9.9695,29.1901,8.4739,17.4357,-2.676
520961.0,-25.7903,-6.5218,36.9761,9.147,17.4357,-3.4656
520971.0,-27.0641,-1.1396,47.75,9.8723,17.4357,-4.0366
520981.0,-33.107,4.3096,63.3697,10.1921,17.4357,-4.5033
520991.0,-36.6409,10.6303,78.4508,9.7164,17.4357,-4.6666
521001.0,-35.2426,15.6868,78.4508,9.0587,17.4357,-4.6267
521011.0,-35.2522,19.326,78.4508,8.4872,17.4357,-4.424
521021.0,-34.8404,21.8543,78.4508,7.6789,17.4357,-4.1808
521031.0,-33.7199,24.2676,78.4508,4.8545,14.142,-4.1494
521041.0,-33.0591,21.5191,78.4508,1.3122,9.3082,-4.2952
521051.0,-33.0304,17.9565,78.4508,-1.0094,5.1679,-4.4905
521061.0,-34.0743,13.9821,78.4508,-3.1783,1.0238,-4.8071
521071.0,-34.0455,8.1882,78.4508,-4.3303,-2.4009,-5.1945
521081.0,-32.4366,5.0182,78.4508,-4.6262,-5.2935,-5.7037
521091.0,-30.0807,5.4588,78.4508,-4.3777,-7.1388,-6.2124
521101.0,-29.305,9.1937,78.4508,-4.2218,-9.1614,-6.4226
521111.0,-28.0122,10.8505,78.4508,-4.0941,-11.4287,-6.338
521121.0,-26.3745,10.0652,78.4508,-3.7578,-13.4098,-6.082
521131.0,-24.4304,7.106,78.4508,-3.331,-15.3749,-5.9155
521141.0,-22.3523,5.3917,78.4508,-3.6514,-17.1016,-6.0288
521151.0,-21.8543,2.9401,76.9592,-4.1563,-17.4363,-6.222
521161.0,-20.7242,-0.6225,71.4813,-3.9148,-17.4363,-6.4375
521171.0,-18.014,-2.3559,63.2644,-3.8929,-17.4363,-6.8605
521181.0,-16.3955,-3.6775,57.0012,-4.1755,-17.4363,-7.3527
521191.0,-14.6717,-5.8802,53.7067,-3.4428,-17.4363,-7.7401
521201.0,-11.8944,-5.8802,46.1602,-3.041,-17.4363,-8.2642
521211.0,-9.347,-4.0223,39.1596,-3.1586,-17.4363,-8.8645
521221.0,-8.4563,-0.9002,35.0032,-3.2869,-17.4363,-9.2572
521231.0,-7.3167,1.5514,31.7663,-2.866,-17.4363,-9.412
521241.0,-5.0661,5.047,25.369,-2.6568,-17.4363,-9.3439
521251.0,-3.6488,7.2113,21.0977,-2.6366,-17.4363,-9.13
521261.0,-1.3024,8.5425,17.4968,-2.6201,-16.6184,-8.7985
521271.0,1.6568,8.9064,16.3763,-2.0119,-15.1439,-8.3648
521281.0,3.735,9.2416,16.0699,-1.2973,-13.6391,-7.9061
521291.0,6.0525,10.1514,14.3748,-0.6875,-12.4302,-7.4384
521301.0,7.7668,11.4156,12.7084,-0.605,-11.2531,-6.9739
521311.0,9.3661,12.2104,12.4307,-0.7466,-10.1921,-6.4865
521321.0,10.1418,12.1721,13.3213,-0.7136,-9.1981,-5.9857
521331.0,11.8082,12.7276,12.967,-0.3884,-8.0631,-5.4877
521341.0,12.5265,13.8193,12.8521,-0.2879,-7.0196,-5.0418
521351.0,12.1434,14.9207,13.6948,-0.2214,-6.1672,-4.4756
521361.0,12.9095,15.6581,14.4035,0.0883,-5.3977,-3.8243
521371.0,13.9534,15.9741,15.8113,0.3783,-4.4336,-3.2241
521381.0,13.5703,16.6253,15.84,0.6077,-3.9962,-2.502
521391.0,15.2654,15.6102,16.2614,0.5449,-3.5194,-1.8933
521401.0,15.8017,14.7483,16.0507,0.4544,-3.1416,-1.3691
521411.0,15.9837,13.7714,16.8935,0.3145,-2.8527,-0.9546
521421.0,16.3285,12.967,16.5679,0.2501,-2.5313,-0.5571
521431.0,16.5296,11.7507,16.1752,0.1506,-2.3658,-0.24
521441.0,16.9605,10.7643,15.6198,0.1006,-2.0774,-0.0298
521451.0,17.0371,10.5058,14.2886,0.0074,-1.7485,0.1139
521461.0,17.6884,10.4962,13.3596,-0.332,-1.4484,0.1985
521471.0,17.7554,11.0133,12.5552,-0.6721,-1.0328,0.3012
521481.0,18.0044,11.6071,12.6701,-0.9578,-0.7146,0.4773
521491.0,18.5694,12.3158,11.9327,-1.2239,-0.3427,0.7024
521501.0,18.3109,13.1873,11.5017,-1.6373,-0.0213,0.9674
521511.0,18.4737,14.0779,11.1857,-2.2439,0.2214,1.2914
521521.0,18.3779,14.528,11.2336,-2.6664,0.5534,1.7443
521531.0,18.7705,13.8576,11.406,-2.7303,1.0222,2.2977
521541.0,18.4162,12.785,10.8122,-2.8255,1.4479,2.8489
521551.0,18.3109,11.3581,9.8354,-2.7106,2.0258,3.3816
521561.0,18.0427,9.8162,8.9926,-2.4036,2.925,3.8536
521571.0,17.4489,8.0541,8.0924,-2.0843,3.9845,4.2101
521581.0,16.5391,6.5122,7.2401,-1.9103,5.1689,4.3835
521591.0,15.3995,5.7652,7.2496,-1.7847,6.4508,4.4559
521601.0,13.8864,6.1675,8.2456,-1.856,7.482,4.457
521611.0,13.3501,7.6231,9.5193,-1.9986,8.4978,4.5283
521621.0,11.3964,9.2416,12.4211,-2.1742,9.2705,4.755
521631.0,9.845,10.6494,14.2982,-2.2631,9.6743,5.1695
521641.0,9.0692,10.8888,16.2327,-2.5643,10.1229,5.6617
521651.0,7.2496,9.912,18.014,-2.8564,10.2682,6.1565
521661.0,5.5067,8.8394,18.0714,-3.555,10.1378,6.5663
521671.0,3.7158,6.5697,19.0291,-4.1718,10.1777,6.9201
521681.0,3.0167,5.2194,18.6365,-4.7784,10.5241,7.2559
521691.0,0.7566,3.4381,21.069,-5.0098,11.0099,7.6257
521701.0,-0.4501,2.9497,22.1512,-4.7166,11.9103,8.1472
521711.0,-2.3463,1.7047,25.4168,-4.3676,13.0703,8.8192
521721.0,-3.2657,-0.4022,30.2531,-3.5135,14.1803,9.4716
521731.0,-4.6543,-2.375,34.7638,-2.8553,15.0173,9.9473
521741.0,-6.2824,-4.1659,40.2417,-2.46,15.2738,10.2416
521751.0,-6.5314,-4.7022,44.2736,-2.6414,14.7459,10.3246
521761.0,-7.0868,-4.051,45.7771,-3.273,13.7689,10.2799
521771.0,-11.0612,-2.3846,45.2887,-4.2516,13.272,10.4305
521781.0,-15.1792,-4.7501,50.939,-3.3677,13.472,11.1398
521791.0,-12.402,-6.359,50.939,-1.9763,13.9126,11.7315
521801.0,-13.9247,-7.0581,49.7802,-1.5782,14.5921,12.0992
521811.0,-16.0795,-7.9775,53.6588,-1.7927,15.1423,12.3301
521821.0,-17.0084,-8.2361,59.0314,-1.6442,15.3706,12.569
521831.0,-18.9429,-7.2688,64.8924,-1.168,15.3866,12.8186
521841.0,-22.9939,-4.1276,68.0049,-0.9269,14.9657,13.1395
521851.0,-28.6059,-5.0757,71.5866,-0.9184,14.4612,13.7083
521861.0,-31.9099,-11.157,75.7238,-0.9237,14.3442,14.1569
521871.0,-33.04,-21.2797,78.4508,0.2772,14.292,14.1537
521881.0,-31.977,-26.6523,78.4508,1.4042,13.33,13.4731
521891.0,-32.1015,-26.1351,78.4508,1.8374,11.1749,12.5366
521901.0,-32.6952,-23.8654,78.4508,1.7437,8.319,11.7533
521911.0,-31.9578,-20.9445,78.4508,1.5383,5.8181,11.168
521921.0,-33.0879,-17.6309,78.4508,0.8205,3.8653,10.7157
521931.0,-34.6297,-18.1385,78.4508,-0.1751,2.0098,10.3778
521941.0,-35.4629,-19.8144,78.4508,-1.0397,-0.0186,10.0128
521951.0,-36.8516,-23.8846,78.4508,-1.4883,-2.4557,9.5557
521961.0,-36.2578,-26.9491,78.4508,-1.7091,-5.3993,8.9214
521971.0,-36.7749,-29.5444,78.4508,-1.8464,-8.5659,8.1429
521981.0,-37.5602,-30.8182,78.4508,-1.6245,-11.8757,7.4001
521991.0,-36.6313,-31.2587,78.4508,-1.1643,-14.5389,6.6674
522001.0,-35.6353,-31.1438,78.4508,-0.8759,-16.4157,5.9267
522011.0,-34.8117,-30.4159,78.4508,-0.9035,-17.4363,5.1322
522021.0,-33.8157,-29.4678,74.1149,-1.1371,-17.4363,4.3596
522031.0,-32.1398,-28.9411,66.1949,-1.0541,-17.4363,3.6545
522041.0,-30.6171,-28.3282,58.8399,-0.8296,-17.4363,2.983
522051.0,-28.7113,-27.9739,52.1936,-0.5656,-17.4363,2.3626
522061.0,-27.1119,-27.4471,46.8497,-0.4294,-17.4363,1.6932
522071.0,-25.12,-26.9108,41.5059,-0.2719,-17.4363,1.0233
522081.0,-23.6739,-25.618,35.7023,-0.3927,-17.4363,0.3017
522091.0,-22.0171,-24.4687,31.0097,-0.7237,-17.4363,-0.4406
522101.0,-19.9293,-22.8886,26.9874,-1.0036,-17.4363,-1.1616
522111.0,-17.7937,-21.4425,23.6547,-1.1957,-17.4363,-1.8049
522121.0,-16.6636,-18.7705,18.2725,-1.5139,-17.4363,-2.4158
522131.0,-16.1273,-17.1712,15.9645,-2.154,-17.4363,-2.9442
522141.0,-13.0723,-15.8879,12.8808,-2.8771,-17.4363,-3.4481
522151.0,-10.5153,-14.4993,8.7245,-3.214,-17.4363,-4.0057
522161.0,-8.7819,-13.5991,7.604,-3.5487,-17.4363,-4.5778
522171.0,-6.8091,-10.6686,4.6256,-3.6498,-17.4363,-5.029
522181.0,-5.9568,-8.5138,3.1795,-3.6317,-17.4363,-5.3158
522191.0,-4.1372,-5.8419,0.747,-3.4939,-17.4363,-5.4722
522201.0,-3.0071,-3.3902,-1.6185,-3.3528,-17.0893,-5.4722
522211.0,-1.9345,-2.4421,-3.7062,-3.0149,-16.2566,-5.3626
522221.0,0.316,-0.814,-7.173,-2.9165,-15.5217,-5.1716
522231.0,1.9441,0.1628,-10.0078,-2.9777,-14.6693,-4.9875
522241.0,4.6256,0.4501,-11.9902,-3.0575,-13.4268,-4.805
522251.0,6.4739,1.0343,-14.2216,-3.2619,-12.3381,-4.5969
522261.0,8.0062,1.1971,-14.71,-3.0921,-10.8237,-4.3777
522271.0,11.6646,1.7238,-16.9126,-3.1698,-9.4035,-4.2117
522281.0,12.3158,2.3367,-16.9797,-2.9516,-7.8125,-4.052
522291.0,12.9861,4.0223,-17.9278,-2.8883,-6.2922,-3.8073
522301.0,14.3556,5.0278,-17.3723,-2.6137,-4.7528,-3.4449
522311.0,17.8129,4.4245,-17.4394,-2.1492,-2.9362,-3.0144
522321.0,18.1385,5.1427,-17.8799,-1.3542,-1.0062,-2.5541
522331.0,19.0578,4.6256,-17.5351,-1.1616,0.7604,-2.1614
522341.0,21.2414,4.4245,-17.7267,-0.8115,2.7835,-1.7757
522351.0,21.5478,3.4093,-15.7443,-0.5475,4.9428,-1.3553
522361.0,22.0458,2.241,-13.9438,-0.605,6.8701,-1.1137
522371.0,21.4042,2.0877,-12.0189,-0.828,8.5835,-0.9094
522381.0,21.0594,2.2218,-8.7819,-1.3851,10.2511,-0.6768
522391.0,20.3316,2.2984,-5.2002,-2.2524,11.6597,-0.3852
522401.0,18.7897,2.3655,-1.4078,-2.924,12.8511,0.0059
522411.0,19.144,0.929,3.8403,-3.4965,13.7966,0.4411
522421.0,18.33,-0.2107,8.2648,-3.8557,14.648,0.9115
522431.0,15.7538,-2.8922,13.7331,-3.67,15.3679,1.4197
522441.0,14.0396,-6.6272,16.9414,-3.2927,15.9953,1.9401
522451.0,13.3405,-12.9095,20.1304,-2.7021,16.6642,2.1742
522461.0,12.4594,-19.6899,21.8926,-2.511,17.4357,1.9369
522471.0,13.0532,-26.6139,26.9396,-2.693,17.4357,1.1456
522481.0,12.8617,-30.3968,34.0551,-2.6409,17.4357,-0.0239
522491.0,11.7507,-31.8046,43.1148,-2.5174,17.4357,-1.2568
522501.0,11.1857,-29.5732,53.6493,-2.262,17.4357,-2.3312
522511.0,10.4291,-26.9683,63.6091,-1.938,17.2277,-3.1363
522521.0,9.7205,-24.3442,67.5739,-1.4479,15.3993,-3.5694
522531.0,11.0325,-23.5398,67.7942,-1.3037,13.9387,-3.9605
522541.0,11.5209,-22.6204,67.325,-1.2537,13.0873,-4.3394
522551.0,10.2568,-22.4385,67.3441,-1.4612,12.4679,-4.6352
522561.0,9.9982,-23.5494,70.016,-1.682,12.1582,-4.9284
522571.0,9.347,-25.7712,74.6225,-2.1173,11.8768,-5.4047
522581.0,8.2648,-27.7344,78.4508,-2.4169,11.2717,-6.057
522591.0,7.3358,-27.6674,78.4508,-2.6074,9.9234,-6.8382
522601.0,6.5122,-26.4224,78.4508,-2.0508,8.0498,-7.4597
522611.0,5.4779,-23.4057,78.4508,-0.9849,5.791,-7.854
522621.0,6.3398,-19.4888,78.4508,0.2155,3.9328,-8.1121
522631.0,6.292,-15.5719,78.4508,0.8955,2.6308,-8.3361
522641.0,6.4165,-10.7452,78.4508,1.0041,1.4963,-8.509
522651.0,5.0278,-6.0525,78.4508,0.6753,0.2277,-8.5181
522661.0,3.4285,-2.7294,78.4508,0.2719,-1.4979,-8.3845
522671.0,2.2793,-1.2641,78.4508,-0.2581,-3.3065,-8.1493
522681.0,2.2697,-1.4557,78.4508,-0.5885,-5.1216,-7.946
522691.0,2.5474,-2.241,77.9839,-0.8147,-6.5343,-7.8652
522701.0,2.0973,-2.49,72.3049,-1.1824,-7.6374,-7.9099
522711.0,1.743,-2.6624,67.2483,-1.3532,-8.5143,-7.9897
522721.0,1.7813,-2.7964,62.6132,-1.3707,-9.081,-8.0588
522731.0,1.4748,-2.2314,58.4377,-1.2702,-9.5259,-8.1275
522741.0,2.0111,-1.5131,54.4537,-1.0483,-9.8015,-8.1637
522751.0,2.3367,0.5363,50.7092,-0.9243,-10.0176,-8.1775
522761.0,2.375,1.8771,47.1275,-0.7891,-10.2224,-8.0376
522771.0,3.237,2.5091,43.268,-0.6327,-10.3187,-7.8465
522781.0,4.5107,3.304,39.715,-0.5523,-10.2676,-7.663
522791.0,4.4819,3.8882,36.2386,-0.6396,-10.1192,-7.5086
522801.0,5.6216,4.4915,33.8827,-0.6604,-9.9851,-7.3288
522811.0,5.8897,5.5067,30.6841,-0.5098,-9.6908,-7.1138
522821.0,6.6559,5.8131,28.6634,-0.4001,-9.3157,-6.9223
522831.0,7.8626,6.9719,26.5852,-0.3001,-8.9725,-6.6759
522841.0,-13.4171,50.6996,11.3485,-6.5152,-15.9171,-6.2976
522851.0,-10.0078,78.4508,78.4508,1.9066,-6.7802,-2.1029
522861.0,-4.3574,-0.7853,14.7291,-2.2131,-6.992,-3.6088
522871.0,9.0022,-6.5027,28.5102,0.9663,-9.2162,-4.2351
522881.0,18.3492,7.6231,4.1755,-0.6875,-6.4966,-4.2463
522891.0,13.9821,2.9401,19.5846,-0.133,-5.9804,-4.0935
522901.0,14.2216,5.8035,15.3995,-0.6678,-5.9916,-4.2457
522911.0,16.0316,7.9583,15.6677,-0.8104,-5.4116,-4.1175
522921.0,15.3804,9.2991,18.0427,-1.3106,-4.7997,-3.9275
522931.0,16.1369,10.4196,18.7993,-0.9828,-4.805,-3.6998
522941.0,16.453,12.7467,17.1329,-0.7482,-4.3697,-3.3236
522951.0,16.9126,14.528,16.7977,-0.7194,-3.9786,-2.9027
522961.0,15.4187,16.271,17.2574,-0.4752,-3.8956,-2.3823
522971.0,16.8073,18.2055,14.2982,-0.489,-3.5018,-1.7773
522981.0,15.7443,18.8472,13.7427,-0.3704,-3.0878,-1.16
522991.0,15.773,20.3316,10.2089,-0.8657,-2.7122,-0.4736
523001.0,15.1601,20.2358,9.8258,-1.0935,-1.9342,0.2496
523011.0,15.9071,20.4082,9.5768,-1.3154,-1.1297,0.9913
523021.0,17.0084,19.5941,10.5632,-1.3127,-0.3352,1.7209
523031.0,16.8456,19.1919,11.8944,-1.4819,0.3358,2.4264
523041.0,17.8129,18.4545,13.8768,-1.5389,0.7237,3.1347
523051.0,18.2055,17.8224,15.1792,-1.6852,1.0743,3.8371
523061.0,17.7937,17.0371,16.5008,-1.8166,1.2271,4.5235
523071.0,17.4489,15.5527,16.3476,-2.046,1.3441,5.2057
523081.0,17.4872,12.9574,17.2478,-2.0832,1.5724,5.7899
523091.0,16.0124,9.9886,17.8895,-2.0124,1.8225,6.2853
523101.0,14.4514,6.426,18.5024,-1.5719,2.1199,6.7025
523111.0,14.7004,3.0167,18.5503,-0.8115,2.5722,6.8909
523121.0,15.4378,1.992,16.587,-0.033,3.3353,6.9148
523131.0,15.8209,1.9249,15.0835,0.1676,4.2026,6.8541
523141.0,15.4091,2.9113,14.5567,0.2017,5.3062,6.8361
523151.0,15.2846,5.3343,16.271,0.1075,6.2768,7.0031
523161.0,14.1641,6.5793,19.259,-0.1107,7.1223,7.3416
523171.0,11.9519,7.4795,22.8981,-0.0708,7.5783,7.8327
523181.0,11.0133,7.2688,25.9915,-0.041,7.9865,8.3116
523191.0,10.0652,6.7325,27.4184,0.1724,8.0796,8.8224
523201.0,9.2225,5.679,29.4966,0.3528,8.3015,9.2875
523211.0,8.5138,5.1427,30.3393,0.5513,8.4718,9.7664
523221.0,9.3757,4.7692,31.7088,0.7019,8.7389,10.3698
523231.0,9.6438,3.1412,32.8868,0.6609,9.321,11.0392
523241.0,9.3278,-0.2394,35.5012,0.3996,9.7318,11.6011
523251.0,7.9583,-4.5203,39.6384,0.2586,10.2565,12.0577
523261.0,6.6176,-11.1091,45.3941,0.5976,10.5571,12.3312
523271.0,7.2784,-17.4202,49.943,1.2755,10.6896,12.1162
523281.0,8.0637,-20.8391,54.2718,1.938,10.6332,11.4841
523291.0,7.9392,-20.7051,57.5087,2.2035,10.3272,10.7301
523301.0,7.3646,-17.334,60.9851,2.0215,9.7009,10.0085
523311.0,6.359,-12.3158,63.9443,1.7081,8.8591,9.7345
523321.0,4.0701,-9.2799,66.894,1.6394,7.945,9.8978
523331.0,3.5913,-9.2703,67.7846,1.8369,7.2293,10.2767
523341.0,4.1372,-11.5209,68.1677,2.2184,6.7456,10.5587
523351.0,4.3574,-13.3884,69.0105,2.1934,6.4029,10.5944
523361.0,2.8826,-14.0013,72.1325,2.4009,5.8623,10.7492
523371.0,2.5666,-15.8113,74.9768,2.8213,5.0466,11.0509
523381.0,3.2274,-20.5422,75.7717,3.2789,4.3021,11.2254
523391.0,4.7118,-26.2788,74.1628,3.1187,3.5109,10.9338
523401.0,5.7844,-31.1917,74.2969,2.3115,2.7154,10.1213
523411.0,5.6312,-33.5476,76.9305,1.2888,1.5069,9.0209
523421.0,4.5394,-33.8636,78.4508,0.9919,-0.0122,7.9843
523431.0,4.2808,-32.609,78.4508,1.3558,-1.226,7.1952
523441.0,4.2521,-30.7415,76.2218,2.2285,-2.1817,6.5913
523451.0,4.0414,-27.8972,72.4868,2.9931,-2.8133,6.2113
523461.0,4.865,-25.2828,68.1486,3.43,-3.0261,6.032
523471.0,5.9759,-25.3402,65.8693,3.189,-3.1091,5.8841
523481.0,6.5027,-27.2077,66.4918,2.6068,-3.505,5.5712
523491.0,7.039,-29.1901,67.957,1.7554,-4.1867,5.0162
523501.0,6.3782,-30.5213,70.3225,1.2792,-5.2615,4.4203
523511.0,5.5929,-31.5077,71.4621,1.1946,-6.5961,3.8051
523521.0,5.1332,-31.5556,68.1773,1.3675,-7.8683,3.1937
523531.0,4.8267,-30.2627,63.0633,1.3117,-8.9422,2.5158
523541.0,4.9895,-27.6099,57.3651,1.1111,-9.7025,1.9699
523551.0,4.1276,-24.689,52.7299,1.0387,-10.224,1.6261
523561.0,4.9033,-22.5821,47.9415,1.1605,-10.4363,1.4654
523571.0,5.4588,-21.1073,42.2146,1.0344,-10.4406,1.3973
523581.0,5.9185,-20.7529,38.0678,0.705,-10.2139,1.3106
523591.0,6.2345,-21.1935,35.6928,0.2916,-9.9606,1.1313
523601.0,6.359,-21.5957,33.538,-0.1862,-9.6924,0.8535
523611.0,6.6655,-22.2565,32.6761,-0.5177,-9.5759,0.5023
523621.0,6.608,-21.7681,31.4981,-0.9466,-9.4806,0.1064
523631.0,7.0198,-21.1552,30.6075,-1.2132,-9.494,-0.2645
523641.0,7.3646,-20.3603,29.2859,-1.3739,-9.4684,-0.6348
523651.0,7.4699,-19.3164,27.2556,-1.532,-9.4806,-0.9716
523661.0,7.8434,-17.3149,25.867,-1.4489,-9.3508,-1.2004
523671.0,8.0254,-15.8113,23.8271,-1.2467,-9.1928,-1.3122
523681.0,8.8107,-14.2982,20.5135,-1.2542,-8.8735,-1.4144
523691.0,9.0309,-13.1873,18.6173,-1.6788,-8.6458,-1.4617
523701.0,9.0597,-12.5456,16.9988,-1.5772,-8.2541,-1.4415
523711.0,9.663,-12.2104,15.84,-1.4638,-7.7577,-1.4431
523721.0,11.1666,-11.6071,12.3637,-1.3319,-7.0388,-1.4473
523731.0,11.406,-11.8178,12.3349,-1.218,-6.2491,-1.4915
523741.0,12.0476,-11.2336,11.5879,-1.2201,-5.5686,-1.615
523751.0,12.4211,-10.5919,11.4347,-1.1845,-4.8624,-1.7794
523761.0,11.8752,-9.2991,12.3924,-1.3931,-4.4149,-1.8533
523771.0,12.8712,-8.8107,12.7372,-1.0334,-4.068,-1.847
523781.0,13.0245,-6.5984,10.8505,-1.1222,-3.587,-1.7996
523791.0,13.3884,-6.1292,10.7069,-1.5197,-3.3991,-1.7193
523801.0,13.3213,-5.0661,10.1801,-1.7235,-3.1091,-1.6362
523811.0,12.536,-4.7884,9.663,-2.0268,-2.9101,-1.4798
523821.0,13.7331,-5.2864,9.0692,-1.9773,-2.4413,-1.3106
523831.0,14.5376,-5.4875,6.8953,-1.9986,-1.8704,-1.1467
523841.0,15.2175,-6.7133,6.3398,-1.839,-1.0695,-1.044
523851.0,16.1561,-7.2784,5.2385,-1.79,-0.1618,-1.0445
523861.0,16.4051,-7.5082,5.1427,-1.6176,0.8062,-1.0429
523871.0,16.4721,-7.4795,5.1715,-1.532,1.7655,-1.0594
523881.0,16.5008,-7.5178,5.612,-1.5006,2.6701,-1.0334
523891.0,17.018,-7.3454,6.1579,-1.6378,3.4885,-1.0062
523901.0,17.4202,-7.604,6.6942,-1.9709,4.1627,-1.027
523911.0,17.8224,-7.9775,7.1922,-2.2801,4.8901,-1.003
523921.0,18.1002,-8.3127,7.9679,-2.5291,5.6218,-0.9966
523931.0,18.1193,-8.8969,8.2073,-2.6542,6.4481,-0.9434
523941.0,17.7746,-9.979,8.3989,-2.519,7.5645,-0.8077
523951.0,16.9605,-12.2775,9.2608,-2.5313,8.7213,-0.6933
523961.0,17.2574,-14.9015,11.3389,-2.2333,10.0218,-0.6763
523971.0,16.7115,-16.9988,14.528,-2.0667,11.2446,-0.8253
523981.0,15.5049,-19.2685,17.8991,-1.7336,12.3184,-0.9631
523991.0,14.8249,-21.6723,22.0075,-1.3601,13.1772,-1.2228
524001.0,14.959,-23.7026,25.2445,-1.2382,13.7849,-1.6331
524011.0,13.9726,-25.1678,29.3912,-1.5442,14.0031,-2.1662
524021.0,12.8617,-26.6523,33.107,-2.146,13.8631,-2.7329
524031.0,12.9478,-28.6155,36.2769,-2.4929,13.6333,-3.339
524041.0,11.8561,-30.6649,39.1787,-2.9554,13.4603,-4.0132
524051.0,11.2049,-32.609,40.9792,-3.1347,13.3172,-4.7331
524061.0,10.9463,-33.3369,44.0533,-3.3826,13.3512,-5.5691
524071.0,8.9735,-32.1589,47.5488,-3.5002,12.9899,-6.2981
524081.0,7.039,-29.6402,49.1386,-3.5077,12.5211,-6.7967
524091.0,6.6655,-28.3665,50.2591,-3.4156,12.3477,-7.0734
524101.0,6.2345,-28.1367,51.9925,-2.8963,12.594,-7.275
524111.0,5.0566,-27.5429,55.2103,-1.9928,12.8319,-7.4246
524121.0,3.7254,-26.6427,59.1942,-0.9653,12.867,-7.5496
524131.0,3.0742,-25.4073,62.4312,-0.0383,12.693,-7.6912
524141.0,2.5474,-22.8886,65.1223,0.2528,12.246,-7.8875
524151.0,0.0192,-20.4656,68.455,0.1011,11.2052,-8.0317
524161.0,-0.4788,-20.2549,73.7893,0.0367,10.1644,-8.0541
524171.0,-0.8236,-19.8719,76.4708,0.2214,9.1002,-8.1456
524181.0,-1.494,-19.4122,78.4508,0.7093,7.8417,-8.2477
524191.0,-2.624,-16.5296,78.4508,0.729,6.5806,-8.3744
524201.0,-3.4668,-14.1162,78.4508,0.7577,5.1775,-8.3776
524211.0,-4.3191,-11.9806,78.4508,0.7056,3.7828,-8.3206
524221.0,-4.2138,-9.8258,78.4508,0.5396,2.3514,-8.2754
524231.0,-4.5203,-7.4029,78.4508,0.0793,0.8152,-8.2174
524241.0,-5.2768,-5.296,78.4508,-0.5108,-0.7295,-8.1238
524251.0,-4.367,-3.3806,76.2793,-1.2606,-2.0172,-8.011
524261.0,-5.0182,-2.5091,75.2833,-1.6416,-3.2544,-7.7518
524271.0,-4.7214,-1.3216,72.8508,-1.6868,-4.2968,-7.4788
524281.0,-4.3574,-0.2298,69.767,-1.7256,-5.1402,-7.1495
524291.0,-4.1946,-0.2203,66.8653,-1.8842,-6.1262,-6.8483
524301.0,-2.806,0.3448,62.9388,-1.9672,-6.8935,-6.5689
524311.0,-2.6049,0.6895,58.5718,-2.1082,-7.4506,-6.2896
524321.0,-1.561,0.8523,55.1241,-2.1966,-7.7954,-6.0214
524331.0,-0.1437,1.3695,52.5671,-2.2056,-7.9615,-5.758
524341.0,0.2107,1.9249,50.872,-2.0646,-8.1115,-5.4377
524351.0,1.0056,2.1069,48.4395,-1.9598,-8.3856,-5.1141
524361.0,2.4325,2.5762,46.5624,-1.7171,-8.5686,-4.7901
524371.0,2.9592,2.9784,44.7237,-1.4644,-8.7235,-4.4197
524381.0,3.6296,3.4189,42.2241,-1.242,-9.0486,-4.0558
524391.0,4.7118,3.5721,38.8148,-1.0892,-9.1406,-3.6982
524401.0,5.5929,3.7924,35.4055,-1.0126,-9.1103,-3.3438
524411.0,6.7421,3.371,33.0208,-0.8663,-8.9288,-3.0134
524421.0,8.4467,4.1659,29.3625,-0.7934,-8.5856,-2.6978
524431.0,9.1075,4.1372,27.9355,-0.8269,-8.2919,-2.3817
524441.0,9.5577,4.4819,25.7903,-1.0312,-7.8918,-2.0486
524451.0,11.7124,3.4477,25.9244,-0.8296,-7.4166,-1.7017
524461.0,12.0285,3.6488,24.6699,-0.5406,-7.0329,-1.3744
524471.0,12.7084,2.9497,25.187,-0.0575,-6.6232,-1.0195
524481.0,13.7906,3.3519,24.2485,0.3906,-6.2598,-0.6321
524491.0,14.8728,3.1316,23.195,0.8897,-5.8836,-0.2224
524501.0,15.4378,3.237,21.8926,1.177,-5.5457,0.1889
524511.0,16.8264,2.6624,20.3028,1.3063,-5.2232,0.53
524521.0,17.6501,2.0782,18.3779,1.0068,-4.9029,0.7641
524531.0,18.4449,1.4748,17.3436,0.6226,-4.6347,0.977
524541.0,19.6516,1.1492,15.1409,0.05,-4.1654,1.176
524551.0,20.8966,-0.5076,14.7483,-0.4901,-3.4939,1.3143
524561.0,21.7872,-1.81,15.5144,-0.7247,-2.6792,1.3947
524571.0,21.5478,-2.8156,17.2478,-0.6838,-2.0311,1.5277
524581.0,21.7106,-4.0893,19.575,-0.3288,-1.3622,1.6251
524591.0,20.9541,-5.1044,20.7625,0.1591,-0.8897,1.6889
524601.0,20.4848,-5.4396,21.7681,0.6588,-0.5401,1.6884
524611.0,19.9581,-5.5641,22.0362,1.0786,-0.2426,1.6277
524621.0,19.4792,-5.0566,22.3714,1.4766,-0.1479,1.5532
524631.0,19.7378,-2.988,21.1743,1.6602,0.0133,1.5761
524641.0,18.9621,-0.7183,20.2933,1.3282,0.125,1.7852
524651.0,18.1959,-0.4597,20.3507,0.8977,0.1862,2.1588
524661.0,18.895,-1.8292,19.0866,0.2708,0.2873,2.4552
524671.0,18.4928,-3.9169,19.3356,-0.3629,0.5577,2.6207
524681.0,17.7171,-6.0047,21.0115,-0.6944,0.803,2.7633
524691.0,17.2957,-8.5904,22.9556,-0.5449,0.8657,2.8
524702.0,17.3053,-10.8314,23.7026,-0.1474,0.9222,2.7367
524711.0,17.0563,-11.8465,23.1759,0.2868,0.9386,2.5318
524721.0,16.769,-11.6071,20.638,0.5374,0.8918,2.2535
524731.0,16.338,-10.0461,16.1944,0.3262,1.2749,2.005
524741.0,15.6868,-8.4563,13.6757,-0.1219,2.1205,1.8991
524751.0,15.6389,-7.8051,13.2543,-0.7184,3.0783,1.8996
524761.0,15.5623,-7.7859,15.591,-1.2068,4.1005,1.9544
524771.0,14.9302,-7.9679,19.5463,-1.5655,4.7528,1.9981
524781.0,14.0204,-7.9392,23.7601,-1.6432,4.9157,2.0976
524791.0,13.0245,-8.7628,26.6618,-1.4952,4.8795,2.1966
524801.0,12.3924,-10.1418,28.8453,-0.9301,4.8188,2.2354
524811.0,12.3541,-10.8793,29.487,-0.2097,4.6895,2.2024
524821.0,11.9327,-10.2185,27.5333,0.4544,4.6549,2.1002
524831.0,11.5305,-7.6902,23.7122,0.2975,4.8486,1.9954
524841.0,10.726,-5.1523,20.9828,-0.3374,5.3291,2.0385
524851.0,10.0556,-3.6966,21.1169,-1.0993,6.0384,2.1865
524861.0,10.094,-3.0263,24.2485,-1.6187,6.7365,2.4131
524871.0,9.1363,-1.7621,28.0888,-1.9582,6.9457,2.7675
524881.0,8.6862,-1.3503,30.9618,-1.8975,7.0904,3.3167
524891.0,7.422,-1.5706,33.0113,-1.6495,7.2165,3.9685
524901.0,7.0485,-2.1835,34.6393,-1.3361,7.5118,4.7023
524911.0,7.1635,-3.8978,36.095,-0.9583,7.9434,5.3834
524921.0,6.5505,-6.3015,38.0965,-0.7646,8.1732,5.9171
524931.0,6.1866,-9.0022,40.0885,-0.4789,8.4691,6.2731
524941.0,5.9185,-11.7029,41.1803,-0.2496,8.6303,6.4162
524951.0,3.7924,-14.279,42.7604,-0.1878,8.5824,6.3125
524961.0,2.4134,-15.275,42.5785,-0.2863,8.7761,6.1012
524971.0,0.5938,-15.457,43.9671,-0.373,9.08,5.824
524981.0,0.3352,-10.908,45.9591,-0.6369,9.5104,5.7793
524991.0,-2.7007,-6.8666,51.1401,-0.9206,9.8058,6.2459
525001.0,-6.6559,-5.4971,58.1599,-0.6215,9.6765,7.2335
525011.0,-6.5888,-9.232,63.5996,0.3852,9.4588,8.2249
525021.0,-5.8706,-14.3556,66.894,1.1691,9.1752,8.7421
525031.0,-5.4779,-18.8088,70.3416,1.6905,8.3914,8.7655
525041.0,-6.4356,-21.2892,71.3664,1.5825,7.133,8.4611
525051.0,-6.1579,-23.3004,69.4893,1.0094,5.9671,7.9806
525061.0,-5.9855,-24.8327,69.3265,0.5688,5.3908,7.3788
525071.0,-5.5258,-24.0186,69.7766,0.1426,4.9923,6.7871
525081.0,-6.4739,-23.3483,73.4541,-0.3108,4.3894,6.354
525091.0,-6.8474,-23.6643,78.1276,-0.4981,3.2645,6.0475
525101.0,-6.6942,-24.4209,78.4508,-0.2341,1.9332,5.816
525111.0,-6.3782,-24.8135,78.4508,0.2011,0.4129,5.5787
525121.0,-6.6846,-25.3307,78.4508,0.7194,-1.3266,5.4089
525131.0,-5.3056,-24.9859,75.7813,0.8003,-2.6584,5.1764
525141.0,-4.1468,-26.9204,71.6249,0.721,-3.3975,4.8922
525151.0,-3.0071,-28.2516,67.9187,0.3858,-4.0536,4.3862
525161.0,-2.8156,-28.9986,65.9172,0.2075,-4.5544,3.9041
525171.0,-2.49,-30.2052,65.2468,0.1293,-5.1391,3.4454
525181.0,-1.7047,-31.0384,64.4806,0.1043,-5.8362,2.8899
525191.0,-1.1492,-30.8182,63.5038,0.1634,-6.5439,2.394
525201.0,-1.245,-30.4064,62.6323,0.4124,-7.1936,2.0593
525211.0,-1.1013,-30.7224,61.6459,0.8939,-7.7625,1.815
525221.0,-1.0439,-31.479,59.2517,1.1691,-8.3882,1.5367
525231.0,-1.3982,-31.7088,56.2829,1.0429,-8.9198,1.1802
525241.0,-2.0303,-33.0113,54.0515,0.7859,-9.6344,0.6992
525251.0,-1.6951,-33.1645,51.2168,0.2293,-10.4613,0.1048
525261.0,-1.5706,-32.0344,47.6063,-0.3539,-11.044,-0.4406
525271.0,-0.4693,-31.0863,44.3119,-0.3959,-11.2451,-0.7689
525281.0,1.5323,-29.9946,40.0119,-0.2687,-10.9956,-0.9429
525291.0,3.3998,-29.6881,36.4206,-0.1123,-10.2437,-1.0142
525301.0,5.6407,-31.0384,36.5355,0.2639,-9.4732,-1.0967
525311.0,7.6519,-32.2355,37.2155,0.5561,-8.8634,-1.2435
525321.0,8.734,-33.2028,38.0199,0.7136,-8.6181,-1.5469
525331.0,9.1937,-34.4574,39.7054,0.6838,-8.633,-1.9406
525341.0,9.4619,-34.8883,39.7246,0.6449,-8.8778,-2.4552
525351.0,9.5577,-34.7925,39.6863,0.5114,-9.229,-3.0426
525361.0,8.983,-33.1262,38.1061,0.431,-9.5296,-3.6301
525371.0,8.6957,-31.0384,37.0144,0.439,-9.7345,-4.1037
525381.0,8.6,-28.3857,34.4765,0.2953,-9.8489,-4.4602
525391.0,8.8585,-26.3362,33.9115,0.5151,-9.6376,-4.681
525401.0,8.5712,-23.2046,32.8484,0.4502,-9.5546,-4.8502
525411.0,8.849,-20.0059,31.6035,0.2565,-9.5631,-4.9332
525421.0,8.6862,-17.5926,31.9674,-0.2602,-9.7483,-4.9625
525431.0,8.9735,-14.9877,30.0616,-0.6662,-9.9478,-4.9263
525441.0,8.9352,-13.1968,28.3378,-1.2675,-10.0638,-4.8651
525451.0,9.2991,-12.7659,28.3473,-1.3452,-9.8627,-4.7369
525461.0,8.9926,-11.1761,27.1024,-1.2648,-9.627,-4.5458
525471.0,9.5672,-10.7931,27.677,-0.9541,-9.3439,-4.2569
525481.0,10.2663,-10.0078,27.4854,-0.2283,-9.0821,-3.9626
525491.0,9.4715,-8.4851,26.7959,0.3406,-9.0347,-3.6833
525501.0,10.6398,-6.4931,24.6315,0.4012,-8.9666,-3.4039
525511.0,11.8944,-4.4628,21.8734,-0.1442,-8.9198,-3.0426
525521.0,12.9957,-5.8035,20.7721,-0.9653,-9.1156,-2.7702
525531.0,14.6429,-6.5027,18.828,-1.1754,-9.014,-2.6616
525541.0,15.3037,-7.2305,19.1536,-0.7604,-8.6069,-2.6148
525551.0,15.7155,-6.4739,17.8512,-0.5199,-8.3318,-2.6382
525561.0,15.84,-5.6695,16.702,-0.3038,-8.3792,-2.6882
525571.0,15.7155,-3.5051,14.4993,-0.1697,-8.2887,-2.6515
525581.0,16.6636,-2.1835,12.5648,-0.3118,-8.2951,-2.6095
525591.0,17.3053,-0.2969,8.8011,-0.6497,-8.3132,-2.5807
525601.0,17.8703,0.7757,6.7133,-0.7822,-8.086,-2.4546
525611.0,18.3587,2.0494,3.5338,-1.0323,-7.5549,-2.2673
525621.0,19.4409,2.6624,2.4229,-0.8386,-7.0053,-2.0385
525631.0,20.6284,2.9975,0.4501,-0.5401,-6.3162,-1.8193
525641.0,21.6723,3.3519,-1.0822,0.0282,-5.2498,-1.5857
525651.0,22.0075,4.9033,-3.5338,0.5204,-4.1127,-1.359
525661.0,22.1224,6.7038,-5.7652,0.2453,-3.0144,-0.9653
525671.0,22.9077,7.6519,-6.177,-0.4576,-2.0258,-0.5151
525681.0,22.8598,7.0964,-4.5873,-1.2004,-1.1978,-0.0452
525691.0,22.6108,6.7516,-3.1891,-1.7118,-0.4725,0.4667
525701.0,22.9173,5.6982,-2.624,-2.0587,0.1405,0.9998
525711.0,23.2429,4.2329,-1.6472,-2.1359,0.8051,1.5213
525721.0,23.8654,2.1069,-1.4653,-1.9848,1.5538,1.9991
525731.0,24.5454,-0.0958,-0.7087,-1.6735,2.2631,2.3535
525741.0,25.3881,-1.2546,-1.6951,-1.3739,3.0032,2.5834
525751.0,25.0529,-1.8771,-2.557,-1.2968,3.7487,2.7963
525761.0,24.4113,-2.6815,-3.5147,-1.2547,4.6512,3.0894
525771.0,23.3866,-4.3096,-5.2672,-1.4165,5.7032,3.4715
525781.0,24.4496,-8.2648,-4.6735,-1.7219,6.985,3.6865
525791.0,25.1295,-12.22,-1.6185,-1.7602,8.2664,3.6162
525801.0,25.3019,-15.1984,1.5419,-1.2547,9.2902,3.3752
525811.0,25.1774,-16.3668,3.1699,-0.5018,10.3219,3.156
525821.0,25.0529,-16.9414,3.9648,0.0782,11.5963,2.9793
525831.0,24.2485,-18.014,5.3917,0.2953,12.7079,2.8399
525841.0,24.689,-19.8527,7.7285,0.1809,13.6934,2.6089
525851.0,24.0569,-21.4042,10.2376,-0.1107,14.5421,2.3025
525861.0,22.9365,-23.8846,12.651,-0.4608,15.1578,1.9592
525871.0,23.6547,-26.25,13.7619,-0.8168,15.8942,1.5171
525881.0,22.3714,-27.6387,15.1888,-1.4489,16.6083,0.9807
525891.0,19.8336,-29.8988,15.6581,-2.2636,17.3825,0.4512
525901.0,20.0059,-32.8772,18.081,-3.1937,17.4357,-0.2453
525911.0,19.2877,-33.538,25.254,-3.9983,17.4357,-1.035
525921.0,15.8688,-33.1836,34.3999,-4.6081,17.4357,-1.6522
525931.0,13.1777,-33.0783,45.8921,-4.4266,17.4357,-1.9199
525941.0,10.3717,-34.5435,58.1121,-3.1139,17.4357,-1.9789
525951.0,8.667,-37.3879,68.7998,-1.1169,17.4357,-2.0625
525961.0,7.6519,-38.968,78.4508,0.5156,17.4357,-2.3988
525971.0,5.3439,-40.2609,78.4508,1.4915,17.4357,-2.9005
525981.0,3.5913,-42.2433,78.4508,2.7164,17.4357,-3.5572
525991.0,2.7581,-41.2569,78.4508,4.0116,15.3429,-4.3261
526001.0,-0.316,-38.1253,78.4508,4.7294,11.3915,-5.0684
526011.0,-0.498,-34.7638,78.4508,4.0765,7.0457,-5.9027
526021.0,-0.2873,-30.1765,78.4508,2.4477,3.4779,-6.8834
526031.0,-2.873,-24.4496,78.4508,0.5646,0.1022,-7.6943
526041.0,-4.5873,-18.9525,78.4508,-0.8077,-2.9452,-8.1509
526051.0,-5.6503,-14.7579,78.4508,-0.8817,-5.4834,-8.2728
526061.0,-5.2289,-9.73,78.4508,-1.2478,-7.3761,-8.1834
526071.0,-4.798,-6.7612,78.4508,-0.6854,-8.8496,-7.9263
526081.0,-3.8882,-2.806,71.9697,-0.646,-9.7898,-7.5853
526091.0,-2.9497,-0.3543,62.9388,-0.4438,-10.3863,-7.1159
526101.0,-1.6568,1.0343,55.2103,-0.4012,-10.4869,-6.545
526111.0,0.0958,0.7853,49.809,-0.1511,-10.299,-5.9852
526121.0,2.0303,-0.4884,46.0932,0.1027,-10.1953,-5.5425
526131.0,3.4381,-1.1109,42.5498,0.1469,-10.1916,-5.2599
526141.0,4.6352,-1.5802,38.6137,0.1165,-10.2054,-5.0923
526151.0,5.4684,-2.0782,35.3384,0.0873,-10.1825,-4.954
526161.0,7.039,-2.2505,32.1685,0.1282,-9.9915,-4.855
526171.0,8.3222,-2.2505,28.0696,0.0974,-9.6275,-4.7768
526181.0,9.4236,-2.1261,26.2404,0.1415,-9.2077,-4.7108
526191.0,9.6917,-1.8292,23.7984,0.0958,-8.807,-4.6283
526201.0,10.2568,-1.9824,21.816,0.0202,-8.2967,-4.5677
526211.0,11.473,-2.0016,20.0538,0.016,-7.6784,-4.5639
526221.0,11.8178,-1.5036,19.7091,0.0197,-7.1904,-4.6288
526231.0,12.4115,-0.3065,18.7801,-0.0122,-6.7286,-4.6757
526241.0,12.1147,1.1971,18.1672,-0.0479,-6.4982,-4.6773
526251.0,12.3541,3.0263,17.6979,-0.017,-6.2385,-4.5719
526261.0,12.8233,4.7501,16.2614,-0.041,-5.8692,-4.3883
526271.0,13.2447,6.4356,15.6198,-0.083,-5.5292,-4.1186
526281.0,13.398,7.8817,14.1833,-0.1447,-5.2232,-3.7769
526291.0,13.9821,9.1937,12.967,-0.183,-4.8672,-3.3459
526301.0,14.5184,9.7205,12.2679,-0.2565,-4.4394,-2.8707
526311.0,15.4187,9.6247,11.0229,-0.4044,-3.9823,-2.3998
526321.0,16.022,9.3853,10.8505,-0.5066,-3.5114,-1.9667
526331.0,16.836,8.6095,9.5768,-0.704,-3.0639,-1.5857
526341.0,17.0467,7.1922,9.9024,-0.8322,-2.5962,-1.2989
526351.0,18.1289,6.4356,8.8585,-1.0472,-2.0928,-1.0898
526361.0,18.579,5.545,9.4427,-1.2084,-1.6112,-0.9855
526371.0,18.8472,5.8323,9.4332,-1.4213,-1.1855,-0.8801
526381.0,19.326,5.7461,9.7205,-1.4271,-0.6939,-0.7466
526391.0,19.8815,6.8378,9.1267,-1.6884,-0.1719,-0.5534
526401.0,20.1113,7.355,9.8833,-1.8283,0.3257,-0.2639
526411.0,19.8431,8.0349,10.908,-1.9443,0.7838,0.0862
526421.0,20.1304,8.6191,10.4962,-1.9348,1.2223,0.5523
526431.0,20.7817,8.7149,10.5058,-1.8565,1.8502,1.0924
526441.0,20.9157,8.5712,10.161,-1.7421,2.6121,1.6687
526451.0,21.0594,7.4316,10.6781,-1.5133,3.455,2.22
526461.0,20.7434,6.0334,11.473,-1.4463,4.316,2.7138
526471.0,20.4752,3.5817,13.9534,-1.1643,5.1519,3.1879
526481.0,20.5422,1.3982,15.2463,-0.8679,5.8341,3.5183
526491.0,20.5901,-0.067,16.453,-0.8237,6.446,3.6375
526501.0,20.2933,-0.7374,17.8129,-1.2137,6.9244,3.6721
526511.0,19.642,-0.8332,19.7665,-1.7012,7.1644,3.6806
526521.0,18.512,-0.565,22.4863,-2.1524,7.2979,3.8089
526531.0,17.4585,-1.0247,24.6028,-2.246,7.3554,4.0861
526541.0,17.3436,-1.8675,25.3785,-1.847,7.54,4.4378
526551.0,16.9797,-2.2122,24.6507,-1.5687,8.0083,4.7762
526561.0,16.1561,-2.2027,23.9707,-1.4835,8.7128,5.0764
526571.0,15.6772,-2.1165,24.1431,-1.674,9.5142,5.4031
526581.0,14.4227,-2.2601,26.2979,-2.2019,10.1777,5.7431
526591.0,12.785,-3.2082,28.5772,-2.9671,10.4746,6.0187
526601.0,11.3006,-4.9512,33.1166,-3.7445,10.8093,6.372
526611.0,10.659,-10.0556,40.8834,-3.4513,10.7508,6.6972
526621.0,10.8218,-14.8153,44.6183,-2.6595,10.6082,6.7456
526631.0,11.5879,-17.1521,45.5664,-1.6155,10.9668,6.5806
526641.0,10.2855,-17.4202,48.8034,-1.1275,11.3569,6.3412
526651.0,9.3374,-15.6677,52.4617,-0.6013,11.4559,6.1959
526661.0,8.0541,-13.4554,56.5606,-0.4129,11.2611,6.1986
526671.0,7.8626,-10.4291,59.7018,-0.4688,10.8583,6.3571
526681.0,6.79,-7.9104,61.9907,-0.8732,10.108,6.7137
526691.0,4.9991,-7.0581,64.1933,-1.0169,9.6408,7.3107
526701.0,3.9648,-7.8913,65.7352,-0.7599,9.6424,8.0727
526711.0,2.4038,-12.1147,71.261,0.1639,9.8579,8.84
526721.0,1.494,-17.1425,77.3902,1.5075,10.041,9.4237
526731.0,-0.3448,-23.4153,78.4508,3.0384,9.718,9.785
526741.0,-1.3216,-29.8892,78.4508,4.8114,8.6968,9.7802
526751.0,-2.3272,-33.2507,78.4508,6.106,7.1489,9.4354
526761.0,-3.1699,-35.1852,78.4508,6.2145,5.5622,8.8011
526771.0,-2.6815,-37.2059,78.4508,4.9832,4.0898,7.7688
526781.0,-4.2234,-37.9146,78.4508,3.4348,2.1998,6.545
526791.0,-7.0773,-38.4509,78.4508,2.4642,-0.1532,5.4701
526801.0,-7.4699,-40.0694,78.4508,2.2929,-2.5509,4.4495
526811.0,-7.7859,-39.6001,78.4508,2.4185,-4.7938,3.3943
526821.0,-8.7245,-36.2003,78.4508,2.6691,-6.902,2.4951
526831.0,-9.2416,-32.0536,78.4508,2.5318,-8.915,1.839
526841.0,-9.4427,-29.4391,78.4508,2.4339,-10.5459,1.3899
526851.0,-9.1459,-27.5908,73.7031,2.3988,-11.7512,1.019
526861.0,-8.9735,-25.2636,65.5054,2.2609,-12.7015,0.7492
526871.0,-8.6095,-24.4304,58.7154,1.9321,-13.4587,0.4906
526881.0,-6.9049,-23.3387,52.2415,1.7294,-13.8961,0.2341
526891.0,-5.8706,-22.6875,47.4722,1.3963,-14.1654,-0.0617
526901.0,-4.8171,-21.9213,42.5306,1.234,-14.3873,-0.3682
526911.0,-3.2082,-21.1839,38.2785,1.0818,-14.4894,-0.6588
526921.0,-1.6185,-20.3794,34.1222,0.9754,-14.3958,-0.9759
526931.0,0.2203,-19.144,30.3106,0.9083,-14.2,-1.2414
526941.0,1.3886,-17.9086,26.4224,0.8274,-13.8796,-1.5171
526951.0,2.5857,-16.3668,23.8654,0.6902,-13.5082,-1.7358
526961.0,3.9265,-14.9015,20.9732,0.5821,-13.0474,-1.9289
526971.0,5.1906,-13.3788,18.5024,0.5428,-12.4855,-2.0673
526981.0,6.3015,-11.7986,16.6062,0.4523,-11.8783,-2.1093
526991.0,7.0006,-10.6877,16.1273,0.5656,-11.2467,-2.079
527001.0,8.0541,-10.7164,16.4817,0.803,-10.5417,-2.0194
527011.0,9.2129,-10.228,16.2135,1.1126,-10.0793,-1.9837
527021.0,9.6438,-9.9503,16.2518,1.2733,-9.6727,-2.0289
527031.0,11.0133,-9.0214,15.1792,1.1781,-9.519,-2.1146
527041.0,11.904,-8.1977,14.8345,0.8503,-9.5429,-2.2583
527051.0,12.22,-6.7516,13.0723,0.1096,-9.6429,-2.3972
527061.0,12.5648,-5.8131,11.7603,-0.5853,-9.7286,-2.4919
527071.0,13.4075,-4.7597,9.1459,-1.0988,-9.4791,-2.535
527081.0,14.2407,-4.2904,7.9392,-1.4117,-9.1172,-2.5611
527091.0,14.9973,-3.486,6.7516,-1.5133,-8.5787,-2.5478
527101.0,15.8305,-3.0646,6.6367,-1.2127,-7.7784,-2.4552
527111.0,16.6541,-2.5187,5.7557,-0.6939,-6.9712,-2.3296
527121.0,17.1329,-1.9824,5.2098,-0.365,-6.2997,-2.195
527131.0,18.4354,-2.0686,4.8842,-0.0915,-5.5425,-2.08
527141.0,20.0155,-1.8962,4.2904,-0.3139,-5.0455,-2.1136
527151.0,20.5039,-1.1684,4.2425,-0.4299,-4.6783,-2.1689
527161.0,20.4273,-0.1341,4.1851,-0.8024,-4.375,-2.2131
527171.0,21.6723,1.0343,3.1699,-1.2622,-4.1856,-2.2019
527181.0,22.1799,1.743,3.3519,-1.2441,-3.5481,-2.0907
527191.0,22.5917,2.4229,3.1508,-1.0717,-2.9383,-1.9151
527201.0,23.7601,2.6719,2.9784,-0.6433,-2.2833,-1.7022
527211.0,24.44,3.1603,2.3655,-0.149,-1.4293,-1.4841
527221.0,24.871,3.8116,1.312,0.0745,-0.7583,-1.2744
527231.0,25.5509,5.0566,-0.3639,0.1953,0.1506,-0.9977
527241.0,25.2062,5.9376,-0.996,0.0543,1.2244,-0.671
527251.0,25.3785,6.7133,-1.5706,-0.2762,2.2546,-0.3155
527261.0,24.9284,7.3837,-1.0534,-0.6784,3.2549,0.0564
527271.0,24.373,7.4508,1.1971,-0.9786,4.267,0.5353
527281.0,23.5685,7.5178,2.9975,-1.2143,4.9194,0.9956
527291.0,21.816,7.671,4.5873,-1.6006,5.3249,1.4559
527301.0,20.1113,7.173,4.9799,-2.1465,5.6345,1.9736
527311.0,18.895,5.1523,6.6655,-2.2849,5.9629,2.5483
527321.0,19.259,2.9305,5.6216,-1.6166,6.8823,3.1714
527331.0,20.0443,0.1532,4.9512,-0.828,8.3643,3.6349
527341.0,20.8104,-2.0686,4.5011,-0.5236,9.9154,3.7913
527351.0,19.8623,-3.0358,5.5641,-0.6018,11.4516,3.8216
527361.0,18.3492,-4.1755,9.6438,-0.456,12.775,3.9477
527371.0,17.1904,-5.7269,11.789,-0.3065,13.7913,4.1313
527381.0,15.2654,-7.2401,11.0229,-0.8998,14.6528,4.1973
527391.0,14.1258,-9.414,10.6207,-1.88,15.9118,4.1303
527401.0,11.2049,-11.789,12.0572,-3.3954,17.0803,4.0435
527411.0,9.0597,-16.1273,15.2846,-4.7241,17.4357,4.0701
527421.0,6.7325,-21.9022,18.1097,-5.6239,17.4357,3.9871
527431.0,2.1356,-28.8549,22.0937,-5.9772,17.4357,3.7493
527441.0,-0.6129,-35.3097,28.4048,-4.8491,17.4357,3.3347
527451.0,-4.0318,-38.3072,37.158,-2.9293,17.4357,2.7494
527461.0,-8.418,-41.1515,47.8745,-0.2629,17.4357,2.2216
527471.0,-11.0325,-43.9958,60.5637,2.9718,17.4357,1.4915
527481.0,-12.287,-44.2927,69.8341,5.7309,17.4357,0.4965
527491.0,-12.4977,-43.0669,75.3503,7.44,17.4357,-0.7146
527501.0,-12.1913,-40.1364,78.4508,7.4033,17.4357,-2.0997
527511.0,-16.3189,-38.4988,78.4508,6.644,17.4357,-3.555
527521.0,-16.7786,-36.8899,78.4508,5.5255,17.4357,-4.8683
527531.0,-19.6708,-34.5531,78.4508,5.253,16.2624,-6.0533
527541.0,-20.887,-30.981,78.4508,5.0194,11.4383,-7.018
527551.0,-19.5463,-24.3442,78.4508,4.5687,6.3971,-7.855
527561.0,-19.9389,-18.7035,78.4508,3.1703,1.6847,-8.5681
527571.0,-19.1536,-12.4307,78.4508,1.5527,-2.17,-9.1284
527581.0,-19.5463,-7.0294,78.4508,0.0021,-5.3339,-9.3987
527591.0,-19.2494,-3.0454,78.4508,-1.5192,-7.6576,-9.3843
527601.0,-17.9565,-1.3791,78.4508,-2.4977,-9.1555,-9.2018
527611.0,-16.4146,-1.6664,77.9361,-2.8362,-9.9292,-8.8857
527621.0,-14.1641,-2.3942,71.4717,-2.4796,-10.3097,-8.5755
527631.0,-11.7029,-2.2122,67.2962,-2.1976,-10.4209,-8.3659
527641.0,-10.3525,-2.5953,65.5437,-1.6304,-10.5725,-8.1137
527651.0,-8.2552,-2.0494,60.8031,-1.2526,-11.0812,-7.9476
527661.0,-6.3303,-1.9728,58.0833,-0.9722,-11.3803,-7.7635
527671.0,-4.7405,-0.498,53.2758,-0.8221,-11.6405,-7.5986
527681.0,-2.5091,-0.1532,51.0731,-0.5997,-11.5405,-7.2559
527691.0,-0.5267,0.9768,45.8442,-0.5087,-11.5011,-6.8738
527701.0,1.4653,0.996,42.3774,-0.862,-11.3611,-6.5711
527711.0,2.3559,0.2777,40.3662,-1.3005,-11.0477,-6.2475
527721.0,3.0454,-1.7813,39.7725,-1.3867,-10.8939,-5.9841
527731.0,4.9033,-3.5243,38.901,-1.0797,-10.6231,-5.8426
527741.0,5.7365,-4.0318,36.8132,-0.7806,-10.3879,-5.7974
527751.0,5.9951,-3.7924,35.5012,-0.3209,-10.0974,-5.6824
527761.0,7.355,-3.7254,32.9921,0.2203,-9.6472,-5.542
527771.0,9.2033,-3.2753,30.5117,0.5146,-9.0943,-5.4919
527781.0,9.7109,-2.739,29.0177,0.5949,-8.5633,-5.427
527791.0,9.9982,-1.992,28.2516,0.6609,-8.1663,-5.3493
527801.0,11.2049,-1.5514,27.744,0.7301,-7.7268,-5.2743
527811.0,12.3158,-0.3448,26.8342,0.7811,-7.2734,-5.2051
527821.0,12.1434,0.996,27.0066,0.7231,-7.0361,-5.0897
527831.0,12.22,2.4995,26.2021,0.6949,-6.9042,-4.8417
527841.0,13.216,4.051,24.5645,0.4257,-6.6136,-4.599
527851.0,13.5703,5.0566,23.0801,0.1352,-6.4098,-4.2308
527861.0,13.8959,5.5545,23.4728,0.2421,-5.9543,-3.7902
527871.0,14.9302,6.0047,21.9596,0.4007,-5.4653,-3.339
527881.0,15.7922,5.0757,21.8351,0.5523,-4.9412,-2.9585
527891.0,16.4434,5.114,20.887,0.4049,-4.4724,-2.6792
527901.0,16.2614,5.047,21.385,0.273,-4.1803,-2.4397
527911.0,16.5583,4.8746,21.3371,0.0825,-3.927,-2.2008
527921.0,16.587,4.9991,21.1839,-0.0665,-3.7844,-1.9853
527931.0,17.5639,5.0374,21.1169,-0.2719,-3.5439,-1.7655
527941.0,17.8991,4.4532,21.0786,-0.3688,-3.4183,-1.5942
527951.0,17.9948,4.0318,20.8583,-0.5417,-3.3997,-1.4537
527961.0,18.1672,4.0893,20.2262,-0.6343,-3.3736,-1.3782
527971.0,18.0331,3.8882,19.8623,-0.6247,-3.2273,-1.2686
527981.0,18.5311,4.4724,17.5734,-0.6673,-3.0942,-1.1435
527991.0,18.7322,4.6831,15.8496,-0.9078,-2.7792,-1.0275
528001.0,18.9717,4.7309,15.208,-1.3154,-2.4557,-0.9546
528011.0,18.9238,5.1523,14.959,-1.6453,-2.1875,-0.8572
528021.0,18.9812,6.1004,14.7196,-1.8874,-1.8102,-0.6933
528031.0,19.1632,6.426,14.8441,-1.9523,-1.3505,-0.464
528041.0,19.4026,6.8857,14.959,-1.8853,-0.8775,-0.1979
528051.0,19.7378,7.6614,14.71,-1.8299,-0.4427,0.1059
528061.0,20.0059,8.3893,14.3844,-1.98,0.0032,0.4454
528071.0,19.5941,8.9064,15.0739,-2.0348,0.3996,0.8918
528081.0,19.757,8.8011,15.4378,-1.9981,0.82,1.3787
528091.0,19.6325,8.3031,15.5719,-1.8549,1.2654,1.8757
528101.0,19.508,7.0964,15.4474,-1.7123,1.707,2.3067
528111.0,18.8472,6.3973,15.1314,-1.8182,2.0247,2.6361
528121.0,17.7267,5.3917,14.9398,-2.2764,2.3216,2.8872
528131.0,17.1233,3.9744,14.528,-2.6616,2.5696,3.0687
528141.0,16.5008,2.7294,14.3077,-3.0261,2.9021,3.1219
528151.0,15.8879,2.2889,14.4131,-3.0868,3.421,3.2273
528161.0,16.5104,3.3998,14.1641,-3.1964,4.068,3.3938
528171.0,16.6828,4.6064,15.5527,-3.1645,4.7805,3.6806
528181.0,16.3189,6.2441,16.089,-3.4162,5.3642,4.0925
528191.0,15.5049,6.7708,17.6788,-3.8897,5.8394,4.6427
528201.0,14.6717,6.0813,20.14,-4.1265,6.2624,5.2131
528211.0,13.0436,4.7022,22.63,-4.035,6.5886,5.7883
528221.0,11.6454,2.8443,24.4209,-3.7173,6.8536,6.2784
528231.0,10.5824,1.2258,25.0529,-3.356,7.018,6.6424
528241.0,10.1035,1.2929,24.3634,-3.3938,7.2245,6.9026
528251.0,8.1594,2.375,25.6754,-3.2007,7.8854,7.4325
528261.0,7.0964,1.8962,28.3761,-2.1678,8.9001,8.2775
528271.0,6.2728,0.1149,31.0001,-0.8652,10.0511,9.2369
528281.0,5.4971,-4.2042,35.5108,0.7583,11.351,10.0697
528291.0,5.3726,-8.8681,40.9217,2.3567,12.3737,10.563
528301.0,4.9991,-11.5401,44.1874,3.5508,12.7186,10.6316
528311.0,4.4819,-11.6933,44.6662,3.7418,13.124,10.5055
528321.0,3.486,-10.6207,48.066,3.2294,13.6471,10.4097
528331.0,1.9154,-10.1227,54.1377,2.461,13.9376,10.4587
528341.0,0.9577,-10.1035,61.1096,1.5059,13.861,10.6231
528351.0,-0.0479,-11.9231,70.1405,0.6306,13.3534,10.8743
528361.0,-2.557,-14.4418,78.4508,-0.0463,12.3024,11.1419
528371.0,-4.5298,-18.8472,78.4508,0.2192,10.7843,11.4798
528381.0,-3.9648,-24.373,78.4508,0.5582,8.7607,11.5213
528391.0,-2.5091,-29.554,78.4508,0.6811,6.5476,11.1206
528401.0,-2.0111,-33.1645,78.4508,0.5896,4.3968,10.4273
528411.0,-0.9864,-34.8596,78.4508,0.4518,2.5196,9.6115
528421.0,-1.2641,-36.6026,78.4508,0.7588,1.4771,8.9533
528431.0,-0.249,-39.7437,78.4508,1.1265,0.5683,8.1509
528441.0,1.992,-40.3471,78.4508,0.5779,-0.2528,7.0202
528451.0,0.9577,-38.7669,78.4508,-0.1618,-1.2068,5.9671
528461.0,0.1149,-36.8132,78.4508,-0.456,-2.7473,5.1838
528471.0,0.0383,-35.1565,78.4508,-0.1564,-4.4048,4.6097
528481.0,-0.1437,-35.099,78.4508,0.6274,-5.9011,4.1851
528491.0,0.68,-33.9019,77.4668,1.6123,-7.1143,3.8014
528501.0,1.5802,-32.5611,70.8588,2.2641,-7.78,3.4481
528511.0,2.1835,-30.9522,65.1223,2.419,-8.1812,3.0809
528521.0,1.9728,-29.9658,61.6076,2.2445,-8.5383,2.7723
528531.0,2.3367,-29.3912,59.4528,1.9731,-8.9288,2.4419
528541.0,2.1644,-29.6115,57.5853,1.7416,-9.3764,2.1136
528551.0,2.2314,-30.1669,54.9996,1.6208,-9.8611,1.7411
528561.0,2.9401,-30.4351,52.3851,1.5665,-10.2304,1.3149
528571.0,3.7733,-30.3489,49.7419,1.4628,-10.3975,0.8157
528581.0,4.2713,-29.7168,47.0508,1.2595,-10.6428,0.2363
528591.0,4.5107,-28.8645,45.0301,1.0855,-10.77,-0.2512
528601.0,4.4245,-28.1271,44.0725,1.2622,-10.8327,-0.7269
528611.0,4.8363,-26.9012,41.5633,1.4314,-10.8993,-1.1792
528621.0,4.8363,-24.5262,39.3607,1.4064,-10.9668,-1.5868
528631.0,4.0414,-22.1895,39.3319,1.3851,-11.1089,-1.8656
528641.0,4.0701,-20.2549,36.9377,1.5,-11.4516,-2.0891
528651.0,4.6639,-18.3779,34.4574,1.4303,-11.5878,-2.2652
528661.0,5.2864,-16.4434,31.364,1.3329,-11.6575,-2.4137
528671.0,5.43,-14.461,29.0656,1.0131,-11.7336,-2.5435
528681.0,6.3398,-12.2966,26.2788,0.6811,-11.7208,-2.6058
528691.0,7.0868,-10.8409,24.0569,0.2783,-11.6181,-2.6334
528701.0,7.7381,-9.5098,21.6723,-0.0569,-11.4825,-2.6244
528711.0,8.2839,-8.667,19.8144,-0.3315,-11.2276,-2.5978
528721.0,9.0405,-7.6327,18.8759,-0.3714,-10.7684,-2.494
528731.0,8.8681,-6.7133,18.5599,-0.0532,-10.3161,-2.2748
528741.0,9.5768,-6.7038,18.4354,0.704,-9.7446,-1.9662
528751.0,10.6973,-7.2784,17.6979,1.5868,-9.147,-1.6746
528761.0,12.0955,-7.0964,15.2175,1.9507,-8.6165,-1.5719
528771.0,13.034,-6.5793,13.8481,1.8996,-8.1967,-1.583
528781.0,13.7427,-5.3822,12.8808,1.3734,-7.7992,-1.5862
528791.0,14.4131,-4.4628,12.9957,0.9147,-7.5815,-1.5947
528801.0,14.6429,-3.8978,12.6797,0.3049,-7.5901,-1.6613
528811.0,15.4187,-2.9497,12.0285,-0.1101,-7.4517,-1.6602
528821.0,15.8017,-2.1931,11.3102,-0.3182,-7.3325,-1.6001
528831.0,16.2997,-1.312,10.6303,-0.339,-7.183,-1.5165
528841.0,16.4721,-0.4788,9.4044,-0.323,-6.9595,-1.4005
528851.0,17.4489,0.7949,7.6327,-0.455,-6.8509,-1.2792
528861.0,18.0236,1.4557,7.0006,-0.4528,-6.628,-1.086
528871.0,18.3109,1.743,5.114,-0.2607,-6.2603,-0.853
528881.0,19.0291,1.6185,2.9592,-0.3528,-5.965,-0.6928
528891.0,20.7625,1.0726,-0.0479,-0.6061,-5.3999,-0.6258
528901.0,21.7777,0.7853,-1.5419,-0.9174,-4.6677,-0.6928
528911.0,22.5725,0.8811,-3.1508,-1.2201,-3.8717,-0.8152
528921.0,23.2525,1.5802,-3.6392,-1.292,-2.9197,-0.8955
528931.0,23.4728,2.9018,-4.5681,-1.1573,-1.9268,-0.9025
528941.0,24.9284,4.798,-5.4588,-0.7705,-0.6332,-0.7673
528951.0,24.4975,7.2496,-6.7804,-0.4252,0.7849,-0.4294
528961.0,24.1623,9.8545,-8.2361,-0.257,2.2423,0.107
528971.0,23.3291,11.6646,-8.5234,-0.3906,3.7865,0.8636
528981.0,22.6204,12.785,-7.5369,-0.5741,5.2131,1.7682
528991.0,21.2605,12.5265,-6.5888,-0.8088,6.5232,2.7409
529001.0,19.8719,11.3102,-5.7365,-1.2042,7.663,3.6849
529011.0,18.7322,8.9256,-4.7692,-1.798,8.6553,4.5416
529021.0,17.5734,6.3111,-3.8499,-2.4254,9.5147,5.2711
529031.0,16.5966,3.4955,-4.7118,-3.1022,10.5087,5.965
529041.0,14.7866,0.1245,-4.9608,-3.4263,11.9167,6.6163
529051.0,12.6701,-4.1468,-5.3822,-3.8748,13.6476,7.233
529061.0,12.0189,-10.7356,-4.5107,-4.3564,15.6521,7.5278
529071.0,9.4619,-17.8895,-0.8236,-4.6916,17.4357,7.3469
529081.0,7.8817,-24.4879,6.5314,-4.6453,17.4357,6.777
529091.0,6.9145,-28.8741,16.338,-3.6828,17.4357,6.0746
529101.0,4.3383,-30.7703,24.1431,-2.7792,17.4357,5.3046
529111.0,2.059,-31.8429,32.0057,-1.7804,17.4357,4.6666
529121.0,-0.0479,-32.475,39.0829,-1.1792,17.4357,4.0308
529131.0,-2.624,-33.2124,42.205,-1.1967,17.4357,3.3864
529141.0,-3.6392,-36.0184,45.7676,-1.0286,17.4357,2.8872
529151.0,-3.0167,-39.5522,50.5081,-0.3688,17.4357,2.129
529161.0,-4.0606,-40.0023,53.7259,0.1724,17.4357,1.1467
529171.0,-5.3822,-37.8667,55.3827,0.2017,17.4357,0.2426
529181.0,-6.5888,-34.8787,58.5526,-0.4012,17.4357,-0.5545
529191.0,-9.6343,-32.0153,62.8143,-1.0397,17.4357,-1.0562
529201.0,-11.7316,-32.9442,70.763,-0.5199,17.4357,-1.168
529211.0,-10.6015,-33.107,77.2369,0.7843,17.4357,-1.3271
529221.0,-11.9614,-32.3409,78.4508,2.3088,16.7174,-1.6378
529231.0,-13.398,-29.6977,78.4508,2.9878,14.8438,-1.8672
529241.0,-12.6414,-28.4718,78.4508,3.6003,12.6371,-2.0582
529251.0,-12.2775,-28.3378,78.4508,3.6274,10.4555,-2.3264
529261.0,-11.7699,-28.8549,78.4508,3.4678,8.4686,-2.7212
529271.0,-11.3102,-29.3816,78.4508,2.9277,7.018,-3.2767
529281.0,-10.9846,-28.8549,78.4508,2.1136,5.883,-3.9344
529291.0,-11.8561,-27.0736,78.4508,1.3085,4.7049,-4.524
529301.0,-12.967,-25.3019,78.4508,0.8849,3.2634,-4.9423
529311.0,-12.2009,-22.879,78.4508,0.7897,1.9406,-5.219
529321.0,-12.0476,-19.6803,78.4508,0.8806,0.5092,-5.3243
529331.0,-12.0476,-16.9893,78.4508,0.928,-1.2143,-5.2621
529341.0,-11.0804,-15.026,78.4508,0.7114,-2.8255,-5.1407
529351.0,-10.4579,-14.4035,74.3926,0.2304,-4.2314,-5.0396
529361.0,-9.414,-14.6238,68.7327,-0.2996,-5.2791,-4.971
529371.0,-8.4851,-16.1369,64.7392,-0.5358,-5.9905,-4.9673
529381.0,-7.3837,-17.3532,60.6403,-0.6875,-6.446,-5.1184
529391.0,-6.7325,-17.7075,57.9876,-0.6859,-6.7339,-5.3291
529401.0,-6.7516,-17.7362,55.2869,-0.5087,-6.9297,-5.534
529411.0,-5.8897,-17.1425,53.4194,-0.1852,-7.0404,-5.7638
529421.0,-5.4396,-15.4761,51.7148,0.0644,-7.0297,-5.9054
529431.0,-5.8802,-14.0875,50.623,0.2453,-7.2298,-5.982
529441.0,-5.2098,-12.9095,48.2767,0.4294,-7.3421,-5.9847
529451.0,-4.7501,-11.9519,47.0987,0.63,-7.3027,-5.9682
529461.0,-4.5873,-10.5536,45.825,0.8546,-7.3378,-5.9352
529471.0,-4.6256,-9.1363,44.5896,0.8876,-7.4655,-5.7968
529481.0,-3.8595,-8.5808,43.0765,0.9621,-7.4905,-5.6351
529491.0,-2.7677,-8.7149,42.1667,1.1462,-7.5528,-5.5223
529501.0,-1.6376,-8.4467,40.5865,1.1669,-7.5853,-5.4866
529511.0,-1.5036,-8.1116,39.7725,1.2356,-7.4804,-5.3935
529521.0,-1.1588,-8.9735,39.8682,1.4984,-7.5161,-5.3174
529531.0,0.4214,-8.9735,38.2402,1.6549,-7.5592,-5.3648
529541.0,1.1492,-8.169,36.9665,1.7246,-7.4427,-5.4142
529551.0,1.6185,-7.173,36.3823,1.7581,-7.3549,-5.4323
529561.0,2.4229,-5.3439,35.7502,1.6586,-7.4427,-5.3813
529571.0,3.4477,-3.8211,33.7487,1.2132,-7.5592,-5.3009
529581.0,3.6871,-3.1508,33.5188,0.8961,-7.6076,-5.22
529591.0,4.6352,-2.1356,32.475,0.8391,-7.5725,-5.0881
529601.0,5.7365,-0.9673,30.6745,0.7678,-7.4921,-4.9141
529611.0,6.0142,0.1245,29.8988,0.7269,-7.3213,-4.6624
529621.0,6.9145,0.7757,27.8398,0.6391,-7.2357,-4.3718
529631.0,8.2361,0.9098,26.8821,0.5571,-6.9638,-4.1239
529641.0,9.0501,1.6472,25.9627,0.3049,-6.7706,-3.9275
529651.0,9.6534,2.0399,25.5892,0.0628,-6.6807,-3.6987
529661.0,10.4004,2.2122,25.4743,0.0325,-6.611,-3.421
529671.0,11.8944,2.1261,23.5685,-0.1612,-6.586,-3.1852
529681.0,12.8233,2.059,22.1224,-0.4523,-6.5913,-3.0341
529691.0,13.6661,2.5379,20.1017,-0.8344,-6.4673,-2.9186
529701.0,13.714,2.5379,18.7131,-1.0781,-6.2912,-2.8085
529711.0,14.5184,2.7485,16.9126,-1.1158,-5.9852,-2.693
529721.0,15.4953,3.5243,15.7922,-1.1126,-5.5302,-2.5781
529731.0,15.6102,4.5107,14.4227,-1.0344,-5.0535,-2.4115
529741.0,16.7115,5.3917,13.2543,-0.9583,-4.5081,-2.17
529751.0,17.5064,6.8953,11.8657,-0.9163,-3.9398,-1.8651
529761.0,17.7746,8.1594,10.8314,-1.1861,-3.4215,-1.541
529771.0,17.9565,8.6574,10.9463,-1.3212,-2.867,-1.1238
529781.0,18.6748,9.4236,10.4579,-1.5628,-2.3573,-0.6455
529791.0,18.761,9.3948,10.0556,-1.6831,-1.8576,-0.1532
529801.0,19.7186,9.347,9.73,-1.9417,-1.3627,0.3762
529811.0,19.8048,8.6383,9.9407,-2.0853,-0.8567,0.8849
529821.0,19.9102,7.6519,9.8354,-2.1684,-0.331,1.376
529831.0,19.1249,6.6559,10.0652,-2.1136,0.2091,1.8491
529841.0,18.7418,4.9129,10.1897,-1.8177,0.8663,2.3844
529851.0,18.4258,2.9305,9.9599,-1.2435,1.7113,2.8245
529861.0,18.0044,0.5938,9.3661,-0.6699,2.6866,3.1405
529871.0,17.7458,-1.5802,8.4755,-0.331,3.662,3.2879
529881.0,18.6173,-2.4708,7.2975,-0.5741,4.6565,3.2076
529891.0,18.7897,-2.3272,8.7053,-1.2292,5.6787,3.0565
529901.0,17.4394,-1.8771,11.789,-1.6671,6.3598,3.0357
529911.0,15.9071,-1.1971,13.8768,-2.2971,6.6855,3.1772
529921.0,13.4458,-1.9441,15.955,-2.9016,7.0255,3.4337
529931.0,11.3294,-4.118,18.8855,-2.8692,7.424,3.737
529941.0,10.3717,-7.4508,22.6683,-2.0231,7.9828,3.9962
529951.0,9.3182,-9.979,23.2238,-0.9871,8.4441,3.9887
529961.0,8.5904,-10.8505,22.8886,-0.3145,9.0193,3.7168
529971.0,9.3757,-8.6574,22.2182,-0.5422,9.544,3.3677
529981.0,8.6957,-4.1946,23.8941,-1.3595,9.7212,3.3124
529991.0,6.5505,-0.4884,24.5932,-2.6499,9.7329,3.704
530001.0,5.1906,-0.4788,27.7823,-3.6114,9.8835,4.433
530011.0,3.2753,-3.1891,31.0863,-3.8727,10.1091,5.1817
530021.0,1.2929,-7.5753,34.4286,-3.5433,10.1884,5.7755
530031.0,-0.1915,-11.5209,37.7805,-2.3051,10.4326,6.1656
530041.0,-2.1548,-13.6086,37.4453,-0.7327,10.7598,6.3465
530051.0,-2.9688,-13.6086,36.3344,0.6753,11.3335,6.3992
530061.0,-2.8347,-9.8833,34.5627,1.673,12.2232,6.5093
530071.0,-4.5203,-6.7708,35.6161,2.3519,13.4731,7.0526
530081.0,-6.5218,-6.5984,37.905,2.7414,14.508,7.6869
530091.0,-9.1075,-8.3606,41.956,2.8021,15.3467,8.2254
530101.0,-11.904,-11.6741,47.3382,2.9224,16.0155,8.5516
530111.0,-13.5033,-14.2694,55.1816,3.2549,16.106,8.5819
530121.0,-14.1833,-15.2559,61.0713,3.5492,15.5531,8.4116
530131.0,-14.4322,-13.5129,63.2644,3.5731,14.6507,8.0966
530141.0,-15.7922,-9.481,63.8869,2.9261,13.7849,7.8822
530151.0,-16.5583,-5.6982,64.2412,2.0103,13.0415,7.9136
530161.0,-20.571,-4.367,68.5412,1.1515,12.652,8.3286
530171.0,-22.8407,-8.0062,74.4501,1.2776,11.9715,8.9336
530181.0,-21.8447,-13.1394,77.4668,0.9578,10.9078,9.1028
530191.0,-21.1935,-18.1576,78.4508,0.0644,9.7957,8.7916
530201.0,-21.1552,-20.2358,78.4508,-0.886,7.9891,8.186
530211.0,-21.6149,-20.7912,78.4508,-1.3361,5.8453,7.6959
530221.0,-21.1935,-20.9924,78.4508,-1.5575,3.6423,7.2724
530231.0,-20.0059,-20.82,78.4508,-1.798,1.4207,6.8297
530241.0,-19.6995,-19.6803,78.4508,-2.2828,-0.4044,6.5008
530251.0,-19.5367,-20.6955,78.4508,-2.5084,-1.9752,6.2885
530261.0,-17.6022,-22.9556,78.4508,-2.6201,-3.0953,5.9613
530271.0,-16.8169,-23.8079,78.4508,-2.4855,-4.2787,5.477
530281.0,-16.0699,-23.8941,75.6951,-2.2045,-5.3105,5.0535
530291.0,-14.7866,-22.4959,71.3281,-1.914,-6.0453,4.6129
530301.0,-13.9247,-20.571,67.4207,-1.8039,-6.5636,4.2819
530311.0,-13.6565,-19.1728,64.021,-1.7017,-6.9004,4.1138
530321.0,-12.7659,-19.0866,62.4312,-1.5798,-7.1319,3.9685
530331.0,-12.3637,-19.6133,61.8374,-1.2414,-7.3958,3.8759
530341.0,-13.0245,-20.14,61.4065,-0.6529,-7.8045,3.8349
530351.0,-11.8369,-20.6572,59.29,-0.1437,-8.0626,3.7599
530361.0,-11.5592,-21.6244,57.9876,0.1378,-8.2573,3.6279
530371.0,-10.908,-22.4672,57.1257,0.3608,-8.6351,3.3965
530381.0,-9.7396,-23.3674,56.0626,0.6955,-8.8602,3.1443
530391.0,-9.5289,-23.8558,54.9326,1.1111,-8.9948,2.8574
530401.0,-9.7205,-24.2293,54.4058,1.5346,-9.2593,2.5611
530411.0,-8.7436,-24.2293,52.2702,1.5724,-9.5754,2.1364
530421.0,-8.3414,-23.6834,50.3165,1.2654,-9.8531,1.6453
530431.0,-8.3318,-23.693,49.5504,1.0711,-10.1144,1.2052
530441.0,-7.106,-23.8654,48.8417,1.1031,-10.3735,0.7333
530451.0,-6.4548,-23.0705,47.4531,1.1967,-10.5188,0.2474
530461.0,-6.608,-22.2182,46.8689,1.5282,-10.7386,-0.1639
530471.0,-5.1906,-20.4082,45.2983,2.1199,-10.7263,-0.4672
530481.0,-4.7118,-18.2342,44.0342,2.4195,-10.6486,-0.7141
530491.0,-4.9321,-16.3476,43.3638,2.4179,-10.9088,-0.8918
530501.0,-4.0414,-14.8153,42.2146,2.4525,-11.0328,-0.9711
530511.0,-3.9265,-13.6086,41.4484,2.353,-11.2105,-1.0376
530521.0,-3.8786,-13.149,39.9257,2.1418,-11.5995,-1.1025
530531.0,-3.2082,-12.7563,38.221,1.8949,-11.8539,-1.1733
530541.0,-2.0877,-12.1913,36.6504,1.79,-11.8847,-1.276
530551.0,-1.6089,-11.5879,36.8132,1.9821,-11.8932,-1.3324
530561.0,-1.7238,-10.9559,36.4876,2.2035,-12.0449,-1.3979
530571.0,-1.6472,-9.6438,36.1908,2.6265,-12.2072,-1.3941
530581.0,-1.9058,-8.5234,36.7558,3.0703,-12.4296,-1.3047
530591.0,-1.8483,-7.3741,36.1046,3.4348,-13.032,-1.1887
530601.0,-1.5036,-6.0813,33.1741,3.1581,-14.0265,-1.1403
530611.0,-0.6895,-4.9895,26.93,2.2285,-14.8906,-1.1792
530621.0,1.1205,-4.5681,21.9117,1.0217,-15.418,-1.3223
530631.0,1.7142,-4.3191,16.9605,-0.4821,-15.7101,-1.5995
530641.0,4.4149,-3.8307,14.2407,-1.4404,-15.4871,-1.8645
530651.0,4.118,-3.237,11.971,-2.2445,-15.3094,-2.0907
530661.0,6.1387,-2.6528,10.975,-1.781,-14.6507,-2.1886
530671.0,6.9528,-0.7278,7.0102,-1.8337,-14.1079,-2.2125
530681.0,8.5521,0.4118,4.5777,-1.5192,-13.2406,-2.0896
530691.0,9.9024,0.9768,1.8292,-1.3388,-12.1183,-1.9305
530701.0,11.9806,2.1356,-0.8236,-1.0552,-10.8461,-1.6937
530711.0,12.718,2.4134,-1.7813,-0.9738,-9.5477,-1.4713
530721.0,15.3325,3.304,-3.7541,-0.8317,-8.1903,-1.2377
530731.0,16.7307,3.3806,-4.3958,-1.1275,-6.893,-1.0174
530741.0,17.5543,3.5243,-5.114,-1.4138,-5.5893,-0.7966
530751.0,18.6843,2.5283,-4.7788,-1.6916,-4.416,-0.5475
530761.0,21.0786,0.5076,-3.5338,-1.782,-3.0421,-0.4156
530771.0,21.8064,-0.7278,-2.5187,-1.7517,-1.8587,-0.3842
530781.0,23.3004,-2.7964,-1.1013,-1.5633,-0.6348,-0.3868
530791.0,25.7425,-4.5969,0.8811,-1.1754,0.7008,-0.5816
530801.0,25.5605,-5.3439,2.3176,-0.8109,1.6772,-0.8881
530811.0,26.1734,-5.8323,4.5394,-0.1447,2.875,-1.119
530821.0,27.7632,-5.5162,6.5697,0.7423,4.1212,-1.4021
530831.0,27.4088,-3.8307,8.2839,1.3005,4.9864,-1.7006
530841.0,26.3458,-0.5171,8.2265,1.4585,5.7335,-1.8001
530851.0,25.3211,2.1931,8.9639,1.0525,6.4827,-1.6059
530861.0,24.2868,3.0263,10.9367,0.647,7.2064,-1.2606
530871.0,23.2908,2.4708,13.0436,0.0788,7.8428,-0.8929
530881.0,21.9883,1.0343,15.026,-0.397,8.4994,-0.555
530891.0,22.0458,-1.3312,17.5351,-0.7301,9.2194,-0.3379
530901.0,21.4137,-3.4285,21.1647,-1.0014,9.8265,-0.3421
530911.0,19.891,-4.5586,25.187,-0.9908,10.0825,-0.4246
530921.0,18.081,-5.4396,29.305,-0.8253,10.0825,-0.5167
530931.0,16.9222,-6.8857,31.4502,-0.2905,9.9409,-0.588
530941.0,16.9893,-8.3222,31.8429,0.0585,9.6818,-0.828
530951.0,17.4489,-8.5425,30.0041,-0.2081,9.337,-1.2808
530961.0,17.267,-8.4084,28.6825,-0.7774,9.1704,-1.8241
530971.0,16.8743,-7.106,28.1654,-1.3686,9.0805,-2.2806
530981.0,15.7634,-5.9472,26.5565,-1.9321,9.022,-2.6244
530991.0,14.3461,-5.3151,25.4264,-2.478,9.1225,-2.8447
531001.0,13.8864,-6.1387,23.6164,-2.7691,9.3503,-3.107
531011.0,12.5265,-6.2345,21.9405,-2.8952,9.8324,-3.3113
531021.0,12.1913,-5.3151,18.7993,-2.8926,10.4017,-3.5572
