time_ms,ax,ay,az,gx,gy,gz
536291.0,20.4465,-12.3253,32.7335,3.8775,2.6393,0.879
536301.0,20.1879,-11.8752,31.8908,4.1499,2.8676,0.9222
536311.0,19.7091,-11.3581,31.977,4.6198,3.1054,0.9924
536321.0,19.4601,-10.4196,31.3162,5.0178,3.3465,1.0892
536331.0,19.3068,-10.161,31.0863,5.3445,3.6514,1.1893
536341.0,18.9046,-9.979,31.0384,5.5638,3.9908,1.2712
536351.0,18.7227,-9.3853,30.9427,5.684,4.2872,1.2888
536361.0,18.2725,-9.1459,31.6705,5.6069,4.5714,1.3308
536371.0,17.9948,-9.3374,32.3696,5.526,4.7911,1.351
536381.0,17.7267,-9.73,34.0072,5.3962,4.9731,1.267
536391.0,17.6788,-9.73,34.9841,5.2365,5.0444,1.1595
536401.0,16.9414,-9.6438,36.4302,5.062,5.0859,1.0392
536411.0,16.4434,-9.0788,36.9377,4.8848,5.0801,0.9088
536421.0,16.2518,-8.6479,38.0774,4.5772,5.0035,0.77
536431.0,15.2463,-7.9679,39.2362,4.3894,4.9832,0.687
536441.0,14.5376,-7.4029,40.9696,4.1079,4.9098,0.6327
536451.0,14.1737,-7.173,42.1571,3.9626,4.7597,0.622
536461.0,13.6182,-6.9623,43.3925,3.7743,4.5506,0.6071
536471.0,13.4937,-6.7804,44.4555,3.5343,4.3011,0.5922
536481.0,12.9095,-6.7325,45.4898,3.2528,4.0084,0.5406
536491.0,12.5648,-6.7421,45.5473,2.8527,3.6641,0.4496
536501.0,12.6031,-6.7421,45.6239,2.3456,3.3906,0.3464
536511.0,12.785,-6.8666,45.6622,1.4638,3.1118,0.1309
536521.0,12.5935,-6.8857,46.7635,0.3299,2.7452,-0.1277
536531.0,12.4403,-6.924,48.5065,-0.8567,2.3759,-0.414
536541.0,12.1051,-6.8761,52.2032,-1.5474,1.9427,-0.613
536551.0,11.6837,-6.2728,54.7314,-1.831,1.2377,-0.6625
536561.0,11.7412,-6.0525,55.0475,-2.0449,0.6061,-0.6715
536571.0,11.8465,-5.8035,55.2486,-2.4014,0.1096,-0.6891
536581.0,11.5592,-5.4013,56.3499,-2.7106,-0.5481,-0.6598
536591.0,11.0038,-5.3056,57.0873,-2.924,-1.2675,-0.5305
536601.0,11.4443,-5.5833,56.7138,-3.1139,-2.0284,-0.3922
536611.0,11.8274,-6.2537,55.488,-3.5226,-2.8436,-0.3012
536621.0,12.2487,-7.3358,52.9406,-3.9956,-3.6088,-0.2517
536631.0,12.6893,-8.5808,50.6996,-4.4969,-4.1739,-0.2873
536641.0,13.0915,-10.0078,48.2192,-5.0668,-4.6799,-0.3996
536651.0,13.4363,-11.1953,46.1889,-5.6329,-5.1562,-0.5656
536661.0,13.9821,-12.6127,43.6319,-6.2848,-5.5361,-0.8695
536671.0,14.7291,-13.9821,42.1475,-6.9755,-5.8229,-1.2457
536681.0,15.1792,-14.4706,40.5195,-7.6544,-6.114,-1.6799
536691.0,15.4474,-14.5089,39.7533,-8.1445,-6.388,-2.104
536701.0,15.4761,-14.5184,38.3264,-8.4691,-6.7115,-2.4605
536711.0,15.6581,-14.1641,36.6313,-8.6777,-7.0372,-2.7915
536721.0,15.8975,-13.714,34.7638,-8.7724,-7.3394,-3.1043
536731.0,16.3189,-12.4882,31.9195,-9.0656,-7.5927,-3.3954
536741.0,16.6445,-11.3964,29.554,-9.3774,-7.8625,-3.6386
536751.0,16.6349,-10.0748,26.7384,-9.744,-8.0514,-3.7828
536761.0,16.3093,-9.1554,23.9133,-10.0665,-8.2398,-3.8264
536771.0,15.9454,-7.9679,19.9676,-10.4347,-8.2983,-3.8009
536781.0,16.4913,-7.4699,16.1752,-10.7966,-8.0567,-3.6631
536791.0,17.1521,-7.106,13.7619,-10.8663,-7.4496,-3.4476
536801.0,17.0659,-6.5601,10.4866,-10.7125,-6.7099,-3.2001
536811.0,18.2438,-7.039,10.094,-10.207,-5.5489,-2.7931
536821.0,19.0866,-5.9951,7.5848,-9.2683,-4.2138,-2.32
536831.0,19.1249,-6.177,7.7381,-8.1988,-3.0602,-1.8204
536841.0,19.5941,-6.0047,6.4931,-7.1537,-1.6852,-1.3149
536851.0,20.0634,-5.6024,5.8035,-6.3337,-0.5811,-0.862
536861.0,19.9964,-4.7309,5.1332,-5.8022,0.3374,-0.3959
536871.0,19.8623,-3.5626,4.3479,-5.476,1.2499,0.1117
536881.0,19.0483,-3.055,4.5777,-5.3052,2.1886,0.7019
536891.0,17.8703,-1.8483,4.0701,-5.1312,2.941,1.3494
536901.0,16.1944,-1.0247,4.0797,-5.0902,3.8434,2.2029
536911.0,15.342,-1.2737,5.3247,-4.5975,5.0556,3.2076
536921.0,14.0588,-3.4381,7.7476,-3.7557,6.28,4.2633
536931.0,13.4746,-6.6942,10.8314,-2.5674,7.4097,5.1269
536941.0,13.2351,-9.8737,14.6238,-1.3739,8.31,5.716
536951.0,11.9902,-11.5209,17.0084,-0.0564,8.9395,6.1001
536961.0,10.5728,-12.0764,18.0523,0.9913,9.4493,6.3438
536971.0,9.4427,-11.5113,18.3683,1.4952,9.7616,6.5178
536981.0,8.4084,-9.5672,17.5926,1.5,10.1575,6.7052
536991.0,5.5067,-6.7804,18.1959,1.3255,10.6119,7.0356
537001.0,2.375,-3.7924,18.2725,0.8721,11.1334,7.6459
537011.0,-0.8715,-3.2274,21.9022,0.8014,11.9858,8.5808
537021.0,-3.5913,-4.4628,26.7384,1.1403,12.6467,9.6286
537031.0,-5.8897,-7.0773,30.6075,1.4809,12.8542,10.5364
537041.0,-8.0541,-10.3621,34.6106,1.6778,12.8223,11.2084
537051.0,-9.6055,-13.714,38.4126,2.1322,12.7484,11.7054
537061.0,-11.0325,-17.2191,42.7509,3.1916,12.7723,12.0662
537071.0,-11.8178,-19.0578,46.0932,4.3458,12.7627,12.2248
537081.0,-12.8904,-19.077,48.5065,5.2509,12.3929,12.2173
537091.0,-14.9015,-17.2766,48.4586,5.4643,11.7783,12.1928
537101.0,-16.1369,-14.3556,46.9551,4.9848,11.2223,12.2828
537111.0,-19.2207,-13.1873,47.0317,3.9456,11.0887,12.693
537121.0,-21.2797,-16.2614,49.2056,2.7345,10.7045,13.1123
537131.0,-21.6149,-20.8296,52.8352,1.7719,9.9462,13.2794
537141.0,-22.5246,-25.7999,55.4114,1.0233,9.3258,13.2267
537151.0,-21.7394,-31.1917,59.7305,1.0568,8.6452,12.9575
537161.0,-20.5997,-35.3767,62.9579,1.409,7.7092,12.3642
537171.0,-18.9238,-36.7654,62.8334,1.9156,6.5333,11.5612
537181.0,-18.7227,-35.9418,61.7704,2.3397,5.6037,10.7492
537191.0,-18.8376,-31.9195,58.7154,2.8548,5.1604,10.1639
537201.0,-20.4752,-28.7208,57.7003,3.0304,5.0082,9.9074
537211.0,-21.3563,-27.0162,56.8671,2.9532,4.6304,9.8835
537221.0,-21.4329,-27.4854,57.0969,2.6308,4.1207,9.8558
537231.0,-20.7051,-28.8358,56.6755,2.1854,3.6843,9.7063
537241.0,-19.8623,-30.7415,56.9245,1.7879,3.3305,9.3923
537251.0,-19.7091,-31.7471,58.1408,1.6442,2.8303,8.9523
537261.0,-19.5846,-32.3409,60.0562,1.7698,2.4653,8.5228
537271.0,-20.3603,-32.8389,61.3778,2.5275,2.2354,8.1802
537281.0,-20.7434,-33.5188,63.3218,3.3736,1.988,7.863
537291.0,-20.7625,-33.9594,63.0154,3.7753,1.5149,7.4576
537301.0,-20.6189,-34.8883,64.1933,3.4571,0.8588,6.8557
537311.0,-20.322,-34.3903,64.2604,2.7409,0.0208,6.1039
537321.0,-20.0921,-34.0168,64.6147,1.7602,-0.9615,5.2945
537331.0,-19.642,-33.1453,65.5532,0.7886,-1.8927,4.5033
537341.0,-20.2549,-32.7239,66.6067,0.1383,-2.9548,3.7828
537351.0,-20.6189,-32.6569,67.5165,0.0133,-3.9834,3.1474
537361.0,-20.3316,-31.9865,66.827,0.3986,-4.8981,2.5776
537371.0,-20.3411,-29.9467,64.9499,0.9371,-5.6228,2.0784
537381.0,-21.136,-26.7384,62.412,1.3654,-6.2278,1.7038
537391.0,-21.9596,-24.2006,60.3626,2.0194,-6.5727,1.5516
537401.0,-22.0841,-21.883,57.231,2.5371,-6.8797,1.5202
537411.0,-21.5574,-20.322,54.8272,2.577,-7.1729,1.4223
537421.0,-20.7146,-19.3164,51.9063,2.2429,-7.3671,1.2781
537431.0,-20.3794,-18.4832,50.4219,1.6543,-7.5693,1.0408
537441.0,-19.6037,-17.6692,49.943,0.9589,-7.7561,0.7987
537451.0,-19.0962,-17.3819,50.2495,0.4417,-7.871,0.5619
537461.0,-19.2973,-16.702,51.8009,0.3198,-8.0945,0.389
537471.0,-19.5941,-16.1178,52.2223,0.4581,-8.4201,0.2027
537481.0,-19.4696,-14.9111,51.5711,0.5593,-8.832,0.1123
537491.0,-19.2207,-13.5895,49.9239,0.5316,-9.246,0.0649
537501.0,-19.0483,-13.2256,48.2671,0.6891,-9.6371,0.0623
537511.0,-18.5982,-12.3637,45.3366,0.6109,-9.9111,0.0277
537521.0,-17.2095,-12.5935,42.8658,0.4225,-10.0777,-0.0096
537531.0,-15.7634,-12.8138,40.6057,0.2464,-10.1165,-0.1192
537541.0,-15.0069,-12.967,38.9489,0.0878,-10.0505,-0.2873
537551.0,-13.7523,-12.6988,37.7039,-0.0697,-9.9941,-0.4592
537561.0,-12.5648,-12.5552,37.3879,0.0612,-9.8611,-0.6141
537571.0,-11.7699,-12.1147,35.9896,0.3725,-9.685,-0.7258
537581.0,-11.1857,-11.3868,34.9649,0.6157,-9.5387,-0.8242
537591.0,-10.2089,-10.9846,34.4765,0.8524,-9.4008,-0.8844
537601.0,-8.7149,-10.726,33.0208,1.0669,-9.2545,-0.9317
537611.0,-7.2305,-10.6015,32.1685,1.1957,-9.0124,-1.0046
537621.0,-6.3782,-10.2185,32.3505,1.5293,-8.7431,-1.0951
537631.0,-5.7652,-9.5672,31.2204,1.93,-8.6447,-1.1345
537641.0,-4.6064,-9.1842,30.4926,2.2029,-8.3845,-1.1387
537651.0,-3.6679,-8.6766,29.2955,2.4131,-8.1248,-1.1557
537661.0,-2.4421,-7.9583,28.2324,2.2508,-8.1014,-1.235
537671.0,-1.494,-7.173,26.997,2.0002,-7.8295,-1.2787
537681.0,-0.431,-7.2496,26.4894,1.8672,-7.5177,-1.2888
537691.0,0.7566,-7.3167,26.2596,1.8326,-7.2649,-1.3526
537701.0,1.8292,-7.1539,26.2404,1.7884,-6.9148,-1.441
537711.0,1.9632,-7.1539,26.8342,1.8055,-6.6839,-1.5458
537721.0,3.3519,-6.8857,26.93,1.8012,-6.5024,-1.665
537731.0,4.0989,-6.3973,27.8015,1.972,-6.197,-1.764
537741.0,4.0414,-5.5545,29.3816,2.1492,-5.9591,-1.8049
537751.0,4.7597,-4.5681,30.8469,2.3913,-6.0081,-1.798
537761.0,4.9033,-3.8786,31.8142,2.4919,-6.2358,-1.7496
537771.0,5.3343,-3.5147,31.795,2.6829,-6.4838,-1.6974
537781.0,6.0717,-2.6624,30.7799,2.7398,-6.7451,-1.6373
537791.0,6.2632,-2.3655,29.6594,2.6675,-6.7456,-1.5453
537801.0,6.8666,-2.1644,29.9467,2.8037,-6.6291,-1.4537
537811.0,6.8953,-2.0016,29.7551,2.6318,-6.876,-1.4042
537821.0,7.5753,-1.6664,29.0081,2.4014,-7.084,-1.3723
537831.0,8.6479,-1.2258,27.677,2.0417,-7.2947,-1.3713
537841.0,9.7971,-1.1875,26.4416,1.4356,-7.5023,-1.4298
537851.0,10.4579,-0.814,24.2868,0.9839,-7.5523,-1.4915
537861.0,11.2432,-0.4693,22.2469,0.273,-7.605,-1.5868
537871.0,12.0955,0.2873,20.0826,-0.4007,-7.5853,-1.7299
537881.0,13.0245,0.7374,19.0195,-0.9897,-7.3879,-1.7969
537891.0,14.0013,1.1971,17.6022,-1.1909,-6.9403,-1.8251
537901.0,13.8864,1.8004,17.0659,-1.1387,-6.4726,-1.7262
537911.0,14.1354,2.9305,16.5775,-0.9621,-6.031,-1.516
537921.0,15.6006,2.988,16.2997,-0.5598,-5.4738,-1.2356
537931.0,16.0316,3.0933,14.9781,-0.3996,-5.0418,-0.9647
537941.0,16.089,3.3806,12.7467,-0.3783,-4.6618,-0.638
537951.0,18.5599,2.5474,12.0572,-0.1362,-4.0089,-0.3688
537961.0,19.7186,1.7813,9.2895,-0.331,-3.2496,-0.1655
537971.0,20.9541,0.6033,8.0158,-0.4374,-2.3972,-0.0649
537981.0,21.5382,-0.4118,8.1786,-0.6247,-1.4005,-0.0697
537991.0,21.3467,-1.0151,8.5617,-0.563,-0.4491,-0.0585
538001.0,20.6763,-1.6281,8.9735,-0.4539,0.39,-0.0952
538011.0,19.8336,-1.4748,9.5193,-0.4816,1.1297,-0.0607
538021.0,19.7953,-2.1644,10.7452,0.1554,1.8853,-0.0575
538031.0,18.5503,-1.6472,10.0652,0.1357,2.6244,-0.0926
538041.0,18.0523,-2.0016,8.9352,-0.0282,3.306,-0.1133
538051.0,17.6884,-2.9975,9.5481,-0.199,4.0478,-0.2011
538061.0,16.8169,-3.3232,9.4906,-0.381,4.7704,-0.3304
538071.0,15.7538,-3.7158,10.7452,-0.4917,5.4744,-0.4794
538081.0,14.7483,-3.6105,11.2623,-0.5933,6.1023,-0.6093
538091.0,13.9343,-3.4477,12.038,-0.6444,6.6392,-0.7077
538101.0,13.2064,-3.4093,11.3485,-0.8796,7.1149,-0.829
538111.0,12.4594,-3.5243,10.3525,-1.4724,7.6305,-0.9951
538121.0,11.6741,-3.6105,9.7013,-2.0422,8.2041,-1.1951
538131.0,10.9559,-3.869,9.8545,-2.5643,8.9416,-1.3287
538141.0,9.1746,-3.6296,9.1363,-2.9883,9.8318,-1.3691
538151.0,7.7189,-3.6583,10.1131,-3.1719,10.9903,-1.3069
538161.0,5.3917,-4.3766,11.6837,-3.207,12.3115,-1.1472
538171.0,4.1372,-5.7078,14.6429,-3.0554,13.3065,-1.0328
538181.0,2.5762,-7.2401,17.6884,-2.859,14.2484,-0.9158
538191.0,1.3216,-8.9926,21.136,-2.4238,15.0572,-0.8812
538201.0,0.0479,-10.4866,23.4249,-2.1982,15.7159,-0.9253
538211.0,-2.6911,-12.4211,25.8286,-2.2503,16.114,-1.0483
538221.0,-4.7692,-14.6717,28.6251,-2.2056,16.5173,-1.2467
538231.0,-5.4013,-17.0276,29.4487,-2.4898,16.8573,-1.6437
538241.0,-7.2113,-18.7993,31.4119,-2.8697,17.3846,-2.1034
538251.0,-10.094,-20.6189,35.5491,-2.8793,17.4357,-2.5446
538261.0,-12.9095,-21.3275,40.6535,-2.4967,17.4357,-2.9527
538271.0,-15.3995,-21.8064,45.5473,-2.1987,17.4357,-3.4034
538281.0,-17.5926,-20.3794,49.2152,-2.0066,17.4357,-3.7897
538291.0,-21.0019,-20.0155,53.86,-2.1689,17.4357,-4.0536
538301.0,-23.3961,-20.0251,57.7003,-1.8001,17.4357,-4.2351
538311.0,-25.4073,-20.2262,61.4831,-1.0653,17.4341,-4.3559
538321.0,-27.2652,-21.567,66.3098,0.2538,17.3591,-4.4304
538331.0,-27.4663,-21.0402,69.9107,1.5149,16.9403,-4.7257
538341.0,-29.171,-18.8088,73.2913,1.9023,16.0608,-5.0928
538351.0,-30.5596,-15.3899,75.8196,1.5681,14.9204,-5.3983
538361.0,-32.36,-13.5512,78.4508,1.0839,13.5135,-5.4685
538371.0,-32.4462,-13.6469,78.4508,0.8897,12.1604,-5.5063
538381.0,-32.1493,-13.398,78.4508,0.5747,10.7678,-5.5957
538391.0,-32.1781,-13.0723,78.4508,0.4656,9.0613,-5.6936
538401.0,-32.1972,-11.0516,78.4508,0.3219,7.2596,-5.7511
538411.0,-32.5037,-9.5385,78.4508,0.4347,5.4488,-5.6622
538421.0,-30.6362,-7.9104,78.4508,0.3081,3.7615,-5.502
538431.0,-30.55,-6.8857,78.4508,0.1559,2.2663,-5.336
538441.0,-29.171,-5.2768,78.4508,-0.1309,0.9344,-5.1477
538451.0,-28.1654,-4.8267,77.0263,-0.5917,-0.1868,-4.9215
538461.0,-26.3554,-5.5258,74.5076,-1.0163,-1.0876,-4.7459
538471.0,-24.5837,-5.5258,71.5675,-1.4473,-1.9752,-4.6384
538481.0,-24.2964,-6.4835,68.9722,-1.5516,-2.7611,-4.5288
538491.0,-22.4385,-6.9336,66.4535,-1.4814,-3.3214,-4.466
538501.0,-21.2509,-6.6846,63.5804,-1.2776,-3.7674,-4.4256
538511.0,-20.0826,-5.928,61.1096,-1.0967,-4.1297,-4.3894
538521.0,-19.5367,-4.9799,58.3611,-0.9711,-4.4219,-4.2702
538531.0,-19.9102,-5.2577,56.417,-0.861,-4.6767,-4.1281
538541.0,-19.0866,-5.2098,54.358,-0.506,-4.7624,-4.019
538551.0,-18.8088,-4.8459,52.8065,-0.133,-4.7262,-3.9206
538561.0,-18.1097,-3.8786,51.5136,0.1383,-4.6895,-3.7918
538571.0,-17.085,-2.4325,50.5177,0.2049,-4.7555,-3.6482
538581.0,-16.836,-1.5897,50.8241,0.3108,-4.8124,-3.414
538591.0,-16.4242,-0.6129,50.4698,0.5348,-4.946,-3.1341
538601.0,-16.6732,-0.3065,51.1497,0.8008,-5.0875,-2.7787
538611.0,-16.0699,-0.1724,50.2399,1.2148,-5.2887,-2.4264
538621.0,-14.9494,-0.1245,48.7076,1.2143,-5.4105,-2.129
538631.0,-14.8441,-0.3831,48.382,0.9477,-5.7207,-1.9183
538641.0,-13.7236,-0.6225,47.5297,0.571,-6.0554,-1.7554
538651.0,-13.4171,-1.7334,47.2041,0.3262,-6.4269,-1.6304
538661.0,-13.5033,-1.6281,45.6431,0.1751,-6.7823,-1.525
538671.0,-12.6318,-2.6528,44.6088,0.1963,-6.9313,-1.4122
538681.0,-11.1666,-1.8675,41.8794,0.0788,-6.8259,-1.2377
538691.0,-10.8122,-2.7581,42.3008,0.1277,-6.8116,-1.0302
538701.0,-9.4619,-3.3806,41.6687,0.3384,-6.644,-0.8147
538711.0,-8.4467,-4.3,41.6591,0.7178,-6.5051,-0.6231
538721.0,-7.5657,-4.5298,40.7302,0.8801,-6.5115,-0.4938
538731.0,-6.9145,-5.679,40.4716,0.9546,-6.6115,-0.415
538741.0,-5.928,-6.292,39.1117,0.9493,-6.6711,-0.4135
538751.0,-4.8842,-7.106,37.8954,0.8886,-6.6913,-0.497
538761.0,-4.367,-6.8091,36.9186,0.754,-6.7248,-0.63
538771.0,-3.4955,-6.4931,35.3863,0.6321,-6.7163,-0.7359
538781.0,-3.122,-6.0813,34.5627,0.3858,-6.6211,-0.7934
538791.0,-2.7964,-5.7652,34.0551,0.4395,-6.5343,-0.8062
538801.0,-1.8771,-5.545,33.0304,0.4624,-6.4162,-0.8072
538811.0,-1.1301,-5.6503,32.4654,0.5332,-6.2752,-0.7939
538821.0,-0.6033,-5.7174,31.728,0.5593,-6.2252,-0.8141
538831.0,0.3639,-5.5737,30.3872,0.5337,-6.2273,-0.8737
538841.0,1.245,-5.3056,28.9028,0.3533,-6.2002,-0.9908
538851.0,1.7334,-4.8554,28.0026,0.1777,-6.1369,-1.1212
538861.0,2.1835,-3.8595,26.2883,0.05,-6.0741,-1.2255
538871.0,2.6911,-2.8635,25.3019,0.0383,-5.874,-1.2068
538881.0,3.0358,-2.241,23.875,0.1325,-5.5483,-1.1036
538891.0,3.553,-2.0494,22.5438,0.1995,-5.2647,-0.9951
538901.0,4.8267,-1.9441,21.1839,0.3092,-4.8172,-0.8918
538911.0,5.7748,-1.743,20.3507,0.2836,-4.3995,-0.8322
538921.0,6.2345,-2.1548,20.0347,0.2458,-4.0488,-0.7753
538931.0,7.1251,-2.2027,19.0962,0.2873,-3.7051,-0.7774
538941.0,8.1307,-2.241,18.4354,0.3219,-3.3784,-0.8147
538951.0,8.5138,-1.8004,17.2861,0.1926,-3.0815,-0.8445
538961.0,9.2608,-1.6281,16.089,0.0176,-2.6967,-0.9025
538971.0,9.8067,-1.8292,15.4953,-0.2054,-2.2977,-0.9493
538981.0,9.6534,-1.7334,15.2271,-0.2937,-1.8512,-1.0057
538991.0,10.3813,-1.494,14.0683,-0.3948,-1.3202,-1.0743
539001.0,10.5153,-1.3312,13.6278,-0.514,-0.6678,-1.0797
539011.0,10.4579,-1.4461,14.2599,-0.5864,-0.1176,-1.1185
539021.0,10.4962,-0.6033,14.3365,-0.3751,0.5135,-1.0802
539031.0,10.6207,0.2298,13.5608,-0.3304,1.1722,-0.961
539041.0,10.2472,0.2394,13.3213,-0.5326,1.6911,-0.8125
539051.0,10.6015,-0.431,13.2351,-0.754,2.187,-0.7375
539061.0,10.6973,-1.3216,13.465,-0.9472,2.8495,-0.7019
539071.0,10.3813,-2.0686,13.3788,-1.193,3.5199,-0.7721
539081.0,9.2703,-2.8443,14.0492,-1.2286,4.1186,-0.8897
539091.0,9.5002,-2.5953,14.2216,-1.1973,4.863,-0.9988
539101.0,8.8202,-2.6432,15.8209,-0.8865,5.8516,-1.0626
539111.0,8.4563,-2.0303,16.7403,-0.6008,6.7083,-1.1126
539121.0,8.2839,-0.5171,17.0754,-0.6891,7.4517,-1.1611
539131.0,6.9049,-0.182,18.7418,-0.9206,8.252,-1.126
539141.0,6.0334,0.1915,22.1607,-0.8439,9.0406,-1.0616
539151.0,4.8937,1.312,24.7273,-0.7327,9.6334,-0.9897
539161.0,3.9648,2.375,27.0257,-0.8987,9.8952,-0.8854
539171.0,2.5762,3.802,29.9179,-1.2968,9.975,-0.7322
539181.0,0.565,5.1523,33.3656,-1.7177,9.7786,-0.3831
539191.0,-0.2873,5.3439,36.1333,-1.4378,9.7579,0.1745
539201.0,-1.8004,5.0853,37.091,-0.8354,9.9372,0.7966
539211.0,-4.8459,3.486,36.7654,-0.4704,10.2192,1.3303
539221.0,-5.6216,1.6759,37.1772,-0.0484,10.9972,1.7315
539231.0,-6.3015,0.4501,40.7397,0.2416,12.0284,2.0124
539241.0,-10.0652,-1.2641,46.3134,0.9509,12.5414,2.254
539251.0,-10.5058,-1.3886,50.0388,1.6139,12.7734,2.4419
539261.0,-11.0325,-0.6608,53.8791,1.8917,13.0964,2.5706
539271.0,-15.8496,-0.249,60.2477,2.1582,12.9463,2.7675
539281.0,-19.9102,0.9194,64.902,2.9804,12.5563,3.1389
539291.0,-22.3331,2.2793,67.4782,4.0946,12.5132,3.6263
539301.0,-23.5015,4.0701,69.9107,5.0588,12.4435,4.0536
539311.0,-24.4687,7.0485,70.7918,5.2525,11.9795,4.4724
539321.0,-25.5988,8.6095,73.1189,4.5735,11.359,4.8837
539331.0,-26.5373,8.7628,74.1532,3.1395,10.5837,5.2115
539341.0,-29.4966,6.3398,77.3519,0.8977,9.4439,5.3163
539351.0,-32.111,2.0494,78.4508,-0.655,7.9769,5.3584
539361.0,-32.1781,-0.2298,78.4508,-0.9466,6.0836,5.4281
539371.0,-34.352,-1.8196,78.4508,-0.4209,3.9148,5.6085
539381.0,-33.9689,-1.7047,78.4508,0.7098,1.9507,5.9607
539391.0,-32.5803,-1.4844,78.4508,1.7267,0.2352,6.3284
539401.0,-31.7758,-1.8483,78.4508,1.9885,-1.2095,6.6408
539411.0,-29.4104,-3.6488,73.3679,1.3723,-1.7938,6.6998
539421.0,-27.5429,-6.2249,67.3058,0.008,-1.9177,6.4583
539431.0,-27.6387,-9.8067,67.8517,-1.4016,-2.0236,6.007
539441.0,-26.6523,-12.651,72.0751,-2.486,-2.5728,5.327
539451.0,-26.6139,-13.7906,78.3957,-2.7494,-3.7003,4.6448
539461.0,-27.5237,-11.6358,78.4508,-2.2631,-5.2333,4.2314
539471.0,-27.9643,-8.9639,78.4508,-1.4718,-6.8227,4.1755
539481.0,-27.926,-7.106,76.0303,-0.8945,-8.2398,4.3378
539491.0,-25.934,-7.0485,71.0695,-0.6045,-9.2417,4.5267
539501.0,-24.8518,-7.6231,64.8733,-0.39,-10.0591,4.6826
539511.0,-23.1471,-8.9639,59.0506,-0.6694,-10.6045,4.7374
539521.0,-21.2701,-11.2432,54.4346,-0.7801,-10.8115,4.7092
539531.0,-19.2398,-14.3077,51.7914,-0.7886,-10.9046,4.4995
539541.0,-17.0659,-16.5008,49.3684,-0.6721,-10.8854,4.1505
539551.0,-15.7538,-18.4354,47.5584,-0.5236,-10.8705,3.6391
539561.0,-14.0683,-18.9908,46.0261,-0.3379,-10.912,3.0155
539571.0,-13.6374,-18.1289,44.3502,-0.1325,-10.9243,2.4206
539581.0,-13.0532,-16.8743,43.6702,0.232,-10.771,1.98
539591.0,-12.0955,-15.3133,43.45,0.787,-10.5853,1.6586
539601.0,-11.0995,-13.149,42.454,0.911,-10.7008,1.3734
539611.0,-10.0844,-10.9463,42.0613,0.572,-11.0275,1.1478
539621.0,-9.3087,-9.8162,41.3143,0.1948,-11.417,0.9445
539631.0,-8.6957,-8.9926,39.6863,-0.4076,-11.8427,0.7662
539641.0,-7.9679,-8.6287,37.7805,-1.0727,-12.2817,0.5752
539651.0,-7.0102,-9.0022,35.8077,-1.7209,-12.6073,0.3193
539661.0,-6.1387,-9.3757,34.3424,-2.2711,-12.9357,0.0208
539671.0,-5.2481,-9.5481,32.6282,-2.8947,-13.3028,-0.3214
539681.0,-3.9265,-9.414,30.3297,-3.4779,-13.5561,-0.7125
539691.0,-2.9209,-9.098,27.9739,-4.0935,-13.8152,-1.1047
539701.0,-1.2067,-8.6766,25.3402,-4.5794,-13.8131,-1.4803
539711.0,0.1915,-7.9104,22.8024,-5.1679,-13.7423,-1.8571
539721.0,1.5419,-7.3646,21.8351,-5.6819,-13.6072,-2.2476
539731.0,2.5762,-6.7995,21.9692,-5.9022,-13.4422,-2.5467
539741.0,3.2944,-5.928,22.0841,-5.593,-13.2214,-2.7159
539751.0,4.0797,-4.9991,22.697,-4.9486,-13.0054,-2.6941
539761.0,4.3383,-4.2713,21.7872,-3.861,-12.8101,-2.5712
539771.0,5.114,-3.6105,20.0921,-2.917,-12.5366,-2.3988
539781.0,6.8666,-3.1795,16.9414,-2.245,-12.0912,-2.2578
539791.0,9.1842,-2.7677,13.6086,-1.8411,-11.4708,-2.1641
539801.0,9.1842,-2.0016,11.5113,-2.0082,-10.7918,-2.0651
539811.0,11.971,-2.2984,12.469,-1.2909,-9.6722,-1.8746
539821.0,12.0764,-1.3599,12.8808,-0.8099,-8.8389,-1.7107
539831.0,12.967,-0.4118,13.1585,-0.6891,-8.4217,-1.5351
539841.0,14.3269,0.5363,12.9287,-0.8413,-8.0535,-1.3271
539851.0,14.9685,0.4884,12.1434,-1.2941,-7.9689,-1.1355
539861.0,16.1752,-0.7087,12.6797,-1.5713,-7.6906,-0.97
539871.0,18.33,-1.9249,12.153,-1.5676,-7.3581,-0.9546
539881.0,18.7418,-2.739,12.3541,-1.524,-7.1638,-1.069
539891.0,19.8815,-2.2697,11.5592,-1.3601,-6.8818,-1.1217
539901.0,21.6819,-3.2753,11.6741,-0.5635,-6.479,-1.127
539911.0,23.0705,-3.3327,8.9064,-0.124,-6.1337,-1.2606
539921.0,24.6507,-2.6719,5.9951,-0.0298,-5.6313,-1.4681
539931.0,25.9244,-1.5419,4.7884,0.0984,-4.7693,-1.6235
539941.0,25.7999,-0.0958,3.7733,-0.0809,-4.2697,-1.764
539951.0,25.8861,1.6951,2.2505,-0.2033,-3.6966,-1.8028
539961.0,26.2309,3.371,0.929,-0.2528,-2.8963,-1.7224
539971.0,25.8382,4.865,-0.6416,-0.3991,-2.2003,-1.5495
539981.0,26.5661,5.6024,-1.5897,-0.0043,-1.1584,-1.2334
539991.0,26.2883,6.2728,-3.2274,0.3097,0.0708,-0.8939
540001.0,25.6371,7.1539,-5.1619,0.7194,1.3367,-0.4746
540011.0,24.6124,7.7668,-6.3877,1.0392,2.8181,0.0442
540021.0,23.4536,7.2688,-7.5657,1.3207,4.4564,0.6321
540031.0,22.0458,6.0908,-8.2552,1.3819,6.0661,1.1515
540041.0,19.9868,4.4245,-8.5521,0.9142,7.5927,1.4873
540051.0,16.4913,2.988,-8.4946,0.0176,8.7815,1.7437
540061.0,14.3748,1.0726,-8.7149,-1.2547,9.5967,1.8911
540071.0,13.2447,0.182,-11.2815,-3.0421,10.5571,1.7953
540081.0,10.6207,-0.316,-10.9463,-4.4841,11.4149,1.7544
540091.0,7.6902,0.4884,-11.4826,-4.7746,12.6935,1.8964
540101.0,3.1987,2.739,-13.1777,-3.9706,14.6352,2.2801
540111.0,-2.6911,4.2329,-17.6213,-3.0149,16.844,2.9389
540121.0,-6.9145,4.2329,-23.4344,-2.4616,17.4357,3.6083
540131.0,-14.1162,1.5993,-19.9485,-2.1577,17.4357,4.1941
540141.0,-20.6763,-2.4038,-12.153,-1.475,17.4357,4.6496
540151.0,-25.0146,-6.5218,-2.7102,-1.409,17.4357,4.7757
540161.0,-32.044,-13.3596,16.3859,-0.7455,17.4357,4.7172
540171.0,-34.6202,-18.6269,36.2003,0.8673,17.4357,4.3686
540181.0,-36.3344,-21.3659,56.2637,3.3826,17.4357,3.8259
540191.0,-37.5794,-18.8663,69.6617,5.162,17.4357,3.1613
540201.0,-36.5738,-15.6198,75.1971,5.2025,17.4357,2.6047
540211.0,-34.036,-13.8385,77.7445,4.0898,17.4357,2.055
540221.0,-33.4614,-14.4706,78.4508,2.2631,17.4357,1.5144
540231.0,-31.8046,-17.0084,78.4508,0.7551,16.6461,0.9817
540241.0,-31.0767,-20.0251,78.4508,-0.4784,14.0856,0.406
540251.0,-28.9028,-24.44,78.4508,-1.1696,12.1279,-0.3097
540261.0,-26.9779,-25.6563,78.4508,-1.3313,10.7678,-1.1792
540271.0,-28.7687,-23.0801,78.4508,-1.003,9.1321,-1.7943
540281.0,-28.8932,-20.0059,78.4508,-0.4842,7.5512,-2.1492
540291.0,-28.0026,-16.3763,72.7454,-0.3134,6.5109,-2.3088
540301.0,-26.6235,-14.8919,67.5356,-0.3092,5.9708,-2.3376
540311.0,-24.0282,-14.6525,63.839,-0.2565,5.9958,-2.3636
540321.0,-22.0745,-14.3365,63.1686,0.0814,6.2289,-2.4163
540331.0,-21.1839,-14.1449,62.7855,0.191,6.2124,-2.4323
540341.0,-19.8815,-15.1122,63.274,0.1181,6.1613,-2.5978
540351.0,-19.0004,-15.5049,65.7065,0.0176,6.205,-2.8638
540361.0,-19.393,-14.6142,68.7232,-0.1586,5.816,-3.1427
540371.0,-20.0826,-13.5703,71.9793,-0.1495,5.0646,-3.2587
540381.0,-20.4561,-12.9861,73.2913,-0.0654,4.1888,-3.3443
540391.0,-20.82,-12.1721,72.3624,-0.0569,3.3135,-3.4029
540401.0,-19.891,-12.22,71.1844,-0.1628,2.6297,-3.4433
540411.0,-19.2494,-12.0285,70.7151,-0.2192,2.0758,-3.5503
540421.0,-19.2207,-11.3964,68.8955,-0.5853,1.4404,-3.6764
540431.0,-17.5543,-11.1282,69.518,-0.8163,0.8301,-3.8168
540441.0,-17.6117,-10.7835,67.7751,-1.0903,0.2655,-3.9696
540451.0,-16.7307,-9.9886,67.1143,-1.5351,-0.1767,-4.1547
540461.0,-17.5064,-9.2799,68.0815,-1.8518,-0.7359,-4.2564
540471.0,-17.832,-9.165,67.7463,-1.8794,-1.3122,-4.2941
540481.0,-17.2957,-8.5617,67.3633,-1.6267,-1.6203,-4.3255
540491.0,-18.4737,-7.4029,68.4359,-1.4021,-2.1263,-4.2165
540501.0,-18.7035,-6.7804,68.9147,-0.9296,-2.933,-3.9398
540511.0,-18.4258,-7.4986,67.0185,-0.5683,-3.7354,-3.6295
540521.0,-17.0754,-10.3525,64.2125,-0.3326,-4.374,-3.4954
540531.0,-14.959,-12.6988,61.5023,-0.2559,-4.7656,-3.6833
540541.0,-13.8193,-13.6469,59.8742,-0.3299,-5.1945,-4.0206
540551.0,-14.2886,-13.6661,59.2517,-0.3719,-5.908,-4.3984
540561.0,-13.6086,-13.3213,56.8096,-0.2395,-6.4928,-4.7816
540571.0,-13.532,-11.8657,53.5918,-0.0458,-6.8685,-5.129
540581.0,-13.4841,-10.5153,50.6805,0.1256,-7.084,-5.3743
540591.0,-12.6318,-8.916,47.1945,0.1889,-7.084,-5.5659
540601.0,-12.22,-8.0828,46.5529,0.39,-6.8605,-5.6862
540611.0,-10.9367,-6.0142,45.9687,0.8439,-6.6695,-5.7074
540621.0,-11.6454,-3.7158,45.9782,1.1685,-6.6158,-5.5882
540631.0,-11.6071,-2.3846,45.6526,1.6825,-6.7067,-5.3078
540641.0,-9.7396,-1.5131,44.7237,1.9688,-6.7541,-5.0343
540651.0,-8.8873,-1.2354,43.7469,2.0146,-6.7222,-4.8135
540661.0,-9.4427,-0.9577,43.5553,1.9736,-7.0015,-4.6022
540671.0,-7.5944,-1.3503,41.6495,2.0258,-7.1463,-4.3867
540681.0,-6.0717,-1.3408,40.6727,1.914,-7.0473,-4.2479
540691.0,-5.7557,-1.3312,39.8778,1.7581,-7.1005,-4.1084
540701.0,-4.8076,-1.7909,39.4564,1.6293,-7.0984,-3.9594
540711.0,-4.0797,-2.6815,39.3607,1.6629,-7.018,-3.8637
540721.0,-2.7198,-3.122,39.7533,1.7299,-7.0116,-3.8647
540731.0,-2.5379,-2.2889,39.4948,1.806,-7.0659,-3.8568
540741.0,-2.7102,-1.6759,38.7956,1.8576,-7.3144,-3.8216
540751.0,-2.2122,-1.2067,37.2346,1.931,-7.4826,-3.7381
540761.0,-1.0343,-0.8236,34.7447,1.9944,-7.4554,-3.6625
540771.0,-0.5842,0.0,31.6035,1.6868,-7.4379,-3.6067
540781.0,0.1628,0.249,29.6594,1.2664,-7.0569,-3.5316
540791.0,1.3503,0.3543,28.673,0.8663,-6.6844,-3.4992
540801.0,2.6145,0.565,27.9355,0.34,-6.355,-3.4795
540811.0,4.0223,1.1013,27.1694,-0.3427,-6.1395,-3.4939
540821.0,4.8746,1.1396,27.677,-0.9546,-6.0464,-3.4832
540831.0,5.6503,1.0439,27.7153,-1.3287,-5.9698,-3.4582
540841.0,6.7612,1.1779,26.4033,-1.3755,-5.8341,-3.4273
540851.0,6.79,2.1356,25.1774,-1.4223,-5.5138,-3.3523
540861.0,7.4124,2.5379,24.5741,-1.441,-5.2647,-3.3023
540871.0,7.1826,3.3806,23.8367,-1.3377,-4.9827,-3.2007
540881.0,7.6806,4.367,22.3618,-1.1084,-4.6773,-3.0708
540891.0,7.9487,5.8802,21.6244,-0.8987,-4.3202,-2.9357
540901.0,8.9543,7.5465,20.571,-0.8854,-3.9754,-2.7281
540911.0,9.0309,9.4715,19.5654,-1.0483,-3.6913,-2.4435
540921.0,9.5289,11.2527,18.1576,-1.2808,-3.5236,-2.0556
540931.0,10.0652,12.6127,17.4106,-1.6719,-3.2975,-1.55
540941.0,9.8067,13.0723,16.7977,-2.0119,-3.1671,-0.9589
540951.0,10.2185,12.6988,16.2518,-2.1763,-2.8564,-0.3523
540961.0,9.7875,11.8082,15.1314,-2.1348,-2.4749,0.2591
540971.0,9.7205,10.5536,13.8481,-2.0768,-2.0912,0.8508
540981.0,10.2759,8.9926,11.8178,-1.9539,-1.475,1.4074
540991.0,9.8162,7.4795,10.7164,-1.8294,-0.7391,1.8842
541001.0,9.663,5.7078,9.8641,-1.5027,0.1293,2.3104
541011.0,10.6111,4.5394,8.2456,-1.1861,1.2728,2.6755
541021.0,10.6973,3.62,7.6136,-0.8498,2.6654,2.9436
541031.0,10.0078,3.3136,8.3893,-0.5843,4.0143,3.1528
541041.0,9.0022,3.4955,9.3948,-0.6965,5.1147,3.3539
541051.0,7.8338,3.5338,11.157,-1.2632,5.9043,3.4907
541061.0,6.3877,2.8922,13.7906,-1.764,6.4487,3.6503
541071.0,5.2481,2.624,16.2997,-1.889,7.0037,3.8477
541081.0,4.6064,3.1316,17.765,-1.7948,7.6374,4.1356
541091.0,2.8922,3.5817,19.1919,-1.7645,8.2068,4.5405
541101.0,1.5131,3.1987,20.389,-1.6325,8.8262,5.0199
541111.0,0.8523,2.0016,21.816,-1.5543,9.6254,5.4611
541121.0,-0.3543,0.182,24.5262,-1.6256,10.1607,5.8144
541131.0,-1.743,-1.5897,26.4894,-1.789,10.4805,5.9767
541141.0,-3.3327,-3.5147,28.9028,-1.9252,10.7338,6.0507
541151.0,-4.5107,-4.1755,31.9099,-1.4692,11.0185,6.0725
541161.0,-5.1236,-2.2793,32.4558,-0.9285,11.4819,6.1246
541171.0,-6.8953,0.3831,33.8157,-0.7354,12.3269,6.4311
541181.0,-9.7779,2.7102,37.4453,-0.7556,12.7175,6.8871
541191.0,-13.1394,4.4149,40.2034,-0.9307,12.8952,7.5922
541201.0,-15.5815,5.3822,42.5114,-1.11,13.4502,8.3744
541212.0,-19.8431,6.3207,47.6159,-1.4559,13.8136,9.2119
541221.0,-24.5932,6.0908,53.9078,-1.3388,13.8967,10.1671
541231.0,-28.0313,4.3383,60.9085,-0.4182,13.8685,11.3361
541241.0,-29.8126,1.7621,67.1813,0.5151,13.7376,12.4615
541251.0,-31.9865,-1.1971,70.9929,1.0531,13.2326,13.3033
541261.0,-34.036,-3.3902,71.8548,-0.2277,12.2146,13.8222
541271.0,-36.0663,-8.1882,73.5499,-2.7542,10.886,14.0116
541281.0,-36.9473,-15.9933,78.4508,-4.9167,9.9133,13.8823
541291.0,-38.336,-23.1471,78.4508,-5.4866,8.4404,13.6231
541301.0,-38.3072,-29.8413,78.4508,-5.2009,5.9873,13.1597
541311.0,-35.1277,-33.9785,78.4508,-4.8268,3.2885,12.42
541321.0,-33.0591,-36.3536,78.4508,-4.3974,1.1302,11.4867
541331.0,-31.4311,-36.3057,78.4508,-3.8892,-0.5151,10.5619
541341.0,-30.4255,-35.0128,78.4508,-3.3773,-1.7884,9.7744
541351.0,-28.8453,-35.7023,78.4508,-3.0176,-2.6978,9.0321
541361.0,-26.2692,-35.8843,74.0958,-3.0522,-3.6194,8.0785
541371.0,-24.2197,-35.7119,70.4087,-3.554,-4.383,7.0425
541381.0,-23.3866,-34.9745,69.0105,-4.0685,-5.0732,5.9809
541391.0,-22.8215,-33.7199,68.3688,-4.4043,-5.8963,5.0386
541401.0,-22.3523,-32.6282,68.2347,-4.4681,-6.7323,4.1755
541411.0,-22.6013,-30.4734,67.4207,-4.0159,-7.6065,3.5119
541421.0,-22.6013,-28.7975,66.1949,-3.2698,-8.4361,3.0453
541431.0,-22.8598,-26.6523,61.8853,-2.4993,-9.1582,2.7425
541441.0,-22.2182,-25.2923,57.6332,-2.1274,-9.7659,2.4536
541451.0,-21.2318,-24.3442,53.4769,-1.8917,-9.9202,2.1609
541461.0,-20.9732,-23.6643,50.3932,-1.7097,-10.0537,1.8587
541471.0,-19.7378,-23.2812,47.4722,-1.5171,-10.0654,1.6112
541481.0,-18.0331,-22.9077,46.1123,-1.1946,-9.6515,1.3085
541491.0,-17.9565,-22.0075,46.0932,-0.8716,-9.4248,0.9855
541501.0,-17.9469,-20.7242,46.3422,-0.7301,-9.6078,0.6843
541511.0,-17.2574,-19.1919,45.8154,-0.8647,-9.8079,0.381
541521.0,-16.4051,-17.5734,45.576,-0.8466,-10.0154,0.1325
541531.0,-15.8688,-16.1752,45.1163,-0.8344,-10.306,-0.0165
541541.0,-15.1314,-15.1122,44.3406,-0.804,-10.6061,-0.0819
541551.0,-14.4993,-14.5567,42.4827,-0.9913,-11.1355,-0.1293
541561.0,-13.7619,-14.9781,40.7972,-1.1637,-11.7001,-0.2235
541571.0,-11.8657,-14.8632,37.474,-1.1244,-11.8039,-0.3507
541581.0,-10.9271,-15.1409,34.6202,-1.1169,-11.7411,-0.5092
541591.0,-9.9407,-15.3612,33.787,-0.6875,-11.6373,-0.705
541601.0,-8.8011,-14.461,30.7799,-0.364,-11.4872,-0.9046
541611.0,-8.102,-14.279,30.1765,0.2416,-11.0323,-1.028
541621.0,-6.7229,-13.283,30.6937,1.2659,-10.3523,-1.1142
541631.0,-6.2153,-11.5688,31.7854,2.1247,-10.0293,-1.1478
541641.0,-5.794,-8.9543,31.8812,2.5382,-10.2203,-1.0919
541651.0,-4.4436,-6.2441,29.9467,2.2083,-10.6928,-1.0211
541661.0,-3.4572,-4.8459,26.3745,1.3287,-11.2318,-0.9376
541671.0,-1.9632,-4.4053,22.8981,0.1192,-11.5543,-0.9408
541681.0,-0.4022,-4.9991,20.1592,-0.9621,-11.5351,-0.9897
541691.0,0.5746,-5.5545,20.638,-1.358,-11.1446,-1.0147
541701.0,1.0822,-5.679,22.381,-1.0264,-10.7652,-0.9871
541711.0,1.494,-5.4971,23.6068,-0.5236,-10.8136,-0.9424
541721.0,2.2984,-4.6064,23.1471,0.049,-10.9642,-0.7992
541731.0,3.1316,-3.9073,21.3467,0.4363,-11.2627,-0.6226
541741.0,4.1276,-3.6966,18.7322,0.6151,-11.4835,-0.4459
541751.0,5.4971,-4.0606,14.777,0.5513,-11.5186,-0.2826
541761.0,6.541,-4.2904,12.7659,0.464,-11.2579,-0.1809
541771.0,7.2592,-4.4053,9.1075,-0.3746,-11.2888,-0.2075
541781.0,9.481,-5.2002,7.5178,-0.0676,-10.7279,-0.2357
541791.0,9.7492,-5.8131,6.4165,-0.4518,-10.1772,-0.2927
541801.0,11.0325,-6.426,4.4245,-0.5843,-9.6291,-0.4432
541811.0,12.5265,-7.5465,5.679,-0.3267,-8.8799,-0.6162
541821.0,14.0492,-7.9679,4.2808,-0.1272,-8.3829,-0.8892
541831.0,15.6772,-8.102,3.4572,0.2091,-7.8386,-1.2531
541841.0,17.6405,-6.5793,1.4748,0.4363,-7.0649,-1.6006
541851.0,19.1249,-4.8746,0.498,0.7604,-6.2832,-1.8251
541861.0,20.1209,-2.6528,-1.4844,1.0094,-5.3695,-1.9066
541871.0,20.3699,-0.5746,-3.4381,1.2297,-4.2936,-1.8363
541881.0,21.0977,0.7661,-4.6064,1.4591,-3.0219,-1.5953
541891.0,21.318,1.7334,-6.426,1.3446,-1.7235,-1.3207
541901.0,21.0786,1.8292,-6.6463,1.3244,-0.3118,-0.9998
541911.0,20.6572,1.3886,-6.1387,1.3399,1.0664,-0.721
541921.0,19.4218,0.9481,-6.0142,1.3473,2.2971,-0.4789
541931.0,19.259,0.5938,-5.7174,1.1802,3.4188,-0.3134
541941.0,18.7131,0.5171,-5.296,0.9168,4.4921,-0.1841
541951.0,17.2095,0.8428,-5.2098,0.6912,5.4228,0.0362
541961.0,15.9262,0.7853,-7.106,0.3448,6.3029,0.3714
541971.0,15.275,-0.3543,-8.3701,0.0788,7.4294,0.7684
541981.0,13.5416,-1.5323,-11.4347,-0.6109,8.6708,1.06
541991.0,11.2623,-3.8307,-13.7236,-1.3313,10.0064,1.2797
542001.0,7.5848,-6.6272,-17.2861,-1.8384,11.5495,1.4718
542011.0,5.9568,-11.722,-19.6899,-1.6873,14.0174,1.3367
542021.0,3.5338,-13.1202,-25.0434,-1.5442,16.9808,0.8173
542031.0,-3.237,-12.8233,-29.3625,-2.3892,17.4357,0.3613
542041.0,-10.2663,-11.971,-29.7551,-3.3523,17.4357,0.3139
542051.0,-18.2247,-12.7755,-25.1391,-2.9436,17.4357,0.6737
542061.0,-29.1135,-15.4857,-16.0986,-2.2695,17.4357,1.0578
542071.0,-41.7357,-19.6516,-0.4214,-0.3336,17.4357,1.467
542081.0,-55.9764,-27.2652,18.7035,1.8188,17.4357,1.872
542091.0,-60.3243,-39.5426,40.5099,6.2337,17.4357,1.5697
542101.0,-66.2332,-44.4938,66.4152,9.3396,17.4357,0.2852
542111.0,-69.5085,-48.5161,78.4508,11.227,17.4357,-1.4968
542121.0,-68.9434,-44.1682,78.4508,11.4729,17.4357,-3.5274
542131.0,-67.8517,-34.534,78.4508,11.2579,17.4357,-5.0934
542141.0,-63.3889,-24.8805,78.4508,9.6344,17.4357,-6.3295
542151.0,-62.5844,-13.4171,78.4508,6.2614,14.8193,-7.1867
542161.0,-61.6363,-7.4891,78.4508,3.3108,6.2981,-7.3958
542171.0,-57.1257,-4.7022,78.4508,0.6524,-1.0318,-7.3517
542181.0,-50.5368,-6.608,78.4508,-1.0855,-5.7218,-7.3022
542191.0,-44.1108,-7.6902,78.4508,-2.4727,-7.9721,-7.3735
542201.0,-38.9393,-8.6095,78.4508,-3.3167,-9.0773,-7.5209
542211.0,-34.0743,-7.5178,78.4508,-3.6444,-9.3306,-7.5432
542221.0,-28.5197,-6.6655,77.0646,-3.2507,-9.105,-7.3788
542231.0,-24.871,-5.8897,69.5755,-2.7973,-8.6527,-7.1367
542241.0,-21.7394,-6.857,64.0018,-2.0971,-8.2201,-6.8089
542251.0,-17.832,-8.2169,59.3187,-1.5389,-7.6087,-6.6839
542261.0,-15.1409,-9.481,57.8918,-1.0344,-7.0287,-6.7232
542271.0,-13.714,-9.7683,58.7729,-0.4528,-6.8749,-6.8653
542281.0,-13.4937,-9.3948,58.3228,0.1751,-7.043,-7.0361
542291.0,-12.3828,-8.0924,56.4649,0.5997,-7.4608,-7.2809
542301.0,-12.287,-5.8419,55.1911,0.8056,-7.8247,-7.457
542311.0,-13.2926,-3.3327,52.5001,1.0632,-8.4122,-7.5203
542321.0,-13.0436,-0.565,47.6925,0.9817,-8.9139,-7.4959
542331.0,-11.5017,1.2929,43.8618,0.9477,-8.8889,-7.382
542341.0,-10.3238,3.4955,40.395,0.8945,-8.6495,-7.1803
542351.0,-10.4674,5.5833,38.7382,0.6753,-8.5691,-6.8925
542361.0,-9.5385,6.5697,37.5028,0.6524,-8.3999,-6.4327
542371.0,-8.6383,6.5984,36.6121,0.9456,-8.0418,-5.9123
542381.0,-7.6614,6.3686,35.4629,1.0818,-7.9056,-5.4744
542391.0,-7.0198,6.0142,34.4574,1.209,-7.7188,-5.0705
542401.0,-5.6503,5.1811,33.9977,1.6001,-7.4868,-4.7044
542411.0,-3.7733,4.9991,32.3217,1.8863,-7.0989,-4.4032
542421.0,-3.0646,4.9321,31.3353,1.9544,-6.8392,-4.1659
542431.0,-1.494,5.047,30.5596,1.8347,-6.6754,-3.9839
542441.0,-0.316,5.3247,30.9331,1.6325,-6.4412,-3.7988
542451.0,0.1532,5.9759,30.1765,1.2952,-6.3944,-3.6258
542461.0,1.063,6.675,30.1191,0.978,-6.3683,-3.3624
542471.0,1.8675,6.8761,29.0273,0.596,-6.2667,-3.0692
542481.0,2.6911,6.2153,29.2093,0.5438,-6.1331,-2.7627
542491.0,3.2657,6.1962,28.6155,0.4911,-5.999,-2.4733
542501.0,3.9552,5.5067,28.0409,0.5465,-5.9304,-2.2216
542511.0,4.6639,5.2768,27.4376,0.6635,-5.6744,-1.98
542521.0,5.1811,5.2385,26.2021,0.6662,-5.5393,-1.7687
542531.0,5.8993,4.865,25.3402,0.5422,-5.4456,-1.5713
542541.0,6.8857,4.4532,23.061,0.1304,-5.4148,-1.4436
542551.0,7.5561,3.3327,22.5151,-0.2123,-5.2897,-1.4293
542561.0,8.4946,3.0358,20.9828,-0.3831,-4.9976,-1.4314
542571.0,8.5138,2.7964,20.6955,-0.3044,-4.6645,-1.4644
542581.0,8.8298,2.873,19.8527,-0.0899,-4.3335,-1.4899
542591.0,9.2703,3.5626,19.2111,0.0245,-4.0148,-1.5431
542601.0,9.4044,4.4053,19.077,0.2959,-3.6785,-1.5107
542611.0,9.6055,5.1811,18.512,0.4044,-3.421,-1.4532
542621.0,10.3046,6.8857,16.4913,0.207,-3.3656,-1.3516
542631.0,10.5536,7.6231,14.4706,-0.5177,-3.3587,-1.2111
542641.0,11.2049,8.0062,11.5305,-1.3473,-3.2528,-1.0435
542651.0,11.8848,7.9392,9.8833,-2.163,-2.7808,-0.8716
542661.0,12.3062,7.355,8.8585,-2.576,-2.0859,-0.6215
542671.0,12.4977,6.7612,8.3127,-2.6441,-1.2686,-0.3464
542681.0,12.7372,5.8131,7.6327,-2.369,-0.182,-0.1155
542691.0,11.8465,4.367,8.667,-1.9731,0.8684,0.0921
542701.0,11.6167,2.806,9.4523,-1.3835,1.7852,0.1325
542711.0,12.651,2.557,9.4332,-0.9243,2.6127,0.1091
542721.0,12.4211,3.2657,9.0597,-0.6332,3.5572,0.0261
542731.0,11.0612,4.7692,9.2608,-0.448,4.4756,0.0266
542741.0,9.8833,6.11,9.3278,-0.3272,5.5132,0.1501
542751.0,8.6383,6.9432,10.6111,-0.1623,6.6876,0.3517
542761.0,6.7612,8.1786,11.3677,-0.1735,7.6332,0.588
542771.0,5.2481,9.6534,12.3253,-0.6476,8.5447,0.7934
542781.0,4.6639,11.1857,14.5472,-1.4734,9.3561,1.0174
542791.0,2.1548,12.2392,19.4505,-2.088,9.8558,1.4298
542801.0,1.2258,12.2966,25.0817,-2.344,10.132,2.0045
542811.0,0.565,11.6454,31.2491,-2.2429,9.9979,2.7021
542821.0,-1.4844,10.477,34.6968,-1.7868,9.5147,3.5045
542831.0,-2.8156,8.6287,34.8979,-0.9216,9.2189,4.2808
542841.0,-2.3846,6.0047,31.6035,-0.4959,9.6429,4.8736
542851.0,-4.6926,1.8962,30.4351,-0.5321,10.3719,5.1833
542861.0,-5.2577,-2.5091,31.3353,-0.9168,11.2063,5.0849
542871.0,-5.1236,-5.7365,35.5587,-1.64,11.8076,4.639
542881.0,-6.0142,-5.9855,42.2337,-2.1992,12.0869,4.1553
542891.0,-8.6957,-3.8882,49.4355,-2.6137,11.8427,3.9387
542901.0,-11.8369,-1.1588,55.7945,-2.7297,11.1589,4.0786
542911.0,-13.5703,0.9577,60.0945,-2.1582,10.5268,4.6283
542921.0,-15.1314,1.6855,62.0002,-1.2547,10.1181,5.3499
542931.0,-17.765,0.4022,62.8143,-0.2543,9.9739,6.0985
542941.0,-17.9086,-1.9249,62.8909,0.9764,10.1394,6.7131
542951.0,-17.6213,-3.0646,63.2357,1.665,10.6268,7.0978
542961.0,-18.7227,-3.3327,65.8597,1.9353,10.9014,7.4746
542971.0,-19.642,-5.7269,70.7822,1.9662,10.8125,7.8396
542981.0,-21.0594,-9.6726,75.5802,1.9747,10.4161,8.0328
542991.0,-20.3507,-12.9287,78.4508,1.6788,9.6185,7.9412
543001.0,-19.8623,-15.1218,78.4508,1.3319,8.8027,7.6039
543011.0,-21.6149,-16.7115,78.4508,0.7136,7.0883,7.2139
543021.0,-21.7489,-17.1808,78.4508,0.7918,5.1791,6.9207
543031.0,-21.2222,-17.7746,78.4508,0.9807,3.6758,6.6195
543041.0,-20.6763,-17.3628,78.4508,0.77,2.1503,6.18
543051.0,-20.4752,-15.5432,78.4508,0.0245,0.6747,5.7383
543061.0,-20.7338,-12.9957,78.4508,-1.0706,-0.6582,5.4052
543071.0,-20.6572,-12.4403,78.4508,-1.881,-1.9768,5.2759
543081.0,-20.7242,-13.0149,78.4508,-2.2748,-3.3779,5.2088
543091.0,-20.1209,-13.9343,78.4508,-1.9912,-4.7826,5.2307
543101.0,-18.9812,-15.4761,78.4508,-1.806,-6.0373,5.1471
543111.0,-18.0331,-16.7307,78.4508,-1.4644,-6.9803,5.0285
543121.0,-17.334,-17.0563,75.3312,-1.2749,-7.8481,4.8199
543131.0,-16.4913,-17.5734,72.3049,-0.9966,-8.7139,4.5826
543141.0,-15.7155,-17.6979,67.957,-0.903,-9.3056,4.2574
543151.0,-14.8153,-16.8456,63.6762,-1.0429,-9.6988,3.9163
543161.0,-14.7004,-15.8783,60.3339,-1.4612,-10.0165,3.6088
543171.0,-14.0875,-16.6541,59.357,-1.5378,-10.1485,3.3379
543181.0,-12.7563,-17.018,59.2325,-1.292,-10.0979,3.0612
543191.0,-12.2679,-17.1616,59.7305,-0.8423,-10.2522,2.7915
543201.0,-11.789,-17.1999,59.7976,-0.2373,-10.5715,2.5531
543211.0,-10.9654,-16.7307,58.3706,0.6572,-10.8375,2.3541
543221.0,-10.3717,-15.9454,55.8519,0.9865,-11.0275,2.1513
543231.0,-9.5193,-15.4665,54.4633,1.1036,-11.2127,1.9688
543241.0,-9.4619,-16.089,53.4673,1.0483,-11.5671,1.7251
543251.0,-8.8202,-16.1465,51.5807,0.5832,-12.1598,1.325
543261.0,-8.0254,-15.4091,49.9622,-0.0027,-12.6451,0.8482
543271.0,-8.2744,-14.9111,49.6462,-0.2953,-13.1166,0.4539
543281.0,-7.4412,-13.9343,47.4531,-0.3028,-13.6774,0.0905
543291.0,-6.541,-12.2392,44.6662,-0.3235,-14.0786,-0.2357
543301.0,-6.6846,-10.41,41.2856,-0.3272,-14.3176,-0.4443
543311.0,-5.2577,-9.1459,38.0008,-0.0037,-14.4394,-0.5385
543321.0,-3.5817,-7.8817,33.5284,0.0756,-14.3873,-0.6364
543331.0,-1.9632,-6.9145,30.7415,0.009,-14.2409,-0.721
543341.0,-0.3543,-5.9568,26.7576,-0.1506,-14.0456,-0.7928
543351.0,1.2737,-5.4109,24.2964,-0.4241,-13.7673,-0.8594
543361.0,2.7485,-5.0087,21.6436,-0.514,-13.3709,-0.9046
543371.0,4.367,-4.798,19.7474,-0.398,-12.8436,-0.8982
543381.0,6.1675,-4.8171,17.1042,-0.3634,-12.2402,-0.928
543391.0,7.8721,-5.1236,15.5144,-0.4076,-11.6389,-1.0089
543401.0,9.9311,-5.0661,13.6565,-0.3134,-10.9062,-1.11
543411.0,10.8984,-4.9608,12.7276,-0.4087,-10.2001,-1.2462
543421.0,12.0476,-4.0893,10.9846,-0.3576,-9.5637,-1.3973
543431.0,13.1968,-2.9497,10.2376,-0.357,-8.8666,-1.4771
543441.0,14.2407,-0.9577,10.1323,-0.3762,-8.3206,-1.4793
543451.0,15.2846,-0.316,9.4906,-0.2783,-7.8157,-1.4415
543461.0,15.3037,1.2737,7.4795,-0.2985,-7.2564,-1.3101
543471.0,16.3285,1.6759,7.1251,-0.3108,-6.7291,-1.1377
543481.0,16.8839,2.5091,5.7269,-0.3863,-6.1656,-0.9206
543491.0,17.1138,2.4517,5.5641,-0.116,-5.5829,-0.6529
543501.0,17.516,1.8771,4.2521,0.0968,-5.0306,-0.4406
543511.0,18.1002,1.5706,2.9018,0.1181,-4.4878,-0.2719
543521.0,18.3875,0.7853,2.2314,-0.0357,-3.935,-0.182
543531.0,18.6173,0.0287,1.1109,-0.1325,-3.3741,-0.1554
543541.0,18.3779,0.0,-0.3448,-0.3267,-2.6595,-0.1618
543551.0,18.0619,0.0383,-1.6472,-0.4635,-1.98,-0.165
543561.0,18.3396,-0.8236,-1.7334,-0.7269,-1.3175,-0.1974
543571.0,18.4928,-1.2163,-2.0877,-0.9243,-0.5821,-0.3379
543581.0,18.0714,-0.9673,-2.7294,-1.0259,0.2474,-0.4842
543591.0,18.1385,-0.067,-2.6719,-1.0685,1.0743,-0.6258
543601.0,17.8224,1.2546,-3.4381,-1.0472,1.9571,-0.6417
543611.0,17.2383,2.7198,-3.9169,-0.9115,2.9415,-0.4853
543621.0,16.6924,3.3423,-4.4628,-0.7311,4.0308,-0.2219
543631.0,15.8975,4.0318,-4.6352,-0.6476,5.1652,0.1027
543641.0,15.0069,4.118,-4.3862,-0.4975,6.388,0.4922
543651.0,13.5225,3.4668,-4.0701,-0.2756,7.7273,0.9365
543661.0,12.5456,2.2122,-3.3327,-0.1075,9.0119,1.3149
543671.0,10.9846,0.6225,-2.7198,-0.249,10.1596,1.6208
543681.0,9.5768,-1.2737,-1.81,-0.563,11.218,1.7916
543691.0,7.853,-3.2561,-0.8715,-1.0429,12.253,1.8757
543701.0,5.8419,-6.2441,0.4693,-1.4846,13.3342,1.8954
543711.0,3.984,-8.9543,1.8771,-1.7975,14.4256,1.765
543721.0,1.8771,-10.477,2.3655,-2.2753,15.4605,1.5202
543731.0,-0.4884,-12.5648,3.8786,-2.6265,16.6722,1.2925
543741.0,-2.2218,-14.2407,6.4356,-2.7319,17.4357,1.0243
543751.0,-4.0893,-16.0986,10.2472,-2.5744,17.4357,0.7668
543761.0,-5.6599,-18.0523,15.208,-2.2274,17.4357,0.4369
543771.0,-8.3414,-19.2302,22.2757,-2.2631,17.4357,-0.0553
543781.0,-12.2392,-19.6229,30.3393,-1.8613,17.4357,-0.4911
543791.0,-15.0452,-19.3739,37.2059,-1.4622,17.4357,-0.9046
543801.0,-17.0084,-18.3492,42.9137,-1.0674,17.4357,-1.2324
543811.0,-20.0538,-16.7498,46.9934,-0.9312,17.4357,-1.4596
543821.0,-22.2948,-15.8688,50.9773,-0.9599,17.4357,-1.583
543831.0,-24.0474,-15.9167,54.5208,-1.011,17.4357,-1.5921
543841.0,-25.7999,-17.8224,57.729,-1.284,17.4357,-1.6804
543851.0,-26.116,-21.1935,59.6539,-1.4138,17.4357,-2.0039
543861.0,-27.1215,-23.5398,62.4599,-1.4447,17.4357,-2.6089
543871.0,-28.0217,-23.5302,66.9993,-1.3611,17.4357,-3.2422
543881.0,-31.0576,-23.9324,74.6416,-0.8386,17.4357,-3.7748
543891.0,-32.5707,-22.3044,78.4508,0.0718,16.4588,-4.292
543901.0,-33.5667,-18.7705,78.4508,0.5161,15.0072,-4.6555
543911.0,-35.5012,-15.8017,78.4508,1.242,13.6806,-4.673
543921.0,-35.1756,-14.1066,78.4508,2.0178,12.0353,-4.5863
543931.0,-34.3712,-12.0764,78.4508,2.3754,10.4379,-4.5043
543941.0,-33.5954,-10.6494,78.4508,2.2556,8.501,-4.4032
543951.0,-32.3888,-10.7356,78.4508,2.1151,6.4306,-4.2569
543961.0,-30.6937,-11.5592,78.4508,1.9348,4.6139,-4.1441
543971.0,-30.732,-14.1641,78.4508,1.5304,2.7819,-4.2553
543981.0,-29.2859,-14.8632,78.4508,0.8407,0.8796,-4.5389
543991.0,-28.3857,-16.6732,78.4508,0.3677,-0.6423,-4.8811
544001.0,-26.9874,-16.7881,78.4508,0.2144,-1.657,-5.2509
544011.0,-26.6714,-16.022,78.4508,0.0724,-2.8074,-5.6675
544021.0,-25.8382,-14.03,78.4508,-0.2453,-3.7817,-6.0491
544031.0,-25.685,-11.9135,78.4508,-0.3288,-4.7028,-6.3023
544041.0,-25.7999,-9.3565,78.4508,-0.2421,-5.6798,-6.4412
544051.0,-25.867,-6.6176,75.8196,-0.3193,-6.6482,-6.4545
544061.0,-25.5318,-4.0318,72.6688,-0.5342,-7.49,-6.3699
544071.0,-25.187,-2.7485,69.3744,-0.6194,-8.1807,-6.1603
544081.0,-24.7082,-2.4708,66.7791,-0.4693,-8.7149,-5.9075
544091.0,-23.8271,-2.2314,64.6243,-0.1224,-9.3487,-5.6638
544101.0,-22.879,-1.9249,61.2054,0.3794,-9.8569,-5.3839
544111.0,-21.95,-1.0056,57.4225,0.9573,-10.2831,-5.0854
544121.0,-20.7338,-0.1628,53.1704,1.209,-10.5944,-4.8103
544131.0,-18.6365,0.3735,49.0141,1.375,-10.6438,-4.5389
544141.0,-17.1138,1.3312,45.8729,1.4351,-10.5337,-4.2941
544151.0,-16.3285,2.1739,44.1395,1.5351,-10.4917,-3.9775
544161.0,-15.0356,2.739,42.3391,1.6772,-10.4911,-3.6311
544171.0,-13.1968,3.0167,40.2513,1.7304,-10.4502,-3.3183
544181.0,-11.8752,3.5338,38.6137,1.5825,-10.514,-3.0442
544191.0,-9.9886,3.6679,37.0048,1.3702,-10.6252,-2.7867
544201.0,-7.9296,3.8211,35.0703,1.2169,-10.6242,-2.5424
544211.0,-6.4069,4.2425,32.7048,0.9381,-10.7263,-2.3104
544221.0,-5.4779,4.0606,30.9044,0.6029,-10.8322,-2.0795
544231.0,-3.5434,3.553,28.6634,0.5773,-10.6758,-1.8464
544241.0,-1.4844,2.7198,26.9683,0.6635,-10.4688,-1.6623
544251.0,-0.1053,2.9784,24.0091,0.6353,-10.2054,-1.5463
544261.0,1.0534,2.8922,22.8215,0.6274,-9.8153,-1.4367
544271.0,2.1356,3.5243,20.9636,0.7897,-9.3859,-1.2638
544281.0,4.0701,3.6679,19.4792,1.0562,-8.7799,-1.0887
544291.0,6.1196,4.4819,16.4625,0.9472,-8.0301,-0.9088
544301.0,7.2018,4.6064,16.453,0.6604,-7.4576,-0.7455
544311.0,8.6862,4.6831,15.3708,0.1894,-6.9776,-0.5944
544321.0,9.8258,4.2042,16.0412,-0.2049,-6.5333,-0.4411
544331.0,10.7164,3.8499,16.1848,-0.4794,-6.0964,-0.3342
544341.0,11.0325,2.8156,16.7498,-0.597,-5.849,-0.2512
544351.0,11.6646,2.241,15.773,-0.4954,-5.4669,-0.1708
544361.0,12.5456,1.6759,16.0124,-0.1378,-4.9886,-0.1623
544371.0,13.398,1.8196,14.4897,-0.0165,-4.5714,-0.2192
544381.0,13.5512,2.5762,12.9957,-0.1362,-4.143,-0.2357
544391.0,14.279,2.9784,12.651,-0.2405,-3.6897,-0.1953
544401.0,14.9302,3.0933,12.3924,-0.3358,-3.2251,-0.1687
544411.0,15.4187,3.9552,11.6071,-0.4087,-2.784,-0.0718
544421.0,15.6485,4.1659,11.0516,-0.5444,-2.3945,0.0633
544431.0,16.52,4.7309,9.7205,-0.6657,-1.9603,0.2214
544441.0,16.338,5.296,8.849,-0.9525,-1.4718,0.4236
544451.0,15.6964,5.1715,8.2648,-1.1898,-0.9993,0.6263
544461.0,15.9262,4.5394,7.6327,-1.1866,-0.3847,0.8902
544471.0,15.6581,3.4668,8.0445,-0.8381,0.4858,1.1132
544481.0,15.457,2.3367,9.347,-0.1426,1.3223,1.3361
544491.0,15.0356,1.9824,8.734,0.6449,2.1689,1.4809
544501.0,13.6757,2.4134,7.7764,1.1068,2.8968,1.6522
544511.0,12.8329,2.4229,6.4165,1.226,3.6849,1.8044
544521.0,12.0093,2.6336,5.047,1.1371,4.6725,1.9784
544531.0,11.224,1.81,4.9033,1.0914,5.8767,2.1253
544541.0,10.6781,0.7374,4.8746,1.0988,7.2841,2.2147
544551.0,9.4427,-0.2969,5.8897,1.0089,8.592,2.1801
544561.0,8.3797,-1.1109,8.4755,0.7263,9.6871,2.0497
544571.0,7.3167,-1.7047,9.6343,0.0798,10.4076,1.781
544581.0,6.8091,-2.4038,11.5305,-0.9232,10.8445,1.3883
544591.0,6.292,-1.3503,13.0532,-2.3982,11.201,0.9695
544601.0,4.0414,-0.249,17.8129,-3.215,11.5692,0.7827
544611.0,-0.8715,1.1301,22.4576,-3.0628,11.939,1.0509
544621.0,-3.5626,1.2067,26.0681,-1.7597,12.4818,1.5458
544631.0,-4.1468,1.3408,27.8972,-0.3688,13.2251,1.9805
544641.0,-5.2098,2.1835,29.8988,0.5491,13.8269,2.2306
544651.0,-6.5218,4.1563,30.9235,0.5034,13.8046,2.3924
544661.0,-6.9336,6.3782,29.8892,-0.7418,13.5199,2.5807
544671.0,-8.7819,6.2537,30.2052,-2.6547,13.1858,2.8096
544681.0,-10.4866,4.8171,31.7375,-4.5708,13.2565,3.1113
544691.0,-15.0547,2.1165,35.0128,-5.7931,13.5928,3.521
544701.0,-19.077,-2.4134,42.3199,-5.5207,14.3191,4.1425
544711.0,-23.061,-7.3167,49.7132,-3.8126,15.2152,4.7172
544721.0,-26.8055,-11.3581,57.9301,-1.1126,16.1986,5.0583
544731.0,-29.0943,-11.8561,63.1878,1.011,16.7871,5.1854
544741.0,-31.5556,-10.8505,73.253,2.643,16.8302,5.27
544751.0,-33.3177,-7.1826,78.4508,3.4114,16.0512,5.4361
544761.0,-33.9211,-5.7078,78.4508,3.5918,14.5703,5.7048
544771.0,-33.4518,-5.1811,78.4508,2.9873,12.8223,5.8777
544781.0,-32.7527,-5.6503,78.4508,1.8459,10.87,5.8942
544791.0,-31.9003,-6.0525,78.4508,0.5257,8.3355,5.8586
544801.0,-31.9961,-7.5465,78.4508,-0.1144,5.7942,5.9336
544811.0,-32.8389,-9.7971,78.4508,-0.2384,3.3119,6.0581
544821.0,-30.7607,-12.8042,78.4508,0.2011,1.6927,6.0932
544831.0,-28.7591,-14.8632,78.4508,0.2602,0.6955,5.8639
544841.0,-27.6961,-16.022,78.4508,-0.4273,-0.2097,5.4366
544851.0,-26.3649,-16.9126,78.4508,-1.3143,-0.8998,4.897
544861.0,-25.2828,-16.9797,78.4508,-1.9811,-1.4207,4.367
544871.0,-24.8327,-16.0124,78.4508,-2.3929,-2.2311,3.9446
544881.0,-25.2253,-14.8441,78.4508,-2.5994,-3.2352,3.7285
544891.0,-25.7999,-13.963,78.4508,-2.1598,-4.4825,3.7306
544901.0,-25.9053,-14.0779,78.4508,-1.3729,-5.6856,3.8674
544911.0,-25.0817,-14.4514,78.4508,-0.5593,-6.6413,4.0398
544921.0,-24.871,-15.0739,76.9018,0.0617,-7.3517,4.1111
544931.0,-23.9899,-15.8879,73.751,0.6497,-7.7672,4.1031
544941.0,-24.689,-16.1561,72.008,1.284,-8.3526,4.0574
544951.0,-24.4975,-16.6732,67.5261,1.4335,-9.0438,3.9004
544961.0,-23.0801,-17.3149,63.1016,1.143,-9.4195,3.5311
544971.0,-22.7449,-17.4585,61.2437,0.7082,-9.735,3.0384
544981.0,-22.8215,-16.8552,60.8702,0.2474,-10.1293,2.4775
544991.0,-22.9748,-15.2654,61.531,0.207,-10.5976,2.0486
545001.0,-23.0418,-13.0436,61.2724,0.6258,-11.0977,1.8262
545011.0,-22.8215,-10.6207,59.1751,0.9951,-11.6506,1.7299
545021.0,-22.0841,-8.1594,55.986,0.9147,-12.3003,1.7187
545031.0,-21.318,-6.4548,52.7203,0.339,-13.0463,1.7389
545041.0,-20.5135,-6.1004,49.2535,-0.3618,-13.7147,1.7437
545051.0,-19.8048,-6.2824,46.074,-1.1111,-14.3372,1.6831
545061.0,-19.0387,-7.4891,42.9232,-1.5782,-14.9151,1.6123
545071.0,-17.8416,-8.4467,38.8914,-1.9145,-15.2551,1.4309
545081.0,-16.3955,-9.4332,35.2043,-1.9709,-15.4488,1.1882
545091.0,-14.3173,-9.596,30.732,-2.0007,-15.3461,0.9104
545101.0,-12.6031,-9.7588,27.3131,-1.9028,-15.0396,0.6694
545111.0,-10.6398,-9.2033,23.1376,-1.7373,-14.5043,0.4385
545121.0,-8.7245,-9.3948,21.1073,-1.5703,-13.8812,0.2081
545131.0,-7.1922,-8.8777,19.508,-1.185,-13.0671,0.0053
545141.0,-4.7501,-7.7859,18.2342,-0.6188,-12.1497,-0.1447
545151.0,-3.055,-6.6463,17.3915,-0.2501,-11.2659,-0.1788
545161.0,-1.8771,-5.2289,16.702,-0.0665,-10.5789,-0.1548
545171.0,-0.431,-4.5107,16.8264,-0.0223,-10.0484,-0.0575
545181.0,1.7717,-4.2617,16.5391,0.2118,-9.4397,0.067
545191.0,2.9592,-3.7541,16.1848,0.1666,-8.972,0.1974
545201.0,3.8211,-3.9744,16.4338,0.2586,-8.6559,0.3044
545211.0,5.794,-4.3096,16.2997,0.2804,-8.2775,0.3783
545221.0,6.0238,-4.2234,15.7634,0.2426,-8.045,0.4135
545231.0,7.1251,-4.0797,14.7291,0.0506,-7.9987,0.4225
545241.0,8.2456,-4.3191,14.3365,-0.1133,-7.8769,0.4406
545251.0,9.2608,-4.6735,13.1394,-0.2591,-7.8513,0.4103
545261.0,10.3717,-4.6352,10.8888,-0.4502,-7.8742,0.3336
545271.0,11.1282,-4.9033,8.169,-0.7348,-7.862,0.2054
545281.0,12.9383,-4.7884,4.7501,-1.0121,-7.5374,0.0261
545291.0,13.4937,-4.3574,1.1971,-1.8156,-7.2511,-0.2139
545301.0,15.0643,-4.7309,-0.3735,-2.4919,-6.7334,-0.4991
545311.0,16.0028,-3.5338,-3.8403,-2.9671,-5.8958,-0.7348
545321.0,16.0795,-3.4477,-4.1372,-3.38,-5.2088,-0.9099
545331.0,16.6828,-2.9209,-5.8035,-3.6524,-4.3133,-0.9998
545341.0,15.7155,-2.059,-7.2401,-3.6875,-3.2571,-1.0307
545351.0,15.275,-2.2697,-6.9049,-3.4162,-2.054,-0.9642
545361.0,14.6238,-2.5857,-6.2632,-2.9458,-0.6502,-0.8908
545371.0,14.279,-3.2178,-3.9552,-1.9161,0.6822,-0.746
545381.0,14.279,-3.1029,-2.8635,-0.8386,1.6293,-0.6524
545391.0,14.4418,-2.6145,-4.3766,-0.125,2.3706,-0.5853
545401.0,15.5432,-2.2505,-6.5697,0.406,3.5247,-0.5593
545411.0,16.1656,-2.0686,-7.9871,0.5672,4.8901,-0.6875
545421.0,15.1218,-1.2258,-8.0732,0.6055,6.3034,-0.8716
545431.0,13.0532,0.1915,-6.9528,0.4571,7.5932,-1.011
545441.0,10.6303,1.9345,-5.2289,0.1969,8.6984,-1.0993
545451.0,7.604,3.1795,-2.7773,0.0596,9.7542,-1.0174
545461.0,4.5969,4.4915,-0.996,-0.2192,10.5082,-0.8221
545471.0,2.2505,5.5258,-0.3065,-0.7572,11.2478,-0.4762
545481.0,0.2011,5.7844,0.5938,-1.5804,12.0337,-0.0394
545491.0,-1.9249,4.9799,2.2218,-2.369,12.6925,0.4667
545501.0,-3.237,2.9688,3.5338,-3.0596,13.3151,1.027
545511.0,-6.2441,-0.9577,4.8842,-3.422,14.4298,1.5559
545521.0,-8.9447,-7.5465,7.6614,-3.3347,15.7606,1.8518
545531.0,-9.912,-14.8345,12.6605,-3.0825,17.0505,1.5852
545541.0,-9.8258,-20.1783,18.1002,-2.3344,17.4357,0.804
545551.0,-13.2064,-22.9652,24.8327,-1.8693,17.4357,-0.2959
545561.0,-15.8496,-22.5055,30.7128,-1.1861,17.4357,-1.4495
545571.0,-18.4737,-18.5503,34.1988,-0.7109,17.4357,-2.3264
545581.0,-23.3578,-15.3229,38.1923,-0.1123,17.4357,-2.7909
545591.0,-26.0585,-11.0708,40.7014,0.4129,17.4357,-2.9644
545601.0,-29.5157,-7.671,44.5609,0.7721,17.4357,-2.8394
545611.0,-31.3736,-4.3287,47.2998,0.9418,17.4357,-2.4663
545621.0,-30.8756,-2.7007,51.1785,0.6763,17.4357,-1.9693
545631.0,-31.7854,-4.7405,56.4265,-0.207,17.4357,-1.4612
545641.0,-31.6322,-10.2855,62.6323,-1.0456,17.4357,-1.1111
545651.0,-33.0783,-18.7897,68.3592,-1.5011,17.4357,-1.1015
545661.0,-32.6952,-26.0872,72.8412,-1.1568,17.423,-1.4665
545671.0,-31.4502,-30.1574,77.6488,-0.0894,17.3671,-2.1364
545681.0,-33.7104,-28.9028,78.4508,1.3558,17.2782,-2.7659
545691.0,-35.846,-25.5413,78.4508,3.1427,17.1947,-3.1794
545701.0,-37.4645,-18.8376,78.4508,3.8514,16.5716,-3.3709
545711.0,-37.2634,-18.1768,78.4508,3.9414,15.6106,-3.4837
545721.0,-39.1691,-13.8576,78.4508,4.9077,14.0238,-3.5215
545731.0,-38.9201,-9.9695,78.4508,4.6576,11.657,-3.4508
545741.0,-27.3322,-9.0405,78.4508,4.6395,9.7765,-3.5082
545751.0,-36.6696,-7.6136,78.4508,2.0673,6.4535,-3.48
545761.0,-37.5985,-4.5777,78.4508,1.996,3.438,-3.3257
545771.0,-30.0041,-18.8184,78.4508,1.1233,0.821,-3.2704
545781.0,-31.4119,-5.6503,78.4508,-0.7668,-2.6973,-3.2512
545791.0,-32.1876,-9.4332,78.4508,0.771,-4.3005,-3.024
545801.0,-30.1765,-6.7038,78.4508,-0.7237,-6.2981,-2.9942
545811.0,-27.5908,-8.8969,78.4508,-0.8466,-7.6901,-2.9224
545821.0,-27.179,-11.722,78.4508,-2.2306,-8.6623,-3.1171
545831.0,-26.4511,-13.4746,77.4764,-2.1322,-9.2997,-3.3236
545841.0,-25.7808,-14.7866,73.6456,-2.195,-9.5802,-3.6232
545851.0,-25.4935,-14.6717,69.6042,-1.9534,-9.7813,-3.8674
545861.0,-24.2964,-14.959,68.0432,-1.6921,-9.9053,-4.0834
545871.0,-24.0186,-14.3269,66.3673,-1.2595,-9.925,-4.2761
545881.0,-24.2676,-13.8576,66.7216,-0.5875,-10.2304,-4.3809
545891.0,-23.7122,-12.6318,64.902,0.0271,-10.7343,-4.4405
545901.0,-23.5685,-11.6741,63.092,0.6944,-11.3574,-4.4873
545911.0,-22.9939,-9.8545,59.4049,1.0073,-12.0539,-4.483
545921.0,-21.9883,-8.1499,55.3156,1.2153,-12.5946,-4.4431
545931.0,-21.883,-7.671,51.5807,1.3042,-13.0719,-4.383
545941.0,-19.9581,-7.4508,46.5433,1.5586,-13.3842,-4.3777
545951.0,-17.6979,-6.608,42.272,1.4261,-13.4087,-4.4128
545961.0,-16.4051,-5.5162,38.4509,1.1137,-13.4875,-4.499
545971.0,-14.6717,-4.5681,34.8692,0.6902,-13.5428,-4.5879
545981.0,-12.9,-3.9552,31.5652,0.1815,-13.5242,-4.715
545991.0,-11.3294,-3.122,29.3529,-0.2001,-13.3257,-4.8273
546001.0,-9.481,-2.4421,27.4376,-0.1958,-12.8957,-4.8374
546011.0,-8.4467,-1.5227,25.8861,-0.0596,-12.5015,-4.8236
546021.0,-6.2345,-0.9098,24.1048,-0.0128,-12.1231,-4.8401
546031.0,-5.296,0.1915,22.7449,-0.0474,-11.9427,-4.8428
546041.0,-3.8307,1.3886,20.8104,-0.1022,-11.699,-4.7954
546051.0,-2.3942,2.1452,18.7227,-0.2081,-11.2701,-4.7076
546061.0,-1.7909,3.1029,17.2957,-0.3794,-10.8774,-4.5703
546071.0,-0.1437,3.1412,15.9358,-0.282,-10.2815,-4.4086
546081.0,1.5036,3.4572,14.8249,-0.1437,-9.5035,-4.1957
546091.0,2.5857,3.5243,14.2024,-0.108,-8.9448,-4.0457
546101.0,4.2138,3.4572,13.8481,-0.1628,-8.4382,-3.9568
546111.0,5.2577,3.7541,13.3309,-0.2655,-7.9476,-3.8775
546121.0,5.861,4.051,13.1106,-0.2448,-7.6411,-3.8605
546131.0,7.2496,4.549,12.5456,-0.298,-7.3432,-3.8498
546141.0,8.7819,5.2577,11.3198,-0.3416,-6.9286,-3.8254
546151.0,8.5234,6.3973,10.6973,-0.3757,-6.636,-3.7902
546161.0,9.3565,8.1116,9.5385,-0.3539,-6.4114,-3.6955
546171.0,10.343,9.5098,7.4412,-0.5369,-5.9102,-3.4683
546181.0,11.2623,10.9367,6.0142,-0.4321,-5.4409,-3.2065
546191.0,12.2487,12.1625,4.5298,-0.7221,-4.9274,-2.8878
546201.0,13.4458,12.7276,3.62,-0.8588,-4.375,-2.5382
546211.0,12.6988,13.1585,2.4612,-1.3446,-3.911,-2.2184
546221.0,13.465,13.1968,1.1971,-1.2324,-3.3539,-1.8411
546231.0,14.0013,14.1449,-1.2737,-1.5378,-2.4647,-1.4457
546241.0,14.3652,14.7196,-2.6145,-1.5522,-1.5681,-0.9748
546251.0,14.6717,14.9398,-3.4285,-1.3989,-0.2607,-0.3948
546261.0,14.4131,15.2271,-3.9744,-1.0344,1.1531,0.2458
546271.0,14.0588,15.1888,-3.486,-0.638,2.5366,0.9371
546281.0,13.398,14.3461,-3.4572,-0.1979,4.0483,1.6714
546291.0,12.5456,12.967,-2.4612,0.1692,5.4898,2.3386
546301.0,11.8178,11.224,-1.3982,0.431,6.9728,2.8952
546311.0,10.6686,9.7396,0.0862,0.5704,8.4159,3.3938
546321.0,9.0597,7.9871,2.3176,0.564,9.8058,3.7902
546331.0,7.7285,5.9759,4.798,0.4688,11.0514,4.1436
546341.0,6.6655,3.4285,8.0732,0.4406,12.2716,4.3819
546351.0,4.9704,1.1875,11.9614,0.2677,13.3188,4.4607
546361.0,3.2944,-0.9194,16.8552,0.1916,13.8993,4.4171
546371.0,1.5036,-2.7869,21.452,0.1022,14.159,4.3239
546381.0,0.0,-4.6639,25.8574,-0.1272,13.9743,4.1441
546391.0,-2.4612,-6.11,28.0792,-0.6747,13.4374,3.8967
546401.0,-4.3574,-7.8626,29.8892,-0.8987,13.0048,3.6375
546411.0,-4.5681,-8.4755,30.1669,-0.9876,12.9452,3.3901
546421.0,-6.3782,-9.1554,29.7264,-1.3883,13.0043,3.1746
546431.0,-7.7955,-10.7931,30.799,-1.6437,13.1916,2.8527
546441.0,-8.4467,-11.4156,31.5939,-2.0843,13.4949,2.4951
546451.0,-9.1363,-11.1187,33.4518,-2.6659,13.6476,2.0556
546461.0,-11.971,-9.73,35.3863,-3.7046,13.6162,1.7049
546471.0,-14.1066,-8.734,38.6616,-4.2702,13.6721,1.5905
546481.0,-15.84,-6.8857,41.889,-4.6331,13.7743,1.6703
546491.0,-20.0251,-5.8897,45.3462,-4.6922,13.8791,2.03
546501.0,-22.0937,-5.5929,49.4067,-3.9169,14.3048,2.5786
546511.0,-24.3538,-5.7748,54.5686,-2.9277,14.7385,3.1991
546521.0,-26.8917,-6.5601,59.8933,-1.6884,14.839,3.8142
546531.0,-28.2133,-7.8434,63.2357,-0.9684,14.6911,4.2963
546541.0,-29.171,-9.3853,68.2156,-0.4544,14.4719,4.5155
546551.0,-29.2955,-9.9407,73.3775,-0.3288,13.6609,4.5331
546561.0,-30.9427,-9.7396,77.3423,-0.5204,12.5579,4.482
546571.0,-32.3888,-7.9583,78.3862,-0.9605,11.3127,4.5113
546581.0,-32.4366,-6.9719,78.4508,-1.8704,10.2112,4.5788
546591.0,-32.0631,-6.0621,78.4508,-2.8585,9.1912,4.7518
546601.0,-33.2124,-5.2385,78.4508,-2.8425,7.5778,5.0609
546611.0,-34.17,-3.9744,78.4508,-2.7952,5.6473,5.6292
546621.0,-33.3847,-5.6503,78.4508,-2.0119,3.7328,6.2981
546631.0,-32.0344,-7.4603,78.4508,-1.2451,2.0619,6.8068
546641.0,-30.866,-9.9503,78.4508,-0.6651,0.6902,7.1654
546651.0,-28.673,-12.3924,78.4508,-0.8737,-0.5438,7.217
546661.0,-27.2843,-14.3173,77.2082,-1.3899,-1.6543,7.0388
546671.0,-25.6371,-15.8879,73.502,-2.2817,-2.5839,6.7403
546681.0,-24.1814,-17.2095,71.7782,-2.9325,-3.323,6.4098
546691.0,-23.3578,-17.9374,71.4526,-3.0884,-3.9871,6.1267
546701.0,-22.8503,-18.2055,71.3855,-2.6978,-4.6257,5.932
546711.0,-22.6491,-17.8607,69.9203,-2.2594,-5.4111,5.8101
546721.0,-21.9117,-18.2534,68.0432,-1.665,-6.0453,5.7798
546731.0,-22.1128,-18.8567,64.9212,-1.1871,-6.4652,5.7266
546741.0,-21.9692,-19.7665,62.4504,-0.7146,-6.7589,5.6351
546751.0,-20.9541,-20.9541,60.4871,-0.1096,-6.8983,5.4494
546761.0,-20.7912,-21.3467,59.5677,0.5247,-6.7589,5.2323
546771.0,-20.4944,-21.0594,58.9261,0.7311,-6.8323,4.9524
546781.0,-20.0347,-21.1839,59.4241,0.862,-7.0015,4.599
546791.0,-19.9006,-21.0594,60.7648,1.0286,-7.2942,4.2276
546801.0,-19.4888,-19.7378,60.5637,1.1621,-7.8077,3.8679
546811.0,-19.5941,-17.7937,59.6156,0.8604,-8.3685,3.5002
546821.0,-20.3603,-16.3763,59.9221,0.5199,-9.1726,3.2182
546831.0,-20.5614,-15.0069,58.543,0.2591,-10.0442,3.0123
546841.0,-20.7912,-14.6429,56.1392,0.1532,-10.6742,2.8888
546851.0,-20.7721,-14.4993,53.4099,0.2097,-11.1584,2.767
546861.0,-20.0059,-13.9438,50.374,0.2027,-11.5452,2.6654
546871.0,-19.393,-13.9726,47.1754,0.0037,-11.8161,2.5009
546881.0,-17.9182,-14.0779,44.0629,-0.2059,-11.9768,2.3296
546891.0,-16.6541,-14.4322,41.8028,-0.3507,-12.0247,2.0869
546901.0,-15.3133,-14.6717,39.8108,-0.4411,-12.0699,1.8257
546911.0,-13.9726,-15.2175,37.474,-0.5635,-12.1476,1.5165
546921.0,-12.5073,-14.71,35.6832,-0.6758,-12.1758,1.144
546931.0,-10.6303,-14.6429,34.2179,-0.6045,-12.0603,0.837
546941.0,-9.6151,-13.7523,31.4215,-0.5529,-12.171,0.5018
546951.0,-8.8202,-12.8138,28.7975,-0.7466,-11.7554,0.2134
546961.0,-8.2073,-12.5073,27.6865,-0.5454,-11.4702,0.0665
546971.0,-7.3933,-12.4882,28.2228,0.3693,-11.0509,0.0106
546981.0,-5.2194,-10.8314,25.005,1.6639,-10.2868,0.0293
546991.0,-3.6679,-9.6822,23.6643,2.4227,-9.4955,0.0899
547001.0,-2.059,-8.3797,21.5957,2.7877,-8.9735,0.1564
547011.0,-0.2586,-7.1635,19.1919,2.6526,-8.4324,0.158
547021.0,0.8811,-6.9528,19.0195,2.0316,-7.9737,0.0937
547031.0,2.2122,-6.8187,19.2877,1.5139,-7.6427,0.0383
547041.0,3.62,-6.4548,18.9812,1.085,-7.2128,-0.0495
547051.0,3.9073,-6.5314,19.7091,0.7061,-6.9169,-0.1261
547061.0,5.1044,-6.8761,20.9349,0.828,-6.6328,-0.1948
547071.0,6.426,-5.9759,19.4888,0.8567,-6.264,-0.3118
547081.0,5.9855,-5.4684,19.6899,0.5853,-6.2098,-0.4033
547091.0,7.0773,-4.616,18.5599,0.3555,-6.1645,-0.4832
547101.0,8.2552,-4.6256,17.7362,0.1293,-5.9879,-0.5582
547111.0,8.5329,-4.2329,16.6445,-0.1745,-5.8256,-0.6545
547121.0,9.2129,-3.9073,15.9933,-0.4007,-5.6989,-0.7865
547131.0,9.9982,-3.8116,14.8153,-0.5789,-5.5483,-0.9046
547141.0,10.4866,-3.9169,13.1873,-0.8684,-5.3956,-1.0493
547151.0,10.6111,-3.8499,11.9806,-1.1063,-5.1806,-1.234
547161.0,11.1857,-3.4955,11.0516,-1.1339,-4.8875,-1.466
547171.0,11.0325,-2.988,9.979,-1.1467,-4.5788,-1.7006
547181.0,11.971,-2.7773,8.667,-0.8801,-4.143,-1.9151
547191.0,12.7755,-1.3695,6.4069,-0.7625,-3.6253,-2.1375
547201.0,12.2583,-0.0479,4.6639,-0.7907,-3.1725,-2.3072
547211.0,11.9135,1.9345,3.055,-0.8588,-2.5371,-2.3775
547221.0,12.5456,3.3519,1.7621,-0.5066,-1.5314,-2.3338
547231.0,12.5839,5.6407,-0.8619,-0.6151,-0.5236,-2.1215
547241.0,12.4594,6.675,-1.245,-0.5326,0.6843,-1.806
547251.0,12.4403,6.2153,-0.5171,-0.5151,1.9098,-1.4702
547261.0,12.9287,7.422,-1.9632,-0.0511,3.4385,-1.0658
547271.0,11.4539,7.0677,-0.0862,0.0506,4.6427,-0.6236
547281.0,10.4004,6.4835,0.9768,0.0452,5.8985,-0.1878
547291.0,9.5577,3.9265,3.0263,0.1644,7.0457,0.1463
547301.0,8.9352,1.3695,5.0661,0.1692,8.152,0.2389
547311.0,7.355,-0.5267,7.7381,0.1304,9.0145,0.1846
547321.0,6.5984,-1.4461,10.726,0.1288,9.7898,0.0633
547331.0,5.3534,-1.7238,12.8233,0.0745,10.3033,-0.0543
547341.0,4.7501,-1.9154,14.7579,-0.1192,10.7125,-0.1485
547351.0,3.6392,-1.7047,17.1521,-0.3592,11.1238,-0.207
547361.0,1.6759,-2.6145,19.2015,-0.4246,11.3877,-0.2054
547371.0,-0.316,-3.237,20.7721,-0.1958,11.7757,-0.1703
547381.0,-1.1684,-4.3096,21.9405,0.1884,12.3461,-0.2017
547391.0,-3.7158,-4.3766,21.9883,0.4182,13.007,-0.2538
547401.0,-5.363,-4.9033,22.1703,0.3523,13.6806,-0.307
547411.0,-6.8857,-5.7557,23.6356,-0.3129,14.5772,-0.4268
547421.0,-10.2951,-8.1116,27.9355,-1.2446,15.2413,-0.5529
547431.0,-12.2104,-12.7563,34.1126,-1.7783,15.6984,-0.8099
547441.0,-12.5552,-15.342,39.3703,-2.1646,16.2624,-1.3287
547451.0,-14.7674,-17.1904,48.813,-2.1503,16.4556,-1.9034
547461.0,-18.148,-16.9509,57.2406,-1.3925,15.966,-2.336
547471.0,-19.4313,-15.2559,61.6938,-0.1054,15.3147,-2.5935
547481.0,-19.642,-13.6661,63.9156,1.3792,14.6389,-2.7031
547491.0,-19.1536,-11.7795,61.3107,2.0093,13.9754,-2.9059
547501.0,-20.1304,-9.2512,58.8112,1.1871,13.4263,-3.1182
547511.0,-21.0881,-9.8258,59.1081,-0.008,12.726,-3.2666
547521.0,-20.7434,-11.1091,58.4089,-1.1941,12.4743,-3.4641
547531.0,-22.9748,-13.3788,62.0864,-1.7682,12.2881,-3.6812
547541.0,-23.4823,-14.8345,64.0593,-1.4495,11.9278,-3.8913
547551.0,-22.7545,-14.777,63.5517,-1.0664,11.8299,-4.1962
547561.0,-24.0665,-14.3269,66.5205,-0.439,11.7219,-4.4612
547571.0,-24.1431,-11.7986,68.0528,0.2746,11.4452,-4.6395
547581.0,-24.7752,-9.2033,69.8149,0.8062,11.0647,-4.7007
547591.0,-25.8382,-5.9089,70.5236,1.1047,10.4363,-4.5852
547601.0,-25.0338,-3.6488,72.8699,1.2122,9.8707,-4.4245
547611.0,-25.8957,-1.3791,74.4501,0.9088,8.9805,-4.1154
547621.0,-26.3458,-0.4597,77.1316,0.7881,7.937,-3.7227
547631.0,-26.5182,-0.747,78.4508,0.547,6.6301,-3.3837
547641.0,-26.7576,-1.0726,78.4508,0.0825,5.1344,-3.1443
547651.0,-26.5469,-2.2027,78.4508,-0.571,3.7402,-2.9963
547661.0,-26.5756,-3.2944,78.4508,-0.9791,2.37,-2.9144
547671.0,-25.9436,-4.9321,77.7349,-1.2707,1.235,-2.9436
547681.0,-25.2732,-5.5545,76.5091,-1.6597,0.1894,-3.0921
547691.0,-25.1391,-5.4205,76.7006,-1.8129,-1.1047,-3.2432
547701.0,-25.0529,-4.7022,75.0343,-2.0013,-2.5158,-3.3709
547711.0,-24.6028,-3.7158,70.5715,-2.2418,-3.6354,-3.5013
547721.0,-24.4304,-3.0933,67.7751,-2.4057,-4.5783,-3.5955
547731.0,-24.4783,-2.0686,64.902,-2.3583,-5.3222,-3.5896
547741.0,-23.8654,-0.7949,62.4312,-1.9763,-5.8389,-3.4635
547751.0,-23.128,0.5363,59.9221,-1.5362,-6.2518,-3.2033
547761.0,-21.8734,1.6855,57.298,-0.9871,-6.5993,-2.7893
547771.0,-19.9581,1.4748,54.1856,-0.4741,-6.8041,-2.311
547781.0,-17.1521,0.6129,50.7762,-0.257,-6.9467,-1.93
547791.0,-16.022,-1.4461,48.5353,-0.2996,-6.9478,-1.6629
547801.0,-15.4857,-5.1044,47.3382,-0.1325,-6.9616,-1.5873
547811.0,-14.03,-8.8107,46.0932,0.2331,-6.8611,-1.781
547821.0,-12.8808,-10.9271,44.7237,0.6226,-6.6312,-2.2423
547831.0,-12.4115,-10.6015,45.0014,1.1414,-6.4439,-2.7883
547841.0,-12.0476,-7.7093,44.5513,1.5048,-6.3582,-3.2539
547851.0,-12.6893,-3.4381,44.513,1.6192,-6.446,-3.4923
547861.0,-13.3501,0.5555,44.4555,1.7049,-6.6738,-3.4603
