time_ms,ax,ay,az,gx,gy,gz
51771.0,1.7142,-1.0487,9.8067,-0.3517,0.009,0.0106
51781.0,1.7741,-1.1875,9.8354,-0.3379,0.0372,0.016
51791.0,1.7837,-1.2641,9.8904,-0.3086,0.067,0.016
51801.0,1.7837,-1.3384,9.9383,-0.2602,0.099,0.0149
51811.0,1.8052,-1.4222,10.0054,-0.2081,0.125,0.0101
51821.0,1.8268,-1.5203,9.9695,-0.1703,0.1405,-0.0037
51831.0,1.8603,-1.5323,10.0006,-0.1586,0.1522,-0.0245
51841.0,1.8459,-1.5347,10.0628,-0.1511,0.1628,-0.0484
51851.0,1.8244,-1.5227,10.1203,-0.1485,0.166,-0.0724
51861.0,1.8316,-1.506,10.1514,-0.1431,0.1644,-0.0963
51871.0,1.8244,-1.5083,10.1418,-0.1357,0.165,-0.1219
51881.0,1.822,-1.4988,10.1562,-0.1235,0.1692,-0.1458
51891.0,1.8268,-1.4868,10.1227,-0.1043,0.1857,-0.1703
51901.0,1.8076,-1.3982,10.2041,-0.0798,0.2097,-0.1948
51911.0,1.7813,-1.336,10.2232,-0.0585,0.2293,-0.2155
51921.0,1.6951,-1.2977,10.2807,-0.0388,0.24,-0.2331
51931.0,1.7023,-1.2809,10.3094,-0.0255,0.2453,-0.2485
51941.0,1.6328,-1.2091,10.3645,-0.0149,0.2591,-0.2671
51951.0,1.5634,-1.0774,10.4579,-0.0192,0.2639,-0.2841
51961.0,1.4892,-0.9888,10.4555,-0.0351,0.2464,-0.2937
51971.0,1.5107,-0.9744,10.422,-0.0495,0.2272,-0.2964
51981.0,1.4533,-0.9026,10.3262,-0.0527,0.2256,-0.2959
51991.0,1.4174,-0.7997,10.3453,-0.067,0.2112,-0.2921
52001.0,1.3862,-0.747,10.1418,-0.0878,0.1926,-0.2847
52011.0,1.3982,-0.7661,9.9431,-0.1192,0.1825,-0.273
52021.0,1.403,-0.8284,9.6678,-0.1602,0.1857,-0.2623
52031.0,1.4629,-0.9122,9.5433,-0.2038,0.2091,-0.2528
52041.0,1.4485,-0.9984,9.4691,-0.232,0.2538,-0.2474
52051.0,1.4485,-1.1205,9.6654,-0.2315,0.315,-0.241
52061.0,1.4174,-1.1037,9.7995,-0.1852,0.3741,-0.2336
52071.0,1.3527,-1.0894,9.9048,-0.1538,0.3943,-0.2288
52081.0,1.3647,-1.1396,9.8665,-0.1431,0.398,-0.224
52091.0,1.3647,-1.2474,9.9192,-0.1501,0.4129,-0.2224
52101.0,1.3431,-1.2977,10.0006,-0.1724,0.4166,-0.2309
52111.0,1.2977,-1.3455,10.0509,-0.2134,0.4044,-0.2442
52121.0,1.2641,-1.3767,9.9982,-0.2597,0.3826,-0.2597
52131.0,1.2833,-1.3886,9.8497,-0.3044,0.357,-0.2746
52141.0,1.2977,-1.4365,9.7109,-0.3533,0.3501,-0.29
52151.0,1.2665,-1.4868,9.6103,-0.4017,0.3576,-0.3076
52161.0,1.2498,-1.4365,9.4691,-0.4576,0.3592,-0.3257
52171.0,1.1756,-1.3838,9.4284,-0.53,0.3602,-0.3448
52181.0,1.1612,-1.4533,9.3134,-0.605,0.3533,-0.3586
52191.0,1.1779,-1.4988,9.1459,-0.688,0.3464,-0.3751
52201.0,1.0606,-1.573,9.0668,-0.7646,0.3581,-0.3922
52211.0,1.075,-1.6735,8.9519,-0.8349,0.3672,-0.4097
52221.0,1.1109,-1.8196,8.7604,-0.8886,0.3906,-0.4315
52231.0,1.0726,-1.9225,8.734,-0.9115,0.4486,-0.4528
52241.0,1.0415,-1.992,8.7819,-0.8945,0.5119,-0.473
52251.0,1.0223,-2.0183,8.7484,-0.8423,0.572,-0.4901
52261.0,0.9744,-1.9704,8.521,-0.7742,0.6465,-0.5076
52271.0,0.9912,-1.8172,8.4156,-0.7285,0.7391,-0.5273
52281.0,0.9098,-1.6592,8.4827,-0.6939,0.8466,-0.5417
52291.0,0.8021,-1.4365,8.3989,-0.6779,0.9376,-0.5523
52301.0,0.7661,-1.2091,8.2983,-0.7199,1.0211,-0.564
52311.0,0.5794,-0.972,8.2863,-0.8296,1.1169,-0.5757
52321.0,0.6297,-0.6632,8.5114,-1.002,1.2106,-0.5837
52331.0,0.2634,-0.4046,9.3925,-1.193,1.3372,-0.5811
52341.0,0.2586,-0.1676,10.6829,-1.2909,1.4394,-0.5449
52351.0,0.0359,0.1508,11.892,-1.2457,1.4974,-0.473
52361.0,-0.0311,0.6488,13.0676,-1.0605,1.525,-0.3624
52371.0,-0.1796,1.0271,14.0971,-0.7604,1.5554,-0.2049
52381.0,-0.4262,1.5083,14.7411,-0.4001,1.55,-0.0245
52391.0,-0.407,2.0087,14.8033,-0.099,1.4819,0.1703
52401.0,-0.4262,2.3894,14.5735,0.0399,1.4362,0.3618
52411.0,-0.7207,2.5355,14.7986,-0.0495,1.4021,0.5284
52421.0,-1.0534,2.5259,15.7682,-0.2501,1.3585,0.6912
52431.0,-1.2641,2.4684,16.9509,-0.3842,1.3053,0.8668
52441.0,-1.7142,2.3224,18.1935,-0.414,1.1999,1.0642
52451.0,-1.9441,2.0039,19.1345,-0.3416,1.0445,1.2813
52461.0,-2.3774,1.5012,20.0634,-0.215,0.8737,1.5011
52471.0,-2.8754,0.9409,20.7098,-0.0883,0.6274,1.706
52481.0,-3.2633,0.2945,20.3531,-0.0064,0.2873,1.8927
52491.0,-3.2729,-0.4142,19.0243,-0.0931,-0.1128,2.0337
52501.0,-3.2154,-1.4365,17.3412,-0.4342,-0.4773,2.1104
52511.0,-3.0742,-3.1316,16.3955,-0.9222,-0.7386,2.1231
52521.0,-2.7294,-4.9129,16.0795,-1.2984,-0.8924,2.0811
52531.0,-2.6456,-6.3279,16.9342,-1.3941,-0.8998,1.9917
52541.0,-3.2753,-6.7708,18.3037,-1.1472,-0.8594,1.8986
52551.0,-3.8666,-6.6056,19.2159,-0.7082,-0.9663,1.8518
52561.0,-4.4269,-6.0932,19.0578,-0.2751,-1.2207,1.8624
52571.0,-4.9249,-5.8371,18.4186,0.0133,-1.508,1.9193
52581.0,-5.4779,-5.9448,17.6524,0.1511,-1.756,2.0066
52591.0,-5.8514,-7.118,17.6788,0.1421,-1.9667,2.0981
52601.0,-5.9975,-8.5234,17.5423,0.1453,-2.229,2.1396
52611.0,-5.7892,-9.7133,16.9174,0.1155,-2.5605,2.0758
52621.0,-5.8419,-10.0892,16.0675,0.0213,-2.9053,1.8933
52631.0,-5.7221,-9.9527,14.6525,-0.1128,-3.2911,1.6506
52641.0,-5.4181,-9.8282,13.1466,-0.2395,-3.5795,1.3952
52651.0,-5.0757,-9.7133,12.1338,-0.3485,-3.7477,1.1233
52661.0,-4.7812,-9.4451,11.1067,-0.3932,-3.8828,0.837
52671.0,-4.2425,-9.3685,10.6853,-0.3416,-3.9014,0.5662
52681.0,-4.2569,-8.916,10.5824,-0.2011,-3.886,0.3017
52691.0,-4.0917,-8.3007,10.5058,-0.0458,-3.9419,0.0612
52701.0,-4.0534,-7.7261,10.1538,0.1171,-4.0366,-0.1458
52711.0,-3.9002,-7.0605,9.4834,0.215,-4.1978,-0.339
52721.0,-3.5793,-6.3901,8.5784,0.2506,-4.375,-0.5231
52731.0,-3.4285,-5.8754,7.6136,0.2559,-4.5022,-0.6917
52741.0,-3.0694,-5.3008,6.4236,0.2368,-4.6108,-0.8493
52751.0,-2.4469,-4.8028,5.5929,0.2155,-4.6304,-0.994
52761.0,-2.1811,-4.3191,5.0757,0.2288,-4.5682,-1.119
52771.0,-1.992,-3.6129,4.6448,0.2469,-4.5144,-1.2281
52781.0,-1.7621,-3.0071,4.2114,0.2634,-4.4745,-1.3101
52791.0,-1.245,-2.5115,3.3854,0.2852,-4.4575,-1.367
52801.0,-0.8428,-1.9345,2.6815,0.3001,-4.3607,-1.4085
52811.0,-0.3615,-1.6065,2.1356,0.2416,-4.259,-1.4314
52821.0,0.3759,-1.482,1.585,0.1703,-4.168,-1.4463
52831.0,1.0008,-1.2977,1.0247,0.0931,-4.0478,-1.4761
52841.0,1.4676,-0.9673,0.6201,-0.0181,-3.9328,-1.5245
52851.0,1.7621,-0.4597,0.0192,-0.1527,-3.8339,-1.5825
52861.0,2.059,0.0838,-0.5339,-0.3108,-3.7184,-1.6272
52871.0,2.2649,0.644,-0.8954,-0.447,-3.5636,-1.6506
52881.0,2.4157,1.1827,-1.1756,-0.5209,-3.3938,-1.6421
52891.0,2.7845,1.5179,-1.4485,-0.539,-3.2187,-1.5942
52901.0,3.2034,1.664,-1.7621,-0.4613,-3.0192,-1.525
52911.0,3.4381,1.9728,-2.3056,-0.331,-2.8048,-1.4569
52921.0,3.735,2.3846,-2.9305,-0.2293,-2.6063,-1.3782
52931.0,4.1659,2.7892,-3.5003,-0.1325,-2.3466,-1.2717
52941.0,4.3622,3.0742,-3.9528,-0.049,-2.0327,-1.1424
52951.0,4.7285,3.1867,-4.4676,0.0101,-1.7262,-0.9935
52961.0,5.0422,3.2705,-4.8937,0.0436,-1.3803,-0.8381
52971.0,5.296,2.9904,-4.9871,0.0404,-1.0179,-0.68
52981.0,5.4253,2.6911,-5.0925,0.0623,-0.6518,-0.5374
52991.0,5.4731,2.4277,-5.1667,0.0777,-0.2836,-0.4188
53001.0,5.363,2.2386,-5.1739,0.0889,0.0889,-0.3187
53011.0,5.0996,2.138,-5.1188,0.0968,0.4544,-0.2293
53021.0,4.7573,2.1284,-5.0446,0.1091,0.8072,-0.1325
53031.0,4.3431,2.1452,-5.2457,0.1208,1.1563,-0.0218
53041.0,3.9361,2.15,-5.6982,0.0835,1.5149,0.1032
53051.0,3.5985,1.9824,-6.1459,-0.0697,1.8964,0.2389
53061.0,3.2705,1.652,-6.3015,-0.3491,2.3158,0.3704
53071.0,2.7797,1.2258,-6.0597,-0.6843,2.7696,0.4906
53081.0,2.229,0.8188,-5.6671,-1.0286,3.2007,0.6034
53091.0,1.4724,0.3974,-4.9584,-1.3074,3.6604,0.7194
53101.0,0.7039,-0.0072,-4.1731,-1.4367,4.1393,0.8487
53111.0,-0.0215,-0.5674,-3.5817,-1.4255,4.6134,0.9887
53121.0,-0.8667,-1.1923,-3.3974,-1.284,5.1397,1.1142
53131.0,-1.8316,-1.9417,-3.3255,-1.1169,5.7213,1.1994
53141.0,-3.2178,-2.478,-3.2178,-0.9706,6.3859,1.2276
53151.0,-4.8028,-3.0215,-3.3016,-0.9684,7.0681,1.2095
53161.0,-6.462,-3.9768,-2.6097,-1.2042,7.763,1.1494
53171.0,-8.8777,-4.8937,-1.1349,-1.5697,8.4271,1.0403
53181.0,-11.0038,-5.9855,1.6017,-1.8943,9.0353,0.9264
53191.0,-13.4195,-6.8977,5.2553,-1.897,9.627,0.8258
53201.0,-15.2199,-7.8793,9.2153,-1.5346,10.0452,0.7375
53211.0,-16.8097,-8.2959,12.9383,-0.8519,10.2714,0.6226
53221.0,-17.3364,-8.5904,16.4937,0.0367,10.299,0.4805
53231.0,-17.3795,-7.8793,18.3444,0.9738,10.1213,0.2597
53241.0,-17.3747,-7.8266,20.1089,1.3888,9.5355,-0.0346
53251.0,-16.0459,-7.1874,19.4577,1.5282,8.8852,-0.3581
53261.0,-16.5056,-6.2896,21.804,1.2968,8.6261,-0.7152
53271.0,-16.8408,-5.3271,25.5605,0.8386,8.2164,-1.0099
53281.0,-16.3835,-5.3367,30.2938,0.166,7.4916,-1.2345
53291.0,-16.4673,-5.1571,34.68,-0.588,6.3433,-1.4447
53301.0,-15.6317,-5.3032,37.0934,-1.135,4.9173,-1.5639
53311.0,-14.4562,-5.2194,37.5483,-1.4516,3.4827,-1.6182
53321.0,-13.3525,-5.0901,36.6337,-1.6527,2.1274,-1.6341
53331.0,-12.4091,-5.102,35.032,-1.6868,0.9637,-1.5985
53341.0,-11.3294,-5.4636,31.8812,-1.5139,-0.0383,-1.508
53351.0,-9.833,-6.8426,27.7991,-1.3542,-0.8721,-1.4245
53361.0,-8.078,-8.9543,23.1376,-1.2813,-1.3782,-1.4229
53371.0,-6.7445,-11.2001,20.1783,-1.5022,-1.5782,-1.6043
53381.0,-5.7892,-13.2974,18.8926,-1.8496,-1.6017,-1.9401
53391.0,-5.2864,-15.1433,20.0682,-2.0965,-1.4963,-2.3785
53401.0,-5.873,-15.8472,21.9022,-1.9539,-1.417,-2.8468
53411.0,-6.5673,-14.4562,23.1232,-1.5814,-1.6522,-3.3044
53421.0,-6.8809,-12.1937,22.4624,-1.1047,-2.0715,-3.612
53431.0,-6.9695,-10.0796,20.8511,-0.7652,-2.5233,-3.7663
53441.0,-6.6942,-8.1187,18.5215,-0.6981,-3.0251,-3.8387
53451.0,-6.4428,-7.3861,16.2518,-0.7918,-3.3981,-3.8238
53461.0,-5.9065,-6.8977,13.8098,-0.9434,-3.6769,-3.8105
53471.0,-5.6455,-6.8354,11.5736,-1.1164,-3.7966,-3.8094
53481.0,-5.023,-7.4747,10.5369,-1.2547,-3.7301,-3.8317
53491.0,-4.5705,-7.2329,9.9982,-1.1988,-3.5545,-3.9195
53501.0,-4.9536,-6.0238,9.6798,-0.9982,-3.3901,-4.0137
53511.0,-4.9392,-4.7238,9.335,-0.6827,-3.2603,-4.0148
53521.0,-4.3527,-3.146,7.9009,-0.3262,-3.1671,-3.9275
53531.0,-3.9097,-1.7645,6.6655,-0.2011,-3.0926,-3.7918
53541.0,-3.4213,-0.3519,5.7102,-0.1958,-2.9681,-3.6008
53551.0,-2.8467,0.723,5.3534,-0.2368,-2.7973,-3.3406
53561.0,-2.3463,1.3886,5.0087,-0.2437,-2.6105,-3.0096
53571.0,-1.7717,1.1995,5.0709,-0.2565,-2.4318,-2.6382
53581.0,-0.8978,0.1628,5.205,-0.19,-2.2604,-2.2673
53591.0,0.012,-1.1037,5.2361,-0.0468,-2.1045,-1.9651
53601.0,0.5195,-2.1452,5.2768,0.0952,-1.9725,-1.7618
53611.0,1.0008,-2.7701,5.0446,0.2368,-1.8927,-1.6331
53621.0,1.4748,-3.0646,4.4365,0.3304,-1.8507,-1.5575
53631.0,1.8771,-3.0143,3.814,0.3634,-1.7815,-1.5213
53641.0,2.059,-2.7342,3.4764,0.3443,-1.6969,-1.4963
53651.0,2.2051,-2.3655,3.0789,0.3209,-1.6027,-1.4596
53661.0,2.2984,-1.9345,2.5043,0.2831,-1.4979,-1.4117
53671.0,2.4588,-1.5945,2.2434,0.2038,-1.3697,-1.3548
53681.0,2.6432,-1.2426,2.047,0.1378,-1.2164,-1.2829
53691.0,2.7509,-1.0511,1.9537,0.0851,-1.052,-1.2036
53701.0,2.8299,-0.8188,1.9537,0.0601,-0.8897,-1.1244
53711.0,2.9185,-0.7039,2.2027,0.0601,-0.7258,-1.0424
53721.0,2.9305,-0.5531,2.1835,0.1261,-0.5704,-0.9557
53731.0,3.0526,-0.4501,2.1811,0.19,-0.4438,-0.8753
53741.0,3.0861,-0.3256,2.0662,0.2219,-0.34,-0.8163
53751.0,3.0358,0.0455,1.8986,0.2081,-0.2746,-0.7843
53761.0,2.9353,0.7661,1.6496,0.1729,-0.2128,-0.7588
53771.0,2.7198,1.6161,1.4413,0.1506,-0.1224,-0.6992
53781.0,2.5953,2.4181,1.0678,0.1224,-0.0255,-0.5837
53791.0,2.5546,3.2178,0.656,0.0889,0.1197,-0.4161
53801.0,2.4421,3.6943,0.7254,0.0665,0.348,-0.1926
53811.0,2.2745,4.2138,0.8452,0.1203,0.6194,0.0857
53821.0,2.083,4.2665,1.312,0.199,0.8939,0.415
53831.0,2.1404,3.8595,1.585,0.3432,1.1568,0.7801
53841.0,2.2314,2.8898,1.9561,0.48,1.392,1.1153
53851.0,2.1883,1.9537,1.9585,0.5827,1.5926,1.359
53861.0,2.1476,1.2977,1.9824,0.589,1.7592,1.4979
53871.0,1.968,1.1564,1.8459,0.4816,1.8986,1.5586
53881.0,1.585,1.3144,1.9944,0.2634,2.0114,1.591
53891.0,0.6249,1.5371,2.5666,0.0388,2.1449,1.6581
53901.0,-0.4334,1.3455,3.6943,0.0106,2.3434,1.8294
53911.0,-0.7685,0.7518,4.7597,0.3576,2.6712,2.1056
53921.0,-0.9098,-0.0982,5.5593,0.9663,3.1464,2.4126
53931.0,-1.3384,-0.7207,6.2465,1.4191,3.5747,2.6228
53941.0,-1.1588,-0.9313,7.0366,1.3872,3.7727,2.6845
53951.0,-1.1253,-1.8196,9.6199,0.9504,3.7732,2.6372
53961.0,-1.4796,-2.6839,11.5257,0.6039,3.5843,2.535
53971.0,-2.1117,-3.5434,12.8593,0.4161,3.289,2.4121
53981.0,-2.4948,-4.4963,13.7403,0.5119,3.1379,2.3333
53991.0,-2.4565,-5.1451,14.0659,0.8184,3.115,2.2689
54001.0,-2.3224,-4.7381,13.4746,1.0429,3.0878,2.163
54011.0,-2.5402,-4.1851,13.6134,0.9653,3.0985,2.0556
54021.0,-2.7318,-3.6799,13.5703,0.7354,3.0958,1.9816
54031.0,-2.6145,-3.2992,14.0779,0.3054,3.1325,1.9199
54041.0,-3.4429,-2.9113,16.5535,-0.2969,3.2134,1.8565
54051.0,-4.6902,-2.9161,20.8631,-0.7939,3.1017,1.8693
54061.0,-4.8914,-3.6775,24.3634,-0.6811,2.8042,2.0444
54071.0,-4.6615,-4.2928,25.1894,-0.1383,2.37,2.2769
54081.0,-4.2737,-5.0254,24.7896,0.2927,1.8087,2.4509
54091.0,-3.8307,-5.7628,22.8646,0.596,1.2568,2.5573
54101.0,-3.1867,-6.2273,18.895,0.6173,0.7801,2.5616
54111.0,-2.8204,-6.869,15.9478,0.0484,0.5582,2.4238
54121.0,-3.2322,-7.5729,15.8927,-0.895,0.572,2.1817
54131.0,-3.6655,-8.3725,18.3396,-1.7469,0.571,1.9316
54141.0,-4.3981,-8.6981,21.2988,-2.1646,0.4448,1.7405
54151.0,-4.9991,-9.1028,24.203,-2.0705,0.1117,1.6522
54161.0,-5.2194,-9.0597,23.9827,-1.5474,-0.4145,1.6549
54171.0,-5.0709,-9.5217,22.6348,-1.1174,-0.9621,1.6719
54181.0,-4.5514,-9.7348,20.7051,-0.8902,-1.4133,1.632
54191.0,-4.6759,-9.7683,19.3188,-0.9291,-1.798,1.5139
54201.0,-4.5993,-9.9168,17.6333,-1.0898,-2.1673,1.3792
54211.0,-4.4269,-10.3741,16.7786,-1.309,-2.4626,1.2286
54221.0,-4.4676,-10.4435,15.6988,-1.409,-2.7186,1.0637
54231.0,-4.1372,-10.9702,15.0907,-1.3484,-2.8974,0.9381
54241.0,-3.6679,-11.4802,14.133,-1.0509,-2.9468,0.8407
54251.0,-3.1149,-11.9973,13.4003,-0.7008,-2.9527,0.7354
54261.0,-2.6959,-12.3493,12.8018,-0.3719,-2.9133,0.6167
54271.0,-2.4612,-12.7084,12.3134,-0.1304,-2.9117,0.4757
54281.0,-2.1284,-13.0125,11.4227,-0.0112,-2.9915,0.307
54291.0,-1.7573,-13.3118,10.6877,-0.0287,-3.033,0.1027
54301.0,-1.7765,-13.5919,10.5082,-0.1054,-3.0368,-0.1362
54311.0,-1.8459,-13.8457,10.5082,-0.0878,-3.0149,-0.3682
54321.0,-1.7334,-14.1354,10.3932,0.0319,-2.9873,-0.58
54331.0,-1.5107,-14.4394,9.912,0.1767,-2.9947,-0.8035
54341.0,-1.2641,-14.437,9.177,0.3182,-2.9814,-1.0515
54351.0,-1.1349,-13.9558,8.6455,0.4539,-2.9027,-1.3228
54361.0,-1.2761,-13.0676,8.2025,0.5683,-2.7952,-1.5894
54371.0,-1.6879,-12.1362,8.1355,0.6412,-2.6882,-1.8225
54381.0,-1.8771,-11.3437,8.2648,0.7338,-2.6026,-2.0055
54391.0,-1.8627,-10.4004,8.248,0.8663,-2.5632,-2.1561
54401.0,-1.9585,-9.2368,8.1618,0.9988,-2.5435,-2.2774
54411.0,-2.059,-8.1858,8.2863,1.16,-2.5137,-2.3402
54421.0,-1.9513,-7.3741,8.0852,1.3729,-2.5158,-2.3429
54431.0,-1.9345,-6.596,7.5633,1.5458,-2.5509,-2.3211
54441.0,-1.7454,-5.9137,6.9049,1.5894,-2.6228,-2.3009
54451.0,-1.5036,-5.3175,6.2034,1.5389,-2.6941,-2.2796
54461.0,-1.2067,-4.7788,5.6144,1.4112,-2.7601,-2.2695
54471.0,-0.905,-4.13,5.1044,1.2819,-2.7947,-2.2631
54481.0,-0.7278,-3.5554,4.7525,1.1818,-2.7931,-2.2413
54491.0,-0.5578,-2.9808,4.5538,1.0946,-2.8181,-2.2109
54501.0,-0.2227,-2.3032,4.0294,1.0472,-2.8574,-2.1652
54511.0,0.0718,-1.798,3.6224,1.0158,-2.8495,-2.0939
54521.0,0.3591,-1.3862,3.0813,0.9759,-2.8511,-2.0114
54531.0,0.747,-0.9816,2.5283,0.8822,-2.867,-1.9427
54541.0,0.9601,-0.5219,2.0853,0.7497,-2.8654,-1.8874
54551.0,1.154,-0.0407,1.7262,0.5917,-2.8814,-1.84
54561.0,1.2881,0.431,1.64,0.4699,-2.8729,-1.7943
54571.0,1.2929,0.9553,1.4844,0.4518,-2.8564,-1.7294
54581.0,1.2857,1.3647,1.1301,0.4709,-2.883,-1.6464
54591.0,1.3384,1.8411,0.5052,0.5561,-2.8739,-1.5506
54601.0,1.2905,2.2146,0.0,0.6534,-2.8186,-1.4404
54611.0,1.4222,2.466,-0.3974,0.7482,-2.767,-1.3282
54621.0,1.6113,2.794,-0.8045,0.8881,-2.6696,-1.209
54631.0,1.7047,2.9521,-0.8906,1.0695,-2.5568,-1.0813
54641.0,1.9561,3.3016,-1.4317,1.3218,-2.4344,-0.9381
54651.0,2.1356,3.6392,-2.1644,1.5202,-2.2998,-0.7838
54661.0,2.4684,3.8571,-2.9113,1.6155,-2.1471,-0.6188
54671.0,3.0191,4.0606,-3.5195,1.6155,-1.964,-0.4438
54681.0,3.3854,4.1659,-4.1276,1.4963,-1.7687,-0.2788
54691.0,3.6105,4.2593,-4.5466,1.2616,-1.615,-0.1383
54701.0,3.9025,4.4341,-5.1427,0.9551,-1.4968,-0.0037
54711.0,4.0103,4.4556,-5.6407,0.5906,-1.392,0.1362
54721.0,4.0294,4.4221,-6.292,0.2528,-1.2435,0.2964
54731.0,4.0127,4.0989,-6.8115,-0.0569,-1.0174,0.4752
54741.0,4.0869,3.4022,-7.1227,-0.3081,-0.7141,0.6545
54751.0,4.4053,2.794,-7.8745,-0.4651,-0.339,0.8152
54761.0,4.7908,2.0423,-8.4994,-0.5949,0.1639,0.9466
54771.0,4.8961,1.4437,-8.7364,-0.6396,0.8333,1.0456
54781.0,5.0996,0.7829,-8.4491,-0.6811,1.5277,1.1111
54791.0,4.8818,0.3328,-8.0589,-0.6508,2.2567,1.1589
54801.0,4.4724,-0.249,-7.4819,-0.6433,2.9463,1.1967
54811.0,4.0247,-1.1085,-6.5434,-0.6721,3.6109,1.2212
54821.0,3.2681,-1.8507,-5.7988,-0.6518,4.2244,1.2228
54831.0,2.7054,-2.636,-5.2218,-0.589,4.8449,1.2031
54841.0,1.4509,-3.3734,-4.0294,-0.48,5.5648,1.1621
54851.0,0.2658,-4.1228,-2.7126,-0.2788,6.2715,1.1164
54861.0,-1.1396,-4.7645,-1.6664,0.0011,6.9872,1.0472
54871.0,-2.7581,-5.4324,-0.5219,0.2277,7.7002,0.9386
54881.0,-4.3287,-6.1555,1.5538,0.3741,8.3733,0.7551
54891.0,-5.8538,-6.5721,4.3981,0.4789,8.8969,0.4869
54901.0,-7.2544,-6.7062,7.1874,0.539,9.1587,0.1873
54911.0,-8.4635,-6.5457,9.6941,0.5369,9.2141,-0.1016
54921.0,-10.0652,-6.4452,13.0628,0.4518,9.1848,-0.3799
54931.0,-10.9559,-5.7964,15.9047,0.1282,8.7703,-0.6593
54941.0,-11.133,-6.3638,17.6477,-0.4358,7.9428,-0.8695
54951.0,-10.726,-7.9128,18.2749,-0.7705,7.3373,-1.027
54961.0,-9.9,-9.1004,19.9796,-0.8918,7.0872,-1.2531
54971.0,-10.3597,-9.3422,22.9724,-0.853,6.8722,-1.5341
54981.0,-10.9056,-9.6798,25.6898,-0.6178,6.3944,-1.7645
54991.0,-10.4172,-9.2368,25.8143,-0.1868,5.7362,-1.9773
55001.0,-9.9192,-7.8338,24.9428,0.0404,5.1099,-2.2317
55011.0,-10.3142,-6.754,24.6292,0.033,4.648,-2.4376
55021.0,-10.3094,-5.3965,24.6962,-0.0186,4.3133,-2.585
55031.0,-10.5824,-3.8978,26.1902,-0.1634,3.9892,-2.6755
55041.0,-10.647,-2.6935,27.7608,-0.2128,3.562,-2.6595
55051.0,-10.2113,-1.1732,27.9355,-0.174,2.9953,-2.576
55061.0,-9.7444,-1.008,28.9531,-0.2639,2.3908,-2.4445
55071.0,-9.4739,-0.3998,28.8597,-0.2091,1.831,-2.2998
55081.0,-9.1411,-0.5986,28.4886,-0.3416,1.1212,-2.1769
55091.0,-8.6191,-0.9242,27.4376,-0.5667,0.4177,-2.0939
55101.0,-8.3246,-1.1037,26.7025,-0.7811,-0.1857,-2.0497
55111.0,-7.9464,-0.723,24.9069,-0.9126,-0.7524,-2.0082
55121.0,-7.4508,-0.4381,23.2573,-1.1222,-1.2095,-1.9651
55131.0,-6.8881,-0.5171,22.041,-1.4122,-1.5995,-1.9209
55141.0,-6.4787,-0.7302,21.373,-1.6331,-1.9119,-1.8762
55151.0,-6.3446,-0.6919,20.5255,-1.6751,-2.1758,-1.815
55161.0,-6.0525,-0.9074,19.338,-1.6416,-2.4765,-1.7288
55171.0,-5.3654,-1.0798,17.7147,-1.5133,-2.7276,-1.6373
55181.0,-5.1236,-1.0965,15.6772,-1.3436,-2.8569,-1.5575
55191.0,-4.6328,-1.2378,13.7427,-1.301,-2.9559,-1.4979
55201.0,-3.8379,-1.2809,12.5959,-1.3372,-2.9516,-1.4638
55211.0,-3.5267,-1.3192,12.0596,-1.3558,-2.8692,-1.4388
55221.0,-3.1603,-1.4006,11.7124,-1.3154,-2.8479,-1.4042
55231.0,-2.7414,-1.3312,10.9822,-1.2068,-2.8628,-1.3569
55241.0,-2.3727,-1.494,10.2448,-1.102,-2.8872,-1.3005
55251.0,-1.9058,-1.4269,9.1866,-0.9349,-2.8761,-1.2457
55261.0,-1.6999,-1.3695,8.2337,-0.7556,-2.8016,-1.1845
55271.0,-1.2713,-1.4222,7.6351,-0.5529,-2.651,-1.1041
55281.0,-1.0104,-1.5395,7.094,-0.3304,-2.4674,-1.0206
55291.0,-0.826,-1.6113,6.5122,-0.1852,-2.3461,-0.9599
55301.0,-0.4429,-1.6616,5.8993,-0.1325,-2.2498,-0.9184
55311.0,-0.079,-1.7789,5.5282,-0.132,-2.1183,-0.8939
55321.0,0.1604,-1.6783,5.3127,-0.141,-1.9763,-0.8844
55331.0,0.2682,-1.4317,5.2002,-0.1485,-1.8321,-0.8721
55341.0,0.5171,-1.3312,5.3582,-0.1469,-1.6879,-0.8375
55351.0,0.7494,-1.1229,5.442,-0.099,-1.5591,-0.7902
55361.0,0.6967,-0.9984,5.4803,-0.0591,-1.4606,-0.7327
55371.0,0.8499,-0.8356,5.2888,-0.0037,-1.3776,-0.6635
55381.0,1.0343,-0.8452,5.2241,0.0431,-1.2978,-0.5917
55391.0,1.2474,-0.7518,5.0733,0.0931,-1.1988,-0.5257
55401.0,1.4317,-0.7254,5.0446,0.1038,-1.1297,-0.4709
55411.0,1.5921,-0.6704,4.81,0.1059,-1.0839,-0.4204
55421.0,1.6951,-0.5746,4.6855,0.1187,-1.0052,-0.3735
55431.0,1.8292,-0.3711,4.4101,0.1373,-0.9328,-0.331
55441.0,2.0279,-0.1389,4.1396,0.1165,-0.8775,-0.2927
55451.0,2.1045,0.1796,3.893,0.0713,-0.8099,-0.2533
55461.0,2.1404,0.486,3.699,0.0005,-0.7434,-0.2059
55471.0,2.1883,0.7542,3.5195,-0.0846,-0.6864,-0.1485
55481.0,2.2505,1.0175,3.3112,-0.1655,-0.6141,-0.0819
55491.0,2.2098,1.2594,3.1603,-0.2581,-0.5412,-0.008
55501.0,2.0877,1.5203,3.0622,-0.3576,-0.481,0.0788
55511.0,1.9537,1.7861,2.794,-0.4353,-0.4044,0.1916
55521.0,1.8627,1.9728,2.6217,-0.489,-0.2921,0.3379
55531.0,1.7861,2.0758,2.1883,-0.538,-0.1554,0.5082
55541.0,1.6903,1.9585,1.8866,-0.6013,0.0314,0.6949
55551.0,1.561,1.6807,1.9824,-0.6667,0.2639,0.886
55561.0,1.5778,1.2737,2.217,-0.7013,0.5018,1.0711
55571.0,1.4198,0.723,2.6312,-0.6779,0.7524,1.2435
55581.0,1.2833,0.1867,3.1867,-0.6077,0.9802,1.3856
55591.0,1.1253,-0.0718,3.6607,-0.5103,1.1589,1.4889
55601.0,1.0295,0.0742,3.6919,-0.4028,1.2936,1.5687
55611.0,0.6512,0.3783,3.5051,-0.4007,1.3973,1.6394
55621.0,-0.0383,0.7278,3.7804,-0.4864,1.532,1.7219
55631.0,-0.5195,1.1061,4.118,-0.5167,1.7049,1.856
55641.0,-1.063,1.3575,4.1468,-0.5199,1.9034,2.0428
55651.0,-1.5778,1.2785,4.4628,-0.613,2.1386,2.2482
55661.0,-2.2601,0.9194,5.9951,-0.7652,2.419,2.4536
55671.0,-3.1029,0.8212,7.932,-0.7886,2.6616,2.6749
55681.0,-4.3838,0.486,9.9072,-0.6731,2.8101,2.9532
55691.0,-5.3534,-0.0575,11.4802,-0.3719,2.9554,3.298
55701.0,-5.8945,-0.8787,12.7707,-0.0314,3.1033,3.6631
55711.0,-6.3351,-2.0782,13.9486,0.1485,3.1911,3.9802
55721.0,-7.0246,-3.4093,15.3349,0.0654,3.1879,4.1994
55731.0,-7.7333,-4.9225,17.1281,-0.274,3.0107,4.317
55741.0,-8.2241,-6.4212,18.7418,-0.6843,2.6983,4.375
55751.0,-9.0525,-7.604,20.2645,-1.102,2.2705,4.374
55761.0,-10.3765,-8.497,21.0139,-1.4372,1.724,4.3676
55771.0,-10.7715,-10.3022,22.0745,-1.5687,1.2292,4.416
55781.0,-10.8505,-12.378,22.5725,-1.383,0.8152,4.4596
55791.0,-10.6087,-14.6286,23.0753,-1.0318,0.4284,4.4341
55801.0,-9.8545,-16.7331,23.4153,-0.5305,0.1032,4.3085
55811.0,-9.3613,-17.8512,22.9939,-0.0245,-0.2501,4.052
55821.0,-8.3486,-18.421,19.9892,0.1634,-0.7843,3.6817
55831.0,-7.2712,-18.4186,17.5591,-0.3374,-1.2478,3.1421
55841.0,-7.331,-17.6165,16.9749,-1.201,-1.5522,2.5148
55851.0,-7.6279,-16.2638,17.2813,-1.9747,-1.9278,1.9396
55861.0,-8.0445,-14.5448,16.9869,-2.3216,-2.2822,1.5234
55871.0,-8.4539,-13.5991,16.8097,-2.2838,-2.5291,1.2925
55881.0,-8.2361,-13.2615,15.9885,-1.9007,-2.7021,1.1925
55891.0,-7.908,-13.1849,15.0284,-1.4037,-2.8202,1.1238
55901.0,-7.5609,-13.3908,13.9726,-0.9722,-2.9229,1.0397
55911.0,-6.8426,-13.975,12.9861,-0.6763,-3.04,0.9057
55921.0,-6.5027,-14.1114,12.1171,-0.4746,-3.148,0.6875
55931.0,-6.0741,-13.7738,11.3054,-0.3374,-3.2656,0.4087
55941.0,-5.9328,-12.8401,10.2208,-0.2261,-3.3624,0.1203
55951.0,-5.7916,-11.983,9.2512,-0.1628,-3.4188,-0.1389
55961.0,-5.5474,-11.0732,8.272,-0.0958,-3.4167,-0.3613
55971.0,-5.5186,-10.24,7.8386,-0.0452,-3.3496,-0.5539
55981.0,-5.363,-9.4739,7.4101,0.0335,-3.2948,-0.7019
55991.0,-4.865,-8.6838,6.8426,0.1203,-3.2512,-0.8184
56001.0,-4.4005,-7.8865,6.1507,0.1607,-3.1868,-0.9131
56011.0,-3.9504,-7.2832,5.8969,0.1383,-3.1129,-0.9833
56021.0,-3.6966,-6.8738,5.8754,0.1272,-3.0341,-1.0344
56031.0,-3.3471,-6.5601,5.7772,0.158,-2.9825,-1.0749
56041.0,-2.9808,-6.3135,5.5665,0.2379,-2.9266,-1.1063
56051.0,-2.727,-6.0382,5.2385,0.3576,-2.8521,-1.1345
56061.0,-2.3918,-5.7174,4.9321,0.4587,-2.7947,-1.168
56071.0,-2.1524,-5.2265,4.4365,0.5598,-2.7297,-1.1978
56081.0,-1.8316,-4.5801,3.8978,0.629,-2.6675,-1.2169
56091.0,-1.336,-3.7996,3.0622,0.6737,-2.5882,-1.2122
56101.0,-1.063,-3.043,2.5642,0.6481,-2.4435,-1.1845
56111.0,-0.9122,-2.4325,2.2601,0.5859,-2.2769,-1.1334
56121.0,-0.5339,-1.9944,2.0566,0.4885,-2.1412,-1.0658
56131.0,-0.1987,-1.6735,1.6903,0.3789,-1.9976,-0.9924
56141.0,0.1676,-1.5443,1.5945,0.2331,-1.8491,-0.9248
56151.0,0.5698,-1.4222,1.5826,0.0952,-1.6969,-0.8652
56161.0,0.8092,-1.3767,1.8052,-0.0069,-1.5282,-0.8099
56171.0,1.063,-1.3767,1.9178,-0.0607,-1.3941,-0.7567
56181.0,1.3072,-1.3743,2.0087,-0.099,-1.2946,-0.7125
56191.0,1.4174,-1.2498,1.9249,-0.1266,-1.21,-0.6784
56201.0,1.415,-1.0606,1.7526,-0.19,-1.1621,-0.6524
56211.0,1.4892,-0.9792,1.6472,-0.2645,-1.1329,-0.6194
56221.0,1.585,-0.917,1.5275,-0.3044,-1.0962,-0.5779
56231.0,1.7262,-0.9026,1.233,-0.2868,-1.0616,-0.531
56241.0,2.0207,-0.9218,0.7374,-0.2214,-1.0052,-0.4821
56251.0,2.2697,-0.9433,0.1676,-0.1415,-0.9073,-0.4448
56261.0,2.466,-0.9625,-0.2825,-0.0639,-0.7673,-0.4225
56271.0,2.5618,-0.9194,-0.6656,0.0,-0.6008,-0.4135
56281.0,2.5738,-0.7015,-1.075,0.0585,-0.4071,-0.414
56291.0,2.4445,-0.3519,-1.3072,0.1011,-0.1868,-0.4119
56301.0,2.1739,0.0694,-1.3982,0.1038,0.0335,-0.3879
56311.0,2.0399,0.3879,-1.6281,0.0431,0.2043,-0.3342
56321.0,1.8507,0.5171,-1.8531,-0.0734,0.3485,-0.2522
56331.0,1.5538,0.4693,-2.0423,-0.1841,0.5247,-0.1458
56341.0,1.2282,0.3256,-2.2098,-0.2469,0.7354,-0.0234
56351.0,1.0271,0.17,-2.2769,-0.2224,1.0089,0.1176
56361.0,0.8116,-0.1341,-2.4565,-0.132,1.3218,0.2756
56371.0,0.5626,-0.5794,-2.624,-0.0474,1.6474,0.4347
56381.0,0.2873,-0.9768,-3.0718,-0.0282,1.9576,0.5694
56391.0,-0.2274,-1.4054,-3.5769,-0.1112,2.2556,0.687
56401.0,-0.7566,-2.059,-3.9863,-0.2533,2.6058,0.8072
56411.0,-1.3695,-3.1412,-4.0869,-0.3959,3.0511,0.9328
56421.0,-2.1021,-4.5825,-3.9073,-0.4895,3.5354,1.0366
56431.0,-2.4828,-6.2584,-3.735,-0.497,4.043,1.0903
56441.0,-2.9999,-7.7907,-3.1196,-0.3634,4.7225,1.0866
56451.0,-4.7046,-9.3254,-1.2689,-0.0383,5.5223,1.0318
56461.0,-6.4021,-10.8864,-0.735,0.4193,6.2092,0.9073
56471.0,-8.4156,-12.5145,0.9864,0.8471,7.0446,0.6486
56481.0,-10.4124,-13.7427,4.3431,1.2521,7.8726,0.2506
56491.0,-12.3014,-13.9797,8.5712,1.7368,8.5729,-0.2187
56501.0,-14.1928,-13.8983,13.951,2.0609,8.9315,-0.7114
56511.0,-15.3492,-13.4865,20.0802,2.1002,8.8299,-1.1978
56521.0,-16.204,-12.6893,26.9324,1.9353,8.3026,-1.6426
56531.0,-16.5751,-11.7986,33.3273,1.748,7.3064,-1.9922
56541.0,-16.2447,-11.212,36.6696,1.5708,5.8298,-2.2423
56551.0,-14.8919,-11.0995,36.9018,1.21,4.1228,-2.4743
56561.0,-14.0611,-10.6853,35.6377,0.7556,2.6201,-2.734
56571.0,-13.2184,-9.9982,33.6361,0.3719,1.3372,-2.9607
56581.0,-12.2487,-8.9926,30.2938,0.2841,0.3411,-3.1059
56591.0,-11.2527,-7.8961,26.7744,0.3805,-0.2735,-3.1762
56601.0,-10.5656,-6.9073,24.2461,0.5704,-0.5454,-3.1868
56611.0,-9.924,-5.5258,22.132,0.7657,-0.6641,-3.1661
56621.0,-8.8442,-3.948,20.9253,0.8014,-0.779,-3.1198
56631.0,-8.023,-2.7653,20.4297,0.7072,-0.8711,-3.0208
56641.0,-7.4101,-2.3559,20.911,0.5811,-0.9727,-2.8782
56651.0,-7.0725,-1.8531,21.3802,0.5358,-1.1717,-2.7265
56661.0,-6.7469,-1.4916,21.2174,0.5039,-1.5085,-2.5584
56671.0,-6.0286,-1.7047,20.0754,0.4172,-1.9491,-2.3844
56681.0,-5.1834,-2.1476,18.7179,0.2964,-2.3174,-2.254
56691.0,-4.8004,-2.1787,17.2598,0.165,-2.5845,-2.1865
56701.0,-4.5131,-2.1356,15.7802,0.0074,-2.8287,-2.1439
56711.0,-4.063,-2.0782,14.3006,-0.0979,-2.983,-2.0955
56721.0,-3.7373,-2.0734,12.9909,-0.1543,-3.0362,-2.0401
56731.0,-3.1532,-1.7909,11.6406,-0.2112,-3.0783,-1.9949
56741.0,-2.6719,-1.7142,10.7691,-0.298,-3.0777,-1.9411
56751.0,-2.3439,-1.652,10.0533,-0.2501,-2.999,-1.8576
56761.0,-2.0111,-1.7166,9.6199,-0.1091,-2.9021,-1.7512
56771.0,-1.7861,-1.8052,8.9615,0.1362,-2.8021,-1.6251
56781.0,-1.3048,-1.8938,8.0637,0.4321,-2.6818,-1.4968
56791.0,-0.6728,-1.9752,7.2233,0.6561,-2.5435,-1.3904
56801.0,-0.3041,-2.1045,6.7564,0.8248,-2.3695,-1.3069
56811.0,0.103,-2.0997,6.2848,0.9817,-2.2136,-1.2425
56821.0,0.4645,-1.9968,5.7006,1.0685,-2.0891,-1.2079
56831.0,0.7039,-1.6352,4.9919,1.0403,-1.9811,-1.1962
56841.0,0.9242,-1.3599,4.6543,0.8737,-1.8816,-1.1983
56851.0,1.1779,-0.996,4.4365,0.6832,-1.7624,-1.1925
56861.0,1.3408,-0.7709,4.4891,0.4911,-1.632,-1.1733
56871.0,1.4796,-0.6129,4.6376,0.3475,-1.5016,-1.1403
56881.0,1.6855,-0.5171,5.0661,0.29,-1.3643,-1.0924
56891.0,1.8483,-0.3065,5.2409,0.3124,-1.2489,-1.0307
56901.0,2.0423,-0.1125,5.3199,0.339,-1.1765,-0.9668
56911.0,2.1931,0.1317,5.3582,0.3565,-1.1196,-0.9035
56921.0,2.3032,0.3687,5.4588,0.3539,-1.0892,-0.8365
56931.0,2.4565,0.5483,5.1715,0.331,-1.1084,-0.7641
56941.0,2.6145,0.6584,4.8554,0.2815,-1.1281,-0.6923
56951.0,2.715,0.7111,4.5179,0.2097,-1.1339,-0.6263
56961.0,2.8395,0.6584,4.2042,0.1447,-1.118,-0.5624
56971.0,3.0071,0.6536,3.7996,0.1107,-1.077,-0.5039
56981.0,3.2633,0.6728,3.3399,0.0649,-1.0195,-0.4571
56991.0,3.4093,0.6488,3.0526,0.009,-0.9349,-0.422
57001.0,3.5745,0.7087,2.8347,-0.0261,-0.8253,-0.3948
57011.0,3.7134,0.8595,2.6288,-0.0607,-0.7109,-0.373
57021.0,3.7661,1.1229,2.3774,-0.1054,-0.596,-0.3496
57031.0,3.7828,1.3982,2.3152,-0.1719,-0.4805,-0.3124
57041.0,3.7469,1.652,2.162,-0.2458,-0.3767,-0.2522
57051.0,3.7134,1.81,2.2386,-0.3145,-0.2591,-0.1687
57061.0,3.7781,1.8962,2.2458,-0.3432,-0.1272,-0.0639
57071.0,3.6464,1.8866,2.6695,-0.3666,0.0303,0.0495
57081.0,3.4141,1.8986,3.4333,-0.3576,0.1666,0.1745
57091.0,3.0095,1.8675,3.9409,-0.3049,0.2272,0.323
57101.0,2.7054,1.652,3.9409,-0.223,0.2655,0.4906
57111.0,2.4804,1.154,3.6536,-0.1586,0.3406,0.6476
57121.0,2.5642,0.4429,3.3208,-0.1362,0.4369,0.7599
57131.0,2.8539,-0.067,2.5714,-0.1293,0.5885,0.8109
57141.0,3.2801,-0.2801,1.9106,-0.2575,0.7928,0.7928
57151.0,3.3255,-0.1963,2.1332,-0.514,1.0664,0.7412
57161.0,3.134,0.1245,2.8156,-0.8072,1.3122,0.7093
57171.0,2.6911,0.249,4.3287,-1.0531,1.4979,0.7295
57181.0,1.9321,0.34,5.4827,-1.0754,1.6118,0.8179
57191.0,1.3695,0.1891,6.3973,-0.8939,1.6852,0.9514
57201.0,1.2186,-0.1006,6.9049,-0.4816,1.8305,1.1174
57211.0,1.2785,-0.3543,6.8115,0.0442,2.0582,1.2776
57221.0,1.4341,-0.4214,6.4859,0.4007,2.311,1.3798
57231.0,1.1947,-0.0766,6.9001,0.4523,2.5823,1.4277
57241.0,0.7063,0.3711,8.3079,0.2517,2.7686,1.4798
57251.0,-0.1508,0.5746,9.7612,0.0021,2.8213,1.5969
57261.0,-0.5555,0.0742,11.6526,-0.1309,2.8314,1.7868
57271.0,-0.9601,-0.8116,13.3477,0.0708,2.9144,2.0199
57281.0,-1.5802,-1.9249,15.3444,0.6077,3.0394,2.2333
57291.0,-1.8771,-2.3679,16.4003,1.4947,3.1437,2.3993
57301.0,-2.3774,-1.8387,15.7323,2.4929,3.248,2.5355
57311.0,-2.3894,-0.8835,13.1609,3.1022,3.3885,2.6611
57321.0,-2.739,-0.261,12.1458,2.8771,3.7088,2.7276
57331.0,-4.0654,-0.3687,13.9366,1.9816,4.0856,2.7654
57341.0,-4.9297,-1.8962,18.2941,0.8796,4.2649,2.8085
57351.0,-6.1316,-3.7661,24.045,0.0426,4.1606,2.8229
57361.0,-6.6463,-5.6647,29.5277,-0.3241,3.629,2.8207
57371.0,-6.4979,-6.9121,32.7168,-0.1117,2.7792,2.8042
57381.0,-6.1603,-7.2329,33.2172,0.3991,1.814,2.7521
57391.0,-5.7748,-7.3741,31.7711,0.8849,0.8849,2.6872
57401.0,-5.1427,-7.3981,28.7256,1.1238,0.0341,2.5866
57411.0,-4.6615,-7.3239,24.847,0.9456,-0.6774,2.4222
57421.0,-4.1515,-7.4244,22.0267,0.3155,-1.16,2.1891
57431.0,-4.0677,-7.762,21.5143,-0.4752,-1.441,1.9262
57441.0,-4.0079,-8.26,21.9955,-1.0312,-1.7161,1.69
57451.0,-3.8642,-8.6191,22.1775,-1.1999,-2.0486,1.492
57461.0,-3.8116,-8.5736,21.6196,-1.0467,-2.3972,1.3313
57471.0,-3.7062,-8.3534,20.1376,-0.6625,-2.6893,1.2207
57481.0,-3.395,-8.0206,18.0307,-0.2283,-2.8851,1.1456
57491.0,-2.9832,-7.7165,16.0459,0.091,-2.9452,1.0844
57501.0,-2.6767,-7.6614,14.7148,0.2341,-2.9245,1.0052
57511.0,-2.4852,-7.6662,13.8313,0.2357,-2.9266,0.8929
57521.0,-2.1117,-7.6136,12.9838,0.1729,-2.9564,0.7508
57531.0,-1.8842,-7.422,12.4714,0.1,-2.9633,0.5875
57541.0,-1.6448,-7.0342,11.9758,0.0516,-2.9745,0.4172
57551.0,-1.5131,-6.4739,11.4874,0.05,-2.9915,0.2607
57561.0,-1.3575,-5.873,10.738,0.0601,-3.0187,0.1309
57571.0,-1.2186,-5.3702,10.0533,0.0761,-3.0368,0.0303
57581.0,-0.9912,-4.9273,9.1985,0.1117,-3.0181,-0.0431
57591.0,-0.905,-4.5107,8.5617,0.1187,-2.9601,-0.1016
57601.0,-0.8643,-4.1731,8.0709,0.0937,-2.9117,-0.1469
57611.0,-0.6991,-3.96,7.6423,0.0633,-2.8867,-0.1799
57621.0,-0.5315,-3.8403,7.2065,0.033,-2.8606,-0.2102
57631.0,-0.407,-3.7876,6.7588,0.0138,-2.8266,-0.2426
57641.0,-0.2251,-3.7469,6.4045,0.0005,-2.7994,-0.2895
57651.0,-0.0886,-3.4884,5.9089,0.0,-2.7744,-0.3459
57661.0,0.1915,-3.2968,5.4588,-0.0229,-2.7595,-0.4017
57671.0,0.4573,-3.1101,4.9728,-0.0383,-2.7335,-0.4571
57681.0,0.6728,-2.9712,4.4245,-0.058,-2.6973,-0.5177
57691.0,0.8284,-2.6935,4.0294,-0.0878,-2.6505,-0.5869
57701.0,0.9553,-2.3272,3.5578,-0.1032,-2.5882,-0.6481
57711.0,1.1564,-1.9393,3.1244,-0.0974,-2.51,-0.6933
57721.0,1.3791,-1.5826,2.7533,-0.0926,-2.4163,-0.7247
57731.0,1.4126,-1.1899,2.4612,-0.091,-2.3126,-0.7396
57741.0,1.4892,-0.8188,2.217,-0.0926,-2.2178,-0.737
57751.0,1.5706,-0.4693,1.8627,-0.0937,-2.138,-0.7168
57761.0,1.7047,-0.1915,1.5203,-0.1133,-2.0497,-0.6822
57771.0,1.9178,-0.079,1.1684,-0.1405,-1.9539,-0.6385
57781.0,2.0877,0.0359,0.7254,-0.1815,-1.8507,-0.5965
57791.0,2.2649,0.1149,0.5722,-0.2267,-1.7235,-0.5624
57801.0,2.5474,0.3208,0.2466,-0.2565,-1.6017,-0.5401
57811.0,2.8659,0.5028,0.0694,-0.2937,-1.4665,-0.5215
57821.0,3.0502,0.8499,-0.158,-0.2905,-1.2962,-0.4933
57831.0,3.2417,1.1205,-0.3352,-0.3044,-1.1408,-0.4555
57841.0,3.5314,1.3647,-0.5243,-0.3278,-0.9775,-0.4017
57851.0,3.644,1.5299,-0.6321,-0.3358,-0.7875,-0.3358
57861.0,3.8355,1.6592,-0.8595,-0.3347,-0.6013,-0.2517
57871.0,3.9552,1.7238,-1.0223,-0.3225,-0.3884,-0.1474
57881.0,3.9289,1.7502,-1.3144,-0.2826,-0.1266,-0.0261
57891.0,3.8188,1.664,-1.5012,-0.249,0.1538,0.1086
57901.0,3.6943,1.5036,-1.7645,-0.2049,0.481,0.2581
57911.0,3.6943,1.1708,-2.0183,-0.1639,0.853,0.4108
57921.0,3.8188,0.8045,-2.1284,-0.1532,1.2616,0.5454
57931.0,3.6559,0.4573,-2.2027,-0.1868,1.7097,0.6572
57941.0,3.1891,-0.0072,-1.913,-0.2623,2.1758,0.7551
57951.0,2.7366,-0.577,-1.2929,-0.3129,2.6451,0.8423
57961.0,2.308,-1.3048,-0.5674,-0.29,3.1107,0.9062
57971.0,1.6017,-1.9058,-0.1413,-0.2347,3.5524,0.928
57981.0,1.0104,-2.6121,0.7733,-0.2448,3.9408,0.9083
57991.0,0.5028,-3.1508,1.6927,-0.2235,4.3122,0.8748
58001.0,-0.2298,-3.9145,2.6815,-0.1719,4.6592,0.8487
58011.0,-0.4788,-5.3295,3.7373,-0.099,4.9816,0.82
58021.0,-1.1277,-6.8402,4.8123,-0.0208,5.302,0.7141
58031.0,-1.8675,-8.3701,6.4524,-0.0298,5.5366,0.4906
58041.0,-2.5714,-9.2273,8.157,-0.0394,5.6787,0.1761
58051.0,-3.3088,-9.8234,9.9766,-0.0654,5.6872,-0.165
58061.0,-3.4309,-10.6135,11.461,0.0064,5.6521,-0.4789
58071.0,-3.881,-11.2599,12.7204,0.1282,5.6484,-0.8147
58081.0,-4.6136,-11.3102,14.3269,0.2139,5.6164,-1.1909
58091.0,-5.1787,-10.7236,16.2255,0.3262,5.5904,-1.5415
58101.0,-5.861,-10.3238,19.1488,0.4826,5.5829,-1.8225
58111.0,-6.4907,-9.9934,22.3331,0.7705,5.4589,-2.0438
58121.0,-6.5745,-9.1626,25.2564,1.0951,5.1237,-2.2594
58131.0,-6.9839,-7.6064,27.4447,1.3622,4.6129,-2.4557
58141.0,-6.9312,-5.7988,28.9555,1.4298,3.9142,-2.6074
58151.0,-6.7876,-4.276,29.8605,1.2882,3.1368,-2.6999
58161.0,-6.6559,-3.146,30.6314,0.9578,2.3551,-2.7558
58171.0,-6.7756,-2.2745,31.6202,0.5231,1.5607,-2.7845
58181.0,-6.6774,-1.5299,32.0224,0.0979,0.6843,-2.7787
58191.0,-6.1842,-1.0798,31.7208,-0.2049,-0.1953,-2.7228
58201.0,-5.6551,-0.2777,30.1909,-0.3161,-0.9743,-2.635
58211.0,-5.3343,0.4956,27.9092,-0.3421,-1.6421,-2.5126
58221.0,-4.5657,0.8332,25.3307,-0.3858,-2.1652,-2.3599
58231.0,-3.9983,0.917,23.1663,-0.4315,-2.5031,-2.2072
58241.0,-3.5889,0.7422,21.4616,-0.448,-2.7053,-2.0534
58251.0,-2.9808,0.4166,19.8862,-0.4746,-2.8888,-1.9188
58261.0,-2.5283,-0.0024,18.7681,-0.5284,-3.0384,-1.8188
58271.0,-2.2003,-0.2682,17.4801,-0.5438,-3.1921,-1.748
58281.0,-1.9225,-0.3304,16.1728,-0.5635,-3.3475,-1.7044
58291.0,-1.6376,-0.4597,14.9302,-0.5789,-3.4758,-1.6613
58301.0,-1.3599,-0.5315,13.3908,-0.5374,-3.571,-1.616
58311.0,-0.996,-0.747,11.8178,-0.5172,-3.6099,-1.5793
58321.0,-0.5483,-0.9433,10.3884,-0.4832,-3.554,-1.5538
58331.0,-0.237,-1.0702,9.3661,-0.447,-3.4321,-1.5479
58341.0,-0.0168,-1.0056,8.4324,-0.3884,-3.2714,-1.549
58351.0,0.2586,-0.9146,7.7117,-0.3187,-3.0926,-1.5442
58361.0,0.5818,-0.7566,6.9695,-0.2389,-2.8841,-1.532
58371.0,0.8859,-0.6129,6.6128,-0.1703,-2.6419,-1.516
58381.0,1.0774,-0.4645,6.371,-0.1064,-2.3972,-1.4926
58391.0,1.2019,-0.3519,6.5242,-0.0729,-2.1918,-1.4724
58401.0,1.3336,-0.3448,6.8953,0.009,-2.0135,-1.4436
58411.0,1.5179,-0.2251,6.8642,0.1745,-1.8794,-1.4069
58421.0,1.6448,-0.0575,6.7349,0.3592,-1.765,-1.3681
58431.0,1.7262,0.2418,6.4236,0.5353,-1.6554,-1.3244
58441.0,1.9154,0.5243,5.928,0.647,-1.5618,-1.2717
58451.0,2.1213,0.8284,5.2864,0.647,-1.4702,-1.2217
58461.0,2.2601,0.8906,5.1427,0.5034,-1.3766,-1.184
58471.0,2.3774,0.9337,5.4133,0.3475,-1.2792,-1.1542
58481.0,2.5786,0.9601,5.4755,0.2565,-1.2074,-1.1174
58491.0,2.6863,0.984,5.6431,0.1948,-1.1345,-1.0791
58501.0,2.7342,1.0415,5.7293,0.1517,-1.0871,-1.0408
58511.0,2.8587,1.0367,5.8251,0.0958,-1.0813,-1.0068
58521.0,3.0095,1.0726,5.7628,0.0729,-1.0765,-0.9727
58531.0,3.1436,1.1037,5.6982,0.0548,-1.0834,-0.9429
58541.0,3.2561,1.2833,5.3798,0.0399,-1.1068,-0.9168
58551.0,3.2896,1.4102,5.0494,0.0154,-1.1254,-0.8892
58561.0,3.4141,1.5562,4.5562,-0.017,-1.1408,-0.8588
58571.0,3.5985,1.6113,4.1348,-0.066,-1.143,-0.829
58581.0,3.723,1.652,3.6871,-0.1048,-1.1158,-0.8051
58591.0,3.6943,1.8028,3.2537,-0.1628,-1.0818,-0.7955
58601.0,3.711,2.1284,2.7031,-0.2581,-1.0584,-0.7944
58611.0,3.6488,2.5091,2.1811,-0.3959,-1.003,-0.7891
58621.0,3.5817,2.8515,1.968,-0.5337,-0.9094,-0.7684
58631.0,3.5626,3.1891,1.8316,-0.6236,-0.8019,-0.7173
58641.0,3.735,3.5698,1.5179,-0.6588,-0.6641,-0.6343
58651.0,3.7852,3.9528,1.2857,-0.6747,-0.4911,-0.5279
58661.0,3.7421,4.3455,1.0391,-0.6992,-0.3129,-0.3991
58671.0,3.6775,4.6783,0.8236,-0.7279,-0.1203,-0.2448
58681.0,3.6631,4.8339,0.6393,-0.7737,0.0894,-0.0644
58691.0,3.6966,4.8267,0.4717,-0.8344,0.3049,0.1261
58701.0,3.5003,4.8004,0.4621,-0.9376,0.5204,0.3033
58711.0,3.1196,4.6064,0.7901,-1.0695,0.7237,0.4746
58721.0,2.8515,4.3407,1.0032,-1.1659,0.9035,0.6497
58731.0,2.7821,4.0582,1.0798,-1.226,1.0813,0.8237
58741.0,2.5522,3.4596,1.6568,-1.242,1.3122,1.0084
58751.0,2.4684,2.6073,2.2386,-1.1297,1.566,1.2106
58761.0,2.6097,1.5826,2.4804,-0.9222,1.8289,1.4042
58771.0,2.8132,0.7063,2.1668,-0.7716,2.0939,1.5373
58781.0,2.4708,0.1221,1.8747,-0.9232,2.3019,1.5527
58791.0,2.1213,-0.1652,2.375,-1.3409,2.4988,1.4873
58801.0,1.7693,-0.2514,4.2401,-1.8012,2.7005,1.4101
58811.0,1.1947,0.1508,6.7205,-1.9949,2.866,1.3925
58821.0,0.9601,0.7805,8.7747,-1.7932,2.9665,1.5
58831.0,0.4214,1.4222,9.5122,-1.2446,3.1027,1.7368
58841.0,0.0335,1.312,9.7659,-0.5992,3.331,2.0587
58851.0,-0.4669,0.5004,9.7444,-0.0639,3.621,2.3796
58861.0,-1.1372,-0.723,9.8857,0.2203,3.9456,2.6244
58871.0,-1.8555,-2.4684,11.5424,0.2533,4.2851,2.7702
58881.0,-2.1787,-3.9624,13.8337,0.2703,4.582,2.8245
58891.0,-2.9042,-4.6304,17.2215,0.282,4.7699,2.7803
58901.0,-3.9385,-4.2042,20.8056,0.3602,4.7177,2.7271
58911.0,-4.3455,-3.1771,23.2549,0.5603,4.3905,2.7579
58921.0,-5.0063,-1.8076,24.0522,0.77,3.9344,2.8723
58931.0,-5.3079,-2.2266,25.4528,0.8833,3.5364,3.091
58941.0,-5.2505,-3.1484,25.618,1.0531,3.1336,3.3129
58951.0,-5.6312,-3.7038,25.5725,0.9786,2.6584,3.422
58961.0,-5.8275,-4.3503,25.1894,0.7184,2.1726,3.4901
58971.0,-5.8347,-5.9161,25.9196,0.3448,1.7842,3.5306
58981.0,-6.0118,-7.276,27.5094,-0.0069,1.3872,3.4939
58991.0,-6.292,-8.2839,29.0704,-0.3001,0.7742,3.4034
59001.0,-6.3398,-9.4451,29.5205,-0.4289,-0.009,3.3039
59011.0,-5.9328,-11.0061,28.8286,-0.3847,-0.7939,3.1975
59021.0,-5.2936,-12.2248,27.167,-0.274,-1.5075,3.016
59031.0,-4.8171,-12.548,25.3857,-0.2432,-2.1508,2.7436
59041.0,-4.446,-12.1961,23.3004,-0.2001,-2.6973,2.4525
59051.0,-3.9863,-11.4036,20.7817,-0.1357,-3.124,2.1966
59061.0,-3.5291,-10.7667,18.5311,-0.0974,-3.3683,1.9906
59071.0,-3.0957,-10.6734,16.7905,-0.1107,-3.4821,1.8209
59081.0,-2.6887,-11.066,15.6724,-0.1703,-3.5428,1.6394
59091.0,-2.2745,-11.4634,15.1673,-0.1825,-3.5646,1.4239
59101.0,-1.9297,-11.5353,14.8249,-0.0644,-3.571,1.1786
59111.0,-1.7573,-11.1187,14.1737,0.1463,-3.5971,0.928
59121.0,-1.415,-10.5058,13.0556,0.3411,-3.6551,0.687
59131.0,-1.1157,-9.663,11.7938,0.4385,-3.6891,0.4523
59141.0,-0.7925,-8.8274,10.7548,0.4337,-3.6881,0.2379
59151.0,-0.5363,-7.9128,9.9766,0.3533,-3.6641,0.041
59161.0,-0.486,-7.1132,9.517,0.2506,-3.6381,-0.1277
59171.0,-0.3783,-6.4643,9.0022,0.2139,-3.6295,-0.2565
59181.0,-0.1125,-5.9017,8.4851,0.2357,-3.6056,-0.3576
59191.0,-0.0766,-5.3199,7.8602,0.3166,-3.5641,-0.4326
59201.0,0.1867,-4.9009,7.1443,0.4033,-3.5359,-0.4842
59211.0,0.5459,-4.4772,6.3183,0.4784,-3.4694,-0.5332
59221.0,0.6512,-4.1204,5.7604,0.5124,-3.3699,-0.5853
59231.0,0.8499,-3.6775,5.2313,0.5279,-3.2767,-0.6306
59241.0,1.0104,-3.371,4.6783,0.5114,-3.1762,-0.6646
59251.0,1.3312,-3.1436,4.2665,0.4699,-3.0783,-0.6992
59261.0,1.6448,-2.8156,4.0175,0.4097,-2.9644,-0.7439
59271.0,1.6855,-2.4804,3.8403,0.3283,-2.8612,-0.7928
59281.0,1.9776,-2.0925,3.7326,0.2426,-2.7925,-0.837
59291.0,2.2218,-1.6712,3.6129,0.1948,-2.7132,-0.8652
59301.0,2.296,-1.2594,3.5745,0.1884,-2.6249,-0.8732
59311.0,2.3942,-1.0247,3.7541,0.199,-2.5573,-0.8631
59321.0,2.4732,-0.8236,3.7972,0.2969,-2.4961,-0.8338
59331.0,2.5211,-0.5938,3.6583,0.4273,-2.4706,-0.7998
59341.0,2.7078,-0.2969,3.0167,0.5284,-2.4722,-0.7636
59351.0,2.9257,-0.1269,2.5474,0.5454,-2.4647,-0.7279
59361.0,3.1173,0.0742,1.9968,0.5044,-2.4493,-0.6992
59371.0,3.3734,0.2035,1.6041,0.4209,-2.4296,-0.6795
59381.0,3.5458,0.3687,1.1277,0.3347,-2.3865,-0.6694
59391.0,3.6176,0.5315,0.8499,0.2496,-2.3248,-0.6625
59401.0,3.6129,0.8021,0.7183,0.2123,-2.2413,-0.655
59411.0,3.6129,1.1037,0.4525,0.2054,-2.171,-0.6385
59421.0,3.7517,1.494,0.1652,0.2091,-2.1029,-0.6119
59431.0,3.7206,1.8124,0.0024,0.2112,-2.0231,-0.5768
59441.0,3.5554,2.2769,-0.2634,0.249,-1.955,-0.53
59451.0,3.8068,2.8204,-0.6536,0.3368,-1.8773,-0.4629
59461.0,4.0486,3.2801,-0.9385,0.4741,-1.7405,-0.3682
59471.0,4.0318,3.6631,-1.3001,0.63,-1.599,-0.249
59481.0,4.3551,3.9648,-2.0231,0.7519,-1.5,-0.1155
59491.0,4.6591,4.1707,-2.9592,0.795,-1.3814,0.0266
59501.0,4.9081,4.3335,-4.0869,0.6838,-1.2654,0.165
59511.0,5.0422,4.3048,-5.1188,0.3602,-1.1648,0.2826
59521.0,5.0901,4.2976,-6.0047,-0.0665,-1.0052,0.3842
59531.0,5.0182,4.3239,-6.45,-0.5028,-0.7774,0.4895
59541.0,4.9919,4.2066,-6.5266,-0.8562,-0.4832,0.6242
59551.0,4.798,3.8571,-6.2632,-1.0099,-0.1091,0.7971
59561.0,4.6352,3.4692,-6.347,-0.9344,0.3022,0.9972
59571.0,4.4987,3.0718,-6.9456,-0.7237,0.7806,1.21
59581.0,4.2353,2.5283,-7.6806,-0.5039,1.3558,1.4223
59591.0,3.6895,1.9058,-8.193,-0.3682,2.0316,1.6144
59601.0,3.0598,0.9864,-8.0948,-0.3672,2.7377,1.7868
59611.0,2.0279,0.0,-7.865,-0.4624,3.4369,1.9209
59621.0,0.8092,-1.0918,-7.1156,-0.6476,4.1122,2.013
59631.0,-0.395,-2.0542,-6.371,-0.8689,4.7507,2.0784
59641.0,-2.2697,-2.8156,-5.7557,-1.1244,5.3988,2.1444
59651.0,-3.8068,-4.0079,-4.4628,-1.5139,6.0198,2.2184
59661.0,-5.363,-5.4731,-2.1715,-1.9481,6.6237,2.2971
59671.0,-6.8091,-7.58,1.5969,-2.2205,7.1154,2.3732
59681.0,-7.7835,-9.8737,4.6232,-2.1237,7.3879,2.4041
59691.0,-8.5305,-12.1889,6.8019,-1.7852,7.5225,2.3275
59701.0,-8.679,-14.4035,8.6957,-1.3196,7.6065,2.1274
59711.0,-9.1937,-16.2925,10.0868,-0.7391,7.7071,1.7985
59721.0,-9.2273,-17.911,11.5568,-0.107,7.8593,1.3478
59731.0,-9.3996,-18.263,13.7307,0.5555,8.1493,0.7732
59741.0,-10.7069,-17.2885,17.6979,1.1009,8.4063,0.1437
59751.0,-11.054,-16.3692,21.8303,1.4537,8.1706,-0.4262
59761.0,-10.3908,-15.4809,24.5885,1.7171,7.5725,-0.9392
59771.0,-9.7947,-13.7355,26.2859,1.873,6.8483,-1.4367
59781.0,-9.335,-11.5424,26.8366,1.8528,6.0028,-1.8677
59791.0,-8.3773,-8.7125,26.9587,1.624,5.1833,-2.2157
59801.0,-8.3414,-5.7126,27.768,1.2175,4.5038,-2.4408
59811.0,-8.2887,-3.5314,29.226,0.7583,3.7844,-2.4823
59821.0,-7.7093,-2.3032,29.7623,0.4055,2.9623,-2.3674
59831.0,-6.9552,-1.9273,29.7599,0.1399,2.1375,-2.1896
59841.0,-5.9496,-1.7286,28.7807,0.0367,1.4138,-1.9874
59851.0,-4.944,-1.6257,27.4926,-0.0181,0.8125,-1.7975
59861.0,-4.0462,-1.7765,25.831,-0.0883,0.3294,-1.6208
59871.0,-3.2657,-2.1069,24.5166,-0.249,-0.067,-1.4793
59881.0,-2.6743,-2.3894,23.3363,-0.431,-0.3767,-1.3702
59891.0,-2.3104,-3.3016,22.697,-0.6109,-0.605,-1.2739
59901.0,-2.1189,-4.2353,22.3235,-0.7295,-0.796,-1.2228
59911.0,-2.1907,-4.9775,22.1583,-0.8195,-0.9855,-1.2271
59921.0,-2.2625,-5.8897,22.3618,-0.8583,-1.209,-1.2616
59931.0,-2.3511,-6.4667,21.9117,-0.7641,-1.4596,-1.3218
59941.0,-2.4062,-6.869,21.5071,-0.6204,-1.7012,-1.4064
59951.0,-2.3487,-6.9001,20.8296,-0.3693,-1.8933,-1.4958
59961.0,-2.5259,-6.8115,20.2406,-0.0793,-2.0497,-1.5804
59971.0,-2.4828,-6.45,18.9956,0.1511,-2.2641,-1.673
59981.0,-2.5618,-6.0358,17.935,0.2246,-2.4796,-1.7762
59991.0,-2.5953,-5.4588,16.9246,0.2086,-2.685,-1.8805
60001.0,-2.6169,-4.9608,15.9047,0.1756,-2.8782,-1.9651
60011.0,-2.4038,-4.3814,14.8608,0.1724,-3.0453,-2.0305
60021.0,-2.3439,-3.7685,13.8696,0.207,-3.1671,-2.0726
60031.0,-2.0925,-3.3734,12.6031,0.3118,-3.2799,-2.0832
60041.0,-1.5012,-2.873,11.0109,0.4523,-3.3316,-2.088
60051.0,-1.2809,-2.2434,9.7061,0.5385,-3.298,-2.096
60061.0,-0.917,-1.719,8.6311,0.5832,-3.2565,-2.0859
60071.0,-0.4334,-1.2402,7.4962,0.6103,-3.1826,-2.0603
60081.0,-0.2227,-0.9577,6.8283,0.5768,-3.0724,-2.0332
60091.0,0.0646,-0.7685,6.3494,0.5209,-2.9905,-2.0103
60101.0,0.3903,-0.4932,5.7078,0.497,-2.9016,-1.9885
60111.0,0.6201,-0.2705,5.1571,0.4661,-2.7899,-1.9667
60121.0,0.7949,-0.0431,4.719,0.4124,-2.6765,-1.9486
60131.0,1.0654,0.2274,4.3527,0.3517,-2.5791,-1.9294
60141.0,1.4293,0.5124,4.027,0.3065,-2.4679,-1.9156
60151.0,1.6568,0.9242,3.7421,0.2698,-2.3498,-1.8959
60161.0,1.8411,1.3216,3.4955,0.2347,-2.2482,-1.8635
60171.0,2.0638,1.6831,3.0742,0.2155,-2.1476,-1.8129
60181.0,2.2673,2.0111,2.8395,0.2054,-2.0226,-1.7501
60191.0,2.4421,2.3176,2.5187,0.2112,-1.8922,-1.674
60201.0,2.7342,2.66,2.2218,0.2267,-1.7384,-1.5905
60211.0,2.9951,3.055,2.0327,0.2437,-1.5495,-1.4889
60221.0,3.1891,3.3902,1.9345,0.24,-1.3713,-1.3691
60231.0,3.3591,3.6536,1.8483,0.2203,-1.2127,-1.2366
60241.0,3.5698,3.869,1.6448,0.1666,-1.0733,-1.0967
60251.0,3.6871,3.8044,1.6927,0.0772,-0.9291,-0.9514
60261.0,3.7086,3.6943,1.7909,0.008,-0.7913,-0.8141
60271.0,3.8451,3.6296,1.7717,-0.0223,-0.6699,-0.6827
60281.0,3.9145,3.5362,1.6209,-0.0314,-0.538,-0.5545
60291.0,3.9935,3.4381,1.5586,-0.0431,-0.3948,-0.4374
60301.0,4.1061,3.383,1.494,-0.0484,-0.2432,-0.3267
60311.0,4.0941,3.3208,1.4724,-0.0474,-0.0782,-0.2192
60321.0,4.0989,3.3519,1.3288,-0.0404,0.0942,-0.1117
60331.0,4.1875,3.3232,1.3719,-0.0447,0.282,-0.0011
60341.0,4.1803,3.3399,1.3455,-0.0341,0.4975,0.1112
60351.0,4.1946,3.3639,1.5227,-0.0186,0.7263,0.2256
60361.0,4.1396,3.4429,1.7909,0.0048,0.9631,0.3448
60371.0,3.948,3.5123,2.1644,0.0069,1.1749,0.4693
60381.0,3.7781,3.3495,2.5953,-0.0293,1.3329,0.6024
60391.0,3.8283,3.0598,2.897,-0.1107,1.4399,0.7263
60401.0,3.7517,2.6983,3.1603,-0.2565,1.4968,0.8237
60411.0,3.5267,2.4325,3.395,-0.4661,1.5085,0.8913
60421.0,3.2322,2.3104,3.5458,-0.7093,1.4851,0.9408
60431.0,2.7557,2.1955,3.7493,-0.9466,1.4601,0.9977
60441.0,2.557,2.0207,3.8188,-1.0797,1.4649,1.0844
60451.0,2.7869,1.8962,3.7038,-1.0685,1.5655,1.1973
60461.0,2.7198,1.8052,3.8116,-0.9855,1.7842,1.3297
60471.0,2.5211,1.7238,4.0462,-0.9301,2.0061,1.4676
60481.0,2.32,1.798,4.3551,-0.9578,2.1684,1.6059
60491.0,2.2889,2.0207,4.9895,-1.1121,2.2684,1.7443
60501.0,2.0806,2.1763,5.9113,-1.3324,2.2998,1.9018
60511.0,1.1612,1.8675,6.8498,-1.5841,2.204,2.104
60521.0,0.6369,0.6369,7.671,-1.7331,2.0289,2.3594
60531.0,0.7877,-1.008,7.6686,-1.6309,1.9177,2.6116
60541.0,0.4046,-2.5857,6.9456,-1.4239,1.9113,2.7766
60551.0,0.1915,-3.9121,5.8035,-1.3308,1.988,2.8298
60561.0,0.2274,-4.9536,5.4899,-1.4601,2.2072,2.7659
60571.0,-0.1413,-5.3127,6.5673,-1.7592,2.4765,2.618
60581.0,-0.7829,-5.2912,9.0644,-2.0332,2.6696,2.4791
60591.0,-1.9225,-5.0685,11.4108,-2.005,2.742,2.4445
60601.0,-2.3607,-5.5043,12.6941,-1.6575,2.7265,2.5339
60611.0,-2.32,-6.3973,13.4291,-1.077,2.8186,2.6552
60621.0,-2.6911,-6.9959,13.8385,-0.5135,2.9718,2.6957
60631.0,-3.0981,-7.3071,14.6956,-0.1596,3.0767,2.6462
60641.0,-3.6583,-7.0294,15.3325,0.0,3.09,2.5467
60651.0,-4.0294,-6.4308,16.0699,-0.0532,3.0362,2.4467
60661.0,-4.4987,-5.8802,17.2742,-0.2107,2.9825,2.4036
60671.0,-5.1499,-5.7054,18.7969,-0.4193,2.8692,2.4296
60681.0,-5.4516,-6.6607,21.1576,-0.5635,2.709,2.5291
60691.0,-5.5162,-8.2744,23.2214,-0.4432,2.4701,2.6462
60701.0,-5.2792,-9.9383,24.8805,-0.1022,2.1545,2.6941
60711.0,-5.0206,-10.9295,26.025,0.3916,1.8134,2.6478
60721.0,-4.8219,-11.2911,26.6594,0.886,1.3713,2.5334
60731.0,-4.4556,-11.0684,25.9388,1.2584,0.8258,2.3801
60741.0,-4.1755,-10.5848,24.452,1.3031,0.2283,2.1934
60751.0,-3.881,-10.058,22.314,0.9637,-0.3725,1.9821
60761.0,-3.7469,-9.7037,21.3323,0.3427,-0.8514,1.7618
60771.0,-3.9265,-9.5217,21.1815,-0.2097,-1.2191,1.5889
60781.0,-4.0342,-9.6414,21.2031,-0.505,-1.5905,1.4883
60791.0,-4.1348,-9.8737,20.7362,-0.4773,-1.9353,1.4447
60801.0,-4.1372,-10.1897,19.5199,-0.2405,-2.2439,1.4282
60811.0,-3.8331,-10.5656,17.9254,0.0883,-2.4637,1.4
60821.0,-3.6368,-10.7883,16.4314,0.3799,-2.5674,1.3271
60831.0,-3.5698,-10.7117,15.4354,0.5795,-2.6207,1.2116
60841.0,-3.3902,-10.2615,14.4658,0.7301,-2.6781,1.0818
60851.0,-3.316,-9.6367,13.5775,0.8056,-2.7132,0.9541
60861.0,-3.2753,-9.0549,12.9742,0.8136,-2.7377,0.8455
60871.0,-3.1077,-8.6215,12.3277,0.7689,-2.7744,0.746
60881.0,-2.9497,-8.0589,11.8752,0.6912,-2.7957,0.6417
60891.0,-3.0598,-7.4388,11.6981,0.5917,-2.8133,0.5518
60901.0,-3.0502,-7.1682,11.6167,0.5337,-2.8484,0.4938
60911.0,-2.9257,-7.0677,11.3653,0.5608,-2.8755,0.4534
60921.0,-2.794,-7.0533,11.1833,0.6497,-2.8761,0.4188
60931.0,-2.636,-7.1371,10.8816,0.779,-2.883,0.3746
60941.0,-2.3152,-7.039,10.2711,0.8966,-2.8995,0.3076
60951.0,-2.1141,-6.6224,9.7061,0.9073,-2.9202,0.2123
60961.0,-1.9082,-6.2417,9.3805,0.8312,-2.949,0.1123
60971.0,-1.7334,-5.9089,8.9711,0.7402,-2.9985,0.0181
60981.0,-1.6161,-5.5833,8.5521,0.663,-3.0437,-0.0686
60991.0,-1.1971,-5.2648,8.0134,0.6699,-3.0565,-0.141
61001.0,-0.7709,-4.7908,7.3454,0.7098,-3.0165,-0.207
61011.0,-0.7757,-4.3191,7.0126,0.6965,-2.9601,-0.2692
61021.0,-0.5674,-3.9696,6.6583,0.6731,-2.95,-0.3203
61031.0,0.0407,-3.5626,6.0382,0.6721,-2.9256,-0.3586
61041.0,0.4118,-3.1556,5.5306,0.6423,-2.8441,-0.3943
61051.0,0.5746,-2.7773,5.3199,0.5465,-2.7824,-0.4305
61061.0,0.7518,-2.4229,5.2672,0.4566,-2.7457,-0.4544
61071.0,1.1229,-2.1763,5.0589,0.439,-2.7148,-0.4512
61081.0,1.5275,-1.9944,4.5586,0.464,-2.6696,-0.4305
61091.0,1.81,-1.98,4.0534,0.4656,-2.6074,-0.4108
61101.0,2.0542,-1.8794,3.5985,0.4273,-2.5462,-0.4076
61111.0,2.2865,-1.6975,2.9784,0.3278,-2.4983,-0.4209
61121.0,2.6456,-1.4245,2.3032,0.1612,-2.4658,-0.4374
61131.0,3.1029,-1.2306,1.6472,-0.0623,-2.3988,-0.4507
61141.0,3.553,-1.1444,1.221,-0.3203,-2.3003,-0.4677
61151.0,3.8547,-1.0894,1.0319,-0.5741,-2.1689,-0.4901
61161.0,4.1061,-1.0846,1.2546,-0.779,-2.0348,-0.513
61171.0,4.3646,-1.154,1.5299,-0.8812,-1.9268,-0.5241
61181.0,4.5083,-1.1995,1.7119,-0.8434,-1.814,-0.5268
61191.0,4.6519,-1.1396,1.5467,-0.7056,-1.7182,-0.5231
61201.0,4.7884,-1.1133,1.2115,-0.5651,-1.648,-0.5199
61211.0,4.7836,-1.0271,0.6752,-0.4576,-1.5772,-0.522
61221.0,4.5801,-0.9553,0.1796,-0.4305,-1.5123,-0.5412
61231.0,4.6232,-0.6919,-0.4764,-0.4848,-1.4782,-0.5789
61241.0,4.695,-0.4836,-1.1037,-0.6252,-1.442,-0.6231
61251.0,4.81,-0.3376,-1.7095,-0.7854,-1.3782,-0.6598
61261.0,4.8818,-0.2107,-2.2075,-0.9099,-1.2638,-0.6981
61271.0,4.956,0.0239,-2.7078,-0.9982,-1.0956,-0.7412
61281.0,4.9081,0.4142,-2.9951,-1.0584,-0.8652,-0.779
61291.0,4.707,0.9816,-3.3232,-1.0977,-0.6173,-0.7913
61301.0,4.5059,1.5802,-3.6081,-1.1196,-0.3294,-0.7636
61311.0,4.1659,2.0806,-3.5123,-1.1079,0.0149,-0.6891
61321.0,3.8738,2.4086,-3.2274,-1.0264,0.3794,-0.5598
61331.0,3.4716,2.6025,-2.7174,-0.8647,0.763,-0.3938
61341.0,3.0742,2.7773,-2.1596,-0.6502,1.1158,-0.2075
61351.0,2.5857,2.8347,-1.4389,-0.3916,1.4266,-0.0032
61361.0,2.2314,2.8252,-1.2091,-0.0697,1.666,0.2267
61371.0,2.1021,2.5929,-1.5227,0.2405,1.8858,0.4715
61381.0,1.7669,2.1404,-2.1213,0.4874,2.1934,0.7114
61391.0,1.4988,1.3575,-2.3966,0.6167,2.5925,0.9168
61401.0,0.9936,0.7422,-2.2936,0.6236,3.0628,1.0637
61411.0,0.2059,0.0527,-1.5658,0.4619,3.5215,1.1685
61421.0,-0.3496,-0.9553,-0.1939,0.2155,3.9403,1.2622
61431.0,-0.8547,-2.0255,1.2019,-0.0399,4.283,1.3308
61441.0,-1.5706,-3.1867,2.9521,-0.3278,4.5235,1.3585
61451.0,-1.8387,-4.7429,4.8363,-0.5215,4.689,1.383
61461.0,-1.8052,-6.8714,6.2752,-0.4938,4.8555,1.3877
61471.0,-1.6472,-9.1171,7.3047,-0.2762,5.1072,1.2957
61481.0,-1.6448,-10.8816,8.691,0.0303,5.4871,1.069
61491.0,-1.9034,-11.8178,10.7476,0.3496,5.9033,0.7301
61501.0,-2.897,-11.7364,12.9981,0.6045,6.2135,0.3448
61511.0,-3.7613,-11.3964,14.8704,0.6353,6.2678,-0.0245
61521.0,-4.3981,-10.829,16.1226,0.4172,6.1172,-0.3666
61531.0,-5.3175,-10.2544,17.0898,0.0181,5.8703,-0.6609
61541.0,-5.4684,-9.8402,17.9014,-0.3975,5.5861,-0.8812
61551.0,-5.8682,-9.4332,18.5335,-0.6417,5.4621,-1.0227
61561.0,-6.6607,-10.0533,20.0251,-0.7865,5.4201,-1.1004
61571.0,-6.596,-11.7531,22.3092,-0.7944,5.3733,-1.1919
61581.0,-6.5218,-12.3325,24.4448,-0.7524,5.1508,-1.4154
61591.0,-7.0701,-12.2416,26.918,-0.721,4.7065,-1.6958
61601.0,-7.0964,-11.6478,28.4431,-0.4268,4.1223,-1.9225
61611.0,-6.6702,-10.7548,28.8429,0.1208,3.5747,-2.0859
61621.0,-6.8953,-9.4379,29.4607,0.6827,3.156,-2.2274
61631.0,-6.778,-7.5561,29.6043,1.0227,2.577,-2.3642
61641.0,-6.5505,-5.2816,29.08,0.9647,1.8363,-2.4972
61651.0,-6.6726,-3.2777,28.7615,0.5055,1.0397,-2.5887
61661.0,-6.5027,-1.9872,28.2516,-0.1091,0.2112,-2.6015
61671.0,-6.3255,-1.2833,27.5884,-0.6524,-0.5358,-2.5499
61681.0,-6.4955,-1.2498,26.8462,-1.0089,-1.1824,-2.4429
61691.0,-6.2417,-1.6041,25.4432,-1.1291,-1.7895,-2.311
61701.0,-5.8059,-1.9345,23.3291,-1.0839,-2.2796,-2.1944
61711.0,-5.3582,-2.3128,21.3156,-0.9631,-2.6137,-2.1061
61721.0,-4.6878,-2.5091,19.3188,-0.8046,-2.8409,-2.0529
61731.0,-4.2473,-2.4325,17.5112,-0.663,-2.9655,-2.0279
61741.0,-3.7924,-2.2027,16.101,-0.5912,-3.0559,-2.0183
61751.0,-3.3806,-1.8771,14.9278,-0.5348,-3.1145,-2.0061
61761.0,-3.1173,-1.7789,14.1114,-0.4464,-3.1278,-1.9709
61771.0,-2.624,-1.6975,13.1226,-0.2863,-3.1325,-1.9193
61781.0,-2.059,-1.3288,12.0716,-0.1155,-3.1267,-1.873
61791.0,-1.8938,-0.9601,11.1642,0.0229,-3.0889,-1.8102
61801.0,-1.4317,-0.8978,10.2831,0.1623,-3.0463,-1.7155
61811.0,-0.8835,-0.8547,9.4547,0.3219,-2.9607,-1.6171
61821.0,-0.5866,-0.7685,8.5258,0.4278,-2.8617,-1.5288
61831.0,-0.1844,-0.8452,8.0517,0.4475,-2.7766,-1.4484
61841.0,0.3304,-1.0319,7.616,0.4699,-2.6877,-1.3782
61851.0,0.668,-1.2426,7.1491,0.4858,-2.6111,-1.3287
61861.0,1.0534,-1.5107,6.8043,0.4997,-2.5392,-1.3026
61871.0,1.4269,-1.573,6.4763,0.5332,-2.4536,-1.3037
61881.0,1.7549,-1.4054,6.1028,0.5635,-2.3764,-1.3196
61891.0,1.8507,-1.1827,5.679,0.5577,-2.3243,-1.3372
61901.0,2.0614,-0.9984,5.1547,0.5172,-2.2886,-1.3516
61911.0,2.375,-0.68,4.5298,0.4826,-2.2083,-1.3627
61921.0,2.4565,-0.2873,4.2497,0.4252,-2.0912,-1.3713
61931.0,2.5809,0.1484,3.948,0.3475,-1.9928,-1.3654
61941.0,2.727,0.4741,3.9002,0.2692,-1.8831,-1.3361
61951.0,2.9018,0.6776,3.8379,0.2224,-1.7858,-1.2882
61961.0,3.0765,0.7853,3.7326,0.191,-1.7006,-1.235
61971.0,3.1987,0.9984,3.553,0.1729,-1.6224,-1.1861
61981.0,3.3064,1.1779,3.4548,0.1399,-1.5623,-1.1424
61991.0,3.4261,1.47,3.1699,0.1208,-1.5117,-1.0914
62001.0,3.5554,1.6688,2.9113,0.1048,-1.466,-1.0302
62011.0,3.6583,1.8651,2.5283,0.0915,-1.4175,-0.9647
62021.0,3.7134,2.0303,2.2242,0.0511,-1.3654,-0.9035
62031.0,3.8355,2.2577,1.7502,-0.0048,-1.3191,-0.8429
62041.0,3.8738,2.4565,1.5179,-0.0766,-1.2483,-0.7753
62051.0,3.9528,2.7246,1.1253,-0.1368,-1.1696,-0.696
62061.0,4.1444,2.9521,0.7015,-0.2027,-1.0759,-0.5938
62071.0,4.1204,3.1125,0.3448,-0.2613,-0.936,-0.4757
62081.0,4.2162,3.201,0.0958,-0.2985,-0.7748,-0.3464
62091.0,4.2976,3.2801,-0.2083,-0.2911,-0.5821,-0.2033
62101.0,4.3598,3.1603,-0.3903,-0.2543,-0.3453,-0.0474
62111.0,4.4341,3.0478,-0.7494,-0.183,-0.0729,0.1091
62121.0,4.5203,2.8323,-1.0151,-0.1203,0.2432,0.257
62131.0,4.4293,2.66,-1.0463,-0.0681,0.6034,0.3879
62141.0,4.3622,2.5714,-0.8595,-0.025,0.9738,0.4965
62151.0,4.2234,2.5546,-0.5339,0.0144,1.3367,0.5992
62161.0,4.0965,2.7414,-0.2753,0.0239,1.6559,0.7035
62171.0,3.8164,2.8132,0.182,-0.0724,1.9129,0.8168
62181.0,3.4644,2.6959,0.8021,-0.241,2.1077,0.9424
62191.0,2.976,2.4325,1.585,-0.4284,2.237,1.0722
62201.0,2.3822,2.0782,2.1261,-0.5875,2.2998,1.2004
62211.0,1.6783,1.5419,2.5426,-0.6981,2.3376,1.3244
62221.0,1.3144,0.8404,2.6504,-0.6891,2.4041,1.4436
62231.0,1.2713,0.316,2.3008,-0.5859,2.5531,1.5282
62241.0,1.0774,0.1006,1.9752,-0.5236,2.8197,1.5719
62251.0,0.6967,-0.0982,2.4948,-0.5635,3.1645,1.599
62261.0,0.1508,-0.2203,3.371,-0.6417,3.5125,1.6325
62271.0,-0.5866,-0.4549,4.6711,-0.7827,3.7966,1.6788
62281.0,-1.4748,-0.8547,6.3566,-0.9498,4.0196,1.7368
62291.0,-2.557,-1.3072,8.5401,-1.1355,4.1287,1.7815
62301.0,-3.2657,-1.5874,10.8362,-1.2207,4.1212,1.8273
62311.0,-3.9456,-1.47,12.8066,-1.1355,4.0329,1.9028
62321.0,-4.7142,-1.2785,14.2551,-0.879,3.9334,2.0561
62331.0,-4.9536,-1.5778,15.7682,-0.4629,3.936,2.2934
62341.0,-5.2098,-2.3008,16.4649,-0.0511,3.9297,2.5414
62351.0,-5.1954,-3.5219,17.3316,0.0176,3.8259,2.6941
62361.0,-5.4133,-4.707,18.3635,-0.2458,3.612,2.717
62371.0,-5.861,-6.0118,19.6444,-0.7503,3.2454,2.6361
62381.0,-5.7652,-7.0102,21.3778,-1.2579,2.8452,2.5009
62391.0,-5.952,-7.0342,23.6475,-1.5777,2.4254,2.3541
62401.0,-6.1794,-6.4787,25.5174,-1.5623,1.8922,2.3014
62411.0,-6.0118,-5.9472,25.7137,-1.2015,1.2829,2.3844
62421.0,-5.5737,-5.6814,24.4304,-0.7061,0.7199,2.5456
62431.0,-5.0326,-5.9376,22.4289,-0.2512,0.2895,2.726
62441.0,-4.5873,-6.5577,20.4154,0.0851,0.0314,2.8745
62451.0,-4.2138,-7.4771,19.01,0.2788,-0.0745,2.9601
62461.0,-3.8571,-8.4994,17.7243,0.3081,-0.1458,2.9697
62471.0,-3.3591,-9.5672,17.3891,0.0995,-0.1948,2.8777
62481.0,-3.1819,-10.3597,18.1935,-0.2352,-0.2714,2.6962
62491.0,-3.1292,-10.9415,19.2518,-0.4901,-0.4677,2.4855
62501.0,-3.1077,-11.1043,20.0083,-0.5688,-0.7577,2.2828
62511.0,-3.1867,-11.1043,20.1759,-0.5007,-1.1015,2.1072
62521.0,-3.1173,-10.9702,19.4457,-0.3416,-1.4649,1.963
62531.0,-2.9281,-10.5991,18.2342,-0.2118,-1.7868,1.8294
62541.0,-2.8898,-10.1825,17.006,-0.1506,-2.0295,1.707
62551.0,-2.9233,-10.0102,15.8161,-0.1442,-2.2115,1.6033
62561.0,-2.8635,-10.0197,14.801,-0.1586,-2.3158,1.5107
62571.0,-2.7773,-10.252,14.3915,-0.1756,-2.3679,1.4154
62581.0,-2.7438,-10.4291,13.9702,-0.1266,-2.3913,1.3117
62591.0,-2.4493,-10.5441,13.5823,-0.0314,-2.4158,1.1983
62601.0,-1.98,-10.5608,13.3094,0.0963,-2.4099,1.0765
62611.0,-1.6257,-10.568,13.149,0.2458,-2.3769,0.9504
62621.0,-1.3647,-10.5776,12.7348,0.3911,-2.3541,0.8173
62631.0,-1.3072,-10.58,12.4953,0.4566,-2.3291,0.6683
62641.0,-1.1971,-10.6255,12.6079,0.4321,-2.3301,0.4911
62651.0,-1.1612,-10.4962,12.5145,0.3805,-2.3913,0.29
62661.0,-1.2594,-10.1275,12.481,0.306,-2.4887,0.067
62671.0,-1.4724,-9.5672,12.4115,0.2474,-2.6079,-0.149
62681.0,-1.6424,-8.9352,12.0117,0.2634,-2.7383,-0.3331
62691.0,-1.6951,-8.3055,11.3916,0.3384,-2.8303,-0.4858
62701.0,-1.7406,-7.6399,10.9056,0.4347,-2.891,-0.6103
62711.0,-1.731,-6.9408,10.2687,0.5672,-2.9452,-0.7072
62721.0,-1.6041,-6.1292,9.3446,0.7104,-2.9772,-0.7764
62731.0,-1.5682,-5.3199,8.655,0.7891,-2.9766,-0.8232
62741.0,-1.47,-4.6136,7.9679,0.8083,-2.9867,-0.8413
62751.0,-1.3192,-4.1659,7.2712,0.7737,-3.0086,-0.8359
62761.0,-1.0965,-3.8642,6.4691,0.7019,-3.0176,-0.828
62771.0,-0.8691,-3.6703,5.8754,0.58,-3.0059,-0.8306
62781.0,-0.6656,-3.5745,5.5617,0.4667,-2.9655,-0.8349
62791.0,-0.3424,-3.5745,5.4133,0.431,-2.9011,-0.8354
62801.0,0.0096,-3.6033,5.193,0.5023,-2.8207,-0.8359
62811.0,0.3543,-3.4524,4.7381,0.6348,-2.7361,-0.845
62821.0,0.6752,-3.2298,4.209,0.7487,-2.6446,-0.8673
62831.0,1.0343,-2.7557,3.7182,0.8173,-2.5499,-0.8897
62841.0,1.324,-2.332,3.2801,0.8141,-2.4573,-0.9062
62851.0,1.6305,-1.9513,3.0215,0.7604,-2.3727,-0.9136
62861.0,1.7909,-1.5969,2.7366,0.6827,-2.3072,-0.9126
62871.0,1.8723,-1.3264,2.4397,0.5757,-2.2498,-0.9014
62881.0,2.0494,-1.087,2.1596,0.4544,-2.1928,-0.8828
62891.0,2.2146,-0.9577,1.9321,0.3336,-2.1311,-0.8535
62901.0,2.4636,-0.9577,1.7142,0.241,-2.0518,-0.8173
62911.0,2.7677,-0.905,1.3982,0.1921,-1.9449,-0.7822
62921.0,3.1987,-0.893,1.075,0.1485,-1.8214,-0.7529
62931.0,3.5937,-0.9529,0.905,0.0984,-1.6815,-0.7317
62941.0,3.8786,-0.9984,0.7661,0.0702,-1.5224,-0.7231
62951.0,4.13,-1.0391,0.5866,0.0527,-1.3681,-0.7322
62961.0,4.4101,-1.0558,0.395,0.0303,-1.2207,-0.7593
62971.0,4.6759,-1.0056,0.1389,-0.0043,-1.0679,-0.8051
62981.0,4.9153,-0.8116,-0.2466,-0.0665,-0.9104,-0.8679
62991.0,5.0326,-0.4836,-0.5962,-0.1532,-0.7226,-0.9349
63001.0,4.9632,-0.146,-0.6823,-0.2512,-0.4864,-0.9849
63011.0,5.0781,0.1915,-0.6512,-0.2937,-0.191,-1.0057
63021.0,5.0254,0.5674,-0.237,-0.2581,0.1554,-0.9977
63031.0,5.0302,1.0032,0.1676,-0.1612,0.4911,-0.953
63041.0,5.1092,1.4413,0.4908,-0.0351,0.8104,-0.8716
63051.0,5.1044,1.7813,0.9792,0.041,1.0791,-0.7615
63061.0,5.0925,2.0135,1.4198,0.0607,1.276,-0.63
63071.0,4.9847,2.0279,1.8244,0.0208,1.4282,-0.4874
63081.0,4.6735,1.8507,2.1668,-0.0644,1.5405,-0.3443
63091.0,4.4436,1.573,2.3224,-0.1708,1.6144,-0.2171
63101.0,4.3239,1.2474,2.4948,-0.2655,1.7134,-0.1054
63111.0,4.1803,0.7853,2.7174,-0.3171,1.8624,-0.0117
63121.0,4.0845,0.3448,2.964,-0.3219,2.0156,0.0553
63131.0,4.1252,0.103,3.2058,-0.2661,2.2072,0.0968
63141.0,4.0821,0.1317,3.3543,-0.2261,2.4009,0.1096
63151.0,3.7397,0.34,3.6703,-0.2597,2.5685,0.1187
63161.0,3.2561,0.4884,4.0462,-0.3427,2.7164,0.1517
63171.0,2.7605,0.2921,4.4221,-0.4518,2.825,0.2155
63181.0,2.4852,-0.0575,4.5035,-0.5523,2.925,0.2852
63191.0,2.3104,-0.5315,4.7525,-0.6476,3.0628,0.3395
63201.0,2.2577,-0.9768,5.2146,-0.7013,3.2395,0.3751
63211.0,2.059,-1.2905,5.7245,-0.6763,3.4672,0.4033
63221.0,1.8004,-1.7071,6.3351,-0.6316,3.6945,0.4337
63231.0,1.5969,-2.4157,7.288,-0.5731,3.8977,0.455
63241.0,1.1899,-3.0981,8.2863,-0.472,4.0733,0.4417
63251.0,0.7685,-3.8044,9.4451,-0.3448,4.2202,0.3916
63261.0,0.5531,-4.3622,10.5608,-0.1969,4.3266,0.3081
63271.0,0.237,-4.6376,11.7507,-0.1,4.3617,0.1793
63281.0,-0.0694,-4.6017,12.7539,-0.125,4.2862,0.0234
63291.0,-0.4334,-4.4604,13.8217,-0.2591,4.1499,-0.1298
63301.0,-0.917,-4.5083,15.0547,-0.4475,3.9722,-0.2554
63311.0,-0.9337,-4.9368,16.0962,-0.6306,3.7583,-0.3517
63321.0,-0.9194,-5.5593,17.5088,-0.7971,3.5593,-0.4624
63331.0,-1.233,-5.9711,19.1369,-0.9115,3.3167,-0.6013
63341.0,-1.5586,-6.213,20.3531,-0.9328,2.9697,-0.7412
63351.0,-1.7095,-6.5649,21.2749,-0.8652,2.5903,-0.8626
63361.0,-1.8196,-6.6918,21.6963,-0.7056,2.1918,-0.9855
63371.0,-1.9201,-6.4524,21.4951,-0.4965,1.7969,-1.1116
63381.0,-1.6233,-5.8706,20.7122,-0.2905,1.4372,-1.2228
63391.0,-1.3312,-5.2337,19.563,-0.1703,1.1478,-1.3239
63401.0,-1.2594,-4.7525,18.6029,-0.19,0.9349,-1.4112
63411.0,-1.2522,-4.3862,18.0714,-0.3331,0.7795,-1.4963
63421.0,-1.4629,-4.1587,18.1097,-0.5316,0.6476,-1.5751
63431.0,-1.6305,-3.9624,18.4832,-0.6635,0.5087,-1.6357
63441.0,-1.561,-3.6631,18.9501,-0.679,0.3613,-1.6756
63451.0,-1.7047,-3.3136,19.3978,-0.5731,0.2112,-1.6873
63461.0,-1.6807,-2.8994,19.3763,-0.4049,-0.049,-1.6714
63471.0,-1.5347,-2.5833,18.7322,-0.2017,-0.3416,-1.6346
63481.0,-1.3647,-2.3128,17.4968,0.0037,-0.6103,-1.5884
63491.0,-1.0726,-2.0806,15.9933,0.1389,-0.828,-1.5516
63501.0,-0.7949,-1.9393,14.4849,0.1846,-0.961,-1.524
63511.0,-0.5411,-1.8675,13.2806,0.125,-1.0328,-1.524
63521.0,-0.4573,-1.6472,12.5193,-0.0037,-1.0403,-1.5437
63531.0,-0.4717,-1.5083,12.311,-0.1745,-1.0307,-1.5628
63541.0,-0.4118,-1.3862,12.2703,-0.2863,-1.027,-1.5729
