time_ms,ax,ay,az,gx,gy,gz
469821.0,15.9454,2.4229,13.1298,0.1176,-2.254,0.8556
469831.0,16.769,1.6855,14.2886,0.1607,-1.4553,0.7545
469841.0,16.9988,1.3982,15.6581,0.2852,-0.7928,0.6518
469851.0,17.4585,1.1779,16.6445,0.3219,-0.2964,0.5593
469861.0,18.1576,0.6416,17.7171,0.356,0.3246,0.4092
469871.0,18.7705,0.2586,19.4792,0.3645,0.8902,0.2219
469881.0,18.9908,0.5842,21.4712,0.3821,1.3697,0.0059
469891.0,18.33,0.9481,22.7641,0.4055,1.7645,-0.1469
469901.0,18.397,1.3982,24.5166,0.4113,2.0061,-0.2975
469911.0,18.4354,1.5323,26.5756,0.4369,2.2029,-0.4539
469921.0,18.2534,1.9728,28.5963,0.5305,2.3887,-0.5779
469931.0,17.9469,2.9592,29.7168,0.7066,2.5068,-0.663
469941.0,17.5256,3.9073,30.6937,0.8003,2.6638,-0.6832
469951.0,18.0236,4.798,31.7567,0.8131,2.7915,-0.6774
469961.0,18.2151,5.5067,33.0304,0.6077,2.8479,-0.688
469971.0,18.5311,6.1579,34.8883,0.5124,2.975,-0.6391
469981.0,18.2151,7.0581,36.5259,0.2879,2.9277,-0.5678
469991.0,17.7937,7.1826,38.6233,0.3108,2.8207,-0.4246
470001.0,18.2438,7.1826,39.6863,0.34,2.7191,-0.2985
470011.0,18.2821,7.1443,40.644,0.2559,2.5951,-0.1953
470021.0,17.9469,6.3973,41.7453,0.2086,2.4248,-0.125
470031.0,17.9278,5.4396,42.1188,0.2512,2.3461,-0.0899
470041.0,17.8607,4.5681,43.0382,0.2623,2.3136,-0.1591
470051.0,17.3053,3.8595,43.948,0.3102,2.2615,-0.3028
470061.0,17.6213,4.0893,44.944,0.4342,2.2652,-0.4715
470071.0,17.0084,5.3343,47.0317,0.4092,2.1178,-0.6375
470081.0,15.9454,6.5697,47.9798,0.3549,1.7278,-0.7072
470091.0,15.1792,7.5369,49.1673,0.3634,1.2563,-0.6779
470101.0,14.959,8.8011,49.0428,0.1825,0.7109,-0.6151
470111.0,14.8824,9.481,48.7364,-0.0351,0.1495,-0.4986
470121.0,14.7674,10.0269,47.7404,-0.2086,-0.414,-0.3336
470131.0,14.777,9.8258,46.5912,-0.4512,-1.0105,-0.1729
470141.0,15.3899,8.9064,44.3023,-0.5263,-1.4319,-0.0372
470151.0,16.089,8.3222,41.64,-0.6896,-1.706,0.0591
470161.0,15.9071,7.853,39.5714,-0.8657,-1.9124,0.0974
470171.0,15.8975,7.2305,38.0582,-0.9908,-2.0109,0.1437
470181.0,16.4242,6.7133,35.5778,-0.9764,-1.9529,0.1548
470191.0,16.9222,5.9759,33.0591,-1.1281,-1.8294,0.1155
470201.0,17.334,5.3534,31.6705,-1.2366,-1.4952,0.0458
470211.0,17.6788,5.114,31.0097,-1.4463,-1.2302,-0.05
470221.0,17.5256,4.9704,30.4926,-1.5399,-1.0195,-0.1421
470231.0,17.6501,5.0949,29.7073,-1.6421,-0.7418,-0.2043
470241.0,17.5256,5.2002,29.8605,-1.6634,-0.5656,-0.2634
470251.0,17.3436,5.1427,29.4583,-1.6112,-0.3906,-0.2474
470261.0,17.1808,5.0182,29.4678,-1.2893,-0.1149,-0.2155
470271.0,17.1138,5.2289,28.6825,-1.0227,0.1171,-0.191
470281.0,16.5296,5.5737,28.424,-0.6907,0.265,-0.1266
470291.0,16.6541,5.7461,26.7959,-0.5241,0.4933,-0.0521
470301.0,17.267,5.5067,24.8039,-0.4039,0.8753,-0.0282
470311.0,17.1329,5.0374,23.6739,-0.4762,1.3824,-0.0474
470321.0,16.6924,4.6831,23.1184,-0.5231,1.898,-0.0878
470331.0,16.5104,4.3574,22.6875,-0.5593,2.4302,-0.1916
470341.0,16.0699,3.9073,22.448,-0.5326,2.9362,-0.3017
470351.0,14.9973,3.9361,22.9173,-0.448,3.3768,-0.4571
470361.0,14.7387,4.2234,22.2757,-0.3225,3.8328,-0.6226
470371.0,14.0588,5.2385,22.1128,-0.3975,4.2223,-0.7779
470381.0,13.0149,6.5027,21.4999,-0.5582,4.6805,-0.8556
470391.0,11.9997,7.9966,21.1552,-0.738,5.2073,-0.7758
470401.0,10.5345,8.7724,22.2182,-0.9317,5.6899,-0.6146
470411.0,9.7492,9.0692,22.3523,-1.2425,5.9852,-0.3863
470421.0,9.0597,8.2744,22.6204,-1.8166,6.4077,-0.249
470431.0,8.7628,7.2592,23.6164,-2.4339,6.5445,-0.1463
470441.0,8.3031,5.5833,25.0625,-3.0714,6.5785,-0.099
470451.0,7.6614,3.6488,26.9012,-3.3151,6.5849,-0.0644
470461.0,7.2113,1.7621,28.06,-3.2948,6.4205,-0.0926
470471.0,6.6272,0.4405,27.9451,-2.8218,6.5083,-0.157
470481.0,5.2864,-0.0096,27.6195,-2.0114,6.7381,-0.1852
470491.0,5.3247,-0.0192,25.7233,-0.9631,7.2766,-0.216
470501.0,4.8171,0.3543,23.0897,-0.3134,8.1599,-0.2655
470511.0,3.5721,0.8045,22.1033,-0.1442,9.0124,-0.3964
470521.0,2.5953,1.5131,22.5151,-0.5193,9.5775,-0.6013
470531.0,1.5419,2.5474,23.6547,-1.2074,9.9228,-0.746
470541.0,0.5267,3.237,25.3115,-1.8635,10.2389,-0.7444
470551.0,-2.1644,3.237,27.4376,-2.1923,10.4587,-0.6199
470561.0,-4.4053,2.0303,28.9028,-2.0603,10.7992,-0.4012
470571.0,-4.8076,0.0766,29.9467,-1.5149,11.5782,-0.2868
470581.0,-5.8897,-0.7566,31.3353,-0.9599,12.3748,-0.3262
470591.0,-8.6,-0.5842,34.2562,-0.6545,12.8931,-0.3517
470601.0,-9.8354,-1.4557,37.407,-0.39,13.2108,-0.4629
470611.0,-10.7739,-1.0247,40.3758,-0.3656,13.099,-0.6768
470621.0,-12.8233,0.2394,43.45,-0.414,12.5685,-0.7811
470631.0,-14.212,0.7757,42.9041,-0.3347,12.2796,-0.8051
470641.0,-14.6908,2.1069,42.1954,-0.3219,12.4445,-0.7721
470651.0,-18.5311,2.0973,43.4404,-0.1644,12.6781,-0.5981
470661.0,-20.1304,1.1013,44.6567,0.3693,13.0618,-0.5225
470671.0,-21.0115,0.9481,45.825,0.6715,13.4736,-0.58
470681.0,-24.3634,1.7909,48.3916,0.8663,13.5167,-0.6886
470691.0,-26.1064,2.7007,50.9295,1.0286,13.3731,-0.7583
470701.0,-26.7768,3.8595,52.2989,1.1339,13.132,-0.7971
470711.0,-27.1024,5.1619,54.3484,1.0578,12.9096,-0.8189
470721.0,-27.2269,6.8378,57.1544,0.7215,12.6206,-0.7428
470731.0,-29.42,7.5369,61.4927,0.4448,11.8938,-0.5518
470741.0,-30.7128,6.4548,64.7967,0.3134,10.7641,-0.2953
470751.0,-30.5692,4.5777,66.7408,0.3081,9.6578,-0.1639
470761.0,-31.2108,2.9592,67.3633,0.5151,8.3403,-0.19
470771.0,-30.2627,3.0454,65.4575,0.6731,7.05,-0.3294
470781.0,-30.1669,3.2561,62.7089,0.6103,6.1044,-0.4986
470791.0,-29.736,3.4189,60.1136,0.6492,5.3802,-0.6843
470801.0,-28.7113,4.8267,56.9916,0.389,4.7709,-0.8849
470811.0,-28.309,6.7612,53.9462,-0.3528,4.2111,-1.0233
470821.0,-32.9921,10.161,68.388,-2.5488,2.5696,-1.0403
470831.0,-30.9905,7.4412,52.3756,-1.4442,3.0006,-0.8077
470841.0,-28.1654,7.7189,51.0156,-2.3535,3.356,-0.7231
470851.0,-29.3146,6.7325,52.4043,-1.6437,2.7441,-0.4597
470861.0,-28.3857,5.2194,54.2239,-1.3585,2.9293,-0.2847
470871.0,-28.3952,5.1427,55.8519,-0.4512,2.7015,-0.0937
470881.0,-28.0409,4.9129,58.3419,0.0245,2.121,0.0287
470891.0,-28.5772,5.2289,58.7537,0.5028,1.6368,0.1676
470901.0,-28.5772,6.4643,58.2653,0.7503,1.1036,0.3028
470911.0,-29.1135,6.6367,59.0123,0.6316,0.3767,0.4826
470921.0,-29.1039,5.9664,59.8933,0.8242,-0.332,0.6364
470931.0,-28.4527,6.6272,59.6922,0.9408,-0.8333,0.7535
470941.0,-29.3912,7.0102,59.6635,0.8642,-1.5516,0.8977
470951.0,-29.5444,7.1826,59.5582,0.6396,-2.5185,1.0248
470961.0,-29.3433,6.2058,59.0219,0.3996,-3.3715,1.119
470971.0,-29.6019,5.8227,58.0738,0.2836,-4.093,1.2212
470981.0,-29.238,4.8937,57.547,0.5108,-4.6012,1.3494
470991.0,-29.1518,4.549,56.8288,0.754,-4.9109,1.4399
471001.0,-28.6825,3.5147,57.0107,0.9754,-5.4116,1.5107
471011.0,-28.1367,3.0742,56.8,1.16,-5.8479,1.492
471021.0,-27.8015,3.2274,56.9341,1.2994,-6.4269,1.475
471031.0,-27.3609,3.3806,56.9245,1.3963,-7.059,1.4271
471041.0,-27.3897,3.2848,55.9956,1.3734,-7.7241,1.3558
471051.0,-26.7672,2.9018,55.3156,1.4649,-8.3297,1.2728
471061.0,-26.7097,3.5913,52.9119,1.1329,-9.0161,1.1212
471071.0,-25.8957,4.4628,50.8337,0.7758,-9.5876,0.9743
471081.0,-25.2445,5.5162,48.8896,0.4821,-9.9691,0.8961
471091.0,-24.44,6.1196,47.2711,0.373,-10.1394,0.9057
471101.0,-23.8367,6.177,46.5433,0.4778,-10.157,0.9716
471111.0,-22.1512,6.2345,45.5952,0.5981,-10.1756,1.0546
471121.0,-21.5861,6.3973,44.5322,0.6071,-10.2357,1.0775
471131.0,-21.136,5.8131,43.8905,0.4832,-10.3225,1.0791
471141.0,-19.3739,5.679,44.1108,0.4353,-10.3895,1.0201
471151.0,-18.9908,6.1387,43.5266,0.1979,-10.6619,0.9174
471161.0,-18.1959,6.5314,42.6934,0.1224,-10.8769,0.8721
471171.0,-16.769,6.2728,42.5498,0.1442,-11.0238,0.8647
471181.0,-15.7347,6.7325,40.4812,0.124,-11.1525,0.8413
471191.0,-14.7483,7.0964,39.4181,-0.0218,-11.1744,0.8237
471201.0,-14.2407,6.9432,39.0734,0.0649,-11.1068,0.8493
471211.0,-13.2926,6.4643,38.0391,0.2357,-11.0914,0.8631
471221.0,-11.8369,6.608,36.162,0.2027,-10.9764,0.8125
471231.0,-10.9559,7.0485,36.0471,0.0857,-10.9051,0.7742
471241.0,-9.8641,7.8051,35.5204,0.2171,-10.8785,0.8317
471251.0,-8.8298,8.0924,34.1222,0.3368,-10.7556,0.9025
471261.0,-7.5178,8.2169,32.3217,0.2666,-10.6369,0.97
471271.0,-7.0294,7.8626,31.7758,0.0814,-10.5374,1.0169
471281.0,-4.9608,7.7764,30.0041,-0.1192,-10.4454,1.0248
471291.0,-3.62,8.2361,28.4431,-0.6252,-10.2458,1.002
471301.0,-3.4285,7.9392,28.558,-1.0557,-10.0458,1.0456
471311.0,-2.2984,6.9911,28.7879,-1.2467,-9.934,1.0834
471321.0,-0.498,6.2824,28.5197,-1.2739,-9.793,1.0786
471331.0,0.2107,5.3534,28.0696,-1.3207,-9.668,1.0403
471341.0,1.7142,5.0853,26.9204,-1.3862,-9.6068,0.9392
471351.0,2.7773,5.2481,25.8861,-1.4271,-9.5174,0.8833
471361.0,3.4764,5.3534,25.5701,-1.4766,-9.4062,0.8764
471371.0,4.0701,5.114,24.3538,-1.3436,-9.3285,0.8924
471381.0,5.9376,4.5107,22.8503,-1.0839,-9.105,0.9477
471391.0,7.604,4.1659,20.4465,-0.9583,-8.7852,0.9355
471401.0,8.418,3.8307,19.0004,-0.92,-8.4792,0.9147
471411.0,9.8641,3.0454,17.0563,-0.9211,-8.0386,0.8652
471421.0,11.2049,2.6049,15.9645,-1.0041,-7.6018,0.7609
471431.0,12.3732,2.2505,14.1641,-1.1621,-7.109,0.6183
471441.0,13.3405,1.743,13.1585,-1.4261,-6.5556,0.4422
471451.0,13.6182,1.2833,12.5552,-1.6198,-6.0741,0.2501
471461.0,14.7962,0.7757,11.224,-1.7342,-5.5313,0.0543
471471.0,15.7347,0.7183,10.7739,-1.8087,-4.8587,-0.1719
471481.0,16.3859,0.9002,10.726,-1.906,-4.2745,-0.3911
471491.0,16.7977,0.929,10.0556,-1.939,-3.753,-0.588
471501.0,17.2287,1.5993,9.8067,-1.9411,-3.2347,-0.8077
471511.0,17.8703,2.1165,8.5042,-1.9986,-2.6882,-0.9674
471521.0,18.1864,2.9401,7.6519,-2.0869,-2.1582,-1.0573
471531.0,18.1768,3.7828,7.2975,-2.137,-1.5234,-1.0775
471541.0,18.4162,4.7309,6.1004,-2.096,-0.8439,-0.9908
471551.0,18.8567,5.1332,5.1523,-1.8826,0.0825,-0.7998
471561.0,18.4545,4.6352,4.9608,-1.4617,1.1307,-0.5598
471571.0,18.6652,4.3287,4.051,-0.9466,2.2322,-0.3028
471581.0,18.7514,3.6966,3.4955,-0.5326,3.5497,-0.1091
471591.0,18.2534,3.0933,3.0167,-0.2836,4.8332,0.0564
471601.0,17.1425,2.1548,3.9073,-0.1559,6.0214,0.1346
471611.0,16.0316,0.747,4.8459,-0.158,7.0947,0.0692
471621.0,15.3995,-0.9385,5.7269,-0.2943,7.954,-0.1586
471631.0,14.0779,-2.0111,5.794,-0.5406,8.8772,-0.5268
471641.0,12.718,-2.2601,6.7516,-0.687,9.9633,-0.9578
471651.0,10.4483,-1.6664,9.098,-0.6534,11.0653,-1.3734
471661.0,8.7819,0.1437,9.5289,-0.7418,11.9997,-1.6703
471671.0,6.4452,1.8004,11.7316,-0.9674,13.0697,-1.8794
471681.0,4.1563,4.1563,14.1449,-1.5453,13.8631,-2.0055
471691.0,2.241,6.1866,18.1959,-2.2498,14.1446,-1.9858
471701.0,0.6512,8.6095,22.0841,-3.3145,14.0898,-1.806
471711.0,-0.7853,9.8737,26.9683,-3.9664,13.7466,-1.3308
471721.0,-3.6871,10.0652,30.8373,-4.1829,13.1836,-0.6439
471731.0,-5.5067,8.4659,32.542,-3.5678,12.6728,0.1985
471741.0,-5.5258,5.4396,29.6785,-2.8117,12.6707,0.8769
471751.0,-6.6846,1.6376,26.9204,-2.3706,13.3693,1.2292
471761.0,-8.2265,-2.2984,26.6044,-2.1418,14.3601,1.209
471771.0,-8.6287,-3.9073,27.7153,-2.0987,15.4073,0.9541
471781.0,-10.2568,-5.0278,31.3736,-2.4461,16.2337,0.5656
471791.0,-13.5895,-4.9129,37.0718,-2.8175,16.5152,0.2011
471801.0,-18.1097,-5.4013,43.4308,-2.8181,16.2592,0.0133
471811.0,-18.9621,-5.2864,47.4818,-2.0689,16.1794,-0.0803
471821.0,-22.1416,-4.7501,53.1225,-1.0392,16.2864,-0.0553
471831.0,-25.4073,-4.2042,57.0203,0.3171,16.0687,-0.0117
471841.0,-24.7177,-1.8387,60.1328,1.6112,15.924,0.0357
471851.0,-26.0585,0.7183,62.8909,2.4504,15.3695,0.1399
471861.0,-26.25,3.3327,64.6243,2.4765,14.2212,0.1926
471871.0,-26.9874,4.6064,63.7911,1.6091,12.775,0.2293
471881.0,-30.9427,2.557,62.1631,0.513,11.118,0.2123
471891.0,-27.2556,-0.8906,60.3243,0.5151,10.4209,0.0681
471901.0,-29.1805,-2.5474,56.6755,0.5108,10.7524,-0.1846
471911.0,-31.3066,-4.5873,57.6907,1.3111,10.9264,-0.4938
471921.0,-30.0616,-3.3136,59.0219,1.9646,11.4346,-0.8562
471931.0,-30.6075,-0.2969,62.8047,2.859,11.6181,-1.0892
471941.0,-31.0863,4.3574,65.4096,2.809,11.0924,-1.2281
471951.0,-31.0289,8.6287,69.3169,2.3019,10.0537,-1.152
471961.0,-31.2395,10.6877,72.9944,1.6203,8.5761,-0.8812
471971.0,-31.9482,11.655,72.6975,0.5773,6.9052,-0.5784
471981.0,-33.4518,8.8107,73.751,-0.2873,5.2663,-0.2911
471991.0,-32.1876,5.7844,72.257,-0.6843,4.0957,-0.1948
472001.0,-24.7848,3.4572,78.4508,-1.3468,3.7658,-0.3193
472011.0,-33.289,2.6911,67.5452,-0.0825,2.0603,-0.397
472021.0,-32.2164,2.4804,73.4637,-0.1655,1.151,-0.5268
472031.0,-31.048,6.4835,65.7352,0.3038,0.5885,-0.5151
472041.0,-30.981,7.8243,67.4494,-0.3539,0.0005,-0.4129
472051.0,-31.9387,9.8737,65.8118,-0.2857,-0.5092,-0.107
472061.0,-31.23,10.0078,68.1964,-0.2458,-0.8775,0.2597
472071.0,-31.6801,10.975,69.0296,-0.1708,-1.6277,0.7003
472081.0,-31.8237,10.3813,69.949,-0.1564,-2.5914,1.2127
472091.0,-31.2587,8.3893,70.514,-0.2841,-3.6205,1.5341
472101.0,-31.5747,5.7174,70.6768,-0.224,-4.7954,1.7224
472111.0,-31.0384,3.9935,67.957,-0.3166,-5.9453,1.7193
472121.0,-30.7415,2.8539,64.9786,-0.6231,-6.9393,1.6341
472131.0,-30.8469,1.0534,62.8717,-0.7529,-7.6044,1.4585
472141.0,-30.0424,0.0479,60.9372,-0.6311,-8.0211,1.1643
472151.0,-30.1095,0.5459,59.9317,-0.7333,-8.5223,0.8567
472161.0,-30.301,2.0016,60.1998,-0.7205,-9.1412,0.6902
472171.0,-29.7647,3.055,59.7976,-0.7338,-9.7366,0.5683
472181.0,-29.9179,4.4436,59.8359,-0.68,-10.3703,0.5582
472191.0,-31.2012,5.2672,60.8415,-0.3539,-11.1302,0.629
472201.0,-30.8565,6.2249,59.9987,0.2347,-11.9975,0.8104
472211.0,-30.732,7.3358,59.0123,0.6109,-12.8404,1.0562
472221.0,-30.7511,7.7189,56.0435,1.0786,-13.7301,1.3611
472231.0,-28.7017,7.0773,51.8201,1.1632,-14.4485,1.5873
472241.0,-27.1215,7.2496,46.7157,0.795,-15.0274,1.7091
472251.0,-26.7384,6.608,44.0533,0.2458,-15.4669,1.8071
472261.0,-24.2964,5.2768,40.9792,0.0761,-15.6393,1.8486
472271.0,-21.8926,4.6448,37.7422,-0.456,-15.799,1.7751
472281.0,-20.7146,3.8211,35.9226,-0.7561,-15.9251,1.7102
472291.0,-18.3587,2.9784,33.7295,-0.9386,-15.982,1.6049
472301.0,-15.6772,2.5474,30.981,-0.7604,-15.7229,1.4889
472311.0,-13.6948,2.3559,28.5293,-0.6295,-15.3674,1.3622
472321.0,-11.7029,2.0111,27.2269,-0.0958,-14.8284,1.3345
472331.0,-8.983,1.8483,24.8518,0.6359,-14.1643,1.3393
472341.0,-5.3822,1.743,22.0075,1.0701,-13.4263,1.3117
472351.0,-3.3519,2.0207,20.4752,1.0871,-12.5701,1.2265
472361.0,-1.3408,2.8347,18.7801,0.8258,-12.0428,1.1685
472371.0,0.0383,2.9209,17.9757,0.4246,-11.3532,1.1419
472381.0,1.5802,2.1356,18.8088,-0.0628,-10.895,1.0546
472391.0,3.4381,2.2122,18.081,-0.3241,-10.4943,0.9168
472401.0,4.1851,2.7102,18.1576,-0.6598,-10.0511,0.8498
472411.0,5.3151,2.1931,18.081,-0.6721,-9.6451,0.8115
472421.0,7.2975,2.0494,17.0659,-0.6332,-9.1438,0.7806
472431.0,8.418,1.9728,15.9933,-0.6258,-8.5228,0.7487
472441.0,9.3182,1.7526,15.8209,-0.6534,-8.0546,0.7168
472451.0,11.1666,1.2067,15.4857,-0.5332,-7.5102,0.6705
472461.0,11.9902,1.1588,14.9015,-0.5428,-6.9579,0.6029
472471.0,12.3541,1.0343,13.9247,-0.6726,-6.4449,0.572
472481.0,14.0204,0.431,14.2599,-0.621,-5.8229,0.5108
472491.0,14.9015,0.2011,13.5416,-0.5688,-5.2371,0.4198
472501.0,15.2559,0.1724,13.3022,-0.5789,-4.7257,0.3054
472511.0,15.9071,-0.0096,13.0149,-0.5795,-4.2074,0.2251
472521.0,16.3859,0.0479,12.4786,-0.6843,-3.7211,0.1171
472531.0,17.1042,0.2203,11.7795,-0.8109,-3.1618,0.0229
472541.0,17.4298,0.2777,11.8178,-0.9589,-2.6382,-0.074
472551.0,17.6309,0.431,11.5113,-0.9956,-2.1237,-0.1101
472561.0,18.1002,-0.1341,11.8274,-0.9833,-1.599,-0.1575
472571.0,18.3779,-0.3352,11.0612,-1.0217,-1.06,-0.2682
472581.0,18.5886,-0.8236,11.3389,-1.1105,-0.5374,-0.4129
472591.0,18.4354,-1.0534,10.7643,-1.1531,-0.0239,-0.5795
472601.0,19.1057,-1.0056,10.8218,-1.0977,0.6327,-0.7556
472611.0,18.3396,-0.6991,10.8984,-0.903,1.1925,-0.8913
472621.0,18.5407,-0.3256,10.5058,-0.5694,1.8124,-1.0382
472631.0,18.6173,0.498,9.3757,-0.2363,2.7234,-1.0935
472641.0,18.2534,1.4365,8.9447,-0.0756,3.704,-1.1377
472651.0,17.0659,2.3559,8.9447,0.0431,4.7294,-1.0993
472661.0,15.9167,2.9688,9.9311,0.1272,5.7223,-0.9706
472671.0,14.6142,2.4804,11.2815,0.2139,6.6291,-0.8312
472681.0,13.5895,1.5514,12.3062,0.2746,7.4528,-0.7881
472691.0,12.651,0.68,14.4035,0.2948,8.2781,-0.8216
472701.0,11.3868,-0.1437,16.0028,0.2379,8.8469,-0.9546
472711.0,10.3334,-0.8715,17.6117,0.0814,9.2949,-1.2271
472721.0,9.1171,-1.1205,18.9429,-0.149,9.7073,-1.6112
472731.0,7.1443,-0.6129,20.887,-0.522,9.7547,-2.0103
472741.0,5.7844,1.0056,22.1607,-0.8375,9.7339,-2.3636
472751.0,4.0797,3.8786,21.634,-1.2664,9.8324,-2.5382
472761.0,2.2027,5.861,21.5191,-1.6432,9.9638,-2.4307
472771.0,1.7526,7.039,20.638,-1.756,10.4863,-2.1875
472781.0,-0.1149,7.671,21.0019,-1.8927,11.3106,-1.8677
472791.0,-1.2929,7.5848,22.3618,-1.9369,11.9991,-1.5245
472801.0,-2.7869,7.0964,24.7082,-2.0566,12.626,-1.1829
472811.0,-6.1387,5.114,28.4623,-1.856,12.9341,-0.8828
472821.0,-7.0102,3.2944,29.1039,-1.5655,13.0006,-0.7806
472831.0,-6.3686,2.6815,28.7879,-1.4415,13.5343,-0.7859
472841.0,-8.2552,3.1603,30.0616,-1.5649,14.1845,-0.8195
472851.0,-10.2759,3.4381,32.5611,-1.673,14.6246,-0.7657
472861.0,-12.3349,3.5147,35.9226,-1.7661,15.0412,-0.6327
472871.0,-14.5184,2.9018,39.4564,-1.7831,15.3062,-0.4927
472881.0,-17.1329,1.2354,43.4308,-1.4857,15.4456,-0.3884
472891.0,-18.6365,-0.6416,47.7883,-1.0839,15.4286,-0.4672
472901.0,-19.575,-0.4884,52.3277,-0.7817,15.0136,-0.721
472911.0,-22.63,1.494,54.923,-0.4885,14.2473,-0.7907
472921.0,-23.4536,2.9209,55.3348,0.0351,13.7785,-0.6651
472931.0,-23.1567,4.3191,56.0626,0.6242,13.8562,-0.4486
472941.0,-24.5262,6.0525,57.5375,0.7987,13.7721,-0.2336
472951.0,-25.9531,6.8474,59.97,0.6082,13.2996,-0.0149
472961.0,-25.3977,6.9719,62.7472,0.216,12.5717,0.1602
472971.0,-26.2883,6.1675,65.6203,-0.3347,11.6368,0.2868
472981.0,-26.9683,3.2753,68.8477,-0.3124,10.3698,0.356
472991.0,-26.6906,0.8045,69.4989,-0.3054,9.2087,0.2224
473001.0,-26.2979,0.4405,69.1637,0.05,8.1078,0.058
473011.0,-25.3785,2.2984,66.5684,0.232,7.44,-0.0575
473021.0,-25.8765,3.5817,65.9746,0.1107,6.8866,-0.0686
473031.0,-25.0338,3.6871,66.1183,-0.2155,6.1353,-0.0724
473041.0,-23.9324,3.5626,66.2715,-0.7944,5.3078,-0.1469
473051.0,-23.7409,3.6679,66.4439,-1.5586,4.1787,-0.2692
473061.0,-24.2676,3.0646,66.9802,-2.0311,2.9389,-0.3267
473071.0,-23.6451,2.9592,64.6147,-2.0124,1.782,-0.3411
473081.0,-24.1144,3.2178,60.5541,-1.7698,1.2015,-0.2618
473091.0,-23.1471,3.2944,57.2693,-1.2228,1.2382,-0.1735
473101.0,-22.812,3.7445,55.919,-0.6018,1.4798,-0.0591
473111.0,-22.9652,4.2329,55.6221,-0.1027,1.6511,0.124
473121.0,-22.6875,4.0414,56.7809,0.2251,1.5405,0.2682
473131.0,-22.4097,4.2521,57.796,0.3443,1.2797,0.373
473141.0,-22.132,4.1659,59.0602,0.4049,0.936,0.5156
473151.0,-22.6587,4.118,60.6882,0.5752,0.5406,0.6657
473161.0,-22.7449,3.3519,61.531,0.7662,-0.0192,0.7859
473171.0,-22.697,3.1891,61.8183,0.8748,-0.514,0.903
473181.0,-23.3195,2.557,63.3314,0.9684,-1.0472,1.0089
473191.0,-23.5111,1.312,63.9252,1.2904,-1.6772,1.0999
473201.0,-23.626,0.9673,63.4751,1.4904,-2.1343,1.0424
473211.0,-23.7601,0.6033,64.2891,1.5915,-2.7393,0.9386
473221.0,-24.0282,1.561,64.2508,1.5282,-3.3805,0.7939
473231.0,-24.6507,2.7102,64.1263,1.2398,-4.1217,0.6832
473241.0,-25.2636,3.4189,64.0305,0.9158,-4.8534,0.6119
473251.0,-25.9436,4.5586,64.3657,0.6981,-5.6,0.5736
473261.0,-27.1407,5.2672,64.4328,0.6955,-6.4721,0.6412
473271.0,-26.9491,5.7269,63.2165,0.9307,-7.1612,0.7572
473281.0,-27.3226,6.2824,62.3833,0.9248,-7.8524,0.8881
473291.0,-27.2939,6.3686,61.2437,0.8753,-8.6388,0.9903
473301.0,-26.7097,6.2824,59.4528,0.82,-9.3769,1.0701
473311.0,-26.5852,5.3343,57.4417,0.8615,-10.125,1.168
473321.0,-25.2253,4.6256,54.99,0.9525,-10.7029,1.1786
473331.0,-24.3825,4.7118,52.5288,0.9748,-11.1265,1.1414
473341.0,-23.9037,5.1332,49.7994,0.9461,-11.5367,1.1158
473351.0,-23.0226,5.296,47.1179,0.8524,-11.897,1.1036
473361.0,-21.6723,5.363,45.3462,0.8067,-12.0662,1.1377
473371.0,-20.5901,4.7405,44.4268,0.9488,-12.1252,1.1733
473381.0,-19.891,4.6448,42.9137,0.8844,-12.2327,1.1244
473391.0,-18.6748,4.8171,41.7453,0.5736,-12.5664,1.0302
473401.0,-18.0236,5.4109,40.395,0.1405,-12.7351,0.9466
473411.0,-16.9126,4.5203,40.6919,0.1517,-13.0011,0.9259
473421.0,-15.0643,5.0087,37.7901,0.1671,-13.2251,0.8524
473431.0,-13.8193,5.6982,35.6832,0.1197,-13.1964,0.7955
473441.0,-12.6701,5.7461,34.534,0.0452,-13.2161,0.8205
473451.0,-11.1953,5.5833,32.9729,-0.0734,-13.4215,0.8477
473461.0,-9.165,6.0047,30.0137,-0.3129,-13.439,0.8242
473471.0,-8.1403,5.5067,28.1558,-0.6343,-13.3725,0.8141
473481.0,-6.2632,5.0949,26.2883,-0.6407,-13.165,0.8056
473491.0,-3.7541,4.4053,23.6834,-0.4725,-12.6877,0.8136
473501.0,-2.5857,4.3287,22.563,-0.3938,-12.2604,0.7785
473511.0,-1.1205,4.4053,21.1169,-0.2735,-11.7804,0.7439
473521.0,0.8428,4.2617,19.6899,-0.1176,-11.2153,0.7333
473531.0,2.4612,4.4245,18.3109,-0.0447,-10.6907,0.7231
473541.0,4.2617,4.549,16.6158,-0.0575,-10.1415,0.6896
473551.0,5.2768,4.3958,16.0603,-0.0947,-9.5961,0.6902
473561.0,7.1922,4.0797,14.3461,-0.0229,-8.9943,0.6705
473571.0,9.4427,3.7924,13.4267,-0.0122,-8.2653,0.6178
473581.0,10.7739,4.1659,12.469,-0.1112,-7.5283,0.5741
473591.0,11.6358,4.4341,11.9614,-0.2852,-6.918,0.5715
473601.0,12.7372,4.5681,11.4922,-0.481,-6.2949,0.5811
473611.0,13.2543,4.051,11.2911,-0.6534,-5.7511,0.6151
473621.0,14.2216,3.6392,10.7069,-0.8402,-5.2589,0.6167
473631.0,15.1409,3.0742,9.7205,-1.0488,-4.6257,0.5624
473641.0,15.5623,2.1261,10.0844,-1.152,-4.1489,0.4667
473651.0,16.7403,1.4174,8.7053,-1.2292,-3.5604,0.3304
473661.0,17.6309,0.7949,7.7859,-1.3127,-2.8319,0.1038
473671.0,17.832,0.814,6.7421,-1.4239,-2.1242,-0.1447
473681.0,18.4258,1.1013,5.6312,-1.5575,-1.3329,-0.3666
473691.0,19.01,1.81,5.3151,-1.6602,-0.3672,-0.547
473701.0,18.9621,2.3655,5.861,-1.6703,0.5667,-0.6391
473711.0,18.7705,2.5762,6.3877,-1.4516,1.499,-0.6646
473721.0,18.4737,2.8635,6.7325,-1.0903,2.5233,-0.6327
473731.0,18.0427,2.7964,7.5561,-0.564,3.6114,-0.5704
473741.0,18.1576,2.6336,7.7764,-0.0122,4.7693,-0.4917
473751.0,17.4585,2.6911,8.6479,0.4363,6.0049,-0.4512
473761.0,16.5775,2.4612,9.5002,0.6619,7.1399,-0.4342
473771.0,14.9973,2.1069,11.0708,0.7253,8.0982,-0.4656
473781.0,13.6086,1.3312,13.8385,0.7285,8.9895,-0.5555
473791.0,12.2966,0.7087,16.3572,0.6965,9.6834,-0.7407
473801.0,10.7739,0.2394,19.0004,0.7215,10.1495,-0.9722
473811.0,9.7875,0.3926,20.9253,0.6896,10.5827,-1.2877
473821.0,8.667,1.7717,23.195,0.5092,10.8535,-1.5937
473831.0,6.9528,3.9361,25.3402,0.2054,10.9849,-1.7634
473841.0,5.3247,5.6886,27.5812,-0.107,10.9743,-1.7517
473851.0,4.0893,7.7381,29.7264,-0.4879,10.7865,-1.5963
473861.0,2.5379,8.3031,31.7184,-0.8477,10.5433,-1.3138
473871.0,0.8715,7.1156,33.0591,-1.1286,10.1165,-1.0142
473881.0,-0.0958,5.1906,33.2507,-1.3292,9.6844,-0.8897
473891.0,-0.8715,3.2944,31.9195,-1.6001,9.4375,-0.9216
473901.0,-1.9345,1.0918,31.4023,-1.6304,9.4466,-1.0344
473911.0,-1.4653,0.5746,29.5732,-1.4223,9.9601,-1.2313
473921.0,-2.8156,1.1205,29.1135,-1.2111,10.6603,-1.4255
473931.0,-3.802,2.2027,29.9754,-1.0908,11.4143,-1.516
473941.0,-4.8842,4.0223,31.9003,-1.2212,12.0263,-1.5224
473951.0,-6.8761,4.8937,34.6106,-1.4452,12.2264,-1.4649
473961.0,-8.4755,5.4875,37.2825,-1.7884,12.1221,-1.3388
473971.0,-10.7931,4.9033,39.8778,-2.1205,11.7655,-1.2122
473981.0,-13.1011,2.988,41.0845,-2.2785,11.1483,-1.1957
473991.0,-14.2407,2.2122,40.3279,-1.7443,11.0584,-1.1786
474001.0,-15.8113,2.9401,37.9242,-0.8195,11.5266,-1.0685
474011.0,-17.8129,2.6815,37.2059,0.4055,12.5419,-0.9099
474021.0,-18.1672,3.6392,36.593,1.3707,13.91,-0.8477
474031.0,-20.3699,4.9129,39.7629,1.8427,14.9077,-0.8232
474041.0,-21.9979,6.6942,44.1874,1.8901,15.2631,-0.7588
474051.0,-22.63,7.9296,47.2041,1.1749,15.0934,-0.7913
474061.0,-24.8901,7.9487,53.0747,0.0229,14.3479,-0.8572
474071.0,-28.4335,7.2113,58.0738,-1.052,12.8138,-0.861
474081.0,-27.5525,7.0868,58.4185,-1.3702,11.5112,-0.8024
474091.0,-28.0026,6.7995,58.9548,-1.8358,11.1025,-0.7109
474101.0,-29.3146,5.6599,62.3546,-1.5362,10.5215,-0.5353
474111.0,-28.1654,5.1811,64.5573,-1.0962,9.9127,-0.4097
474121.0,-27.6195,5.3151,66.5396,-1.002,8.9262,-0.3964
474131.0,-26.9012,5.9855,67.0185,-1.4058,7.4698,-0.3991
474141.0,-26.4224,6.2058,66.1566,-2.3349,5.89,-0.4566
474151.0,-27.2364,5.1044,64.7296,-3.123,4.2888,-0.4975
474161.0,-26.8246,3.7733,61.2724,-3.2416,3.1294,-0.4986
474171.0,-25.7041,3.371,57.1257,-2.7601,2.9341,-0.4475
474181.0,-25.8382,2.9113,54.6453,-2.0055,3.1006,-0.3145
474191.0,-26.001,2.9305,53.3428,-1.2728,3.33,-0.1926
474201.0,-25.3977,2.3272,53.0076,-0.6758,3.5061,-0.1208
474211.0,-25.1295,2.1356,54.2622,-0.2959,3.5401,-0.107
474221.0,-24.7369,2.6911,55.4976,-0.0367,3.4236,-0.1368
474231.0,-25.1583,3.3519,58.0067,0.2118,3.0495,-0.099
474241.0,-25.4647,3.6009,59.1751,0.4672,2.4977,-0.0362
474251.0,-25.5701,3.4955,60.1423,0.796,2.1162,-0.0016
474261.0,-25.7999,4.0606,61.1575,0.7987,1.6075,0.0197
474271.0,-26.2404,4.9033,62.6994,0.7497,0.8812,0.0447
474281.0,-27.0353,5.0374,63.8294,0.5475,0.1399,0.0995
474291.0,-26.9587,5.1236,65.2181,0.3975,-0.613,0.1554
474301.0,-27.7153,5.0566,67.1047,0.2884,-1.442,0.2176
474311.0,-28.2228,5.4875,68.0336,0.3986,-2.3865,0.3421
474321.0,-28.558,5.3726,68.3018,0.5076,-3.3539,0.4816
474331.0,-28.5772,5.1906,67.4111,0.6316,-4.2601,0.6178
474341.0,-29.1231,4.7884,66.0512,0.646,-5.0764,0.7029
474351.0,-29.0656,4.4724,64.7584,0.6492,-5.8389,0.7599
474361.0,-29.2859,4.1563,64.1742,0.87,-6.429,0.8093
474371.0,-29.5061,3.9265,63.4751,1.1148,-6.9308,0.8258
474381.0,-29.4487,4.7692,63.159,1.5351,-7.5246,0.8748
474391.0,-29.3338,6.1579,61.8757,1.4617,-8.2302,0.9168
474401.0,-28.7496,7.1443,60.4201,1.1329,-8.9544,0.9493
474411.0,-28.4718,7.853,59.4528,0.4635,-9.7871,0.9764
474421.0,-28.5485,7.8721,58.0738,-0.1442,-10.7843,1.0312
474431.0,-27.8206,7.0964,56.1392,-0.5651,-11.6442,1.0626
474441.0,-26.9204,5.6886,54.425,-0.4826,-12.1753,1.086
474451.0,-26.2979,4.9799,51.1306,-0.2395,-12.486,1.0946
474461.0,-25.1104,4.7214,49.3301,0.0048,-12.7398,1.0807
474471.0,-24.4304,4.6543,46.6774,0.1783,-12.9671,1.0733
474481.0,-22.8981,4.3479,45.1642,0.505,-13.1405,1.1105
474491.0,-21.452,4.7692,42.6838,0.506,-13.272,1.0711
474501.0,-20.2358,4.6639,40.4716,0.5848,-13.4029,1.0562
474511.0,-18.0714,4.8842,37.6752,0.5986,-13.3459,1.0775
474521.0,-16.3572,5.0566,35.9992,0.6268,-13.157,1.1036
474531.0,-15.4953,4.9225,34.0743,0.6492,-13.0548,1.1079
474541.0,-13.7427,4.5107,33.0208,0.8689,-12.9309,1.1611
474551.0,-11.7699,4.5394,30.9522,1.0254,-12.6632,1.1547
474561.0,-10.6303,5.1906,29.0273,1.144,-12.3429,1.1834
474571.0,-8.8011,5.0757,27.7344,1.1244,-12.0433,1.193
474581.0,-7.2305,5.4779,25.5126,0.9908,-11.9113,1.1845
474591.0,-5.7269,5.3726,24.2868,0.6178,-11.4851,1.2159
474601.0,-4.118,5.2098,24.0091,0.1857,-11.35,1.2111
474611.0,-2.4708,4.5681,23.7505,0.1431,-11.3031,1.2058
474621.0,-1.0056,4.7501,21.4042,-0.0825,-11.0626,1.21
474631.0,0.2203,4.2904,20.0921,-0.3272,-10.8466,1.1935
474641.0,1.9154,3.4285,18.4641,-0.5459,-10.5976,1.1494
474651.0,3.4764,2.6719,16.7211,-0.5726,-10.133,1.0866
474661.0,5.0087,2.0877,15.5144,-0.596,-9.6834,0.9833
474671.0,6.9049,1.2641,13.9343,-0.5944,-9.146,0.8216
474681.0,8.1403,1.1684,12.4594,-0.6481,-8.608,0.5896
474691.0,9.2703,1.4365,10.9271,-0.7577,-8.045,0.3852
474701.0,10.0173,1.7334,9.6438,-0.8562,-7.4975,0.2006
474711.0,10.9271,2.0016,8.8585,-0.9519,-6.9079,0.0378
474721.0,12.0189,2.375,7.6998,-1.1393,-6.2842,-0.1314
474731.0,12.3349,2.308,6.8761,-1.3452,-5.7021,-0.2916
474741.0,12.7946,2.7677,5.3534,-1.5931,-5.1397,-0.4592
474751.0,12.8712,2.624,4.6543,-1.8549,-4.5288,-0.6002
474761.0,13.3022,2.624,3.486,-1.9752,-3.878,-0.7343
474771.0,13.9438,2.6432,2.3846,-1.9779,-3.1379,-0.862
474781.0,14.1354,3.1987,1.3216,-1.9082,-2.2439,-0.9759
474791.0,13.8193,3.8882,0.9098,-1.8502,-1.2845,-1.0355
474801.0,13.6374,3.9935,0.6416,-1.5123,-0.282,-1.0041
474811.0,13.2543,4.6064,-0.5938,-1.1435,0.8418,-0.9546
474821.0,12.9287,4.6064,-1.1013,-0.6997,2.1348,-0.8892
474831.0,12.3732,5.6216,-3.055,-0.5614,3.4779,-0.8216
474841.0,12.1147,5.9759,-3.486,-0.4438,5.078,-0.6508
474851.0,11.0995,6.1675,-3.1412,-0.3837,6.7722,-0.4289
474861.0,9.8737,5.2672,-1.2258,-0.3959,8.4585,-0.2246
474871.0,7.9296,4.2042,1.5036,-0.5151,9.9776,-0.1059
474881.0,6.5218,2.7581,5.5929,-0.5385,11.2547,-0.0686
474891.0,4.1946,2.1261,8.9447,-0.712,12.1258,-0.1181
474901.0,1.9537,0.9098,13.1298,-0.6662,12.7457,-0.1932
474911.0,0.5171,-0.498,16.5296,-0.5332,13.1911,-0.3682
474921.0,-0.5842,-0.5459,18.1864,-0.1681,13.7227,-0.588
474931.0,-2.8539,-0.1915,20.5327,0.1548,14.3277,-0.8189
474941.0,-4.4053,0.6225,22.5438,0.3262,15.0689,-0.9977
474951.0,-6.2345,1.6664,25.8286,0.2522,15.7739,-1.1802
474961.0,-8.5712,3.237,30.5309,-0.1745,16.0129,-1.3489
474971.0,-11.6167,4.5298,36.3631,-0.8088,15.7181,-1.3798
474981.0,-12.9,4.5969,40.1364,-1.417,14.9007,-1.3313
474991.0,-12.9766,4.1851,43.2872,-1.7097,14.2494,-1.2457
475001.0,-14.8153,3.3998,44.8769,-1.9401,13.571,-1.1456
475011.0,-15.7155,2.6049,43.9767,-1.9406,13.1868,-1.0711
475021.0,-15.6293,2.873,43.0765,-1.9832,13.3464,-1.0467
475031.0,-16.1273,4.1276,44.1491,-2.1572,13.6865,-1.0094
475041.0,-17.3436,5.2002,47.1658,-2.4291,13.7205,-0.9222
475051.0,-19.4122,6.924,49.7324,-2.8665,13.1671,-0.7045
475061.0,-19.6803,7.7285,51.4658,-2.6584,12.3248,-0.3134
475071.0,-21.2126,9.7396,49.0811,-2.3104,12.1215,0.2607
475081.0,-23.128,10.9271,46.3901,-1.3654,12.5328,1.0797
475091.0,-24.938,9.4906,44.944,0.0793,13.6742,1.9991
475101.0,-24.6699,5.794,43.5745,2.0364,15.476,2.601
475111.0,-26.116,2.308,46.2081,2.9075,17.2202,2.6776
475121.0,-28.1175,-0.6416,54.2047,3.3959,17.4357,2.4211
475131.0,-30.5117,-2.7007,62.9483,3.5566,17.4357,1.8608
475141.0,-30.2819,-2.9401,70.2076,3.272,16.9403,1.1126
475151.0,-32.293,-1.2258,76.8826,2.3035,15.1971,0.2943
475161.0,-33.0687,0.7566,78.4508,1.3718,12.6845,-0.3831
475171.0,-31.9195,3.1699,78.4508,0.7008,10.4523,-0.8508
475181.0,-60.2285,-0.9673,78.4508,-0.4214,4.9316,-1.0036
475191.0,-24.4017,9.5002,65.4575,0.2682,7.8082,-1.3095
475201.0,-31.5364,5.6982,78.4508,0.1729,4.6884,-1.2478
475211.0,-31.1629,12.6797,64.27,-0.2895,4.2612,-1.2031
475221.0,-33.7391,10.2759,72.1804,-1.3399,2.3131,-1.0392
475231.0,-29.5061,10.6015,64.7679,-1.6357,1.6591,-0.8684
475241.0,-30.8277,7.9966,68.4646,-1.1196,0.7913,-0.6832
475251.0,-30.1669,7.355,64.5668,-0.7093,0.6534,-0.6444
475261.0,-29.6689,6.9336,64.4711,-0.0138,0.0968,-0.6513
475271.0,-29.9563,8.7149,63.5421,-0.0314,-0.7152,-0.6391
475281.0,-29.1901,9.1459,62.8909,0.2118,-1.6235,-0.5438
475291.0,-28.7879,9.6343,60.0753,0.1634,-2.2083,-0.4395
475301.0,-28.3761,10.41,58.1791,-0.0766,-2.676,-0.2985
475311.0,-28.989,10.6303,57.9876,-0.2719,-3.1198,-0.0713
475321.0,-29.2476,10.0461,57.7098,-0.3326,-3.5141,0.1639
475331.0,-29.4678,8.3989,59.0219,-0.3022,-4.0792,0.4012
475341.0,-28.7879,7.3358,58.7537,-0.1112,-4.3942,0.4911
475351.0,-29.1805,6.8666,60.2573,-0.1681,-4.7704,0.4858
475361.0,-30.3585,6.5697,62.7185,0.0532,-5.4467,0.5438
475371.0,-31.2108,6.6559,63.4942,0.2331,-6.28,0.5635
475381.0,-31.2012,6.7325,64.1071,0.7109,-6.9978,0.6194
475391.0,-31.5364,7.9679,63.0824,0.829,-7.7976,0.7066
475401.0,-31.2012,8.5425,63.025,0.8062,-8.6075,0.7987
475411.0,-31.8046,9.5002,61.0234,0.4651,-9.4945,0.8636
475421.0,-31.7758,10.0173,59.6252,-0.0282,-10.3507,0.9663
475431.0,-31.2012,10.477,58.4473,-0.4119,-10.9844,1.1068
475441.0,-31.8237,10.0556,57.231,-0.8375,-11.7427,1.242
475451.0,-30.8756,9.0788,56.8192,-1.0233,-12.361,1.4011
475461.0,-30.4638,7.7093,55.3731,-1.1111,-12.924,1.5256
475471.0,-29.736,6.0717,54.7123,-1.1009,-13.5332,1.5453
475481.0,-28.7687,5.1523,53.4577,-0.9104,-14.2175,1.5309
475491.0,-27.5908,4.7692,51.37,-0.6827,-14.8443,1.5059
475501.0,-26.1926,4.4724,48.0756,-0.3821,-15.3977,1.5224
475511.0,-24.1144,3.9073,44.446,0.0431,-15.7761,1.524
475521.0,-21.9788,3.7062,40.146,0.2347,-15.9644,1.5064
475531.0,-20.2071,3.553,35.8077,0.3336,-16.0198,1.4894
475541.0,-18.0619,3.6488,32.4366,0.2432,-15.9384,1.4058
475551.0,-16.5583,3.1987,29.056,0.0516,-15.7777,1.3622
475561.0,-13.9821,2.6145,26.1638,0.0452,-15.411,1.2409
475571.0,-10.9654,2.8252,23.3578,0.0516,-14.7762,1.1281
475581.0,-9.4332,3.2082,21.6915,0.0894,-14.1867,1.0616
475591.0,-7.5274,3.5721,19.7761,0.1027,-13.6721,1.0413
475601.0,-5.0661,3.7924,18.0906,0.1096,-13.0724,1.0339
475611.0,-2.4708,3.6966,17.334,0.0319,-12.5339,0.9865
475621.0,-0.2682,4.2904,14.8441,-0.2884,-11.9598,0.9317
475631.0,0.3543,4.6064,14.3844,-0.8072,-11.5043,0.9168
475641.0,2.0782,3.6296,14.1545,-0.9253,-11.0759,0.9195
475651.0,4.0797,3.7254,12.287,-0.8998,-10.5449,0.8828
475661.0,5.8131,3.6296,10.7164,-0.8817,-9.8521,0.8748
475671.0,6.3494,3.4668,9.5864,-0.9243,-9.2024,0.8743
475681.0,7.9009,3.1699,8.3318,-0.8365,-8.4686,0.8487
475691.0,9.7396,2.9592,7.0006,-0.7875,-7.5352,0.82
475701.0,11.157,2.5762,6.3111,-0.8407,-6.6227,0.7785
475711.0,12.3062,2.2889,5.363,-0.8157,-5.7096,0.6811
475721.0,13.2543,2.1261,5.7844,-0.7572,-4.7033,0.5869
475731.0,14.0875,2.2984,5.9951,-0.7168,-3.7945,0.5199
475741.0,14.0204,2.1739,6.3877,-0.7343,-2.9703,0.4789
475751.0,14.461,1.9345,6.1004,-0.7657,-2.2381,0.3986
475761.0,14.9877,1.4748,6.3494,-0.8631,-1.5846,0.3081
475771.0,15.2846,1.0439,6.1962,-1.1084,-0.9759,0.1352
475781.0,14.959,0.565,6.8953,-1.26,-0.3879,-0.0612
475791.0,15.3037,0.1245,6.7804,-1.4266,0.1187,-0.3086
475801.0,15.2846,-0.1053,6.6463,-1.4958,0.6625,-0.6231
475811.0,15.0356,-0.0383,6.5793,-1.4383,1.3324,-0.9408
475821.0,14.2024,0.9194,6.2153,-1.3117,1.9896,-1.1983
475831.0,13.2735,1.5131,7.0006,-0.7928,2.8596,-1.342
475841.0,12.2775,2.9688,5.8035,-0.3326,3.7535,-1.3707
475851.0,11.0229,4.2234,4.9129,0.099,4.8092,-1.2654
475861.0,9.8258,5.3439,4.1084,0.34,5.9746,-1.0664
475871.0,9.0597,5.2481,4.3287,0.513,7.299,-0.8338
475881.0,7.9583,4.8554,4.8171,0.4874,8.6314,-0.6263
475891.0,6.5888,3.4477,6.4931,0.3246,9.8579,-0.5103
475901.0,5.2864,1.8387,10.5345,0.1607,10.9083,-0.5747
475911.0,4.2425,0.2298,14.1928,0.1006,11.5628,-0.8046
475921.0,3.7062,-0.5076,17.1425,-0.1293,11.9544,-1.2143
475931.0,1.8675,1.3216,19.144,-0.7322,12.0795,-1.641
475941.0,-0.9002,3.9744,22.697,-1.5463,12.1966,-1.8225
475951.0,-3.6296,6.359,25.618,-2.0912,12.2184,-1.665
475961.0,-4.7788,6.9528,28.6538,-2.2711,12.2977,-1.3633
475971.0,-5.8802,6.6176,31.297,-2.3088,12.4408,-1.0312
475981.0,-6.8761,5.5354,34.0647,-2.1386,12.3663,-0.7928
475991.0,-6.6367,5.4588,35.664,-1.9156,12.196,-0.5837
476001.0,-8.1403,6.11,35.9896,-1.9608,12.1343,-0.3251
476011.0,-10.659,5.1236,36.7079,-2.088,11.9688,-0.0064
476021.0,-11.0229,3.3136,35.9226,-2.2157,12.2535,0.2357
476031.0,-11.5401,0.9098,37.4453,-2.3046,12.8798,0.2607
476041.0,-13.3213,-1.0439,40.3662,-2.2189,13.4843,0.158
476051.0,-14.7004,-2.3272,45.1355,-1.7097,13.9871,-0.0761
476061.0,-15.5527,-1.9441,49.8856,-1.2526,14.0653,-0.415
476071.0,-17.4585,0.249,54.5878,-0.737,13.5348,-0.6369
476081.0,-18.9142,3.9552,55.6508,-0.4864,12.8362,-0.5571
476091.0,-20.7912,4.1946,57.8343,-0.0713,12.4121,-0.182
476101.0,-20.1879,2.8922,55.8519,0.2969,12.2647,0.0426
476111.0,-19.9772,1.8004,56.7713,0.0197,12.1455,0.0192
476121.0,-20.7625,0.7087,59.3475,-0.7125,11.5277,-0.0984
476131.0,-20.4656,-0.7949,61.1096,-1.3415,10.4262,-0.3304
476141.0,-20.887,-2.2027,60.5254,-2.0614,9.2359,-0.6343
476151.0,-21.9117,-3.6775,59.7305,-2.2216,8.1216,-0.9621
476161.0,-21.7106,-3.6583,55.6508,-1.6597,7.9498,-1.1387
476171.0,-21.1169,-4.1563,53.3237,-0.2948,8.7075,-1.1855
476181.0,-21.8447,-3.3232,52.3181,0.7455,9.6014,-1.3212
476191.0,-22.6875,-1.6855,54.9038,1.4362,10.0181,-1.4372
476201.0,-24.507,-0.3543,57.9493,1.7613,9.8595,-1.4952
476211.0,-23.8462,-0.1341,60.7744,2.1582,9.528,-1.6091
476221.0,-24.0857,1.3503,63.3697,2.1625,9.0608,-1.8299
476231.0,-25.0912,3.3998,67.1047,1.9651,7.9258,-2.0172
476241.0,-26.4033,5.8514,68.3114,1.8241,6.4029,-2.0156
476251.0,-26.9108,7.7764,65.7831,1.7735,5.0178,-1.8502
476261.0,-37.7422,8.1977,71.5675,1.0307,2.7877,-1.5426
476271.0,-22.5534,8.8777,55.6029,1.4154,4.0792,-1.3516
476281.0,-25.6467,7.671,59.2709,1.0637,3.066,-1.2446
476291.0,-24.4879,7.7381,56.4649,0.5374,2.8825,-1.1297
476301.0,-25.4935,6.608,58.8112,0.0484,2.3631,-1.0717
476311.0,-25.4073,6.8666,58.227,-0.2597,1.6432,-1.0323
476321.0,-25.0434,7.4412,59.5486,-0.3666,1.1877,-0.9104
476331.0,-25.503,7.6902,59.5773,-0.2384,0.8269,-0.796
476341.0,-25.8861,8.5904,60.5254,-0.0016,0.4603,-0.6034
476351.0,-26.7097,9.3661,61.2916,0.1783,-0.0372,-0.3677
476361.0,-27.1407,10.1227,62.8909,0.2405,-0.8679,-0.1075
476371.0,-27.428,10.9176,62.2492,0.4033,-1.6336,0.1836
476381.0,-27.6865,11.8369,62.1152,0.4049,-2.3259,0.5023
476391.0,-28.424,12.8808,62.3642,0.3698,-3.0251,0.8764
476401.0,-28.8453,12.8329,62.9388,0.2299,-3.8924,1.2856
476411.0,-29.1422,12.5935,61.9524,-0.0772,-4.7906,1.6895
476421.0,-28.8166,11.0325,60.9947,-0.3448,-5.5345,2.0247
476431.0,-28.2324,9.5481,60.9564,-0.4917,-5.9613,2.3067
476441.0,-28.4623,7.2592,61.3394,-0.4869,-6.5498,2.4791
476451.0,-28.4718,5.2481,61.9141,-0.2937,-7.1202,2.568
476461.0,-27.811,3.8882,62.5365,0.1501,-7.5214,2.5855
476471.0,-28.2707,3.2657,63.8198,0.6742,-8.0402,2.5552
476481.0,-29.3242,3.1987,65.4383,0.9222,-8.9273,2.5355
476491.0,-29.2859,2.9305,64.3944,0.9881,-9.9936,2.4722
476501.0,-28.989,3.7924,62.2397,0.299,-11.1483,2.2652
476511.0,-29.42,4.0606,60.0178,-0.6188,-12.2753,2.0556
476521.0,-29.0177,3.2753,58.4473,-1.1265,-13.2618,1.8959
476531.0,-28.06,3.0454,55.5742,-1.3681,-13.9696,1.6937
476541.0,-27.3897,3.3136,52.9023,-1.5208,-14.6613,1.5655
476551.0,-26.7768,4.4245,49.6845,-1.491,-15.2775,1.5075
476561.0,-25.1966,3.8786,46.9264,-1.267,-15.451,1.5463
476571.0,-23.4919,3.3998,42.4444,-0.9972,-15.4488,1.5633
476581.0,-21.8064,2.4995,41.4484,-0.7258,-15.427,1.5469
476591.0,-19.5175,2.2984,39.15,-0.2442,-15.2706,1.5814
476601.0,-17.5447,1.9345,37.091,0.3374,-15.1296,1.6043
476611.0,-15.524,2.2697,33.9019,0.7513,-14.8789,1.6591
476621.0,-13.6182,1.6568,31.7758,1.0078,-14.6278,1.7097
476631.0,-11.904,1.3216,29.4966,1.1222,-14.3936,1.6809
476641.0,-9.7492,1.0822,26.4128,1.2414,-14.085,1.5905
476651.0,-6.5601,1.1301,23.8175,1.2627,-13.4593,1.4654
476661.0,-5.0087,1.7238,22.3331,1.1334,-12.9011,1.3207
476671.0,-3.237,2.0016,21.2414,0.8306,-12.2546,1.1829
476681.0,-1.312,2.4421,20.4273,0.4848,-11.6857,1.0573
476691.0,-0.431,2.308,20.8966,0.365,-11.267,0.9626
476701.0,1.1588,2.6815,20.1688,0.3081,-10.7508,0.9115
476711.0,2.9688,2.873,19.508,0.2059,-10.2778,0.8439
476721.0,4.3383,3.2848,19.1153,0.0383,-9.9175,0.7572
476731.0,5.6695,3.6775,18.081,-0.0521,-9.4668,0.7333
476741.0,6.675,3.5817,17.6596,-0.1117,-9.0518,0.7136
476751.0,8.2456,3.6679,16.2997,-0.1751,-8.641,0.6737
476761.0,9.6438,3.7158,14.8441,-0.3358,-8.1605,0.6157
476771.0,10.161,4.0414,13.9343,-0.6114,-7.6816,0.58
476781.0,11.1666,4.1659,13.4363,-0.9248,-7.3006,0.564
476791.0,11.9902,4.1084,12.2583,-1.1925,-6.8797,0.5529
476801.0,12.6127,3.6871,10.975,-1.4873,-6.4774,0.5199
476811.0,13.5512,2.806,10.6686,-1.59,-6.0107,0.4842
476821.0,14.7483,2.2697,9.3948,-1.5751,-5.36,0.4166
476831.0,15.7347,1.743,8.4946,-1.474,-4.6746,0.3001
476841.0,16.5487,1.3408,7.1443,-1.4825,-3.9568,0.1719
476851.0,17.1329,1.3982,6.2728,-1.6336,-3.2666,0.0027
476861.0,17.4106,1.2258,6.0334,-1.9348,-2.6095,-0.1963
476871.0,17.832,0.929,5.612,-2.1731,-1.9821,-0.4097
476881.0,17.4106,-0.0192,5.5737,-2.3519,-1.3031,-0.6194
476891.0,17.9182,-1.3216,5.3726,-2.4828,-0.6204,-0.9211
476901.0,18.2151,-2.7102,5.8035,-2.6558,0.1506,-1.3303
476911.0,17.6979,-3.4955,6.0908,-2.6952,0.8668,-1.7996
476921.0,17.5064,-2.9401,6.9623,-2.7755,1.5873,-2.3237
476931.0,17.516,-0.6225,7.3167,-2.5717,2.4451,-2.6691
476941.0,16.3763,2.4708,7.3933,-2.3477,3.3103,-2.7936
476951.0,15.4953,5.8131,7.4986,-2.0071,4.2409,-2.6547
476961.0,14.0875,8.418,7.4124,-1.6267,5.2722,-2.3046
476971.0,12.785,10.0269,7.9009,-1.1595,6.3337,-1.8225
476981.0,11.8944,10.9942,7.853,-0.7609,7.3804,-1.3031
476991.0,10.3046,11.6262,8.0445,-0.4252,8.4217,-0.7662
477001.0,9.165,11.3485,8.6479,-0.1958,9.4141,-0.273
477011.0,8.3797,11.5305,9.4619,-0.3262,10.5167,0.1815
477021.0,6.4931,11.0899,11.655,-0.4411,11.5298,0.6923
477031.0,4.6543,9.5289,14.4131,-0.5651,12.3376,1.1967
477041.0,3.4668,7.039,17.832,-0.8296,13.0054,1.5814
477051.0,2.1452,4.0701,21.3563,-1.2356,13.2773,1.7262
477061.0,0.249,1.1492,25.2445,-1.64,13.3954,1.7326
477071.0,-1.4365,-2.6336,28.74,-1.732,13.2368,1.5745
477081.0,-2.2984,-5.8514,30.7128,-1.4388,13.1246,1.1377
477091.0,-3.1412,-6.6559,31.4407,-1.1408,13.2528,0.5795
477101.0,-4.0318,-4.8554,32.4654,-0.5853,13.4736,0.0553
477111.0,-4.8937,-0.0575,32.9729,-0.1176,13.9451,-0.1963
477121.0,-6.7708,6.2537,33.4901,-0.0803,14.3766,0.017
477131.0,-8.5234,10.6494,35.0511,-0.4475,14.6155,0.6321
477141.0,-12.0285,10.9463,37.2059,-1.234,14.7358,1.5038
477151.0,-14.5472,4.0893,42.3965,-1.2132,14.5245,2.1875
477161.0,-13.5991,-2.4325,43.5553,-0.8136,14.5357,2.245
477171.0,-15.3612,-6.8761,44.7428,0.0309,14.6123,1.9145
477181.0,-17.0276,-9.1171,43.7181,0.8865,14.8108,1.3532
477191.0,-16.338,-8.4755,41.3622,1.6793,15.5813,0.6098
477201.0,-18.8855,-4.1755,41.0366,1.7288,16.5939,0.0059
477211.0,-22.4672,-0.6512,43.0477,1.4617,17.4357,-0.3693
477221.0,-24.0569,3.3136,47.4243,0.9653,17.4357,-0.5619
477231.0,-27.8398,6.6367,54.5112,0.306,17.4357,-0.5247
477241.0,-30.9905,7.5944,62.7281,-0.0192,17.3144,-0.2905
477251.0,-31.6801,8.1786,68.522,0.2618,16.023,0.0027
477261.0,-33.7104,6.3877,73.0519,0.8705,14.6948,0.3719
477271.0,-32.2164,3.7828,74.6512,2.4232,13.4241,0.5614
477281.0,-30.5692,4.6064,72.6497,3.1347,12.2306,0.5507
477291.0,-31.3928,5.1044,69.4702,3.4848,11.2648,0.5444
477301.0,-29.8126,5.4875,67.6697,3.1804,10.3677,0.4353
477311.0,-28.5197,5.9951,66.3385,2.345,9.4929,0.2246
477321.0,-78.4532,-9.4332,78.4508,-0.5316,3.8296,-0.1777
477331.0,-20.3316,10.9176,52.1936,0.8429,7.8529,-0.3581
477341.0,-30.1861,0.7566,69.1829,-0.9456,4.9726,-0.5555
477351.0,-27.3226,8.849,50.9103,-1.4005,5.1152,-0.8407
477361.0,-30.5117,3.1699,70.5428,-2.5307,3.2273,-0.7966
477371.0,-29.3912,6.9432,57.8343,-1.6251,3.5721,-0.738
477381.0,-29.8509,6.1962,68.6274,-1.1616,2.9862,-0.5108
477391.0,-28.9315,6.4643,66.5109,0.058,2.7542,-0.3613
477401.0,-29.6402,9.8354,68.5699,0.3139,1.6017,-0.0186
477411.0,-29.3721,9.8162,66.712,0.2852,0.4555,0.357
477421.0,-29.1614,9.7875,68.3018,-0.0096,-0.8365,0.7402
477431.0,-27.4088,8.2648,65.151,-0.0846,-1.516,0.9557
477441.0,-27.4567,6.7133,65.898,-0.1352,-2.1114,1.1792
477451.0,-27.8206,4.6926,64.0497,0.0782,-2.6771,1.3244
477461.0,-28.2228,4.1563,64.5381,-0.0873,-3.5263,1.3297
477471.0,-29.1997,2.7581,64.1742,-0.298,-4.2612,1.2893
477481.0,-28.6251,1.0439,65.7831,-0.3847,-4.9545,1.0472
477491.0,-29.5253,1.3982,66.9706,-0.8897,-5.8963,0.6907
477501.0,-30.7894,2.9113,69.6808,-1.5176,-7.0973,0.398
477511.0,-31.6705,3.9361,71.7016,-1.9523,-8.5766,0.2549
477521.0,-32.1493,5.2194,70.696,-2.3259,-10.0952,0.1485
477531.0,-33.4614,5.5641,69.882,-2.6936,-11.5112,0.1634
477541.0,-32.9729,5.0087,67.0376,-2.3679,-12.6802,0.2368
477551.0,-32.4845,5.2768,63.6379,-2.0327,-13.414,0.3634
477561.0,-32.542,4.5011,60.5254,-1.6623,-14.0121,0.5039
477571.0,-31.0001,3.7924,57.8631,-1.4649,-14.5719,0.539
477581.0,-29.6115,3.62,56.0339,-1.4713,-15.0301,0.5087
477591.0,-29.3816,4.0031,53.994,-1.6017,-15.7766,0.4874
477601.0,-28.3378,3.6009,51.1114,-1.6623,-16.4316,0.5353
477611.0,-26.1638,2.9018,46.8689,-1.6176,-16.7147,0.5273
477621.0,-24.8518,2.3367,43.268,-1.7118,-16.8179,0.4709
477631.0,-22.879,0.9864,40.7302,-1.5011,-16.6195,0.4299
477641.0,-19.9676,0.0958,38.47,-1.1451,-16.2741,0.3155
477651.0,-18.8759,0.0383,37.1197,-0.9546,-16.057,0.1804
477661.0,-16.6541,-0.0766,35.9705,-0.2911,-15.7143,0.1112
477671.0,-13.8481,0.5459,34.1892,-0.0101,-15.4126,0.0314
477681.0,-12.4115,1.7334,31.4598,-0.0644,-15.2211,-0.0372
477691.0,-10.5058,2.0782,29.7168,-0.1607,-14.8236,-0.0197
477701.0,-8.2456,1.8004,28.2803,-0.1836,-14.4272,-0.0537
477711.0,-6.5218,2.1548,27.5237,-0.2352,-13.9541,-0.099
477721.0,-5.4109,1.8866,27.6961,-0.1362,-13.4364,-0.066
477731.0,-3.6488,1.312,28.0217,0.3751,-13.074,-0.0612
477741.0,-1.9058,1.8196,26.3266,0.5656,-12.71,-0.0915
477751.0,-0.9481,2.6911,25.2445,0.6694,-12.3115,-0.0649
477761.0,0.249,3.1316,24.4209,0.7822,-12.0332,-0.0011
477771.0,2.0877,3.4668,22.448,0.8312,-11.6831,0.0282
477781.0,2.7773,3.2274,21.3467,0.6433,-11.2478,0.0639
477791.0,4.3574,2.9975,20.4944,0.5922,-10.7593,0.0814
477801.0,6.1483,3.3423,19.6133,0.5146,-10.2597,0.0394
477811.0,6.9336,3.6105,19.2398,0.1894,-9.9021,0.0128
477821.0,7.3933,4.1563,19.0578,-0.2091,-9.735,-0.0027
477831.0,8.6383,3.6296,18.2055,-0.4922,-9.5445,0.0064
477841.0,9.9599,3.5147,16.5104,-0.6651,-9.2433,-0.0074
477851.0,10.9271,4.0223,15.4282,-0.8748,-8.9097,-0.0112
477861.0,11.7124,3.8116,13.8385,-1.0967,-8.5878,0.0351
477871.0,13.0245,3.4381,12.402,-1.1802,-8.177,0.0639
477881.0,14.777,3.1508,10.5632,-1.3053,-7.7082,0.0479
477891.0,15.457,2.3272,9.2608,-1.4591,-7.2091,-0.008
477901.0,16.1273,2.0399,7.288,-1.6783,-6.794,-0.1112
477911.0,17.4968,1.5897,5.7078,-1.8778,-6.2981,-0.2847
477921.0,18.2342,1.494,4.6064,-2.0268,-5.7644,-0.4906
477931.0,19.2302,1.2546,3.2082,-2.1104,-5.1588,-0.7077
477941.0,19.7665,1.4174,1.3982,-2.1263,-4.458,-0.8881
477951.0,19.8719,1.6089,-0.0958,-1.9917,-3.6636,-1.0568
477961.0,21.4233,1.8579,-1.1109,-1.5,-2.3956,-1.2175
477971.0,21.452,3.237,-2.0494,-1.1584,-1.2435,-1.2537
477981.0,21.7968,3.984,-2.2122,-0.8897,-0.0867,-1.2207
477991.0,21.5861,5.7748,-3.0358,-0.5917,1.2286,-1.0956
478001.0,21.136,6.6176,-2.9401,-0.3038,2.5036,-0.8498
478011.0,20.8487,7.0198,-2.988,-0.1027,3.7945,-0.5486
478021.0,20.2549,6.7995,-3.2848,-0.1038,4.9662,-0.232
478031.0,19.393,5.6695,-3.553,-0.2421,6.198,0.0325
478041.0,19.3068,4.0318,-3.4668,-0.3304,7.6949,0.1559
478051.0,18.263,2.5953,-2.4517,-0.323,9.3577,0.1751
478061.0,17.2191,1.4461,-0.3639,-0.0867,11.2159,0.1038
478071.0,14.5376,1.0343,2.557,0.3704,12.9628,0.0043
478081.0,12.5648,0.4597,7.0581,0.9429,14.4431,-0.1378
478091.0,10.6303,0.0287,11.1666,1.6256,15.7511,-0.3852
478101.0,7.4603,1.1779,15.2271,2.3083,16.6046,-0.6933
478111.0,4.9799,4.0989,18.4832,2.253,16.8563,-0.9876
478121.0,3.2465,8.2456,22.2182,1.7655,16.8121,-0.9658
478131.0,0.4501,11.5688,26.9587,0.9152,16.2449,-0.5997
478141.0,-2.2218,11.7795,29.7264,-0.0138,15.2658,0.0436
478151.0,-2.4708,7.6327,31.23,-0.6497,14.6102,0.5726
478161.0,-0.5076,2.7677,31.5077,-0.9418,14.3734,0.7253
478171.0,-1.2641,-0.9673,32.7144,-1.0823,14.3011,0.5481
478181.0,-2.0303,-3.1699,34.5052,-0.8125,14.2872,0.183
478191.0,-3.055,-2.4325,34.3807,-0.3501,14.316,-0.2533
478201.0,-4.7118,0.7949,33.04,-0.4922,14.1707,-0.5906
478211.0,-8.1882,3.6296,31.0384,-1.3042,14.16,-0.5273
478221.0,-9.6534,1.4844,30.7607,-1.69,14.6943,-0.3352
478231.0,-10.8793,-0.4788,31.0001,-1.8592,15.9708,-0.3672
478241.0,-14.5567,-1.494,35.9513,-1.9901,17.2798,-0.4491
478251.0,-16.9701,-1.5419,42.952,-1.5192,17.4357,-0.5502
478261.0,-19.2877,0.3448,49.5217,-1.0536,17.4357,-0.5736
478271.0,-22.2565,0.4597,56.3691,-0.6066,17.4357,-0.4534
478281.0,-22.4097,-0.6512,63.4272,0.4699,17.34,-0.357
478291.0,-24.0857,-0.9385,65.4479,1.2936,16.0549,-0.4651
478301.0,-26.8342,-2.7485,63.6953,1.5006,14.7012,-0.6726
478311.0,-25.2828,-2.8252,60.0849,1.6511,14.59,-1.1621
478321.0,-26.5373,0.0479,62.9292,1.3074,14.6219,-1.6522
478331.0,-28.9028,3.4955,67.5452,0.9668,13.9594,-1.8486
478341.0,-28.9507,7.1251,72.2091,0.4464,12.7265,-1.7884
478351.0,-28.7591,8.7724,74.9098,-0.1836,10.9956,-1.582
478361.0,-27.6865,10.0748,75.1013,-0.944,8.8852,-1.3021
478371.0,-26.3362,10.1993,73.5882,-1.6182,6.9004,-0.9812
478381.0,-27.3801,8.2456,69.6617,-1.7352,5.0939,-0.6029
478391.0,-26.0681,3.4477,63.5421,-0.986,4.2644,-0.3065
478401.0,-23.5589,-0.2203,56.5606,0.0905,4.5682,-0.3831
478411.0,-24.4017,-1.3024,53.3332,0.8168,4.896,-0.6082
478421.0,-24.0857,-0.7374,50.7283,1.2505,5.2881,-0.9014
478431.0,-51.1689,8.7053,56.0914,-1.3484,3.0894,-1.3127
478441.0,-21.816,-0.565,66.8365,1.2765,5.5106,-1.3441
478451.0,-25.9819,7.0102,47.2232,-1.3292,5.2088,-1.4835
478461.0,-25.0146,3.6966,57.049,0.149,4.4979,-1.2936
478471.0,-27.3992,6.79,55.4497,-0.9174,4.4011,-1.1339
478481.0,-26.8725,5.2385,60.4105,0.1963,3.4635,-0.8242
478491.0,-25.752,6.3015,61.3873,0.1612,2.9362,-0.6098
478501.0,-26.8342,6.8187,63.2835,0.6162,2.2556,-0.348
478511.0,-27.0545,6.1292,63.7432,1.11,1.5378,-0.0814
478521.0,-26.9683,6.3686,62.8334,1.2733,0.8689,0.157
478531.0,-27.562,5.2672,63.3506,1.2845,-0.0963,0.3054
478541.0,-27.7249,5.1523,62.8334,1.0371,-0.8195,0.3911
478551.0,-27.7919,5.2194,63.1207,0.9104,-1.4521,0.4534
478561.0,-28.7879,5.2864,63.9539,0.6316,-2.2551,0.5119
478571.0,-28.4431,5.5258,64.8446,0.4039,-2.9367,0.5949
478581.0,-28.9411,5.4396,66.7791,0.2469,-3.7849,0.6694
478591.0,-28.9603,5.5258,66.7791,0.0958,-4.8608,0.7577
478601.0,-29.0848,4.9416,66.578,0.108,-5.7591,0.8418
478611.0,-29.6115,4.3383,66.0991,-0.0798,-6.7323,0.8775
478621.0,-29.4295,3.0358,65.5628,0.008,-7.647,0.8413
478631.0,-29.2188,2.6719,64.6243,0.2368,-8.3143,0.7726
478641.0,-29.1901,2.9113,64.1359,0.6859,-8.9682,0.746
478651.0,-29.0656,4.3766,61.7225,0.8109,-9.6419,0.7492
478661.0,-28.8262,5.0566,60.535,0.9264,-10.1016,0.8258
478671.0,-28.5293,5.5545,58.8495,0.8849,-10.5747,0.887
478681.0,-28.6442,6.0621,58.8207,0.6008,-11.1829,0.9583
478691.0,-28.9986,6.2824,58.4568,0.4129,-11.989,1.0839
478701.0,-28.3473,6.0717,56.5319,0.2347,-12.8713,1.2143
478711.0,-27.4471,5.1332,53.8408,0.2203,-13.4656,1.3074
478721.0,-26.6427,4.0701,51.0923,0.0905,-13.9254,1.3186
478731.0,-25.3977,3.304,48.9471,-0.2011,-14.2718,1.268
478741.0,-24.4304,2.4421,47.7404,-0.3118,-14.5911,1.1776
478751.0,-23.3578,2.2505,46.1123,-0.3634,-14.9747,1.0648
478761.0,-21.9883,2.1165,43.9575,-0.1213,-15.1322,0.9892
478771.0,-20.3316,2.5091,41.6208,0.0575,-15.3073,0.9301
478781.0,-19.1823,3.0263,39.4948,0.248,-15.4228,0.9232
478791.0,-17.8129,2.9784,36.2674,0.53,-15.3467,0.9876
478801.0,-15.4187,3.6679,32.226,0.5044,-15.2354,1.0286
478811.0,-14.1737,3.3998,30.5883,0.2618,-15.0694,1.052
478821.0,-11.9614,2.9497,29.4487,0.1485,-14.9768,1.0366
478831.0,-9.5768,2.8156,26.8821,-0.0479,-14.8247,0.9642
478841.0,-7.4795,3.6679,24.4592,-0.4443,-14.5735,0.8493
478851.0,-6.2728,4.2042,22.9173,-0.9982,-14.5432,0.8024
478861.0,-4.4149,4.7022,20.7242,-1.4585,-14.4554,0.7838
478871.0,-2.3559,4.7501,18.5982,-1.9709,-14.2548,0.7753
478881.0,-0.0096,4.8746,16.3189,-2.4807,-14.0393,0.787
478891.0,1.9824,4.4149,14.7962,-3.0346,-13.8003,0.7662
478901.0,3.869,4.5777,12.5456,-3.5519,-13.5322,0.7721
478911.0,5.7652,4.3958,10.8601,-3.9499,-13.2203,0.7971
478921.0,7.5369,4.3383,9.5289,-4.2287,-12.8335,0.8099
478931.0,9.0405,3.9169,7.7476,-4.3064,-12.3812,0.8929
478941.0,10.4483,3.5147,6.3015,-4.2409,-11.8331,0.9982
478951.0,11.6933,3.4189,4.8267,-4.2282,-11.3329,1.0717
478961.0,11.8657,2.8156,3.553,-4.118,-10.9259,1.1579
478971.0,12.4115,1.5419,1.6951,-3.9328,-10.48,1.2297
478981.0,14.6238,-0.1532,-0.6704,-3.5726,-9.818,1.1829
478991.0,14.3269,-1.2163,-3.3998,-2.9862,-8.8277,0.9892
479001.0,15.9454,-2.2984,-6.4835,-3.1969,-7.8843,0.6082
479011.0,18.3396,-2.1739,-10.2568,-3.0724,-6.4583,0.1394
479021.0,17.7458,-2.7773,-9.6534,-3.0942,-4.8417,-0.4119
479031.0,17.4298,-0.9864,-12.1913,-3.0325,-3.421,-0.8482
479041.0,19.8144,-0.6704,-13.5129,-2.4903,-0.9397,-1.1792
479051.0,17.2766,2.2889,-14.2503,-1.7182,1.5335,-1.4287
479061.0,16.1656,3.1891,-11.2144,-0.9365,3.6689,-1.4372
479071.0,15.7538,6.292,-11.5113,0.0314,6.064,-1.2111
479081.0,13.6948,7.5657,-8.169,0.8359,8.0642,-0.7971
479091.0,11.5879,8.2265,-5.9664,1.1792,9.6887,-0.3187
479101.0,10.228,7.8243,-4.5969,1.2648,10.8668,0.0681
479111.0,7.4316,5.9568,-2.8252,1.1701,12.1125,0.3006
479121.0,5.4971,4.8842,-1.2258,1.0227,13.273,0.381
479131.0,4.5873,3.4764,0.4884,0.6955,14.0148,0.3714
479141.0,3.7637,2.2793,2.5187,0.8375,15.0423,0.2687
479151.0,1.3695,2.7102,4.4819,0.7891,15.9591,0.1383
479161.0,-0.6129,3.3423,6.3207,0.7599,16.8626,0.0772
479171.0,-3.0837,3.9552,7.5561,0.7822,17.4357,0.1155
479181.0,-5.4205,3.6583,9.9024,0.7934,17.4357,0.1532
479191.0,-7.9966,2.6432,13.2447,0.9727,17.4357,0.2075
479201.0,-9.9503,2.0016,18.2151,1.2957,17.4357,0.2788
479211.0,-14.03,1.81,23.7601,1.524,17.4357,0.3666
479221.0,-17.2957,-0.6512,29.0752,1.8629,17.4357,0.4124
479231.0,-18.263,-2.2314,32.8484,2.1843,17.4357,0.248
479241.0,-19.6995,-2.7485,38.8723,2.1354,17.4357,-0.1245
479251.0,-22.7641,-0.7087,46.7827,1.7969,17.4357,-0.5539
479261.0,-24.2676,3.2944,54.8272,0.8583,17.4357,-0.7524
479271.0,-26.8438,6.6367,62.6515,0.0649,17.4357,-0.6417
479281.0,-26.6618,8.849,68.6274,-0.2799,17.4357,-0.2645
479291.0,-28.0984,10.908,69.7096,-0.9913,16.4529,0.2937
479301.0,-29.5923,7.4603,71.1557,-1.3952,14.7725,0.9615
479311.0,-26.8151,4.2904,67.9379,-1.3814,13.8674,1.3117
479321.0,-26.4033,3.2274,67.392,-1.6464,13.4944,1.5218
479331.0,-29.0752,0.6129,69.1062,-1.6219,12.7313,1.6783
479341.0,-27.3035,-2.0877,68.4359,-0.6976,12.1173,1.7006
479351.0,-26.9874,-3.4093,64.7967,0.0309,12.1221,1.5373
479361.0,-26.4894,-6.4643,65.7065,0.8631,12.4685,1.1424
479371.0,-26.4033,-6.177,67.8613,1.3627,12.3897,0.4406
479381.0,-27.7249,-2.7677,71.1653,1.4394,11.5016,-0.1543
479391.0,-29.4008,2.0973,72.1995,1.3782,10.1107,-0.4715
479401.0,-29.0752,6.292,70.4661,1.318,8.8959,-0.4603
479411.0,-2.0016,7.6231,78.4508,-3.0916,7.5081,-0.7226
479421.0,-37.1484,11.1474,62.278,1.8922,6.0618,0.0782
479431.0,-29.3338,7.5561,62.8909,-0.853,6.802,0.3837
479441.0,-27.0736,8.418,60.4201,-0.0527,6.2459,0.6146
479451.0,-29.0656,-0.3831,72.008,-1.491,5.1402,0.5231
479461.0,-26.5948,-3.2561,69.0105,-0.9349,4.0659,0.2602
479471.0,-26.0298,-3.7637,71.2993,-0.9365,3.2432,-0.1181
479481.0,-25.8574,-4.3287,71.0407,-0.3427,2.3823,-0.5412
479491.0,-25.9915,-1.1396,69.7,0.2086,1.4692,-0.803
479501.0,-27.0066,1.5993,69.3648,0.4768,0.6673,-0.9014
479511.0,-27.2747,4.4053,69.0871,0.7402,-0.0846,-0.8822
479521.0,-27.8589,5.7461,67.7846,1.0089,-0.5869,-0.7402
479531.0,-30.0329,9.0405,68.5699,0.8508,-1.5985,-0.4092
479541.0,-29.9371,9.0118,67.9857,0.8737,-2.5983,-0.0149
479551.0,-29.7743,8.5904,66.7503,0.9727,-3.3805,0.3879
479561.0,-29.4295,7.8147,65.2947,1.3047,-3.8951,0.7588
479571.0,-29.7743,7.1922,65.3426,1.3814,-4.5246,1.0147
479581.0,-30.0233,6.2153,64.5668,1.4516,-5.0753,1.2217
479591.0,-30.0137,4.3958,66.2907,1.3585,-5.8708,1.259
479601.0,-30.0424,2.9592,67.1238,1.3271,-6.7557,1.2111
479611.0,-30.2627,3.1699,67.459,1.4239,-7.7241,1.0914
479621.0,-31.613,3.4955,67.4686,1.4298,-8.8224,1.0584
479631.0,-30.7128,4.1851,66.2045,1.5825,-9.7504,1.0679
479641.0,-31.479,4.7022,64.9212,1.4436,-10.7306,1.0541
479651.0,-31.479,5.4875,62.4408,1.2499,-11.8033,1.0584
479661.0,-31.0767,6.177,59.0889,0.821,-12.7031,1.0227
479671.0,-30.8565,7.1156,55.7945,0.2767,-13.5742,1.0121
479681.0,-29.9467,7.5848,53.1417,-0.1304,-14.1989,1.0791
479691.0,-29.1614,6.924,51.0444,-0.1383,-14.5788,1.2292
479701.0,-28.1462,5.9185,48.5161,-0.0575,-14.9321,1.3446
479711.0,-26.4224,5.1332,46.3039,0.2059,-15.1413,1.4271
479721.0,-25.187,4.865,43.5362,0.2559,-15.4345,1.4697
479731.0,-24.622,4.2904,41.458,0.3709,-15.7399,1.5224
479741.0,-22.0841,3.6105,38.8627,0.9349,-15.7042,1.6304
479751.0,-19.5463,3.1795,34.8787,1.5256,-15.4403,1.69
479761.0,-17.3628,3.8307,32.2068,1.8055,-15.1934,1.7177
479771.0,-15.9837,4.0318,29.4104,1.79,-14.921,1.8326
479781.0,-13.9151,3.3519,26.7097,1.8464,-14.6735,1.8885
479791.0,-11.0516,3.1508,23.6643,1.5729,-14.1824,1.8682
479801.0,-9.098,2.5857,22.7928,1.3702,-13.5545,1.8129
479811.0,-8.5042,1.5897,23.2333,1.384,-13.099,1.7389
479821.0,-6.2249,0.6033,22.7162,1.8353,-12.502,1.6171
479831.0,-4.1659,1.4461,20.8774,1.8145,-11.9257,1.3675
479841.0,-3.304,3.0071,20.4944,1.4936,-11.5208,1.1643
479851.0,-1.9249,4.5873,20.9732,1.1116,-11.2552,1.0754
479861.0,-0.1053,5.2864,20.9541,0.8801,-11.0323,1.094
479871.0,1.3886,5.7557,20.571,0.6087,-10.8833,1.1041
479881.0,2.557,6.5027,19.7091,0.141,-10.9104,1.1025
479891.0,3.2465,6.8378,18.1289,-0.4496,-11.0222,1.1254
479901.0,4.3383,7.1156,16.7307,-0.9812,-11.1174,1.1951
479911.0,5.5354,6.7325,14.6238,-1.5075,-11.1589,1.2265
479921.0,6.2153,5.9185,12.1817,-1.9305,-11.102,1.243
479931.0,8.0541,4.8171,10.1418,-2.113,-10.8184,1.2042
479941.0,10.1227,4.1755,7.4795,-2.1795,-10.2825,1.1153
479951.0,11.6933,3.9169,5.2864,-2.2891,-9.6637,0.9684
479961.0,13.0819,3.7541,3.2944,-2.4174,-8.9273,0.8141
479971.0,14.8057,3.7637,1.1109,-2.5509,-8.0881,0.6534
479981.0,15.5623,4.2138,-0.1053,-2.7563,-7.2431,0.4645
479991.0,16.5296,4.051,-0.8045,-2.8505,-6.3274,0.3155
480001.0,16.7403,5.1715,-2.7102,-2.9649,-5.3451,0.1815
480011.0,16.8169,5.2098,-2.375,-3.2342,-4.5996,0.1697
480021.0,16.9318,5.5354,-3.3232,-3.2172,-3.5992,0.2416
480031.0,17.8895,5.0374,-3.8211,-2.9841,-2.5382,0.3464
480041.0,18.1385,4.5298,-4.2329,-2.5094,-1.2579,0.5002
480051.0,19.2302,3.4668,-5.5162,-1.7331,0.2613,0.6699
480061.0,19.6803,2.4421,-6.8187,-0.8131,2.1551,0.7056
480071.0,20.6189,1.6759,-8.5712,-0.2091,4.4203,0.6476
480081.0,20.0921,1.1875,-9.0501,0.1634,6.711,0.5018
480091.0,17.9469,0.6608,-6.5601,0.3241,8.8293,0.2826
480101.0,15.9454,0.7183,-3.6009,0.2916,10.5098,0.0399
480111.0,13.8385,1.1301,-1.312,0.373,11.9475,-0.149
480121.0,11.2719,1.8196,1.6281,0.5901,13.4789,-0.1878
480131.0,9.7971,1.9728,5.1811,0.7497,14.8656,-0.149
480141.0,6.7708,1.6472,7.6423,0.6263,15.5638,-0.1203
480151.0,4.4245,-0.3639,11.6837,0.7093,16.5264,-0.2309
480161.0,1.992,-1.5706,14.8728,0.6135,17.1835,-0.513
480171.0,0.182,-3.304,19.077,0.8077,17.4357,-0.9583
480181.0,-2.3463,-2.8922,22.1128,0.8556,17.4357,-1.4995
480191.0,-4.2138,-1.3886,24.7848,0.7982,17.4357,-2.0087
480201.0,-6.4835,1.1779,28.5389,0.8631,17.4357,-2.3695
480211.0,-9.5385,5.1619,31.6418,0.5848,17.4357,-2.4461
480221.0,-13.0723,7.5561,34.4574,0.1687,17.4357,-2.2498
480231.0,-14.7674,7.9104,36.5259,-0.2661,17.4357,-2.0242
480241.0,-16.5966,7.92,38.1827,-0.8727,17.4357,-1.8406
480251.0,-18.7897,6.5505,40.96,-1.3494,17.4357,-1.6884
480261.0,-19.6612,4.4341,44.2544,-1.0924,17.4357,-1.6325
480271.0,-19.7953,4.9416,47.999,-0.5066,17.4357,-1.6666
480281.0,-23.5015,6.6463,51.7148,-0.4273,17.4357,-1.6336
480291.0,-25.6371,7.4029,54.8081,-0.4438,17.3591,-1.4617
480301.0,-25.5509,8.5904,57.3651,-1.0887,16.9302,-1.3601
480311.0,-27.7919,8.7532,61.5406,-1.9454,16.0586,-1.2382
480321.0,-27.9355,9.0788,64.088,-2.9522,14.7044,-1.0935
480331.0,-28.3186,8.6191,65.4766,-3.7333,13.2171,-0.8445
480341.0,-29.7264,5.861,64.337,-3.8759,12.0561,-0.4651
480351.0,-27.2747,0.7566,62.6994,-2.7856,11.881,-0.2703
480361.0,-27.1024,-1.1013,60.3818,-1.8778,12.1508,-0.3384
480371.0,-28.1367,-1.3982,61.9045,-0.8407,12.4067,-0.4103
480381.0,-28.2228,-0.3926,64.9212,0.0341,12.3796,-0.5263
480391.0,-28.8262,1.1779,68.4359,0.4762,11.6495,-0.6215
480401.0,-28.5676,2.5187,70.3704,0.3986,10.3225,-0.7019
480411.0,-28.5676,2.241,71.3089,0.3539,8.9155,-0.7875
480421.0,-18.4258,-1.0822,78.4508,-3.7807,8.3755,-1.2084
480431.0,-29.4774,3.3232,62.9962,1.5804,4.9428,-0.9812
480441.0,-27.4376,2.8539,66.3481,-0.7194,5.2775,-1.2627
480451.0,-29.171,9.9599,64.4232,-0.0388,4.0659,-1.0382
480461.0,-27.3322,3.6775,68.1486,-0.4342,3.3566,-0.9887
480471.0,-26.4703,5.8035,62.9005,-0.5981,2.5158,-0.9509
480481.0,-26.4894,5.3056,65.2851,-0.9285,1.6107,-0.787
480491.0,-25.3498,3.3902,66.2428,-0.6268,1.094,-0.7003
480501.0,-26.8534,4.5394,65.7735,0.0096,0.1894,-0.5364
480511.0,-26.0968,5.2768,62.9005,0.2261,-0.2884,-0.3922
480521.0,-26.4799,5.5354,61.531,0.3081,-0.8046,-0.2602
480531.0,-26.6427,5.9089,58.1983,-0.0601,-1.2313,-0.1559
480541.0,-26.2117,5.1906,59.4911,-0.2219,-1.2058,-0.0117
480551.0,-26.116,5.5545,60.9181,-0.39,-1.0169,0.1038
480561.0,-27.8015,4.6926,66.6833,-0.1006,-1.5309,0.3347
480571.0,-28.0984,4.0127,69.7287,0.3283,-2.1779,0.5795
480581.0,-28.8549,3.4572,72.5252,0.9392,-3.0267,0.6981
480591.0,-30.3681,4.2425,75.6759,1.0999,-4.2596,0.8019
480601.0,-31.7854,3.8499,78.1755,1.3393,-5.6537,0.9535
480611.0,-32.1781,3.1316,77.8977,1.3739,-7.4634,0.9871
480621.0,-33.0304,3.0071,76.3176,0.878,-9.287,0.8998
480631.0,-33.0017,2.5857,72.5347,0.588,-10.8365,0.7742
480641.0,-32.111,2.2889,69.2307,0.2794,-11.9603,0.6242
480651.0,-32.0248,3.2178,65.649,-0.1282,-12.9617,0.4459
480661.0,-31.7854,3.9169,62.6994,-0.5624,-13.9855,0.3278
480671.0,-31.23,4.3958,59.223,-0.9062,-14.6538,0.2543
480681.0,-30.3585,4.4436,55.8998,-0.9977,-15.2535,0.2246
480691.0,-29.7839,5.0853,53.6014,-1.2425,-15.7942,0.1894
480701.0,-29.0369,4.4819,51.6764,-1.052,-16.1416,0.2575
480711.0,-26.8342,4.2234,49.2248,-0.7056,-16.4029,0.3113
480721.0,-25.2636,3.9744,46.8306,-0.3012,-16.6269,0.3916
480731.0,-23.8654,4.0989,44.1778,-0.0905,-16.9057,0.4805
480741.0,-22.4959,3.6105,41.3622,0.1144,-17.1846,0.5944
480751.0,-20.7146,2.6432,37.1772,0.4023,-17.2676,0.654
480761.0,-18.7514,1.9632,34.0455,0.721,-17.0627,0.6832
480771.0,-17.0084,1.3024,31.0576,1.0062,-16.8078,0.6774
480781.0,-14.4418,0.8523,28.2228,1.3,-16.4604,0.5811
480791.0,-12.0093,0.8906,25.5318,1.5038,-16.0267,0.5018
480801.0,-10.0652,1.4174,23.2812,1.5745,-15.5419,0.406
480811.0,-8.2073,1.9441,20.8583,1.4947,-15.0215,0.3459
480821.0,-6.11,2.4229,19.9868,1.6676,-14.3213,0.3512
480831.0,-3.9552,3.1603,18.7131,1.7538,-13.7258,0.3773
480841.0,-2.988,3.5817,17.7746,1.6346,-13.3044,0.3826
480851.0,-0.9864,3.8978,16.0028,1.4309,-12.8968,0.4023
480861.0,0.6895,4.2425,14.8536,1.0674,-12.5589,0.3879
480871.0,2.1739,4.8171,13.2351,0.6449,-12.2391,0.3805
480881.0,3.7733,4.6543,11.7507,0.2671,-11.8379,0.4369
480891.0,5.9951,4.2425,9.8833,0.0681,-11.2196,0.4268
480901.0,7.8338,3.9456,8.7053,-0.2134,-10.5183,0.4028
480911.0,8.6574,3.4189,8.1307,-0.2751,-9.7584,0.3666
480921.0,10.8409,2.9113,7.4412,-0.0633,-8.8991,0.2975
480931.0,12.8712,2.6145,6.2058,0.158,-7.9035,0.1639
480941.0,13.781,3.6105,5.7844,0.1187,-7.0425,0.0564
480951.0,14.6142,4.1276,5.7174,0.0559,-6.2273,0.0016
480961.0,15.7922,4.865,4.5969,-0.0027,-5.3605,0.0208
480971.0,16.5679,5.3439,4.1372,-0.2352,-4.5544,0.0628
480981.0,16.8839,5.0853,4.0893,-0.5555,-3.7945,0.125
480991.0,17.8607,4.3766,4.3,-0.837,-3.0735,0.1165
481001.0,18.1385,3.7445,4.3766,-1.1467,-2.4541,0.0239
481011.0,18.4066,2.5091,4.9608,-1.4144,-1.9353,-0.0702
481021.0,19.3643,1.6089,4.5586,-1.442,-1.2733,-0.2623
481031.0,20.0921,1.2354,3.8211,-1.4202,-0.4954,-0.5236
481041.0,19.8719,1.6089,3.2657,-1.3441,0.3118,-0.7769
481051.0,20.2933,2.2314,2.4995,-1.0616,1.3516,-0.9301
481061.0,20.2645,3.3806,1.6185,-0.9392,2.4855,-1.0807
481071.0,19.4888,4.4724,1.3408,-0.796,3.6577,-1.1137
481081.0,18.4354,5.4684,1.2641,-0.6699,4.9423,-1.0887
481091.0,17.3532,5.6599,1.6376,-0.5624,6.1906,-1.0099
481101.0,15.7443,5.4684,2.5666,-0.3842,7.4113,-0.9493
481111.0,14.6908,5.6599,3.0742,-0.2703,8.5793,-0.9493
481121.0,13.6374,6.1483,3.4572,-0.3565,9.751,-0.9402
481131.0,11.8752,6.6942,4.8171,-0.621,10.8237,-0.8657
481141.0,10.228,6.7325,6.9623,-0.9706,11.8188,-0.7285
481151.0,8.7245,6.1866,8.6862,-1.2223,12.626,-0.605
481161.0,6.7804,5.2194,11.3294,-1.5905,13.2235,-0.5066
481171.0,4.798,3.9169,13.4267,-1.9231,13.5242,-0.5108
481181.0,2.3367,2.2314,15.8496,-2.3333,13.6269,-0.6316
481191.0,-0.5267,0.9098,16.7977,-2.6441,13.4475,-0.7982
481201.0,-1.3408,0.0479,15.3325,-2.8835,13.6274,-1.0142
481211.0,-2.5857,0.182,13.2064,-2.9314,14.6517,-1.1611
481221.0,-4.6256,0.5171,13.1873,-2.7585,16.2055,-1.2659
481231.0,-7.2113,1.81,15.3229,-2.2445,17.4357,-1.2398
481241.0,-10.5728,3.5338,19.259,-1.8108,17.4357,-1.0839
481251.0,-15.2367,4.4149,25.0625,-1.4745,17.4357,-0.804
481261.0,-18.4928,4.0989,31.1725,-1.4505,17.4357,-0.5603
481271.0,-22.9939,2.3176,35.5778,-1.8486,17.4357,-0.4193
481281.0,-26.25,-1.5036,39.1883,-2.4397,17.4357,-0.4645
481291.0,-26.3649,-3.1891,40.0119,-2.7154,17.4357,-0.7482
481301.0,-29.8988,-3.2178,42.0613,-2.519,17.4357,-0.8663
481311.0,-33.3369,-4.6639,46.4475,-1.4436,17.4357,-0.8689
481321.0,-33.4422,-4.6639,51.8009,-0.2075,17.4357,-1.0302
481331.0,-36.2003,-3.0742,60.9181,0.7359,17.4357,-1.3425
481341.0,-38.5562,-0.0192,70.8875,1.0839,17.4357,-1.6288
481351.0,-39.3511,3.8499,78.4508,0.8668,17.4357,-1.8113
481361.0,-42.6551,6.1483,78.4508,0.2623,16.5886,-1.7209
481371.0,-40.4237,6.7325,78.4508,0.0649,13.8828,-1.5261
481381.0,-38.5466,7.5657,78.4508,-0.6178,11.7437,-1.3968
481391.0,-37.4262,8.8107,78.4508,-0.8961,9.5908,-1.1526
481401.0,-35.7885,9.8833,78.4508,-1.2063,7.4868,-0.7758
481411.0,-34.2179,9.73,78.4508,-1.392,5.4488,-0.3613
481421.0,-32.9538,7.6327,78.4508,-1.6756,3.6338,-0.0074
481431.0,-49.7228,-2.8635,78.4508,-2.4153,-1.0445,0.0027
481441.0,-28.9124,7.6902,61.2437,-1.6474,2.5882,0.0442
481451.0,-29.1805,0.5171,70.3416,-1.4234,0.6896,0.1575
481461.0,-27.0545,5.3151,57.8726,-1.4904,1.351,0.248
481471.0,-27.8494,1.0822,66.1279,-0.8338,1.2393,0.4172
481481.0,-26.5373,1.9537,64.5573,-0.0947,1.3138,0.5449
481491.0,-26.3171,-0.3831,69.3169,0.4959,1.0275,0.5284
481501.0,-24.9859,3.3998,68.2731,1.5272,0.4938,0.5768
481511.0,-27.246,4.9704,70.6673,1.1089,-0.5385,0.6673
481521.0,-28.0217,6.4739,70.7247,0.7928,-1.6416,0.7998
481531.0,-27.9355,6.6272,71.9697,0.4119,-2.7122,0.9865
481541.0,-29.171,6.8283,71.4717,0.0282,-3.6157,1.1488
481551.0,-30.6362,5.8227,73.0423,-0.1719,-4.9125,1.3234
481561.0,-30.6937,4.9799,71.5004,-0.2038,-6.1565,1.4601
481571.0,-30.4447,3.553,68.8955,-0.2746,-7.0132,1.5213
481581.0,-30.55,2.4421,68.4359,-0.1974,-7.7662,1.4958
481591.0,-30.3681,1.6376,67.3441,0.1064,-8.5452,1.4388
481601.0,-30.9235,1.6855,66.4439,0.4039,-9.1561,1.3979
481611.0,-30.8182,1.5131,66.8748,0.8801,-9.859,1.4112
481621.0,-31.048,1.8866,65.5532,1.2872,-10.8429,1.3883
481631.0,-30.3872,2.6719,63.3027,1.4064,-11.7326,1.3755
481641.0,-30.1669,3.3902,60.4488,1.3558,-12.5078,1.3617
481651.0,-29.3816,3.6871,56.8096,1.0972,-13.3209,1.3399
481661.0,-29.3338,3.9169,53.6876,0.6268,-13.9195,1.3138
481671.0,-27.5142,2.6911,51.7339,0.5885,-14.2713,1.2632
481681.0,-26.0393,3.2944,48.7459,0.2772,-14.6943,1.1174
481691.0,-25.5988,4.3479,46.9742,0.0463,-15.0146,1.06
481701.0,-24.3059,4.4628,44.3502,-0.0463,-15.3195,1.1158
481711.0,-22.63,4.3958,40.7493,-0.0841,-15.444,1.1313
481721.0,-21.3563,3.7062,39.0446,0.0596,-15.3568,1.176
481731.0,-19.4888,3.7828,37.474,0.6396,-15.1514,1.293
481741.0,-17.2191,3.8978,34.7734,1.3941,-14.8678,1.4271
481751.0,-14.4897,4.4532,31.3928,1.8198,-14.507,1.5554
481761.0,-12.8521,5.0278,28.5102,1.9332,-14.06,1.706
481771.0,-10.4962,5.1332,26.0968,1.7544,-13.6971,1.8017
481781.0,-8.5712,5.1236,24.5645,1.4181,-13.24,1.8991
481791.0,-6.9049,4.549,23.1567,1.2191,-12.8314,1.9608
481801.0,-4.1563,4.3287,22.2469,1.1893,-12.2375,2.0124
481811.0,-2.4612,3.9073,21.452,1.209,-11.6001,2.0316
481821.0,-0.8045,3.4764,20.4082,1.1792,-11.0381,2.0438
481831.0,1.561,3.304,19.0483,1.0823,-10.3411,1.9997
481841.0,3.5817,2.7964,18.8567,0.8429,-9.7047,1.9092
481851.0,5.4396,2.6528,19.6133,0.5763,-9.1837,1.7677
481861.0,6.5122,2.5762,19.9293,0.2836,-8.8192,1.6304
481871.0,7.4891,2.4995,20.4082,0.1495,-8.4675,1.524
481881.0,8.7819,2.7581,20.4561,0.1916,-8.111,1.4697
481891.0,9.481,2.7581,20.6955,0.1564,-7.8673,1.4223
481901.0,10.3621,2.7581,20.0443,0.0734,-7.6667,1.3851
481911.0,11.6646,2.3846,19.1919,0.0112,-7.3724,1.3494
481921.0,12.651,2.7102,18.5215,-0.1261,-7.0851,1.2776
481931.0,12.9095,2.3463,18.9525,-0.1517,-6.7679,1.2643
481941.0,13.9343,2.0877,18.6365,-0.1075,-6.512,1.259
481951.0,15.026,1.7526,18.9142,-0.0942,-6.3002,1.1834
481961.0,15.5336,1.8675,18.4449,-0.2772,-6.164,1.1052
481971.0,16.271,1.9249,18.397,-0.4709,-6.148,1.003
481981.0,17.0084,1.9632,17.8033,-0.7497,-6.2087,0.9413
481991.0,17.3244,2.2793,16.5583,-1.309,-6.3752,0.8626
482001.0,16.6445,1.7909,16.2327,-1.8842,-6.6434,0.7913
482011.0,17.4298,0.9768,14.5472,-2.2817,-6.7498,0.663
482021.0,18.6173,-0.3831,13.4554,-2.4243,-6.636,0.4927
482031.0,19.5463,-1.1396,12.22,-2.486,-6.4024,0.2474
482041.0,20.1879,-1.7621,10.4866,-2.3812,-6.0209,-0.0479
482051.0,20.7912,-1.81,9.6247,-2.212,-5.5462,-0.357
482061.0,21.318,-1.3216,8.0349,-2.0124,-5.038,-0.6492
482071.0,21.9979,-0.7757,6.1196,-1.8837,-4.4426,-0.9514
482081.0,22.4193,0.1437,3.3519,-1.8964,-3.7328,-1.209
482091.0,22.7066,1.2833,0.5267,-1.9145,-2.768,-1.4154
482101.0,24.1719,2.2889,-0.5363,-1.6565,-1.2584,-1.5256
482111.0,23.6739,4.118,-2.8347,-1.8725,-0.009,-1.4995
482121.0,23.0801,5.2385,-4.0989,-1.8826,1.4761,-1.4011
482131.0,21.9405,6.0717,-5.296,-2.5238,2.9154,-1.2377
482141.0,20.8966,5.0757,-4.9225,-2.784,4.4527,-1.028
482151.0,20.4944,4.5107,-4.5107,-3.0671,6.0879,-0.97
482161.0,19.3643,3.4572,-3.2178,-3.289,7.6661,-0.9615
482171.0,17.9757,2.49,-0.4788,-3.1155,9.3418,-0.9525
482181.0,16.4721,2.4804,2.8156,-2.6302,10.8583,-0.9424
482191.0,14.5184,2.1165,5.8993,-1.8518,12.3764,-0.8929
482201.0,12.2583,2.6528,7.9487,-0.9966,13.8248,-0.7934
482211.0,9.7492,2.2218,10.9654,-0.158,14.9401,-0.7215
482221.0,7.3263,2.4134,12.9478,0.7152,16.0655,-0.6731
482231.0,4.6256,2.2601,15.8209,1.1951,16.8855,-0.7513
482241.0,1.1205,2.2697,18.1289,1.242,17.2037,-0.8684
482251.0,-1.3312,2.6049,19.3547,1.061,17.4357,-0.9855
482261.0,-2.6911,2.8347,21.5478,0.9738,17.4357,-1.0621
482271.0,-5.363,2.9401,25.5222,1.1962,17.4357,-1.0243
482281.0,-7.8434,3.2082,28.5389,1.6331,17.4357,-0.9892
482291.0,-9.8833,4.4532,30.7415,1.7389,17.4357,-1.0025
482301.0,-12.2487,6.1292,35.348,1.4048,17.4357,-1.0105
482311.0,-14.9877,7.3263,39.897,0.8785,17.4357,-0.9067
482321.0,-17.9852,6.6176,44.3215,0.3922,17.4357,-0.738
482331.0,-18.9717,2.9113,49.1769,-0.0208,17.4357,-0.7966
482341.0,-18.1193,2.0494,52.6246,-0.68,17.4357,-1.1685
482351.0,-21.4904,2.5187,57.3746,-1.7358,16.4566,-1.4633
482361.0,-22.5534,2.8347,61.7417,-1.7421,15.2392,-1.442
482371.0,-21.5957,4.0223,63.6283,-1.5101,14.4479,-1.3196
482381.0,-21.6436,5.1619,66.7408,-1.1063,13.5577,-1.1382
482391.0,-21.2892,6.4165,68.0815,-0.9408,12.2934,-0.8929
482401.0,-20.2454,7.8721,67.4686,-1.0765,10.8647,-0.5646
482411.0,-20.5614,5.1811,67.1526,-1.3941,9.5945,-0.3352
482421.0,-19.5271,1.1684,64.9403,-1.3351,8.1355,-0.4177
482431.0,-18.7227,0.2682,58.1408,-2.2684,7.0388,-0.8328
