time_ms,ax,ay,az,gx,gy,gz
495451.0,19.2781,3.7637,36.8516,-0.2538,0.4677,-0.1607
495461.0,19.3739,3.5626,37.0048,-0.2591,0.5582,-0.1314
495471.0,19.393,3.3902,37.5028,-0.2549,0.6806,-0.1293
495481.0,19.4026,2.9688,37.6368,-0.2309,0.7258,-0.1527
495491.0,19.2494,2.8635,38.0774,-0.1793,0.7902,-0.1703
495501.0,19.01,2.6336,38.8052,-0.0793,0.8141,-0.1974
495511.0,18.7897,2.7677,38.8148,-0.0388,0.745,-0.2437
495521.0,18.5694,3.0071,38.6328,-0.0367,0.7098,-0.2788
495531.0,18.4354,3.0263,38.5466,-0.0718,0.7061,-0.3225
495541.0,18.1672,2.8347,38.8723,-0.0766,0.688,-0.356
495551.0,18.4641,2.9209,38.7573,-0.1485,0.6635,-0.4209
495561.0,18.2821,2.988,38.7669,-0.2118,0.63,-0.4895
495571.0,18.3683,3.237,39.1404,-0.24,0.5401,-0.5326
495581.0,18.397,3.6583,39.3703,-0.2639,0.4342,-0.547
495591.0,18.2534,4.0031,39.4469,-0.1346,0.4161,-0.513
495601.0,18.2247,4.0989,39.7725,-0.0367,0.3682,-0.4613
495611.0,18.2821,4.3383,39.4277,0.0378,0.2581,-0.439
495621.0,18.4066,4.4436,38.968,-0.0085,0.2102,-0.3895
495631.0,18.5024,4.8267,39.3703,-0.067,0.1687,-0.3491
495641.0,18.3779,4.7788,39.3319,-0.0756,0.1155,-0.2863
495651.0,18.7993,4.4819,40.1077,0.0963,0.1112,-0.2144
495661.0,18.895,4.9608,39.9832,0.0708,-0.0021,-0.1612
495671.0,18.8855,5.1715,39.7821,-0.0745,-0.1719,-0.1192
495681.0,18.9812,4.9895,39.8587,-0.1655,-0.2251,-0.0362
495691.0,19.0195,4.865,40.0311,-0.2522,-0.3139,0.0202
495701.0,19.2111,4.4819,40.1843,-0.2852,-0.3938,0.0644
495711.0,19.6229,3.9648,40.7493,-0.1745,-0.365,0.1133
495721.0,19.9676,3.6488,41.3431,0.0181,-0.3991,0.1038
495731.0,19.7857,4.0031,41.4388,-0.0537,-0.5779,0.0633
495741.0,19.7665,4.3958,41.1898,-0.1612,-0.7944,0.1
495751.0,19.9198,4.5298,41.276,-0.3272,-1.0105,0.124
495761.0,20.1592,4.7022,40.4812,-0.4576,-1.1494,0.1538
495771.0,20.1017,3.9169,41.8315,-0.406,-1.1408,0.2112
495781.0,20.2454,3.7445,41.8411,-0.2639,-1.2531,0.2442
495791.0,20.2454,3.62,42.2912,-0.3214,-1.5602,0.2203
495801.0,20.3411,4.0318,41.7932,-0.3991,-1.8321,0.2363
495811.0,20.3028,3.6392,41.7453,-0.4044,-2.0534,0.2448
495821.0,20.7529,3.304,41.6208,-0.1575,-2.1982,0.2841
495831.0,20.3316,3.1508,40.778,-0.2975,-2.4594,0.2528
495841.0,20.5806,2.241,41.3048,-0.066,-2.5275,0.2336
495851.0,20.4752,2.3367,40.5386,-0.1969,-2.8622,0.1405
495861.0,20.7051,2.2889,39.4852,-0.4182,-3.3284,-0.0021
495871.0,20.6189,2.5953,38.4892,-0.6518,-3.5806,-0.1117
495881.0,20.571,2.8156,37.0527,-0.8014,-3.8168,-0.2224
495891.0,20.7146,3.1029,34.9745,-1.0355,-4.0345,-0.3065
495901.0,21.2605,3.7445,32.1685,-1.4559,-3.9653,-0.4432
495911.0,21.136,4.0797,31.6897,-1.8927,-3.9424,-0.5784
495921.0,20.9636,4.7309,30.8277,-2.2977,-4.0547,-0.6423
495931.0,21.3467,5.3056,29.2667,-2.5313,-4.093,-0.6401
495941.0,20.7434,5.4396,28.4623,-2.7462,-3.9765,-0.6295
495951.0,21.5095,6.6846,25.867,-2.6622,-3.8839,-0.5108
495961.0,22.2757,6.5793,24.2772,-2.6212,-3.5199,-0.3437
495971.0,21.4233,6.7612,22.9269,-2.4951,-3.1751,-0.1868
495981.0,22.2661,7.1635,21.0211,-2.1449,-2.9016,0.041
495991.0,22.7832,7.2305,18.5503,-1.8842,-2.3322,0.2868
496001.0,22.5342,7.1251,16.7115,-1.7123,-1.7549,0.5225
496011.0,22.7832,6.7516,14.3844,-1.6107,-1.1158,0.7333
496021.0,22.4576,6.0142,11.9519,-1.5857,-0.2416,0.9078
496031.0,22.0745,4.865,11.5975,-1.4372,0.7066,1.1084
496041.0,22.4097,3.5817,11.3102,-1.0754,1.8023,1.226
496051.0,21.9788,2.4229,11.6741,-0.7529,2.8915,1.2739
496061.0,21.1264,1.6568,12.287,-0.4661,3.9009,1.2558
496071.0,20.3699,0.7183,13.8672,-0.1596,4.8119,1.1722
496081.0,19.6229,0.2011,15.2175,0.0851,5.476,0.9988
496091.0,19.2111,0.7087,16.5775,0.2533,5.9469,0.8136
496101.0,18.6365,1.5514,17.9565,0.4895,6.372,0.7114
496111.0,17.3915,3.1699,18.1959,0.6939,6.6982,0.7226
496121.0,15.9071,3.62,18.1193,0.8647,7.0899,0.8508
496131.0,15.0164,2.9784,17.6309,1.1105,7.5783,0.9738
496141.0,14.4514,1.9058,16.8552,1.2404,8.1105,0.9722
496151.0,12.8233,0.9194,16.702,1.2957,8.7607,0.8743
496161.0,11.3294,0.0192,17.1712,1.2819,9.3221,0.6657
496171.0,10.1323,-0.3543,16.587,1.1589,9.9042,0.3666
496181.0,9.5385,0.5076,16.4338,0.8721,10.6667,0.0506
496191.0,7.7285,2.2889,17.583,0.4518,11.383,-0.1666
496201.0,5.861,3.8882,19.3164,0.0495,12.021,-0.1426
496211.0,3.9744,4.7118,21.7872,-0.0729,12.6744,0.0825
496221.0,2.2027,4.6543,24.0474,-0.1655,13.2751,0.3299
496231.0,0.9385,4.1084,26.7384,-0.0575,13.7721,0.571
496241.0,-0.8045,3.553,29.5061,0.116,14.1297,0.7716
496251.0,-3.1125,2.3846,31.977,0.2698,14.374,0.9881
496261.0,-4.4053,0.5171,34.5627,0.4741,14.5889,1.1041
496271.0,-4.4628,-0.747,36.9282,0.605,14.7315,1.0307
496281.0,-6.9911,-0.9768,40.0119,0.4331,14.5288,0.8626
496291.0,-8.5904,-1.6951,43.1914,0.4007,14.1622,0.6683
496301.0,-8.9926,-0.5171,44.9631,0.919,13.8418,0.4608
496311.0,-10.3142,2.6432,45.9782,1.5708,13.7386,0.3762
496321.0,-12.2583,7.1251,46.2847,2.5313,13.8722,0.5949
496331.0,-14.5472,9.8833,48.4778,3.2459,13.9701,1.0408
496341.0,-16.702,11.4922,49.7515,3.4678,13.8067,1.558
496351.0,-18.0331,10.6398,51.121,3.0581,13.2273,1.9715
496361.0,-20.1783,7.7955,51.437,2.0098,12.4035,2.163
496371.0,-20.0155,3.9265,52.0404,1.1978,11.8948,2.1258
496381.0,-19.6229,1.2354,53.0938,0.5571,11.8188,1.8406
496391.0,-19.7953,-0.6225,55.3923,0.1666,11.5623,1.4324
496401.0,-20.5039,-0.4597,57.2693,-0.0644,11.1584,0.9583
496411.0,-20.3794,1.063,58.6101,-0.2613,10.8157,0.5896
496421.0,-22.0171,1.81,61.9907,-0.3932,10.4698,0.3986
496431.0,-21.069,2.8635,64.8158,-0.2639,9.8733,0.2889
496441.0,-21.4616,3.802,67.4207,-0.2517,8.9911,0.2469
496451.0,-21.0402,4.9416,68.8094,-0.066,7.9812,0.3102
496461.0,-20.1975,5.8323,68.3688,0.3767,7.0313,0.4901
496471.0,-19.8623,5.8706,66.1183,0.9184,6.2709,0.7221
496481.0,-20.1209,4.7692,63.9635,1.5288,5.7878,0.9418
496491.0,-18.0427,2.2027,60.037,2.079,5.5946,0.9078
496501.0,-17.1042,0.996,56.4744,1.9901,5.5819,0.5603
496511.0,-17.2095,1.6185,54.8272,1.2308,5.5276,0.0623
496521.0,-17.6213,3.4093,55.9764,0.5018,5.5127,-0.3464
496531.0,-18.5599,4.5873,59.4337,-0.0325,5.3594,-0.5853
496541.0,-19.1345,6.1866,62.9005,-0.1474,4.9077,-0.6976
496551.0,-19.6133,7.5657,67.7942,0.1873,4.234,-0.647
496561.0,-21.1456,9.6438,70.1788,0.7242,3.2166,-0.4464
496571.0,-22.563,10.7452,70.9737,1.3313,2.1593,-0.1075
496581.0,-22.8215,11.7699,69.7862,1.5469,1.1941,0.149
496591.0,-23.626,12.2392,68.886,1.3542,0.1011,0.3858
496601.0,-24.3634,12.1051,67.6027,0.9386,-0.8886,0.5646
496611.0,-24.4209,10.8697,66.7216,0.4294,-1.8502,0.5938
496621.0,-24.8518,10.0269,65.3713,-0.3916,-2.7404,0.4784
496631.0,-25.0242,10.5153,66.3002,-0.9929,-3.4114,0.3379
496641.0,-26.3554,11.406,68.4933,-1.3606,-4.3729,0.3342
496651.0,-26.5948,12.4786,67.9187,-1.45,-5.4052,0.447
496661.0,-26.7768,13.3884,67.641,-1.756,-6.2055,0.6119
496671.0,-27.4663,13.5033,67.8421,-1.7757,-7.1846,0.8854
496681.0,-27.6195,13.0628,67.3441,-1.3638,-7.8726,1.2702
496691.0,-27.9834,11.7412,66.8748,-0.7641,-8.4984,1.657
496701.0,-27.5525,10.1131,66.0033,-0.4012,-9.4258,1.9177
496711.0,-26.9683,8.7436,63.1878,-0.3294,-10.323,2.0321
496721.0,-26.4416,7.4412,60.9468,-0.3491,-11.0828,2.0045
496731.0,-25.5509,6.7612,58.0259,-0.357,-11.6692,1.9348
496741.0,-24.9093,6.7516,55.5359,-0.4534,-12.2631,1.8209
496751.0,-23.8367,7.0485,52.9597,-0.596,-12.717,1.7661
496761.0,-23.0035,7.0677,50.1633,-0.828,-13.1011,1.6751
496771.0,-22.448,6.6655,48.5831,-1.0435,-13.4183,1.6128
496781.0,-21.0211,6.7229,46.9742,-0.9216,-13.5151,1.6043
496791.0,-19.9772,7.1156,45.8537,-0.7391,-13.6652,1.6607
496801.0,-18.9525,7.0102,43.7277,-0.3368,-13.7514,1.8017
496811.0,-17.9182,6.5027,41.8506,-0.0617,-13.7881,1.9608
496821.0,-15.4953,5.6599,38.5275,0.2081,-13.7509,2.0598
496831.0,-13.398,5.3917,36.3248,0.0564,-13.7402,2.0518
496841.0,-12.0955,5.2194,34.1988,-0.2581,-13.8637,2.013
496851.0,-10.1514,4.9129,32.2547,-0.6715,-13.9738,1.9534
496861.0,-8.4467,4.0893,29.5157,-0.9897,-13.9818,1.8698
496871.0,-7.0198,3.3136,27.7344,-1.2584,-13.919,1.7177
496881.0,-5.0757,2.8252,25.3019,-1.3457,-13.6822,1.5538
496891.0,-2.8347,2.4517,23.1376,-1.3095,-13.3608,1.3952
496901.0,-1.4078,2.5187,21.2701,-1.2191,-12.9378,1.2866
496911.0,0.8045,2.5091,19.7091,-1.0131,-12.4435,1.2196
496921.0,2.5857,2.3655,17.6117,-0.804,-11.8959,1.1456
496931.0,4.5011,2.4325,15.7826,-0.7827,-11.3718,1.0616
496941.0,6.3494,2.5187,14.2694,-0.829,-10.7928,0.9743
496951.0,7.8721,2.308,13.0915,-0.9434,-10.2921,0.8716
496961.0,9.3757,2.0973,12.1817,-1.0041,-9.8372,0.7476
496971.0,10.9654,2.0973,10.7643,-1.0626,-9.3146,0.6369
496981.0,12.1625,2.241,9.2703,-1.1871,-8.7304,0.5353
496991.0,13.1777,2.3272,8.4372,-1.185,-8.1073,0.4528
497001.0,14.5376,2.1069,7.106,-1.0972,-7.3628,0.3858
497011.0,15.8496,2.0877,5.4109,-1.003,-6.5045,0.3001
497021.0,16.9031,2.0973,4.9321,-0.8828,-5.6015,0.2304
497031.0,17.7937,1.8483,4.5298,-0.7785,-4.715,0.1133
497041.0,18.7897,1.9632,3.8786,-0.7444,-3.7977,0.0223
497051.0,18.8376,2.1644,4.1372,-0.6433,-2.9405,-0.0431
497061.0,19.6229,1.9824,3.6488,-0.547,-2.0502,-0.1506
497071.0,19.9102,2.4708,3.6296,-0.4725,-1.1265,-0.2389
497081.0,20.0251,2.3272,3.8882,-0.4438,-0.3001,-0.3469
497091.0,20.3699,2.1835,4.118,-0.3294,0.5912,-0.4496
497101.0,20.4848,2.9305,3.7254,-0.3001,1.5176,-0.5539
497111.0,20.6763,3.3902,4.4149,-0.3044,2.4275,-0.5981
497121.0,20.571,3.9456,4.9704,-0.3097,3.3858,-0.5944
497131.0,20.2837,4.367,5.7652,-0.2778,4.375,-0.5497
497141.0,19.642,4.5873,7.422,-0.1357,5.3291,-0.4539
497151.0,18.6077,4.6352,8.9639,0.1634,6.2369,-0.3315
497161.0,17.3532,4.0223,10.726,0.5523,7.1037,-0.2059
497171.0,15.9837,3.5243,11.1474,0.8684,8.0445,-0.166
497181.0,14.7483,2.8443,12.718,1.1733,9.1529,-0.249
497191.0,13.283,2.739,15.7251,1.5421,10.2676,-0.4103
497201.0,11.7795,3.9073,18.7227,1.8347,11.243,-0.5651
497211.0,9.7013,5.4684,22.7736,1.9406,11.8794,-0.647
497221.0,7.5944,6.7708,27.6961,1.7405,11.9523,-0.6465
497231.0,6.3303,7.5657,31.4885,1.3255,11.5868,-0.6162
497241.0,4.8363,7.853,35.1181,0.6726,10.7971,-0.5656
497251.0,4.3191,7.0198,37.2825,0.1208,9.7142,-0.531
497261.0,3.9456,6.3398,37.7805,-0.3496,8.6788,-0.5337
497271.0,3.0263,5.2672,36.2961,-0.7705,7.837,-0.5587
497281.0,3.237,4.9512,34.0264,-0.9573,7.5821,-0.5784
497291.0,2.2601,4.2042,33.3081,-1.0296,7.6119,-0.5332
497301.0,1.494,2.241,32.4941,-0.9408,7.6449,-0.5981
497311.0,2.4517,0.9098,31.1246,-0.9003,7.8971,-0.803
497321.0,2.2505,0.7087,30.9905,-1.0286,8.1615,-1.1153
497331.0,1.2546,1.9154,31.613,-1.2265,8.2004,-1.4223
497341.0,1.1205,2.988,31.613,-1.7054,8.1701,-1.6304
497351.0,-0.5746,3.8595,31.8908,-2.3317,7.9716,-1.7001
497361.0,-1.7334,3.8882,32.044,-2.8755,7.8268,-1.648
497371.0,-3.1029,2.624,31.8812,-2.8819,8.2568,-1.5022
497381.0,-3.4955,0.5459,32.475,-2.154,9.0566,-1.4016
497391.0,-3.304,-0.1437,32.8484,-1.2568,10.2394,-1.4543
497401.0,-4.4053,0.0383,35.5395,-0.5044,11.3292,-1.5639
497411.0,-6.2249,0.7757,39.399,-0.2214,11.6777,-1.7507
497421.0,-7.8434,1.3599,42.3965,-0.281,11.5969,-1.9119
497431.0,-8.8969,0.5267,44.2448,-0.7902,11.2941,-2.1476
497441.0,-9.5577,0.2298,46.9838,-1.4016,10.8338,-2.5052
497451.0,-13.6853,-0.1532,49.9622,-1.6825,10.1176,-2.7526
497461.0,-13.5703,0.3543,50.6517,-0.9839,9.9649,-2.8915
497471.0,-13.7044,2.5283,51.2359,0.0223,10.3145,-2.9107
497481.0,-15.2463,5.3247,51.5041,1.0217,10.382,-2.7925
497491.0,-15.208,8.8298,50.6134,1.4676,10.5023,-2.5909
497501.0,-15.706,11.9997,51.0444,0.9823,10.3022,-2.3046
497511.0,-16.5296,14.0109,51.868,-0.1064,9.5897,-1.9028
497521.0,-16.9318,12.6605,52.6533,-1.342,8.9704,-1.4984
497531.0,-17.2766,10.0269,53.9078,-2.3743,8.4521,-1.1802
497541.0,-19.8144,4.5011,56.8192,-2.7473,7.895,-0.9083
497551.0,-20.2454,-0.8236,56.7713,-2.2961,7.6374,-0.9743
497561.0,-19.2685,-2.8826,57.413,-1.3941,7.9407,-1.325
497571.0,-20.1688,-0.4788,59.0314,-0.6045,8.2254,-1.632
497581.0,-22.1128,2.2122,61.8949,-0.0564,8.1775,-1.7618
497591.0,-22.3714,5.2577,63.9635,0.1697,7.5922,-1.7203
497601.0,-22.7736,7.3741,65.4479,0.0005,6.8792,-1.5463
497611.0,-23.7313,8.5329,66.3673,-0.1777,5.9671,-1.3026
497621.0,-23.7505,9.347,66.0704,-0.2192,5.1615,-0.9807
497631.0,-24.6986,8.9352,64.8063,-0.2144,4.4208,-0.6502
497641.0,-24.6507,8.169,63.2069,-0.2107,3.993,-0.3852
497651.0,-25.2157,5.928,64.1071,-0.1048,3.7333,-0.2246
497661.0,-24.6507,4.5777,64.5189,0.2661,3.4071,-0.2043
497671.0,-24.7656,4.3862,66.2045,0.6859,3.0724,-0.2198
497681.0,-24.5454,5.0757,67.7272,1.2595,2.6818,-0.2331
497691.0,-24.3442,6.9719,68.9913,1.5516,2.0875,-0.2208
497701.0,-24.8997,9.1075,69.8341,1.4548,1.2654,-0.1229
497711.0,-25.934,11.0325,69.6617,0.8604,0.0867,0.0415
497721.0,-26.7289,11.2336,70.0448,0.1751,-1.1499,0.2538
497731.0,-26.8342,11.3677,69.2882,-0.2591,-2.1833,0.5215
497741.0,-27.0257,10.4483,69.3744,-0.2719,-3.098,0.803
497751.0,-26.7384,9.5672,68.0528,0.017,-3.8967,1.0695
497761.0,-26.1064,9.414,66.1183,0.2054,-4.6868,1.2696
497771.0,-25.9627,9.5481,63.7432,0.3006,-5.3568,1.5447
497781.0,-25.436,8.8777,61.8757,0.3778,-6.0272,1.7624
497791.0,-24.44,8.3031,59.6348,0.3799,-6.5939,1.9587
497801.0,-24.6986,6.7038,57.9205,0.3874,-7.1862,2.1167
497811.0,-24.0761,5.5929,56.168,0.8945,-7.3777,2.2391
497821.0,-23.2333,5.0853,54.2239,1.243,-7.3905,2.3365
497831.0,-23.1567,3.7541,54.9709,1.9124,-7.2506,2.4163
497841.0,-22.132,3.8211,55.8615,2.4498,-7.4086,2.4174
497851.0,-22.2565,5.114,55.6029,2.4908,-7.9402,2.4323
497861.0,-21.3659,5.6503,55.3156,2.3679,-8.6522,2.4935
497871.0,-19.8336,5.9185,53.2758,2.1077,-9.4131,2.5164
497881.0,-20.0059,5.0949,51.2168,1.6969,-10.0814,2.5116
497891.0,-18.5982,4.3191,48.2767,1.3159,-10.6343,2.402
497901.0,-18.4354,3.8978,45.6048,0.8163,-11.1094,2.1998
497911.0,-17.9374,3.3232,43.4212,0.5385,-11.4016,1.9443
497921.0,-15.4761,4.3096,40.7397,0.3028,-11.5452,1.6932
497931.0,-15.5432,5.545,38.5371,-0.0048,-11.6421,1.549
497941.0,-14.71,6.4356,37.723,0.1793,-11.4899,1.5772
497951.0,-11.9997,7.7381,35.9418,0.3517,-11.2579,1.6863
497961.0,-11.0804,8.2935,34.6489,0.2868,-11.1696,1.8379
497971.0,-10.7739,8.2648,33.5571,0.1101,-11.2904,1.9683
497981.0,-8.8202,7.5465,32.1398,0.0665,-11.3601,2.1221
497991.0,-7.4124,7.3646,29.9946,0.0479,-11.2914,2.2445
498001.0,-6.177,6.5505,28.8741,0.3134,-11.1807,2.3908
498011.0,-3.8211,5.6886,26.4511,0.696,-10.961,2.5275
498021.0,-2.0494,5.2481,23.3674,0.7285,-10.6156,2.5749
498031.0,-1.5514,4.3383,20.6476,0.7247,-10.1453,2.5749
498041.0,0.929,3.553,18.2055,0.7008,-9.4711,2.478
498051.0,3.6296,3.6583,16.6253,0.5034,-8.6431,2.3184
498061.0,4.9416,4.0893,16.4817,0.1937,-7.9806,2.2051
498071.0,6.0238,4.8267,15.9071,-0.1793,-7.4549,2.1726
498081.0,7.422,5.7078,15.6102,-0.7205,-6.9685,2.2641
498091.0,7.8243,5.3822,14.9207,-1.3287,-6.5163,2.4078
498101.0,8.418,4.2904,14.777,-1.9082,-6.0469,2.5483
498111.0,9.0788,2.4134,16.204,-2.1721,-5.4451,2.5589
498121.0,9.4619,0.1532,17.5447,-2.0231,-5.0423,2.4717
498131.0,10.6686,-1.4557,17.6309,-1.4702,-4.5176,2.1795
498141.0,12.1721,-1.4461,17.3532,-0.9945,-3.9999,1.8518
498151.0,12.9957,-0.7757,17.4202,-0.5896,-3.5428,1.5069
498161.0,13.4171,0.5363,16.7498,-0.3086,-3.1496,1.2191
498171.0,13.8959,1.7717,15.7634,-0.3826,-2.8825,1.0424
498181.0,13.9343,3.0742,14.7579,-0.6737,-2.6861,0.9301
498191.0,13.6565,3.1987,13.6853,-1.0137,-2.4727,0.8508
498201.0,14.0396,2.7007,12.5265,-1.3345,-2.1907,0.737
498211.0,14.1162,2.0016,11.8848,-1.6166,-1.7943,0.5731
498221.0,14.1066,1.1109,11.0038,-1.7166,-1.3782,0.332
498231.0,14.4801,0.2203,10.0365,-1.6299,-0.8221,0.0277
498241.0,14.9781,-0.4501,8.418,-1.4181,-0.1123,-0.4087
498251.0,14.5472,0.0192,7.0581,-1.135,0.8338,-0.8466
498261.0,14.2694,1.5131,5.7557,-0.8024,2.0454,-1.2207
498271.0,13.4075,3.8499,6.043,-0.2613,3.5646,-1.3893
498281.0,12.4115,6.7804,6.1004,0.1697,4.996,-1.2558
498291.0,11.5209,8.3797,7.4412,0.6141,6.3981,-0.9025
498301.0,11.1953,8.6191,9.2512,0.8056,7.6358,-0.522
498311.0,10.726,7.8626,12.153,0.9126,8.6809,-0.2421
498321.0,9.9695,6.3494,15.4282,0.8503,9.2843,-0.0952
498331.0,9.3278,5.2864,18.7514,0.754,9.5312,-0.0761
498341.0,8.5904,4.7884,21.1552,0.6359,9.5269,-0.0979
498351.0,8.102,4.1468,22.7449,0.4773,9.3913,-0.1341
498361.0,7.0964,3.4668,23.0993,0.1602,9.172,-0.215
498371.0,5.6216,2.3655,21.8064,-0.2559,9.023,-0.3714
498381.0,4.5586,0.5555,21.0498,-0.5561,9.3364,-0.6401
498391.0,4.9321,-0.8332,20.8487,-0.6774,10.0319,-1.0765
498401.0,4.1755,-0.9673,22.6587,-0.6412,10.7614,-1.492
498411.0,2.2505,-0.6129,24.2772,-0.6353,11.3388,-1.872
498421.0,-1.4174,-0.7087,25.6371,-0.8801,11.6086,-2.2088
498431.0,-3.9265,-2.5091,27.3992,-1.0552,11.8214,-2.6414
498441.0,-5.4205,-3.1699,28.0217,-1.2286,12.1598,-3.2092
498451.0,-9.5002,-2.2027,31.1534,-0.8301,12.7824,-3.5955
498461.0,-12.4977,-0.6512,33.2219,0.0761,13.6322,-3.7902
498471.0,-13.6757,1.4557,35.53,0.9083,14.606,-3.8754
498481.0,-15.8783,3.4189,39.8395,1.2962,15.2482,-3.9414
498491.0,-18.2534,4.9129,44.5705,1.1855,15.0636,-4.06
498501.0,-19.1345,7.0677,49.4546,0.6263,14.2713,-4.1851
498511.0,-22.5055,9.5864,52.3181,-0.4603,12.9277,-4.1856
498521.0,-24.0857,11.1282,53.9845,-1.5346,11.6964,-4.0366
498531.0,-26.6044,11.9423,54.1664,-2.3754,10.878,-3.7296
498541.0,-27.3226,11.4826,54.6644,-2.6121,10.2958,-3.3731
498551.0,-25.7425,11.9423,55.1911,-2.6526,10.3448,-3.0639
498561.0,-27.562,12.4115,58.1599,-2.6159,9.8313,-2.7404
498571.0,-25.8478,13.6757,59.5677,-2.0896,9.072,-2.37
498581.0,-28.0026,15.773,58.6962,-2.3216,8.3143,-1.8698
498591.0,-28.807,16.4338,58.294,-2.6238,7.5198,-1.1909
498601.0,-29.6019,14.461,58.045,-2.5935,6.8882,-0.4911
498611.0,-29.3625,12.1338,55.5359,-2.0018,6.7419,0.0921
498621.0,-28.6634,10.0173,54.674,-1.5921,6.9739,0.5731
498631.0,-30.1669,7.6327,55.6891,-0.8599,7.1351,0.9605
498641.0,-30.1478,4.5777,57.9684,0.1032,7.4379,1.2302
498651.0,-29.0273,2.6624,59.9125,0.9099,7.5156,1.2462
498661.0,-28.2612,1.5993,63.5038,1.293,7.2979,1.0722
498671.0,-28.7783,1.81,66.5205,1.2143,6.3997,0.8168
498681.0,-28.2707,2.2505,69.2499,0.7891,5.1088,0.4746
498691.0,-27.8494,4.4628,69.2978,-0.033,3.729,0.1671
498701.0,-27.7249,6.2632,70.4566,-0.7162,2.2445,0.0782
498711.0,-27.0257,7.9775,69.1541,-1.1935,1.0419,0.1676
498721.0,-26.6139,7.8051,69.0583,-1.3574,-0.1261,0.3927
498731.0,-26.1447,6.5697,67.143,-1.2904,-1.2526,0.5651
498741.0,-25.0434,5.2672,64.4615,-1.0733,-2.2157,0.5901
498751.0,-24.5454,4.6543,59.788,-0.9243,-2.9357,0.571
498761.0,-23.7505,4.8937,55.5742,-0.7317,-3.2443,0.5034
498771.0,-23.2046,5.047,51.8393,-0.5566,-3.2581,0.4794
498781.0,-23.0801,5.6407,49.4642,-0.3501,-3.016,0.4821
498791.0,-22.6013,6.0813,49.0716,-0.0963,-2.6297,0.5119
498801.0,-22.8407,6.426,49.8952,0.108,-2.3461,0.5369
498811.0,-23.0897,6.9719,51.7626,0.2554,-2.3142,0.589
498821.0,-22.8311,8.3606,53.6397,0.332,-2.5041,0.6604
498831.0,-23.1759,9.2129,56.2542,0.3251,-2.9075,0.8258
498841.0,-23.8558,10.1227,57.547,0.3203,-3.5614,1.0318
498851.0,-24.5645,10.161,57.9109,0.3512,-4.2665,1.2749
498861.0,-24.5454,9.5481,57.7098,0.4922,-4.8571,1.5101
498871.0,-24.2197,8.8298,56.8862,0.6737,-5.4499,1.6735
498881.0,-23.5781,8.7819,55.2965,0.6604,-6.0012,1.7671
498891.0,-22.697,9.2225,53.4865,0.4544,-6.4982,1.8273
498901.0,-22.2852,9.0022,52.1074,0.1229,-7.0542,1.9151
498911.0,-20.9062,8.2839,50.192,-0.1756,-7.4788,1.9278
498921.0,-20.1688,7.5848,49.4929,-0.3666,-7.8588,1.9247
498931.0,-19.3451,7.3358,48.5257,-0.1405,-8.1307,1.9678
498941.0,-18.2342,7.6806,46.7061,0.2389,-8.1445,2.0641
498951.0,-17.7554,7.0868,45.7197,0.4699,-8.1834,2.1678
498961.0,-16.8169,6.7038,44.2832,0.6417,-8.3041,2.2184
498971.0,-15.5527,6.541,42.9807,0.7253,-8.2392,2.2514
498981.0,-15.8496,6.2249,42.7509,0.6284,-8.41,2.2625
498991.0,-15.3229,5.9759,41.7261,0.5859,-8.6234,2.2817
499001.0,-15.4953,5.114,41.5059,0.6949,-8.6341,2.3551
499011.0,-14.7962,3.1795,41.1132,1.1632,-8.6553,2.3785
499021.0,-12.3158,2.375,40.0694,1.5873,-8.4957,2.3354
499031.0,-11.8752,2.4612,39.8204,1.6549,-8.5723,2.1982
499041.0,-10.9463,2.308,39.6671,1.7171,-8.9017,2.096
499051.0,-8.8585,2.4134,37.6177,1.7491,-9.1912,1.9853
499061.0,-8.6862,2.0686,35.3767,1.5926,-9.4264,1.839
499071.0,-7.2592,2.1069,32.858,1.4239,-9.4594,1.624
499081.0,-6.1866,2.6719,30.5883,1.1494,-9.271,1.4021
499091.0,-6.0908,2.8635,29.1326,0.9317,-9.1667,1.1988
499101.0,-4.0797,3.8882,27.1311,0.8184,-8.7948,1.0115
499111.0,-2.6815,5.3151,26.3554,0.4784,-8.4212,0.9136
499121.0,-2.1069,6.7421,26.2213,0.1953,-8.2419,0.9285
499131.0,-0.6416,7.6998,24.7369,-0.2155,-8.0998,1.06
499141.0,0.1053,7.7859,24.4017,-0.621,-7.9567,1.2579
499151.0,1.0918,6.9049,23.4728,-0.8599,-7.805,1.4128
499161.0,2.988,5.9951,21.8447,-0.9849,-7.4725,1.5564
499171.0,3.869,4.6352,20.5135,-0.9876,-7.059,1.6208
499181.0,4.9608,3.5626,19.3835,-0.879,-6.611,1.6224
499191.0,6.4835,2.8539,17.9565,-0.7391,-5.99,1.5873
499201.0,7.6231,2.6624,16.5008,-0.7508,-5.2323,1.4947
499211.0,7.9104,2.0494,16.0124,-0.8615,-4.5288,1.3585
499221.0,9.165,1.5897,15.7634,-0.8971,-3.7562,1.1754
499231.0,9.8354,1.5802,16.0412,-0.9786,-2.9325,0.9695
499241.0,10.2185,1.6759,16.8935,-1.0674,-2.3817,0.7678
499251.0,10.7356,1.9824,17.4872,-1.1754,-1.8102,0.58
499261.0,11.2336,2.3655,18.2342,-1.3308,-1.3111,0.39
499271.0,10.8793,2.4708,18.6652,-1.5373,-0.9754,0.2059
499281.0,11.0133,2.6049,19.4218,-1.5628,-0.5353,0.0697
499291.0,12.0093,3.1412,19.6325,-1.5777,-0.1096,-0.0564
499301.0,12.2966,3.9552,20.2071,-1.7086,0.2597,-0.1394
499311.0,11.9997,4.7214,20.9253,-1.8294,0.5396,-0.1229
499321.0,12.6127,4.8842,20.7912,-1.9098,0.8929,-0.075
499331.0,13.034,4.8267,20.4082,-1.9944,1.2962,0.0229
499341.0,12.4882,4.3096,21.0402,-2.0002,1.6751,0.1309
499351.0,12.6988,3.2753,21.4042,-1.7443,2.0923,0.2246
499361.0,12.718,2.241,21.567,-1.2478,2.6936,0.2927
499371.0,12.4977,1.0726,21.9117,-0.8104,3.3193,0.2767
499381.0,11.8848,0.0479,21.5574,-0.5736,3.7423,0.1282
499391.0,10.8697,-0.747,21.3946,-0.513,4.2521,-0.1378
499401.0,10.1131,-1.3791,21.1552,-0.5694,4.8433,-0.5007
499411.0,9.5193,-1.4653,21.318,-0.5747,5.5718,-0.9078
499421.0,8.2839,-0.1532,22.8981,-0.596,6.3747,-1.2781
499431.0,6.7229,1.8675,25.7808,-0.522,6.9755,-1.4825
499441.0,5.4396,3.5434,28.558,-0.5183,7.3091,-1.5538
499451.0,4.1563,4.8554,30.2819,-0.679,7.3586,-1.4963
499461.0,3.2178,5.3534,32.0344,-0.919,7.1202,-1.3888
499471.0,2.0303,4.7022,33.3273,-1.2845,6.7099,-1.2866
499481.0,1.3024,3.0837,32.4462,-1.5123,6.4114,-1.2606
499491.0,1.2641,1.6185,31.3928,-1.6793,6.4215,-1.3941
499501.0,0.2586,0.6991,30.7032,-1.9401,6.4407,-1.657
499511.0,-1.5897,-0.0192,29.7264,-2.13,6.586,-1.9693
499521.0,-1.8292,-0.2873,28.8166,-2.0417,7.0005,-2.32
499531.0,-1.6281,0.0958,28.3569,-1.773,7.6363,-2.7138
499541.0,-2.7773,3.2848,29.0177,-1.6453,8.4084,-2.9878
499551.0,-5.3151,7.2209,30.4064,-1.5346,9.0289,-2.8617
499561.0,-6.6176,9.9407,31.9865,-1.5969,9.5402,-2.4642
499571.0,-8.0732,10.8697,34.5435,-1.723,9.9973,-1.8613
499581.0,-10.1035,9.0214,38.1636,-1.6549,10.0702,-1.2882
499591.0,-8.9352,6.5984,40.2226,-1.3494,10.2054,-0.9381
499601.0,-10.9942,4.2904,42.3582,-1.0248,10.2597,-0.7769
499611.0,-12.718,1.5419,44.5417,-0.3469,10.2347,-0.7572
499621.0,-12.6222,0.3926,45.7676,0.696,10.6513,-0.9094
499631.0,-13.8864,1.0822,48.7938,1.6682,10.9514,-1.1307
499641.0,-16.2901,3.2465,50.8816,2.1998,10.7891,-1.2872
499651.0,-17.0371,5.9568,51.8776,2.1774,10.415,-1.2984
499661.0,-17.5639,7.9679,53.3907,1.648,9.7792,-1.1909
499671.0,-18.3875,8.0158,53.7642,0.7237,8.8411,-1.093
499681.0,-17.6979,7.7668,53.8121,-0.34,7.8391,-1.0296
499691.0,-20.5614,6.3015,53.0172,-1.3867,6.943,-0.9716
499701.0,-21.2031,4.6256,51.8776,-1.8427,6.3162,-0.944
499711.0,-21.1169,3.869,50.6517,-1.9204,6.2592,-0.911
499721.0,-21.4042,3.2178,51.0923,-1.8911,6.2247,-0.9381
499731.0,-20.9541,3.2561,52.4522,-1.7874,6.0783,-0.9828
499741.0,-21.4904,4.1755,53.6301,-1.8512,5.6478,-1.0105
499751.0,-22.0745,5.0278,53.7738,-1.9326,4.8864,-0.9589
499761.0,-21.0019,5.6312,52.2032,-2.2551,4.159,-0.8695
499771.0,-20.3028,5.9664,50.4793,-2.4669,3.7876,-0.7423
499781.0,-19.7282,6.3877,48.8896,-2.7931,3.4194,-0.5736
499791.0,-19.2207,6.4069,48.3341,-2.8771,3.0953,-0.3469
499801.0,-18.1289,6.3207,47.003,-2.8729,2.8739,-0.041
499811.0,-17.1042,5.6503,45.9591,-2.8298,2.6281,0.2613
499821.0,-15.7347,4.7501,43.9671,-2.8543,2.4483,0.5103
499831.0,-16.5104,2.5762,42.5498,-2.7931,2.4264,0.6859
499841.0,-18.5599,0.0479,40.8451,-2.3003,2.7287,0.7662
499851.0,-19.2973,-1.9249,39.4181,-1.4569,3.6226,0.712
499861.0,-20.5135,-2.9688,40.6727,-0.7636,4.7715,0.5406
499871.0,-21.9309,-4.118,45.6526,-0.066,5.7665,0.2687
499881.0,-23.7696,-3.2465,52.4809,0.4315,5.9511,-0.0458
499891.0,-25.934,-1.8866,59.1368,0.7471,5.3892,-0.3139
499901.0,-26.2596,0.249,63.772,0.879,4.6267,-0.5193
499911.0,-27.5142,2.1069,68.4742,0.903,3.3614,-0.6055
499921.0,-28.7783,3.984,70.9546,0.8631,1.7304,-0.6082
499931.0,-29.0177,5.5354,71.4717,0.8929,0.0591,-0.4757
499941.0,-29.6211,6.6463,69.4702,0.8743,-1.4708,-0.306
499951.0,-29.7551,6.9911,65.6586,0.8647,-2.7122,-0.1006
499961.0,-28.8645,7.0581,61.2437,0.7865,-3.4534,0.0878
499971.0,-28.5868,6.6463,58.5909,0.8913,-3.8174,0.2453
499981.0,-28.7975,6.675,56.9724,1.1765,-4.1148,0.4177
499991.0,-27.9739,6.9432,55.7945,1.4298,-4.3122,0.6093
500001.0,-27.7536,7.173,53.9078,1.6118,-4.4793,0.8237
500011.0,-27.7823,7.1635,53.5822,1.6634,-4.7097,1.0483
500021.0,-27.2364,6.6367,53.2183,1.6405,-4.9619,1.2106
500031.0,-26.3458,6.3877,52.998,1.4293,-5.1466,1.3005
500041.0,-26.681,6.4548,53.8887,1.1238,-5.5627,1.3633
500051.0,-26.0489,6.7612,54.3101,0.8179,-6.1528,1.4793
500061.0,-25.5988,6.6559,54.99,0.6306,-6.7557,1.6203
500071.0,-26.1638,6.2058,55.0858,0.6332,-7.5752,1.7448
500081.0,-24.9188,6.2728,52.2127,0.6854,-8.0828,1.9161
500091.0,-24.507,5.6599,50.4506,0.5236,-8.4468,2.0353
500101.0,-23.7888,4.1659,48.6885,0.4209,-8.8751,2.1045
500111.0,-22.2565,2.8922,46.4667,0.4188,-9.0044,2.0476
500121.0,-21.2988,2.4517,45.4611,0.4209,-9.1571,1.905
500131.0,-20.887,2.5666,43.9288,0.3491,-9.4003,1.8039
500141.0,-20.3794,2.6528,43.2393,0.4464,-9.4397,1.7512
500151.0,-19.4792,2.5187,42.2816,0.6976,-9.4498,1.7017
500162.0,-18.2342,3.1795,41.4197,1.0413,-9.3987,1.7171
500171.0,-17.5256,3.6392,41.64,1.2042,-9.4391,1.7209
500181.0,-16.7977,3.802,42.023,1.4559,-9.5956,1.8097
500191.0,-15.4953,4.1563,40.5482,1.4293,-9.9617,1.8768
500201.0,-14.1162,3.6105,38.9297,1.2505,-10.3464,1.8587
500211.0,-12.7372,2.6528,37.4836,1.1281,-10.6885,1.7975
500221.0,-10.7069,2.1548,35.3576,1.0062,-10.8753,1.6682
500231.0,-9.5385,2.1548,33.4326,0.8035,-11.0807,1.4612
500241.0,-8.0924,2.3846,31.23,0.4273,-11.3345,1.2106
500251.0,-7.9009,2.4038,28.491,-0.0436,-11.5607,0.9727
500261.0,-5.6886,2.8922,25.6946,-0.3336,-11.466,0.7838
500271.0,-3.2848,3.4764,22.1799,-0.713,-11.1403,0.5768
500281.0,-1.3312,4.0989,21.0594,-1.0972,-10.7029,0.3911
500291.0,-0.1341,4.7118,19.6037,-1.4175,-10.2629,0.3171
500301.0,1.6472,4.9321,19.7186,-1.608,-9.8579,0.3129
500311.0,2.6815,4.5107,18.9142,-1.6985,-9.5328,0.3336
500321.0,4.0318,4.1468,18.6748,-1.8001,-9.3231,0.2905
500331.0,5.5641,3.6105,16.9318,-2.0039,-9.0667,0.2208
500341.0,6.5888,2.9592,15.8113,-2.2487,-8.8448,0.0915
500351.0,7.8338,2.0782,13.6565,-2.3722,-8.558,-0.0506
500361.0,9.3374,1.6185,11.6262,-2.403,-7.9907,-0.2097
500371.0,10.7548,1.4653,9.73,-2.2578,-7.1431,-0.3884
500381.0,12.1721,1.3982,8.3989,-1.8949,-6.1225,-0.5146
500391.0,13.8289,1.3982,7.0581,-1.4261,-4.8779,-0.6439
500401.0,14.9494,1.7621,6.4165,-0.9642,-3.4715,-0.7322
500411.0,15.5815,2.1069,6.2058,-0.6321,-2.1763,-0.7955
500421.0,15.8783,2.739,6.6176,-0.3767,-0.9291,-0.854
500431.0,15.8783,3.3327,7.422,-0.2959,0.2033,-0.8221
500441.0,16.4434,3.7158,8.4659,-0.2065,1.2797,-0.7678
500451.0,15.5623,4.0414,9.6822,-0.1117,2.2077,-0.6838
500461.0,15.1792,3.62,11.3868,0.0974,3.1432,-0.5741
500471.0,15.4474,2.9018,12.22,0.3491,4.077,-0.5481
500481.0,15.1122,2.3655,13.8289,0.547,4.9625,-0.5757
500491.0,13.9438,1.4269,16.0316,0.7918,5.8245,-0.6566
500501.0,12.5743,0.0287,18.263,1.2137,6.6573,-0.7684
500511.0,11.2049,-1.3216,21.1456,1.6948,7.3692,-1.06
500521.0,9.8354,-2.3655,23.377,2.0885,7.9588,-1.4686
500531.0,8.7053,-2.6911,26.1926,2.4312,8.4771,-2.0188
500541.0,7.0773,-2.1548,28.9986,2.5531,8.5739,-2.6387
500551.0,6.0621,-0.9577,31.0001,2.2796,8.2664,-3.2948
500561.0,4.3191,2.059,32.7335,1.5543,7.7609,-3.8722
500571.0,1.9632,5.0087,34.0647,0.6843,7.0196,-4.1691
500581.0,0.747,7.6327,34.0072,-0.0128,6.4503,-4.1787
500591.0,-0.9673,8.7532,33.9115,-0.4374,6.2076,-3.9845
500601.0,-1.3024,9.2895,34.2275,-0.5039,6.1587,-3.6535
500611.0,-0.5076,8.7436,34.4861,-0.3938,6.3034,-3.3715
500621.0,-0.9385,7.6998,35.0894,-0.2086,6.4939,-3.1166
500631.0,-1.0726,6.9432,35.6544,-0.1016,6.488,-2.983
500641.0,-0.6704,6.7516,34.6393,-0.2368,6.5402,-2.9277
500651.0,-1.0726,6.5793,34.6106,-0.6561,6.5088,-2.9186
500661.0,-0.9673,6.4356,34.5148,-1.1722,6.4795,-2.8846
500671.0,-3.4477,5.6407,34.783,-1.7698,6.4763,-2.8356
500681.0,-4.9512,3.4093,34.2084,-1.9779,6.5322,-2.8574
500691.0,-4.2617,2.4325,34.4574,-1.6724,7.3852,-2.9325
500701.0,-4.9129,2.9497,36.8132,-1.3292,8.0248,-3.0229
500711.0,-5.9951,4.2329,38.6711,-1.1845,8.2009,-3.0714
500721.0,-7.1539,6.4548,40.0789,-1.359,8.186,-3.0102
500731.0,-8.3318,8.3031,41.8028,-1.7836,7.854,-2.776
500741.0,-9.7588,9.1267,42.6838,-2.3636,7.1787,-2.4025
500751.0,-10.3238,7.9871,41.9177,-2.8777,6.5445,-1.9699
500761.0,-11.0516,5.2289,38.9297,-3.5205,6.2129,-1.6809
500771.0,-11.3198,1.2163,36.5738,-4.093,6.2715,-1.6346
500781.0,-10.5345,-1.5802,35.0607,-4.574,6.9499,-1.8528
500791.0,-9.7396,-2.7198,36.6217,-5.1062,7.5315,-2.2232
500801.0,-10.6398,-2.3176,40.146,-5.3834,7.8636,-2.5424
500811.0,-12.6605,-0.929,43.7947,-5.5026,7.8401,-2.6824
500821.0,-14.3748,0.3256,46.5433,-5.3477,7.4985,-2.6254
500831.0,-16.4434,0.5938,48.0277,-4.6597,7.1378,-2.3663
500841.0,-15.9358,0.747,45.9974,-3.5412,7.2947,-2.121
500851.0,-17.1999,0.8332,45.7771,-2.4807,7.9663,-1.9034
500861.0,-18.4449,1.1875,47.1466,-0.9727,8.5239,-1.6421
500871.0,-18.1097,3.055,47.6829,0.6907,9.2236,-1.2574
500881.0,-19.8431,3.869,48.0181,1.9427,9.8239,-0.8477
500891.0,-21.3275,3.4285,49.062,2.3594,10.2049,-0.6077
500901.0,-22.448,2.4995,50.7762,2.1742,10.4347,-0.547
500911.0,-24.3155,1.0056,54.5686,1.5176,10.2128,-0.7524
500921.0,-26.2404,0.2298,60.0562,0.9386,9.7137,-1.06
500931.0,-27.6482,0.0287,65.7735,0.7466,8.7628,-1.3324
500941.0,-28.74,0.6321,70.0543,0.9397,7.5379,-1.6022
500951.0,-29.5828,2.1644,71.4909,1.2819,6.0347,-1.7767
500961.0,-19.1249,8.2744,69.6808,1.6522,3.6306,-1.7373
500971.0,-30.9714,7.853,65.6777,1.7804,3.2273,-1.6267
500981.0,-30.3393,10.3621,63.4463,1.7544,2.8644,-1.5123
500991.0,-31.0576,13.1681,60.6403,1.2803,1.9108,-1.2132
501001.0,-31.1821,15.026,58.8878,0.0176,1.6852,-0.8471
501011.0,-30.8565,14.8919,62.2109,-0.9844,0.8439,-0.4438
501021.0,-30.8756,14.6429,64.6339,-1.3276,0.1405,0.0128
501031.0,-31.3449,14.2886,67.2005,-0.9668,-0.7721,0.6045
501041.0,-29.5828,13.9917,66.1183,-0.2059,-1.5687,1.2366
501051.0,-28.8932,14.0013,63.5708,0.2219,-2.1024,1.8156
501061.0,-28.175,13.2926,62.0386,0.2804,-2.7611,2.3493
501071.0,-27.8972,12.1051,60.4871,0.2139,-3.3417,2.7835
501081.0,-27.8685,10.5249,59.1559,0.1394,-3.8967,3.0926
501091.0,-27.4567,9.0788,57.7673,-0.0601,-4.3208,3.3614
501101.0,-27.246,7.6423,57.2118,-0.0905,-4.6874,3.4875
501111.0,-27.495,6.6655,57.6715,-0.2799,-4.9534,3.5412
501121.0,-27.5046,6.5218,58.6101,-0.3677,-5.4887,3.5354
501131.0,-27.5716,6.8091,59.0697,-0.4406,-6.1108,3.5886
501141.0,-27.7632,6.5793,59.8359,-0.1543,-6.6418,3.7381
501151.0,-27.3801,6.6272,59.5103,0.1692,-7.225,3.8892
501161.0,-27.3705,6.6559,57.9971,0.3219,-7.8795,4.0244
501171.0,-26.7097,6.2728,57.0203,0.4071,-8.3872,4.1563
501181.0,-26.2596,6.0142,56.1201,0.1979,-8.9879,4.2069
501191.0,-25.6563,5.2481,55.2965,0.0074,-9.7286,4.1994
501201.0,-24.689,4.9512,53.3045,-0.3246,-10.3501,4.1585
501211.0,-24.3634,4.6639,51.8584,-0.6423,-10.9019,4.101
501221.0,-24.124,4.4341,50.4123,-0.8673,-11.5027,4.0685
501231.0,-22.199,3.6105,47.9128,-0.9461,-12.0348,4.0159
501241.0,-20.5997,3.3615,45.0685,-1.035,-12.3216,3.9297
501251.0,-19.4601,2.6624,43.0956,-0.9285,-12.6105,3.845
501261.0,-17.3053,2.0303,41.0366,-0.4507,-12.6004,3.7775
501271.0,-15.2846,1.6951,38.901,0.1841,-12.51,3.7429
501281.0,-12.5935,1.6855,36.4972,0.9222,-12.3126,3.7131
501291.0,-9.8833,1.9441,34.0168,1.4,-12.0119,3.6567
501301.0,-8.0924,2.1739,31.3832,1.5564,-11.7501,3.5875
501311.0,-6.7038,2.2793,28.9411,1.5165,-11.4777,3.5338
501321.0,-4.6256,1.9249,27.5142,1.3564,-11.0924,3.4587
501331.0,-2.9113,1.9537,26.8438,1.1169,-10.771,3.3598
501341.0,-2.7198,1.1971,26.2117,0.9418,-10.5667,3.2592
501351.0,-1.2929,0.3639,25.2445,0.986,-10.2261,3.1299
501361.0,0.5555,0.1149,24.191,1.1345,-9.7712,2.9777
501371.0,0.6512,-0.2203,23.4728,1.1653,-9.3897,2.8463
501381.0,1.7238,-0.565,22.4959,1.218,-9.0151,2.6744
501391.0,3.3136,-0.68,21.6244,1.367,-8.5276,2.5472
501401.0,4.3766,-0.4884,20.7434,1.3484,-8.0945,2.3769
501411.0,5.1906,-0.6991,20.2071,1.2164,-7.7385,2.2024
501421.0,6.3015,-0.7757,19.5941,0.9514,-7.3937,2.0071
501431.0,7.4508,-1.1492,19.0674,0.7066,-7.0585,1.7953
501441.0,8.4467,-1.6855,18.5886,0.5545,-6.7009,1.549
501451.0,9.4332,-1.9249,18.1672,0.3304,-6.3864,1.2499
501461.0,10.1131,-1.9824,17.9278,0.1857,-6.0879,0.9376
501471.0,10.8505,-1.7621,17.2478,0.0777,-5.7591,0.6572
501481.0,11.5113,-1.4844,16.6924,-0.0037,-5.4451,0.3783
501491.0,12.4882,-1.1588,15.1792,-0.0239,-4.9923,0.1165
501501.0,13.2447,-0.5938,14.2407,0.016,-4.4101,-0.1149
501511.0,13.8385,-0.2298,13.149,-0.083,-3.7993,-0.3437
501521.0,14.8728,0.4405,12.22,-0.2038,-3.0735,-0.5779
501531.0,15.4282,1.2833,11.7507,-0.5204,-2.4115,-0.7662
501541.0,15.8496,1.8483,12.6222,-0.77,-1.881,-0.9041
501551.0,15.7922,1.8004,12.8138,-0.9695,-1.4117,-1.0099
501561.0,16.0795,1.4461,13.0532,-1.0887,-0.9259,-1.1685
501571.0,16.2997,1.3982,12.3924,-1.2292,-0.4507,-1.3159
501581.0,16.9318,1.3886,11.5305,-1.409,0.1469,-1.4963
501591.0,17.3149,1.6281,11.2815,-1.5426,0.8663,-1.6895
501601.0,17.1329,1.9249,11.5975,-1.6096,1.5868,-1.8321
501611.0,16.7115,2.1644,11.7603,-1.4202,2.3275,-1.9305
501621.0,16.5775,2.557,11.9997,-1.1568,3.2172,-1.9885
501631.0,15.8688,3.122,11.8657,-0.8088,4.1297,-1.989
501641.0,15.1601,3.3998,12.3637,-0.3634,5.0998,-1.956
501651.0,14.6238,3.8211,12.1051,-0.0032,6.2555,-1.9502
501661.0,13.8864,4.2042,13.1106,0.2384,7.4384,-1.9332
501671.0,12.9478,4.1851,14.9015,0.3182,8.5335,-1.9231
501681.0,11.5496,4.2617,17.5064,0.2783,9.4221,-1.9103
501691.0,9.6343,4.2904,20.6572,0.1469,10.0809,-1.9257
501701.0,8.0541,3.8786,23.4632,-0.1368,10.3906,-1.9518
501711.0,6.4835,3.2944,26.748,-0.4837,10.4656,-2.0279
501721.0,4.4915,2.5283,28.4335,-0.7774,10.3347,-2.1731
501731.0,4.4341,2.0399,29.8605,-0.8599,10.3991,-2.3498
501741.0,3.3519,1.9824,31.2587,-0.9791,10.5901,-2.5275
501751.0,1.5419,2.2505,32.8676,-0.9232,10.7072,-2.6967
501761.0,0.814,3.1316,34.0264,-0.6992,11.0717,-2.8894
501771.0,-0.5746,4.5394,36.0567,-0.7827,11.2254,-2.9878
501781.0,-1.6089,6.1866,38.834,-0.8679,11.1866,-3.0235
501791.0,-3.2465,8.1211,41.6304,-1.2382,10.828,-2.9809
501801.0,-6.1962,8.7819,43.2106,-1.7613,10.0117,-2.8276
501811.0,-6.608,8.6862,43.5266,-2.2093,9.3487,-2.6893
501821.0,-7.8147,8.4563,43.2489,-2.7085,8.8788,-2.5552
501831.0,-11.2815,7.4508,43.3734,-2.8351,8.2781,-2.4174
501841.0,-11.3772,7.422,40.7397,-2.4967,8.3962,-2.279
501851.0,-11.7603,8.0828,39.8587,-2.138,8.9629,-2.1024
501861.0,-14.1928,8.7819,40.0311,-1.9119,9.3833,-1.9007
501871.0,-14.6812,9.2991,41.2377,-1.7155,9.9133,-1.6873
501881.0,-15.1792,9.9695,43.3159,-2.0247,10.0378,-1.4846
501891.0,-16.2997,10.0748,46.7348,-2.7414,9.6429,-1.2856
501901.0,-16.0412,9.8354,50.0771,-3.347,9.0289,-1.0562
501911.0,-18.2438,8.3414,53.3811,-3.6338,8.1121,-0.7487
501921.0,-19.2111,5.2481,54.5974,-3.1937,7.2474,-0.4715
501931.0,-17.1712,3.5434,53.6972,-2.2572,7.0154,-0.3246
501941.0,-18.1576,2.0207,52.9597,-1.4702,6.6647,-0.3251
501951.0,-17.2861,1.8292,51.4658,-0.7721,6.5498,-0.4715
501961.0,-16.6253,3.0071,49.9622,-0.6109,6.4859,-0.6747
501971.0,-17.1616,4.0127,49.7228,-1.0711,6.0687,-0.8796
501981.0,-17.3436,5.1906,48.8321,-1.9321,5.5478,-1.1073
501991.0,-18.6077,5.2098,49.7324,-2.8112,4.9912,-1.251
502001.0,-19.3643,4.0701,51.121,-3.066,4.4772,-1.3117
502011.0,-18.7801,3.6775,50.7667,-3.0091,4.1276,-1.392
502021.0,-18.828,3.5338,49.5791,-3.0735,3.8371,-1.4931
502031.0,-19.2398,3.6009,49.3493,-3.1836,3.5609,-1.5942
502041.0,-19.4026,3.9361,48.5831,-3.3491,3.356,-1.7209
502051.0,-19.9772,4.1468,49.3493,-3.4327,3.1097,-1.764
502061.0,-20.3603,4.6831,50.2016,-3.2017,2.8367,-1.7395
502071.0,-20.3699,6.1196,50.4793,-2.6494,2.7627,-1.5474
502081.0,-20.7817,7.8147,50.7954,-1.7475,2.825,-1.1281
502091.0,-21.0594,9.2608,50.6996,-0.7114,2.7978,-0.5172
502101.0,-20.1975,9.5577,49.062,0.0788,2.917,0.1187
502111.0,-19.3547,8.6287,48.5927,0.3586,3.0788,0.647
502121.0,-18.7801,6.8474,49.3493,0.1389,3.04,0.9743
502131.0,-17.8416,4.3479,50.4698,-0.2591,2.801,1.1536
502141.0,-17.6788,2.241,52.6246,-0.6593,2.3988,1.1398
502151.0,-17.9757,0.249,54.0611,-0.8397,1.8975,1.0605
502161.0,-18.3109,-0.7566,54.9326,-0.6949,1.4463,0.9679
502171.0,-18.2342,-1.3312,54.2813,-0.4715,1.093,0.8546
502181.0,-18.5982,-1.0726,54.3005,-0.2778,0.9275,0.7545
502191.0,-18.9429,-0.2777,54.3484,-0.1713,0.8296,0.6742
502201.0,-19.5463,0.5267,55.4784,-0.0803,0.687,0.679
502211.0,-19.9581,1.3982,57.0107,0.0676,0.4816,0.7748
502221.0,-20.4369,1.8962,58.6484,0.2804,0.1963,0.9445
502231.0,-20.82,1.7621,60.7553,0.6779,-0.2192,1.126
502241.0,-20.6667,2.0303,61.5693,0.9211,-0.7684,1.2675
502251.0,-20.5901,1.9345,61.5884,0.845,-1.458,1.3611
502261.0,-20.8583,1.6185,61.7321,0.7247,-2.2716,1.4649
502271.0,-20.4656,1.0343,61.1192,0.6183,-3.016,1.4878
502281.0,-20.7817,0.4788,59.9891,0.5396,-3.6327,1.4681
502291.0,-20.14,0.2969,59.4624,0.4832,-4.1856,1.4351
502301.0,-20.0251,0.3352,58.3132,0.4608,-4.6517,1.4085
502311.0,-20.0634,-0.0575,56.9245,0.3613,-5.2179,1.3617
502321.0,-18.8759,-0.0575,55.6221,0.1517,-5.6484,1.2404
502331.0,-18.579,-0.0766,54.425,-0.1612,-6.056,1.0727
502341.0,-18.7801,0.0958,54.0036,-0.3831,-6.5168,0.9136
502351.0,-18.2247,0.7374,53.5248,-0.5428,-6.9185,0.8322
502361.0,-17.6979,0.5746,53.2566,-0.4901,-7.2176,0.7838
502371.0,-17.9565,0.6416,52.5288,-0.3076,-7.6214,0.7572
502381.0,-17.4011,0.9098,51.7626,0.0484,-7.8843,0.7902
502391.0,-16.8935,1.0056,49.8952,0.2767,-8.1403,0.8189
502401.0,-15.5623,0.9194,48.4203,0.5114,-8.236,0.8232
502411.0,-15.5527,0.7087,47.4914,0.4762,-8.4526,0.7897
502421.0,-14.5089,0.4405,46.4858,0.6337,-8.7059,0.7072
502431.0,-13.6757,0.7087,44.4843,0.6694,-8.8113,0.6183
502441.0,-12.9287,1.0918,43.45,0.7396,-8.7719,0.5486
502451.0,-12.1338,1.3982,42.7509,0.845,-8.7352,0.4901
502461.0,-11.1282,2.4612,41.956,0.7178,-8.8246,0.4534
502471.0,-11.157,2.7869,41.7357,0.5784,-9.0033,0.4832
502481.0,-10.3717,3.3519,40.7685,0.5066,-9.1481,0.5608
502491.0,-9.1171,3.1699,39.9544,0.6236,-9.1385,0.6375
502501.0,-8.6287,2.6624,39.6671,0.8546,-9.08,0.713
502511.0,-7.9296,2.6624,38.7286,1.2882,-9.0576,0.7987
502521.0,-6.8953,2.5187,38.2115,1.5751,-9.1167,0.8514
502531.0,-5.4492,2.8252,36.095,1.6442,-9.1475,0.8652
502541.0,-4.9321,2.6815,34.6297,1.5112,-9.1843,0.8769
502551.0,-3.4093,2.8539,33.6529,1.4761,-9.1156,0.8423
502561.0,-2.2218,2.8443,32.4654,1.3069,-9.0544,0.8046
502571.0,-1.1205,3.055,31.6992,1.1041,-9.0922,0.7221
502581.0,-0.2777,3.4955,30.7032,1.0419,-9.08,0.6705
502591.0,0.8619,4.0318,29.8796,0.9775,-9.0198,0.6848
502601.0,1.6664,4.4149,29.3338,1.0642,-8.8432,0.729
502611.0,2.2027,4.3958,29.3242,1.4202,-8.6378,0.828
502621.0,3.304,4.7692,28.4431,1.7012,-8.533,0.9349
502631.0,3.869,4.9033,26.3649,1.6565,-8.5867,1.0201
502641.0,5.0087,5.4396,24.2964,1.4213,-8.5409,1.0664
502651.0,6.6942,5.5641,21.9213,0.978,-8.3627,1.0972
502661.0,7.7476,5.6024,20.5614,0.5428,-8.1621,1.1121
502671.0,9.232,5.4013,19.0866,0.1772,-7.8391,1.1467
502681.0,10.5632,4.9512,17.9278,-0.0458,-7.3964,1.1802
502691.0,11.2336,4.5011,17.1616,-0.2783,-6.9962,1.1988
502701.0,12.2966,4.2138,15.7826,-0.3597,-6.52,1.1946
502711.0,13.034,3.9073,15.0643,-0.5428,-6.0182,1.1589
502721.0,13.5608,3.1699,14.4322,-0.4544,-5.3956,1.119
502731.0,14.6334,2.6336,13.9917,-0.2911,-4.7299,1.0839
502741.0,15.6006,2.4804,12.7659,-0.0234,-3.9563,0.9924
502751.0,15.9837,2.2697,11.8082,-0.0266,-3.2246,0.8652
502761.0,16.6062,2.3655,10.41,-0.0096,-2.3573,0.7577
502771.0,17.5734,1.9728,10.1993,0.0452,-1.2909,0.6252
502781.0,17.6596,1.7142,10.7835,0.3267,-0.2762,0.4869
502791.0,18.4162,1.2546,11.0612,0.5332,0.7657,0.364
502801.0,18.2151,1.3216,11.7412,0.6625,1.7246,0.158
502811.0,17.832,1.1588,12.785,0.6039,2.4483,-0.0697
502821.0,16.8648,1.245,13.4075,0.63,3.1639,-0.3022
502831.0,16.52,1.4174,13.8864,0.7726,3.9265,-0.5039
502841.0,15.5336,2.0303,13.3692,0.9041,4.7667,-0.7056
502851.0,14.4897,2.5283,13.6661,0.9679,5.6601,-0.8695
502861.0,12.9574,3.2753,13.9247,0.8828,6.5891,-1.0562
502871.0,11.655,3.8116,15.342,0.7615,7.4192,-1.2276
502881.0,10.2185,4.1946,16.9797,0.5587,8.119,-1.3851
502891.0,8.7532,4.7884,19.0674,0.2687,8.5761,-1.5293
502901.0,7.0581,5.1619,20.638,-0.1394,8.8538,-1.6815
502911.0,5.5833,5.8227,22.5438,-0.4321,9.0337,-1.8076
502921.0,4.7788,6.359,23.5781,-0.5731,9.2577,-1.8714
502931.0,4.1468,7.5082,25.3881,-0.6912,9.4338,-1.8624
502941.0,3.2561,8.7245,25.752,-0.7066,9.6195,-1.7842
502951.0,2.2601,9.7588,26.6044,-0.7928,9.7946,-1.566
502961.0,1.7142,10.4004,27.8015,-0.82,10.0069,-1.3021
502971.0,0.3735,10.4291,28.673,-0.6933,10.2719,-0.9642
502981.0,-0.6608,10.477,28.2899,-0.6513,10.555,-0.6204
502991.0,-1.4269,9.5289,28.5772,-0.763,11.0062,-0.2964
503001.0,-2.2984,7.9775,30.2148,-0.9301,11.4931,-0.0458
503011.0,-4.2234,5.5929,32.3026,-0.9317,11.9667,0.1208
503021.0,-5.7461,2.9209,34.4861,-0.7721,12.411,0.1777
503031.0,-5.3151,-0.1915,37.6081,-0.381,13.04,-0.0069
503041.0,-6.2728,-1.8196,41.6016,0.0341,13.4146,-0.3794
503051.0,-7.5561,-1.8387,45.3366,0.1586,13.3193,-0.8301
503061.0,-10.0844,-1.5323,48.7459,-0.0383,12.8681,-1.251
503071.0,-12.3541,-1.561,51.8967,-0.2379,12.2599,-1.6182
503081.0,-12.8617,-1.7238,54.176,-0.1208,11.691,-2.0029
503091.0,-12.5552,-1.0726,54.8081,-0.0708,11.1408,-2.3748
503101.0,-14.2886,0.4884,55.0858,-0.3384,10.4714,-2.7398
503111.0,-15.4091,1.7238,55.0475,-0.564,9.6674,-3.0064
503121.0,-15.0547,3.62,52.4234,-0.969,8.9789,-3.1996
503131.0,-16.0316,5.0661,48.7555,-1.6229,8.5021,-3.3183
503141.0,-18.0619,5.6024,44.9152,-2.37,8.5026,-3.3353
503151.0,-19.3835,3.5243,44.6183,-2.2636,9.3466,-3.2954
503161.0,-19.2877,3.1987,46.8976,-1.6911,10.3842,-3.4018
503171.0,-21.2031,4.616,52.4617,-1.3138,10.787,-3.4954
503181.0,-23.3961,7.0198,59.8072,-0.6417,10.5481,-3.4066
503191.0,-24.2772,10.0461,65.6873,0.2671,9.8366,-3.0655
503201.0,-25.3498,12.9766,69.0392,1.1217,8.6117,-2.6137
503211.0,-24.3825,15.2846,69.4702,1.4005,7.1495,-2.1082
503221.0,-24.1814,17.2766,67.3537,1.2574,5.7058,-1.574
503231.0,-23.4728,17.6788,64.6339,0.6375,4.2495,-1.0366
503241.0,-22.4002,17.2574,59.9604,-0.2751,3.1246,-0.5763
503251.0,-23.6739,14.9302,55.4784,-1.4484,2.2003,-0.2458
503261.0,-22.7066,11.6837,51.3413,-2.453,1.839,-0.1054
503271.0,-21.7681,9.2033,50.2208,-3.0831,1.9709,-0.1086
503281.0,-21.5478,7.5753,51.8776,-3.0304,2.0848,-0.1266
503291.0,-21.1647,7.4986,52.7203,-2.66,2.1907,-0.0745
503301.0,-21.634,7.5274,54.8464,-2.1481,2.0901,0.042
503311.0,-22.2661,7.3167,56.2733,-1.599,1.8555,0.2208
503321.0,-22.2469,7.2305,57.8918,-0.9307,1.5458,0.3783
503331.0,-22.199,6.9719,58.294,-0.3794,1.1818,0.5353
503341.0,-22.4097,7.2209,58.6867,-0.0138,0.7561,0.6646
503351.0,-22.3235,6.9911,58.6867,0.0649,0.1963,0.7577
503361.0,-22.4289,6.8187,58.0929,-0.2714,-0.414,0.7412
503371.0,-22.1033,6.4835,55.8328,-1.2313,-1.1382,0.5906
503381.0,-21.2988,5.5929,54.8847,-2.9282,-1.6639,0.2198
503391.0,-21.8734,4.8267,56.9533,-4.5602,-2.2945,-0.1591
503401.0,-22.2086,4.4915,59.9317,-5.9517,-3.2102,-0.5076
503411.0,-22.5821,4.0893,64.2316,-6.347,-4.1324,-0.654
503421.0,-23.626,3.3423,68.1869,-5.584,-5.137,-0.5763
503431.0,-23.4153,3.5721,68.7615,-3.8317,-6.1789,-0.3108
503441.0,-23.4344,3.9361,66.4535,-1.9768,-6.9845,0.0803
503451.0,-23.0035,4.2042,61.1192,-0.4337,-7.6842,0.5188
503461.0,-21.7106,4.2234,54.2239,0.3124,-8.0051,0.8221
503471.0,-21.0881,4.2042,48.7364,0.3789,-7.9966,1.0158
503481.0,-20.5231,3.6296,45.4132,0.0623,-7.8433,1.1808
503491.0,-19.8719,2.4995,44.3693,-0.2448,-7.6188,1.2808
503501.0,-19.3451,0.8811,45.5569,-0.3576,-7.373,1.3542
503511.0,-18.8759,-0.5842,47.0892,0.0245,-7.2064,1.4191
503521.0,-18.8088,-2.3367,49.3876,0.879,-7.0696,1.5016
503531.0,-18.1193,-3.2561,49.694,1.8949,-6.9792,1.483
503541.0,-17.6979,-3.1987,50.0867,2.8032,-6.9717,1.4101
503551.0,-17.516,-2.7007,50.0101,3.2156,-7.2287,1.3101
503561.0,-16.52,-1.3599,48.9566,3.1458,-7.6784,1.1355
503571.0,-15.706,-0.0479,48.2288,2.7021,-8.177,0.9386
503581.0,-15.6102,1.2929,47.4435,2.0273,-8.8373,0.7636
503591.0,-15.4282,1.9824,46.256,1.5575,-9.4881,0.6582
503601.0,-14.1449,2.5857,44.695,1.3159,-9.9287,0.6087
503611.0,-13.3692,3.2561,42.3965,1.184,-10.2618,0.5896
503621.0,-12.0764,3.7445,39.6576,1.11,-10.4507,0.6087
503631.0,-11.6837,4.2521,37.0144,0.9812,-10.4294,0.6194
503641.0,-10.1035,4.6831,35.2426,0.9732,-10.2927,0.6997
503651.0,-8.3893,5.545,33.6242,0.944,-10.0378,0.8163
503661.0,-7.7955,5.4205,32.0727,0.7583,-9.8404,0.9211
503671.0,-6.2153,5.5354,30.6458,0.6369,-9.5903,1.0328
503681.0,-4.4532,5.861,29.4008,0.3964,-9.2689,1.1111
503691.0,-3.3519,5.4684,29.4295,0.183,-9.0603,1.1669
503701.0,-2.0973,5.114,28.7783,0.0905,-8.8416,1.2388
503711.0,-0.2969,4.7405,27.5333,-0.0591,-8.5473,1.2632
503721.0,0.5555,4.3383,26.9108,-0.2086,-8.1802,1.2627
503731.0,1.0726,4.367,26.7672,-0.2927,-7.887,1.2483
503741.0,2.241,3.9169,26.2788,-0.2671,-7.4985,1.2425
503751.0,2.8347,3.5147,26.0202,-0.2586,-7.1303,1.2255
503761.0,4.6543,3.0646,25.618,-0.2373,-6.6679,1.1478
503771.0,5.861,3.371,25.8765,-0.4954,-6.3268,0.9972
503781.0,6.608,3.5051,26.7863,-0.8572,-6.0985,0.8743
503791.0,7.3646,4.118,27.1694,-1.2696,-6.0602,0.7881
503801.0,7.5561,3.9456,27.8015,-1.5692,-6.1273,0.7386
503811.0,8.3606,4.0701,27.2269,-1.6964,-6.1682,0.7428
503821.0,9.1842,3.5338,26.2213,-1.7012,-6.0491,0.7327
503831.0,10.0556,3.4381,24.8518,-1.6985,-5.7803,0.6864
503841.0,11.3485,3.4093,24.6603,-1.5538,-5.2887,0.6689
503851.0,12.1147,3.553,25.0721,-1.2201,-4.855,0.7162
503861.0,12.7946,3.6392,24.6986,-0.7508,-4.4447,0.8189
503871.0,13.9534,3.4572,24.191,-0.3986,-4.0669,0.8769
503881.0,14.2694,2.9592,23.4919,-0.1128,-3.7482,0.9131
503891.0,15.0547,2.4517,22.8503,0.0266,-3.4646,0.9216
503901.0,16.089,2.2984,22.0362,0.0553,-3.173,0.8535
503911.0,16.7977,1.9345,20.6859,-0.0633,-2.9096,0.7434
503921.0,17.2383,1.8771,19.4888,-0.3113,-2.6004,0.6162
503931.0,17.5734,1.5993,18.7897,-0.5571,-2.2391,0.4832
503941.0,18.4258,1.5802,18.0906,-0.7769,-1.7757,0.3618
503951.0,19.2973,1.1588,17.583,-0.9424,-1.3313,0.2682
503961.0,19.4984,1.0726,17.3436,-0.9775,-0.861,0.1415
503971.0,19.7665,1.2833,16.9605,-0.9892,-0.3927,0.0543
503981.0,19.6325,1.1875,16.7594,-0.9456,0.0979,0.0213
503991.0,19.4792,1.4269,16.1944,-0.9094,0.6093,0.0309
504001.0,18.9908,1.2833,15.84,-0.7811,1.1244,0.0591
504011.0,18.5694,1.1875,15.2559,-0.6667,1.7134,0.0968
504021.0,18.2151,0.8236,14.3939,-0.5678,2.3525,0.1538
504031.0,17.5256,0.2298,13.4746,-0.4518,3.1357,0.158
504041.0,16.9414,-0.4501,12.3062,-0.4065,4.076,0.0798
504051.0,16.836,-1.3216,12.3445,-0.2432,5.2291,-0.0591
504061.0,15.9358,-1.7047,13.9055,-0.0809,6.4221,-0.2836
504071.0,15.0069,-1.2546,15.342,0.0122,7.4065,-0.5295
504081.0,13.9151,-0.3831,17.8224,-0.0734,8.1658,-0.7567
504091.0,12.5073,1.0151,20.4273,-0.3161,8.6021,-0.9184
504101.0,11.1378,2.1835,22.9652,-0.5885,8.7485,-1.0147
504111.0,9.7588,3.4189,24.9667,-0.9966,8.658,-1.0078
504121.0,7.6231,3.8403,25.8095,-1.4021,8.4899,-0.9035
504131.0,6.0908,3.4477,26.5852,-1.4755,8.4553,-0.7492
504141.0,5.8706,3.6392,25.8765,-1.4122,8.7219,-0.5896
504151.0,5.0853,3.7062,26.7768,-1.0919,9.1497,-0.3826
504161.0,3.4764,3.735,27.2077,-0.7939,9.5732,-0.1586
504171.0,2.4229,3.802,27.246,-0.5992,9.9654,0.0777
504181.0,1.0822,3.1699,27.744,-0.6657,10.3794,0.2421
504191.0,-1.3599,1.81,28.5293,-0.9988,10.5273,0.3326
504201.0,-2.2314,0.4022,28.6442,-1.2696,10.7976,0.2788
504211.0,-5.1523,-0.4788,28.2324,-1.8188,11.144,0.1389
504221.0,-7.8051,-1.6664,29.0752,-2.2684,11.6831,-0.041
504231.0,-9.9311,-1.5131,30.6841,-2.8154,12.6361,-0.2666
504241.0,-12.3541,-2.1931,36.2674,-3.4146,13.3949,-0.3831
504251.0,-13.7619,-3.7637,43.1531,-4.0398,13.5774,-0.547
504261.0,-14.3173,-5.3343,51.0252,-4.8151,13.0804,-0.8338
504271.0,-14.3748,-6.7516,58.8112,-5.609,11.8299,-1.1472
504281.0,-13.6565,-8.1977,64.902,-6.0134,10.0213,-1.4974
504291.0,-15.5719,-9.0214,67.8229,-5.89,7.8918,-1.8118
504301.0,-17.2861,-8.0637,65.3234,-4.9018,6.1262,-1.8964
504311.0,-16.0986,-6.0525,58.3898,-3.1198,5.7213,-1.7741
504321.0,-15.6389,-4.1276,52.5958,-1.7166,6.0943,-1.5708
504331.0,-14.7483,-2.2601,48.1905,-0.7817,6.6934,-1.3452
504341.0,-14.4706,-0.4597,46.8785,-0.7061,7.3969,-1.2244
504351.0,-15.1409,0.7566,49.3972,-1.1169,7.5315,-1.0695
504361.0,-15.2463,0.9481,52.5288,-1.6565,7.117,-0.8929
504371.0,-15.0164,0.3256,54.5686,-2.0401,6.4375,-0.7311
504381.0,-16.6158,-0.3352,54.176,-2.2625,5.5329,-0.5449
504391.0,-15.4187,-1.2641,51.6764,-2.1002,5.2897,-0.3613
504401.0,-15.7251,-1.5514,50.125,-1.8204,5.4605,-0.182
504411.0,-15.4857,-2.6719,49.5217,-1.4431,5.6175,-0.0367
504421.0,-15.4282,-2.6432,48.564,-1.3191,5.8053,0.0016
504431.0,-16.6158,-2.9401,49.56,-1.2824,5.9373,0.0521
504441.0,-17.2861,-3.3423,51.3987,-1.1877,5.9831,0.1059
504451.0,-18.081,-3.6775,52.5192,-1.143,5.9911,0.1165
504461.0,-19.4026,-3.8211,54.3292,-1.2707,5.8304,0.191
504471.0,-20.4848,-4.8171,56.8575,-1.2377,5.5989,0.2815
504481.0,-20.8391,-5.4588,58.8399,-0.8328,5.4669,0.3629
504491.0,-21.8064,-6.3398,61.9332,-0.1325,5.3397,0.4736
504501.0,-21.5765,-6.2632,64.5094,0.9014,5.0343,0.5853
504511.0,-21.4233,-6.4548,66.0991,1.6224,4.7135,0.6167
504521.0,-22.4863,-6.3494,68.1198,2.1322,3.977,0.5821
504531.0,-21.9788,-5.3534,69.2403,2.4514,3.2113,0.5481
504541.0,-22.7928,-4.7501,70.6768,2.4999,2.2817,0.5161
504551.0,-22.5534,-3.7733,70.8109,2.4584,1.2733,0.4613
504561.0,-23.5302,-2.557,70.0448,2.0348,0.2884,0.3858
504571.0,-24.1814,-1.8866,70.2555,1.442,-0.8115,0.3613
504581.0,-24.1048,-1.3982,69.4893,1.0243,-1.6613,0.3767
504591.0,-24.2389,-1.4269,70.5044,0.8077,-2.3934,0.4337
504601.0,-24.689,-1.3503,70.7726,0.7721,-3.339,0.4789
504611.0,-25.0625,-1.1396,70.7822,0.8184,-4.3399,0.5784
504621.0,-25.2923,-0.8811,69.2307,0.936,-5.3025,0.7082
504631.0,-24.9763,-1.0918,67.3824,1.2712,-6.065,0.8652
504641.0,-24.8039,-0.9194,64.5956,1.3808,-6.7818,0.969
504651.0,-24.5262,-1.0056,62.9579,1.3846,-7.4991,1.0754
504661.0,-23.8462,-0.7661,60.0753,1.3122,-8.1594,1.126
504671.0,-23.1759,-1.1875,57.9876,1.1786,-8.8565,1.1643
504681.0,-22.0554,-0.9385,55.2103,1.1318,-9.3795,1.1946
504691.0,-21.2605,-1.0439,52.7874,1.035,-9.8499,1.2361
504701.0,-20.5614,-1.5514,50.4506,0.9865,-10.298,1.2451
504711.0,-19.7282,-2.059,47.9606,0.8775,-10.6699,1.1925
504721.0,-17.6501,-1.7334,44.5226,0.7854,-10.9354,1.1238
504731.0,-16.7115,-1.8004,42.6264,0.4816,-11.1829,1.019
504741.0,-15.773,-1.8771,40.4907,0.456,-11.5703,0.9248
504751.0,-14.4322,-1.5227,36.1237,0.4081,-11.6043,0.8785
504761.0,-12.9095,-1.9632,33.7582,0.4182,-11.2941,0.8493
504771.0,-11.473,-2.2218,31.5268,0.3326,-11.1158,0.7535
504781.0,-9.5768,-1.9537,29.1422,0.2155,-10.853,0.6396
504791.0,-8.0637,-1.4365,27.4567,0.0724,-10.3347,0.5901
504801.0,-6.3877,-1.7047,27.0162,0.0341,-9.9973,0.5273
504811.0,-4.549,-1.4365,26.0106,-0.1277,-9.7137,0.4337
504821.0,-3.371,-0.6416,24.4304,-0.398,-9.3625,0.3884
504831.0,-3.1316,-0.4597,24.2581,-0.5704,-9.0917,0.3938
504841.0,-2.2697,-0.8906,23.2142,-0.5992,-8.7666,0.4656
504851.0,-0.6608,-1.0056,21.7968,-0.6928,-8.3116,0.4507
504861.0,0.431,-1.2163,20.571,-0.9126,-7.8018,0.4427
504871.0,1.4748,-1.8579,20.3603,-1.0275,-7.2452,0.3895
504881.0,2.0494,-2.0494,20.9157,-0.9887,-6.6934,0.3347
504891.0,3.0933,-1.9537,20.8774,-1.0839,-6.3167,0.2469
504901.0,3.8882,-1.5897,20.8583,-1.2329,-6.0171,0.1761
504911.0,4.4915,-1.2929,20.2166,-1.4309,-5.8282,0.0974
504921.0,5.5258,-0.6416,19.4601,-1.7565,-5.6798,0.0559
504931.0,6.0525,-0.0192,18.3109,-2.138,-5.5185,0.0431
504941.0,6.7133,0.2107,17.4681,-2.4536,-5.2567,0.0788
504951.0,7.3741,-0.1149,16.8456,-2.5329,-4.896,0.1261
504961.0,8.3127,-0.7087,15.524,-2.4169,-4.3325,0.2086
504971.0,9.3278,-1.3216,14.5376,-2.3088,-3.728,0.224
504981.0,10.7164,-2.0207,14.1449,-2.1194,-2.9548,0.2065
504991.0,11.157,-2.1644,13.5416,-1.9928,-2.287,0.124
505001.0,11.7603,-2.6336,13.4458,-1.8241,-1.5522,0.0298
505011.0,12.0285,-2.0782,13.0532,-1.7411,-0.8583,-0.0543
505021.0,11.6741,-1.8866,12.4977,-1.8342,-0.1543,-0.1485
505031.0,11.2432,-1.9154,12.8904,-1.8278,0.5635,-0.2022
505041.0,10.6781,-2.1452,13.3884,-1.7501,1.2616,-0.2501
505051.0,9.8354,-1.8771,13.2064,-1.6485,2.0694,-0.2927
505061.0,9.165,-2.0111,13.5416,-1.2446,3.0373,-0.2708
505071.0,9.1075,-2.3846,14.1833,-0.853,4.1037,-0.2932
505081.0,8.3606,-2.0782,15.208,-0.3379,5.2482,-0.3171
505091.0,7.92,-1.3982,17.6213,0.083,6.2598,-0.3044
505101.0,6.5888,-0.1245,19.2207,0.2347,6.9946,-0.273
505111.0,5.5641,0.2298,21.6819,0.1293,7.4788,-0.2054
505121.0,4.4341,0.5363,24.3825,-0.1634,7.6763,-0.1953
505131.0,3.3327,0.6895,26.6714,-0.7348,7.4735,-0.1868
505141.0,1.4174,0.4501,28.7879,-1.3505,7.1527,-0.1469
505151.0,0.3256,-1.4174,30.3489,-1.5633,6.8063,-0.0841
505161.0,0.4405,-3.0454,30.2531,-1.1408,6.8786,-0.0905
505171.0,1.2163,-4.1084,30.0712,-0.4023,7.3783,-0.1644
505181.0,0.6129,-4.1946,30.8565,0.3304,7.9226,-0.2804
505191.0,-0.3543,-3.3806,32.2164,0.8572,8.1222,-0.4214
505201.0,-1.561,-1.992,32.1493,0.8487,8.1147,-0.5151
505211.0,-2.7198,-1.5323,30.2627,0.0436,7.8295,-0.6385
505221.0,-3.486,-1.5227,28.3282,-1.4058,7.73,-0.8046
505231.0,-5.4205,-2.9688,28.558,-2.5706,8.1152,-0.8801
505241.0,-6.3398,-5.6599,31.1821,-2.6276,9.0837,-0.9211
505251.0,-6.3686,-7.9296,34.6202,-1.9795,10.5151,-1.0866
505261.0,-7.7381,-7.9966,40.4429,-0.6694,11.7432,-1.2372
505271.0,-9.5577,-5.7844,46.5241,0.5704,12.3424,-1.3494
505281.0,-10.9559,-3.1987,51.2359,1.4527,12.444,-1.3058
505291.0,-12.0859,-1.1779,56.2446,2.0699,11.9124,-1.1946
505301.0,-13.3309,1.1013,57.3938,2.0359,10.7614,-1.0546
505311.0,-14.3844,1.6855,55.919,1.4218,9.5647,-0.8477
505321.0,-14.2886,0.9481,51.8393,0.4331,9.0241,-0.7551
505331.0,-14.8536,1.0343,47.8361,-1.0722,8.857,-0.7737
505341.0,-16.4625,-0.249,47.0413,-2.9091,8.9778,-0.8008
505351.0,-16.9509,-2.0303,49.9526,-3.8488,9.4226,-0.7971
505361.0,-17.8895,-2.9018,54.2143,-4.1015,9.7382,-0.7764
505371.0,-19.0291,-2.7869,59.3475,-3.9823,9.7196,-0.6949
505381.0,-19.3451,-2.4612,65.7256,-2.9149,9.4642,-0.4369
505391.0,-20.9924,-2.0877,71.2227,-1.3867,8.4978,-0.0484
505401.0,-19.757,-0.7278,69.7575,0.3959,7.4863,0.4012
505411.0,-19.3164,0.5842,67.3537,1.0882,6.9105,0.8083
505421.0,-19.7857,1.2546,65.0936,1.326,6.0762,1.2771
505431.0,-18.8759,0.2107,62.5078,0.9269,5.2535,1.607
505441.0,-18.3875,-1.8196,59.0602,-0.1373,4.6501,1.6927
505451.0,-18.3587,-5.0853,57.8439,-1.6213,3.8195,1.516
505461.0,-17.2957,-7.671,57.049,-3.1666,3.2533,1.0977
505471.0,-17.7746,-9.6055,57.9014,-4.2292,2.734,0.6582
505481.0,-18.3204,-9.9886,59.4528,-4.59,2.088,0.3347
505491.0,-17.3819,-10.5632,59.6731,-4.1244,2.0311,0.174
505501.0,-17.4202,-10.5153,62.0098,-3.1203,2.2008,0.0798
505511.0,-18.397,-9.6726,64.6434,-2.0034,1.7586,0.0681
505521.0,-18.761,-9.0788,66.6929,-0.7258,1.1563,0.1841
505531.0,-18.5982,-8.5904,67.1238,0.6252,0.6827,0.2953
505541.0,-18.4832,-7.5657,65.8884,1.5351,0.2075,0.3395
505551.0,-19.0483,-5.8802,66.3194,1.8134,-0.4805,0.3847
505561.0,-19.8048,-4.5969,66.8844,1.9832,-1.3862,0.5087
505571.0,-20.1017,-4.3191,65.7256,2.1519,-2.2695,0.6588
505581.0,-20.073,-4.5203,63.341,2.0987,-2.9734,0.7295
505591.0,-19.9198,-5.3056,62.3067,2.1146,-3.5758,0.7662
505601.0,-19.7953,-5.6407,59.9029,1.9693,-3.9813,0.7109
505611.0,-19.7091,-6.3782,59.7497,1.756,-4.2479,0.6119
505621.0,-20.4369,-6.5601,59.9795,1.3851,-4.6672,0.5007
505631.0,-20.5901,-7.0677,62.0481,1.3399,-5.1226,0.3794
505641.0,-20.82,-7.2592,63.7815,1.5064,-5.6228,0.306
505651.0,-21.1073,-7.8338,65.5437,2.112,-6.3135,0.2836
505661.0,-20.8391,-7.8338,65.5054,2.6478,-7.0861,0.2128
505671.0,-21.0594,-6.9719,63.9252,3.0187,-8.0338,0.1458
505681.0,-20.7434,-6.6655,60.784,3.1022,-8.932,0.0628
505691.0,-20.0443,-6.2537,57.3938,2.9931,-9.61,-0.0782
505701.0,-19.5654,-4.9225,53.8695,2.6845,-10.108,-0.1937
505711.0,-18.6748,-4.1755,51.054,2.5408,-10.348,-0.2517
505721.0,-18.0044,-3.6488,48.4012,2.3509,-10.5667,-0.3001
505731.0,-17.1329,-3.4764,46.2656,2.2689,-10.6385,-0.3129
505741.0,-16.2518,-2.5283,44.9823,2.2487,-10.613,-0.3246
505751.0,-15.3229,-2.308,44.4651,2.3764,-10.6513,-0.2746
505761.0,-14.1162,-2.0877,42.1858,2.5089,-10.6955,-0.2235
505771.0,-12.7659,-2.241,40.7397,2.5754,-10.6023,-0.1697
505781.0,-11.5592,-2.375,39.2936,2.4791,-10.5257,-0.1958
505791.0,-10.9654,-2.9305,38.652,2.27,-10.5662,-0.2698
505801.0,-9.481,-3.2657,37.7039,2.2977,-10.4709,-0.3783
505811.0,-8.4563,-3.2657,36.6026,2.3487,-10.4246,-0.5161
505821.0,-7.3646,-2.5187,35.7215,2.5281,-10.4028,-0.6125
505831.0,-6.541,-1.494,33.9689,2.485,-10.4347,-0.6779
505841.0,-5.6695,-0.8523,32.0344,2.3493,-10.3709,-0.7136
505851.0,-4.3574,-0.1437,30.483,2.2471,-10.2511,-0.7258
505861.0,-3.0167,0.7661,28.424,1.9853,-9.9899,-0.7045
505871.0,-2.3942,0.4214,27.7919,1.9028,-9.5865,-0.6343
505881.0,-1.8675,0.1149,27.7919,2.0843,-9.2598,-0.6178
505891.0,-0.2011,0.2586,26.8151,2.2253,-8.9065,-0.5444
505901.0,0.9673,-0.814,26.5948,2.5643,-8.4883,-0.563
505911.0,2.4038,-0.7278,25.2062,2.6691,-8.1126,-0.6753
505921.0,3.6775,0.067,24.622,2.75,-7.7923,-0.7886
505931.0,4.6448,1.3982,24.4496,2.6127,-7.3985,-0.8642
505941.0,5.3726,2.6528,23.9037,2.295,-7.1846,-0.9099
505951.0,5.8035,3.5147,23.5685,1.7655,-7.0244,-0.9136
505961.0,5.7652,4.9416,22.5246,0.9892,-7.051,-0.9131
505971.0,7.0485,5.047,22.7545,0.2192,-7.0845,-0.8721
505981.0,6.5122,5.2768,22.8311,-0.3166,-7.1888,-0.8067
505991.0,8.1977,5.5258,21.9405,-0.5853,-7.2734,-0.7444
506001.0,8.6862,5.6024,20.0059,-0.8594,-7.0989,-0.6518
506011.0,9.3853,5.5354,18.5982,-0.8301,-6.9249,-0.5374
506021.0,10.5153,5.1906,16.6732,-0.9376,-6.5056,-0.3986
506031.0,10.6781,4.9321,15.1314,-1.0738,-6.0985,-0.3608
506041.0,11.7603,4.9033,13.5129,-1.2542,-5.6308,-0.3427
506051.0,12.0668,4.6448,12.8042,-1.4346,-5.0269,-0.3437
506061.0,12.6414,4.5586,11.5688,-1.69,-4.573,-0.3719
506071.0,13.2447,4.5969,10.726,-1.906,-3.8828,-0.4294
506081.0,13.7906,4.5394,10.7739,-1.9273,-3.1379,-0.4571
506091.0,14.03,4.7214,10.2759,-1.905,-2.5174,-0.489
506101.0,14.7004,4.6831,10.2089,-1.7097,-1.6889,-0.481
506111.0,14.959,4.6926,9.9695,-1.4649,-0.7482,-0.4395
506121.0,14.6238,5.0757,9.5289,-1.2334,-0.0351,-0.4055
506131.0,14.6812,4.6352,9.3278,-0.9674,0.8349,-0.3177
506141.0,16.0507,3.8882,9.0692,-0.5028,2.0454,-0.2591
506151.0,16.3955,3.8786,9.2895,-0.2884,3.1246,-0.3187
506161.0,15.9837,4.6735,9.9982,-0.2815,4.1622,-0.3272
506171.0,15.5049,5.6312,11.0325,-0.4837,5.1088,-0.2953
506181.0,14.6525,6.11,12.8904,-0.6242,5.8511,-0.1495
506191.0,13.7619,6.2058,14.0971,-0.8253,6.5375,0.0404
506201.0,12.9095,5.4779,15.6964,-0.9424,7.274,0.2288
506211.0,12.2296,4.3574,17.8703,-1.0823,7.9769,0.3767
506221.0,11.1666,2.873,19.2494,-1.1105,8.591,0.4629
506231.0,10.0078,0.8715,21.5957,-1.0382,9.3061,0.4331
506241.0,9.8067,-0.68,24.2868,-0.7673,10.0314,0.2953
506251.0,8.6574,-1.7142,27.2364,-0.423,10.5992,0.067
506261.0,7.3167,-2.2793,29.8796,-0.0394,11.1174,-0.1985
506271.0,6.043,-1.8579,32.8676,0.2027,11.3803,-0.5534
506281.0,4.9225,-0.5363,35.7885,0.0921,11.2994,-0.8615
506291.0,3.8403,1.3599,38.5371,-0.2831,10.9674,-1.0871
506301.0,2.7007,3.2178,40.7685,-0.8067,10.5071,-1.177
506311.0,1.4269,4.8267,42.1188,-1.4899,9.8553,-1.1126
506321.0,0.68,5.3917,43.1531,-2.204,9.0401,-0.9599
506331.0,0.2873,4.865,41.8411,-2.7585,8.4686,-0.7253
506341.0,-0.6416,2.4421,40.7014,-3.0878,8.3994,-0.5475
506351.0,-0.5938,-0.3543,41.64,-2.8723,8.6681,-0.5225
506361.0,-1.3791,-1.3695,42.3486,-2.5722,8.9044,-0.671
506371.0,-2.4612,-1.9249,43.9384,-2.3152,8.8975,-0.8796
506381.0,-2.9209,-1.2258,44.7811,-1.9582,8.9086,-1.0669
506391.0,-3.7445,0.0096,45.758,-1.7586,8.7921,-1.185
506401.0,-4.2808,1.9632,45.8154,-1.6703,8.6894,-1.1669
506411.0,-5.1906,3.3136,46.007,-1.5809,8.7096,-0.9849
506421.0,-5.6695,4.0701,46.8306,-1.5735,8.7495,-0.7609
506431.0,-6.5027,3.9073,47.9894,-1.5543,8.6921,-0.4826
506441.0,-7.8817,3.3423,48.9279,-1.6198,8.5606,-0.232
506451.0,-8.9735,0.747,50.7283,-1.3931,8.3882,-0.0931
506461.0,-9.1937,-1.5897,52.0499,-0.812,8.1802,-0.1352
506471.0,-9.7013,-2.7869,53.0076,-0.3171,7.846,-0.332
506481.0,-9.9982,-3.1125,52.3756,0.1724,7.5166,-0.6678
506491.0,-9.9407,-0.814,50.7283,0.2879,7.249,-0.9706
506501.0,-10.5824,2.3176,49.2248,-0.1048,7.067,-1.0983
506511.0,-11.1857,4.118,48.7555,-0.738,6.9765,-1.0467
506521.0,-12.0668,4.9225,49.943,-1.3122,6.9207,-0.887
506531.0,-13.3596,4.1276,52.0021,-1.6613,6.7052,-0.6689
506541.0,-13.3692,2.6049,54.2526,-1.6932,6.4449,-0.5039
506551.0,-13.6278,1.4365,55.8711,-1.5825,5.9831,-0.4289
506561.0,-13.8672,0.0958,57.2501,-1.35,5.3424,-0.4438
506571.0,-13.8864,-0.7374,57.4417,-1.0525,4.6996,-0.5135
506581.0,-13.7714,-1.2258,56.4649,-0.7801,4.1728,-0.6439
506591.0,-14.0204,-0.5459,54.3675,-0.687,3.7072,-0.7865
506601.0,-13.9821,0.1053,53.7259,-0.5896,3.5034,-0.8216
506611.0,-14.1928,0.4214,52.9214,-0.4965,3.3108,-0.8226
506621.0,-14.279,0.7183,53.1609,-0.4347,3.0873,-0.8179
506631.0,-14.2216,0.8811,53.0555,-0.3842,2.8617,-0.7732
506641.0,-14.3748,1.0439,53.678,-0.2208,2.5446,-0.7482
506651.0,-14.4131,1.3503,53.0651,-0.1213,2.1088,-0.7221
506661.0,-14.4514,1.6089,52.2319,-0.0192,1.6958,-0.6726
506671.0,-14.3077,1.9249,50.7762,0.0128,1.3446,-0.6455
506681.0,-14.0492,2.2793,49.4355,0.0346,1.0679,-0.597
506691.0,-13.9055,2.5187,47.6446,-0.0415,0.9035,-0.5119
506701.0,-13.6948,2.8443,46.754,-0.1836,0.7854,-0.4645
506711.0,-13.6469,2.8252,46.1889,-0.2469,0.7013,-0.364
506721.0,-13.7236,2.7007,46.4475,-0.1878,0.5646,-0.2905
506731.0,-13.5799,2.6528,45.6431,-0.2139,0.4502,-0.2123
506741.0,-13.7619,2.7485,44.9823,-0.2038,0.3751,-0.0942
506751.0,-13.6661,2.4612,44.5513,-0.2261,0.2559,-0.0106
506761.0,-13.5799,2.2218,44.082,-0.2474,0.2309,0.0628
506771.0,-13.9726,2.1452,43.9097,-0.2847,0.2027,0.1346
506781.0,-13.7331,1.6855,44.0725,-0.3219,0.1245,0.182
506791.0,-13.7906,1.0343,43.6319,-0.4103,-0.0218,0.1921
506801.0,-13.3213,0.9194,43.0094,-0.6306,-0.2261,0.1724
506811.0,-13.283,0.5459,43.019,-0.837,-0.3262,0.1383
506821.0,-13.3501,0.2586,43.3446,-0.8317,-0.5236,0.0825
506831.0,-13.3596,0.5267,42.3391,-0.7982,-0.5672,0.0447
