time_ms,ax,ay,az,gx,gy,gz
454311.0,-8.2169,4.0797,41.7549,-0.3751,0.5667,-0.1894
454321.0,-7.9966,4.0893,42.5306,-0.3576,0.5326,-0.1506
454331.0,-7.9679,3.8116,43.2106,-0.2948,0.455,-0.1373
454341.0,-8.0828,4.0318,42.9424,-0.265,0.356,-0.1155
454351.0,-8.3989,4.1276,43.5745,-0.2341,0.2767,-0.1096
454361.0,-8.2456,4.2617,43.0765,-0.257,0.1676,-0.0697
454371.0,-8.0062,4.2521,42.9424,-0.2948,0.1176,-0.0548
454381.0,-8.0541,4.4915,43.4691,-0.3634,-0.017,-0.0585
454391.0,-8.1882,4.3479,43.4979,-0.3799,-0.1517,0.0032
454401.0,-7.9679,4.2425,43.1148,-0.3379,-0.2873,0.0181
454411.0,-7.5657,4.1468,42.4731,-0.2852,-0.348,0.0394
454421.0,-7.4795,3.735,41.707,-0.2666,-0.3517,0.033
454431.0,-7.4508,3.7445,41.2569,-0.3139,-0.3629,0.0255
454441.0,-7.2018,3.7254,40.5674,-0.3379,-0.3145,0.0048
454451.0,-7.2784,3.9169,40.4045,-0.34,-0.2496,0.016
454461.0,-7.3933,3.8499,40.9313,-0.2671,-0.2293,0.0266
454471.0,-6.8857,4.0223,40.778,-0.1591,-0.1522,0.0809
454481.0,-6.9049,3.8882,40.6823,-0.1399,-0.1266,0.0676
454491.0,-7.0485,4.0989,40.9313,-0.1538,-0.1799,0.1038
454501.0,-7.039,3.6966,40.7876,-0.1618,-0.1921,0.1219
454511.0,-6.4739,3.2753,40.5674,-0.1591,-0.1458,0.0937
454521.0,-6.2058,3.2753,40.4333,-0.19,-0.0644,0.0394
454531.0,-6.2824,3.4668,40.7876,-0.223,0.0426,0.0085
454541.0,-6.0908,3.4764,41.9847,-0.0995,0.2017,0.0011
454551.0,-6.0717,3.9744,41.8411,0.0426,0.282,-0.0011
454561.0,-6.6367,4.9129,42.1188,0.0069,0.4379,0.0218
454571.0,-6.4643,5.6982,42.6743,-0.1926,0.6923,0.1032
454581.0,-6.3782,5.8993,44.6471,-0.3022,0.9567,0.2256
454591.0,-7.4316,6.7325,46.7731,-0.4954,0.879,0.3762
454601.0,-6.4452,5.8993,49.9909,-0.4315,0.8971,0.563
454611.0,-6.4356,5.4013,51.9829,-0.2533,0.9168,0.7199
454621.0,-6.8187,4.7022,54.3771,-0.1772,0.4832,0.8354
454631.0,-7.0198,4.3096,56.3595,-0.1995,0.0937,0.9062
454641.0,-7.4316,3.2848,57.3746,-0.273,-0.5247,0.9376
454651.0,-7.6806,2.8443,58.1408,-0.4741,-1.085,0.8812
454661.0,-7.8817,2.6528,58.9548,-0.8482,-1.7671,0.8141
454671.0,-7.8338,1.8196,60.4967,-0.8631,-2.4025,0.7157
454681.0,-8.5329,1.7047,60.6978,-0.8232,-3.0256,0.6151
454691.0,-9.1171,1.3503,61.5884,-0.8093,-3.8695,0.5199
454701.0,-8.7628,2.2984,62.029,-0.5933,-4.4032,0.439
454711.0,-9.7683,4.6448,62.9483,-0.042,-4.9678,0.4794
454721.0,-10.8026,6.5601,62.4791,-0.3358,-6.1619,0.5656
454731.0,-11.1091,7.7381,60.1807,-0.8535,-7.3575,0.7215
454741.0,-10.7069,6.9049,57.1544,-1.6362,-8.6202,0.8498
454751.0,-8.8011,5.7557,52.3756,-2.3104,-9.3897,0.8812
454761.0,-7.6136,3.6871,50.0388,-2.6776,-9.6142,0.8306
454771.0,-6.8857,2.4517,47.5776,-3.0011,-9.8861,0.7125
454781.0,-6.2824,1.1971,46.7348,-2.9442,-10.1852,0.5976
454791.0,-5.0278,0.9002,44.3789,-2.9298,-10.3927,0.4454
454801.0,-3.9648,0.0192,43.2106,-2.7707,-10.5715,0.3177
454811.0,-3.3327,-0.2203,41.2377,-2.3615,-10.6119,0.1905
454821.0,-2.2793,-0.2107,39.3607,-1.9608,-10.5821,0.1091
454831.0,-1.1205,-0.1628,37.5507,-1.5511,-10.373,0.0633
454841.0,-0.3065,-0.4405,37.723,-0.812,-10.058,0.0388
454851.0,0.5555,-0.0287,36.0184,-0.1979,-10.008,0.041
454861.0,1.7238,0.2969,34.3712,0.2884,-9.8537,0.0857
454871.0,3.3806,0.9864,31.9195,0.5869,-9.5653,0.1096
454881.0,4.3766,1.0822,30.1765,0.505,-9.462,0.0926
454891.0,5.9855,1.3599,27.5333,0.4581,-9.022,0.1048
454901.0,6.8378,1.2354,26.2404,0.2724,-8.6266,0.0851
454911.0,7.9679,1.0726,25.4743,0.1219,-8.1557,0.0506
454921.0,9.4523,1.7238,23.9133,-0.025,-7.6199,0.0085
454931.0,10.2376,2.0494,23.3578,-0.4353,-7.1282,-0.0479
454941.0,11.1953,2.1356,23.3004,-0.6332,-6.5796,-0.0458
454951.0,12.2775,2.4134,23.2238,-0.8854,-6.1369,-0.0803
454961.0,12.8138,2.5091,23.7026,-0.8732,-5.5638,-0.0628
454971.0,13.3022,2.6624,23.8941,-0.7279,-5.0354,0.0106
454981.0,14.0683,2.1739,24.9093,-0.3459,-4.5496,0.075
454991.0,14.7004,2.4517,24.0952,-0.1101,-4.1281,0.1261
455001.0,15.1026,2.4325,23.0226,0.0404,-3.8238,0.1804
455011.0,15.5049,2.6145,21.2509,0.0378,-3.4614,0.2097
455021.0,15.7826,2.3559,20.0251,-0.041,-2.9788,0.2166
455031.0,16.2901,2.0303,18.7035,-0.1559,-2.4541,0.1921
455041.0,16.5487,1.8387,17.2478,-0.4007,-1.9188,0.1272
455051.0,16.7498,1.1684,16.4146,-0.7732,-1.3877,-0.0005
455061.0,16.8935,0.7183,14.8919,-1.1472,-0.8785,-0.1783
455071.0,17.0563,0.7278,13.5608,-1.4803,-0.2437,-0.356
455081.0,17.085,0.7566,12.3924,-1.7581,0.5231,-0.5646
455091.0,16.8743,1.2737,11.6741,-1.9901,1.3431,-0.7231
455101.0,16.6062,1.6472,11.3006,-2.1332,2.1779,-0.7859
455111.0,15.6677,1.9441,10.7548,-2.2391,3.0575,-0.7955
455121.0,14.7483,1.7621,10.5058,-2.2865,4.0159,-0.7295
455131.0,14.1162,1.1396,10.3621,-2.0348,5.1152,-0.6242
455141.0,13.7906,0.5555,11.1474,-1.5735,6.3646,-0.5209
455151.0,12.7084,0.0287,12.6318,-1.0222,7.5443,-0.4268
455161.0,11.2144,-0.4597,14.4801,-0.4555,8.5585,-0.3618
455171.0,9.845,-0.9673,16.3093,0.0564,9.3269,-0.3219
455181.0,8.169,-1.8196,17.7171,0.4672,9.9026,-0.3496
455191.0,7.0868,-2.8156,18.0236,0.8099,10.3767,-0.4959
455201.0,6.0142,-3.1795,18.0714,0.9514,10.8753,-0.7721
455211.0,4.4532,-2.9305,18.014,0.8838,11.3281,-1.0648
455221.0,3.0646,-2.7102,17.8895,0.7636,11.8432,-1.3537
455231.0,1.6664,-1.7717,18.3779,0.5417,12.4866,-1.599
455241.0,0.1915,-0.1341,19.4696,0.2677,13.1448,-1.7384
455251.0,-2.3176,1.0151,21.4999,0.0777,13.7918,-1.673
455261.0,-4.2904,1.5227,24.7082,0.3241,14.5219,-1.4777
455271.0,-5.9089,1.5514,28.06,0.8056,15.046,-1.226
455281.0,-7.6614,1.3312,31.5652,1.3835,15.3695,-0.9982
455291.0,-10.8122,0.3448,32.9538,1.6884,15.5462,-0.853
455301.0,-11.1474,-1.1396,35.0798,1.873,15.7543,-0.9158
455311.0,-13.6469,-1.6185,37.1389,1.6607,15.8437,-1.1627
455321.0,-15.093,-0.929,39.3703,1.2249,15.7888,-1.4771
455331.0,-17.3149,2.375,39.5522,-0.4012,15.4355,-1.79
455341.0,-20.7912,4.0127,43.6511,-2.8154,14.8188,-1.9486
455351.0,-23.7984,4.1468,49.7611,-4.4628,13.9413,-1.8305
455361.0,-25.0625,2.6624,55.5646,-4.6565,13.1176,-1.5676
455371.0,-25.3307,2.5379,59.5103,-3.3422,12.8675,-1.1414
455381.0,-26.2788,3.2848,63.2069,-1.0578,12.8048,-0.5949
455391.0,-27.3226,3.6296,65.582,1.6346,12.6435,0.0138
455401.0,-27.1311,3.0263,67.2675,4.1281,12.3354,0.4459
455411.0,-27.428,3.4572,66.4535,5.6819,11.5681,0.6715
455421.0,-26.8151,2.4325,65.0648,6.2795,10.7487,0.6385
455431.0,-25.1487,2.7198,62.1056,5.3557,9.7483,0.2501
455441.0,-25.7808,3.2848,60.0178,3.2996,8.5367,-0.3177
455451.0,-25.618,4.2138,57.8439,0.3996,7.191,-0.9312
455461.0,-24.9476,4.3383,58.7441,-2.2466,6.0485,-1.3995
455471.0,-25.3402,4.3958,60.9276,-3.4497,5.3962,-1.6198
455481.0,-26.0776,4.7405,64.902,-3.1788,4.8795,-1.5064
455491.0,-27.1215,6.1675,65.4862,-2.2923,4.2393,-1.2095
455501.0,-27.5046,6.6463,65.6203,-1.0472,3.7466,-0.7934
455511.0,-27.2077,7.2688,63.274,0.1431,3.4492,-0.3895
455521.0,-26.6235,7.604,61.9428,0.9466,3.3534,-0.0692
455531.0,-26.1543,7.7572,62.2588,1.3739,3.2124,0.174
455541.0,-26.0489,8.1116,63.1495,1.3611,2.6765,0.3432
455551.0,-26.2404,8.4467,64.9691,1.0302,1.8736,0.4911
455561.0,-26.4607,7.3454,65.1127,0.7072,1.0781,0.5901
455571.0,-25.8191,7.173,65.9842,0.2134,0.5279,0.5694
455581.0,-26.9779,7.3837,69.8053,-0.2081,-0.4592,0.5667
455591.0,-28.2803,7.7955,71.9027,-0.3379,-1.7554,0.671
455601.0,-28.1462,8.7724,71.4047,-0.5795,-3.0134,0.7822
455611.0,-29.0081,9.2799,71.3759,-0.9855,-4.2814,0.8971
455621.0,-30.234,9.2991,71.012,-1.4245,-5.6457,1.0366
455631.0,-29.2476,8.9256,69.9969,-1.4335,-6.7099,1.1616
455641.0,-30.2244,9.347,69.1158,-1.8416,-7.9402,1.2302
455651.0,-30.3872,10.2376,66.8748,-2.3126,-9.3859,1.3457
455661.0,-29.7743,10.1897,63.9156,-2.7383,-10.6093,1.5165
455671.0,-29.0656,8.9735,60.1711,-3.0341,-11.6772,1.6969
455681.0,-27.428,7.853,55.8136,-3.0815,-12.3562,1.8235
455691.0,-25.436,7.1635,51.5519,-3.0868,-12.6893,1.9342
455701.0,-24.2006,6.4356,47.7212,-3.2038,-12.9234,2.0337
455711.0,-22.4768,4.6352,45.0493,-2.8074,-12.9069,2.1966
455721.0,-20.5327,3.1029,42.6551,-2.3519,-12.7904,2.2652
455731.0,-19.3547,1.0439,40.2896,-1.757,-12.685,2.2961
455741.0,-17.0946,-0.6512,37.0527,-1.0025,-12.2982,2.2476
455751.0,-14.0396,-1.245,34.1317,-0.5768,-11.6421,2.071
455761.0,-12.8042,-1.6855,32.6378,-0.4017,-10.9041,1.9098
455771.0,-11.0325,-2.624,33.3081,-0.0346,-10.307,1.7129
455781.0,-8.4467,-2.6049,33.1453,0.0521,-9.8297,1.4649
455791.0,-7.9871,-3.0358,34.4478,0.2794,-9.5291,1.2462
455801.0,-6.4356,-2.6719,34.6489,0.4741,-9.171,1.0334
455811.0,-6.6559,-2.1739,36.9186,0.589,-9.1396,0.8657
455821.0,-6.1866,-1.8387,37.2921,1.0786,-9.1832,0.7843
455831.0,-4.8363,-1.0151,35.4533,1.318,-9.1295,0.6806
455841.0,-4.8171,-0.1437,34.6202,1.1712,-9.2306,0.622
455851.0,-3.7637,0.1437,33.5476,1.1105,-9.1997,0.6066
455861.0,-2.624,0.4693,32.4366,0.9323,-9.0358,0.571
455871.0,-2.0782,-0.3639,33.04,0.8248,-8.9735,0.5465
455881.0,-1.1971,-0.6704,32.3217,0.7263,-9.0895,0.4119
455891.0,0.3926,-0.067,30.7607,0.5358,-9.1039,0.2591
455901.0,0.4022,0.6416,29.3242,0.1288,-9.138,0.1469
455911.0,1.2067,0.5938,27.8972,-0.1165,-9.1598,0.0931
455921.0,2.8252,0.9768,26.2021,-0.3831,-8.9485,0.0064
455931.0,3.486,1.2546,25.1008,-0.6566,-8.6862,-0.0718
455941.0,4.3096,1.6089,23.9899,-0.7535,-8.4186,-0.0809
455951.0,5.6216,1.7047,23.1088,-0.663,-7.9556,-0.0202
455961.0,6.7804,1.312,22.8024,-0.2299,-7.3059,0.0713
455971.0,7.9296,0.9673,22.0841,0.1022,-6.7616,0.1048
455981.0,9.1459,1.1301,21.0307,0.2485,-6.2417,0.0952
455991.0,9.845,1.9345,20.0443,0.1905,-5.7505,0.1054
456001.0,10.3908,2.0877,19.6229,0.0819,-5.2567,0.1485
456011.0,11.7412,2.1739,18.3587,-0.183,-4.7587,0.1799
456021.0,12.3158,1.9249,17.7746,-0.4129,-4.2819,0.2097
456031.0,13.1202,1.5036,16.9126,-0.6949,-3.7141,0.1974
456041.0,14.0779,1.4653,16.1273,-0.986,-3.1086,0.1431
456051.0,14.3844,1.1875,15.8879,-1.2568,-2.527,0.0601
456061.0,14.7291,0.5938,15.9933,-1.3548,-1.8917,-0.016
456071.0,15.5432,0.1724,16.089,-1.1898,-1.1275,-0.0979
456081.0,15.5144,-0.0479,16.6924,-0.9014,-0.3555,-0.1809
456091.0,15.6198,0.2682,16.5391,-0.6242,0.4486,-0.2613
456101.0,15.7826,0.6608,16.4625,-0.3437,1.2361,-0.3352
456111.0,15.7251,1.3503,17.0467,-0.2283,1.9337,-0.3735
456121.0,15.5144,1.7909,17.5543,-0.1144,2.6127,-0.3954
456131.0,15.2367,2.6624,17.7362,-0.2043,3.2049,-0.3735
456141.0,14.8249,2.7581,18.579,-0.3448,3.7328,-0.2932
456151.0,14.6334,2.8443,19.01,-0.4725,4.3176,-0.2235
456161.0,14.0779,2.5762,19.6803,-0.6204,4.8784,-0.1336
456171.0,12.9095,1.7238,20.7912,-0.7593,5.3871,-0.0277
456181.0,12.9861,0.6704,21.136,-0.7615,6.0645,0.0138
456191.0,12.5648,-0.5555,22.7353,-0.7508,6.7147,-0.0234
456201.0,11.406,-1.312,24.4209,-0.6933,7.2596,-0.0974
456211.0,10.1323,-2.1548,26.3075,-0.6024,7.6869,-0.2373
456221.0,9.4906,-2.8252,27.9643,-0.4166,8.0748,-0.4539
456231.0,8.4372,-3.2561,29.5923,-0.1815,8.3201,-0.7476
456241.0,7.0868,-2.5857,31.0193,0.0277,8.4856,-1.0648
456251.0,5.679,-0.68,31.6035,0.158,8.5883,-1.2861
456261.0,4.3574,2.0782,32.5133,0.1144,8.642,-1.3548
456271.0,3.0646,4.8171,32.5899,-0.0037,8.6804,-1.2473
456281.0,1.9058,7.0198,33.3464,-0.3725,8.7288,-0.97
456291.0,0.6895,8.2265,34.2179,-0.8253,8.6713,-0.5646
456301.0,-0.1532,8.1594,35.2905,-1.4926,8.3717,-0.132
456311.0,-1.6089,6.9336,35.6161,-2.2939,7.9684,0.2613
456321.0,-2.7485,4.8842,36.411,-2.8356,7.5305,0.5922
456331.0,-3.3998,2.0782,35.8077,-3.0565,7.3123,0.8391
456341.0,-3.3806,-1.0343,35.0798,-2.7308,7.6151,0.9679
456351.0,-2.9497,-3.8211,35.5108,-2.1689,8.1951,0.8711
456361.0,-2.8635,-5.0278,36.4206,-1.7437,8.6644,0.5656
456371.0,-3.7254,-4.051,38.1636,-1.5665,8.8113,0.2347
456381.0,-3.8211,-2.6815,39.8682,-1.5511,8.5989,0.0043
456391.0,-4.4245,-0.6129,39.8491,-1.6815,8.2312,-0.0958
456401.0,-7.1156,0.5363,38.5562,-2.0369,7.8119,-0.0383
456411.0,-7.7381,0.2107,36.5164,-1.956,7.913,0.1112
456421.0,-7.5944,0.1628,34.85,-1.6655,8.7123,0.2416
456431.0,-9.6438,-0.1149,37.1484,-1.2276,9.603,0.4214
456441.0,-11.1666,-1.7621,40.4524,-0.4997,10.3384,0.6263
456451.0,-12.3541,-4.1276,45.4515,0.456,10.688,0.6758
456461.0,-11.8082,-4.9799,48.4203,1.2286,10.588,0.513
456471.0,-12.6701,-4.9225,51.0348,1.599,10.1767,0.2224
456481.0,-13.216,-3.7828,52.2127,1.8384,9.3976,-0.074
456491.0,-14.4514,-1.9249,50.6805,1.6022,8.6399,-0.3342
456501.0,-15.2942,-0.4884,49.1386,1.3516,8.2009,-0.448
456511.0,-16.3668,0.8332,48.0181,0.9365,7.9955,-0.4587
456521.0,-17.4968,1.312,48.4395,0.7822,8.0179,-0.39
456531.0,-17.6979,1.2258,49.311,0.646,8.0578,-0.3139
456541.0,-18.1576,0.8811,51.6573,0.5321,7.937,-0.3187
456551.0,-18.3109,0.929,54.1377,0.5321,7.4549,-0.3257
456561.0,-18.1289,1.0726,55.239,0.5986,6.7695,-0.3693
456571.0,-19.0962,1.3503,54.6357,0.5992,5.9825,-0.4156
456581.0,-19.824,0.6991,52.682,0.6178,5.3749,-0.5034
456591.0,-19.5463,0.6129,49.8281,0.6098,5.3068,-0.6486
456601.0,-20.3794,1.1109,49.4929,0.4757,5.4063,-0.8264
456611.0,-20.8583,2.3942,49.7611,0.4401,5.4829,-0.9232
456621.0,-21.1073,3.7637,51.4753,0.2927,5.5244,-0.945
456631.0,-21.6436,5.1811,53.7738,0.1719,5.2929,-0.8759
456641.0,-22.2948,6.0047,55.5455,0.0106,4.7858,-0.7114
456651.0,-22.9269,5.7844,56.8671,-0.0718,4.2431,-0.5587
456661.0,-23.7313,5.0949,57.413,0.1511,3.8073,-0.3895
456671.0,-24.2485,4.4436,58.1599,0.4954,3.4449,-0.2873
456681.0,-23.9803,3.9265,59.4241,0.9312,3.1038,-0.2512
456691.0,-24.5166,3.9744,60.9181,1.4394,2.7803,-0.2325
456701.0,-24.6986,5.6216,62.1918,1.8539,2.2104,-0.1969
456711.0,-25.6946,7.0294,63.1878,2.1912,1.5314,-0.0708
456721.0,-26.4416,8.2552,62.6323,2.286,0.7955,0.1096
456731.0,-27.0545,8.4084,62.1439,2.0907,0.0612,0.2405
456741.0,-27.2939,8.5712,61.7991,1.7081,-0.5992,0.3613
456751.0,-27.5429,8.8202,61.78,1.1408,-1.1813,0.4443
456761.0,-27.1119,8.9256,62.6802,0.5364,-1.8081,0.5316
456771.0,-27.677,8.4372,65.8501,0.1586,-2.4823,0.7088
456781.0,-27.9355,7.6423,68.522,0.1878,-3.4587,0.9328
456791.0,-27.6865,6.4835,69.6042,0.4214,-4.6017,1.1563
456801.0,-28.1558,5.0853,69.202,0.6306,-5.7926,1.3175
456811.0,-26.8821,2.9592,69.7096,1.3143,-6.5205,1.441
456821.0,-27.8302,2.6719,68.8955,1.7139,-7.6177,1.4356
456831.0,-28.1941,1.8675,67.1047,1.6905,-9.1944,1.3186
456841.0,-26.8534,2.2984,62.4504,1.358,-10.4688,1.118
456851.0,-25.867,3.1029,57.8248,1.0254,-11.3521,0.9663
456861.0,-25.3307,3.8882,53.8791,0.6795,-11.8587,0.912
456871.0,-24.4113,4.3096,51.121,0.34,-12.328,0.8812
456881.0,-23.4632,4.3191,48.7364,0.1038,-12.5674,0.9019
456891.0,-22.1895,4.1276,46.8019,0.2017,-12.7292,0.9392
456901.0,-21.0402,4.3766,44.695,0.1139,-12.8995,0.9839
456911.0,-20.3411,3.7733,43.9097,0.1096,-13.1198,1.0318
456921.0,-18.6556,2.8635,42.5114,0.505,-13.066,1.0674
456931.0,-16.3572,1.8675,41.7261,1.3292,-12.8346,1.0733
456941.0,-15.4187,2.308,39.6959,1.7459,-12.8346,1.0254
456951.0,-13.6948,2.7102,37.4262,2.0119,-12.8452,0.9897
456961.0,-12.287,2.988,34.8404,2.0124,-12.7521,0.9668
456971.0,-9.9599,3.3615,32.3409,2.0242,-12.3376,0.9578
456981.0,-8.7628,3.4477,31.3928,1.7671,-12.1104,0.9131
456991.0,-7.355,3.5817,29.8222,1.524,-12.0513,0.8354
457001.0,-5.6216,4.0701,28.6442,1.3399,-11.7618,0.7907
457011.0,-4.7788,3.8882,27.5046,1.1345,-11.5112,0.7194
457021.0,-3.1795,4.0414,25.5605,1.0248,-11.2148,0.638
457031.0,-1.2546,4.6543,24.1814,0.8402,-10.6923,0.5412
457041.0,0.1915,5.7174,23.6451,0.6024,-10.2198,0.5156
457051.0,0.7087,6.2441,22.879,0.373,-9.8946,0.5433
457061.0,2.1165,7.1635,21.4042,0.1011,-9.4072,0.6087
457071.0,3.3615,7.0677,20.82,-0.0325,-8.9161,0.704
457081.0,4.4628,7.039,20.0921,-0.1596,-8.5234,0.7907
457091.0,5.6407,7.0485,19.1919,-0.2932,-8.0631,0.8886
457101.0,6.5888,6.4356,18.3204,-0.3209,-7.5113,0.9833
457112.0,8.0541,5.545,17.0946,-0.3549,-6.8866,1.0052
457121.0,9.1842,4.9033,16.6349,-0.2554,-6.1762,0.9711
457131.0,9.8641,4.1563,16.1465,-0.2666,-5.4366,0.9088
457141.0,11.157,3.2274,16.4817,-0.1399,-4.6672,0.7854
457151.0,11.9614,2.806,16.6349,-0.1729,-4.0174,0.5789
457161.0,12.2775,3.5817,17.267,-0.3118,-3.5848,0.3597
457171.0,12.5935,4.3479,16.9701,-0.5412,-3.1953,0.2054
457181.0,12.6031,4.6926,16.9414,-0.6625,-2.7829,0.1272
457191.0,13.0628,4.9608,16.022,-0.7247,-2.3259,0.049
457201.0,13.216,4.6256,15.3899,-0.8998,-1.789,-0.0729
457211.0,13.0723,4.7118,14.7866,-1.0424,-1.293,-0.2011
457221.0,13.3309,5.296,14.0779,-1.1675,-0.7019,-0.3581
457231.0,13.3788,6.1196,13.6182,-1.3377,-0.1006,-0.4688
457241.0,12.9383,6.9623,12.8617,-1.6144,0.4486,-0.4949
457251.0,13.1298,7.4891,12.5265,-1.8879,1.0876,-0.4576
457261.0,13.4171,7.8243,12.6318,-2.1614,1.8789,-0.3533
457271.0,12.8042,7.9966,12.6605,-2.3322,2.6712,-0.2309
457281.0,12.5839,7.7189,13.5991,-2.3471,3.4811,-0.0532
457291.0,12.4211,7.4412,14.4131,-2.254,4.3942,0.1293
457301.0,11.6262,7.2018,15.5623,-2.0859,5.3493,0.3672
457311.0,10.8314,5.8035,18.9046,-1.5719,6.2491,0.6162
457321.0,10.5249,3.7254,22.0841,-0.7013,7.0398,0.7753
457331.0,10.1323,2.308,23.9612,-0.0841,7.5485,0.763
457341.0,9.5289,1.8771,26.7001,0.406,7.7284,0.6635
457351.0,8.5329,2.0399,27.1407,0.4491,7.6954,0.5199
457361.0,7.9775,1.7047,26.997,0.149,7.6938,0.3161
457371.0,6.9336,0.7183,26.7289,-0.5326,7.6332,-0.0218
457381.0,6.1004,-0.1341,26.3266,-1.4543,7.4469,-0.4922
457391.0,5.5162,-0.7566,26.6044,-2.3046,7.4799,-1.0658
457401.0,5.0757,1.1971,26.8534,-3.0974,7.5853,-1.5628
457411.0,4.1946,4.0606,27.4184,-3.7253,7.9774,-1.7698
457421.0,3.0167,7.1922,30.9522,-3.6258,8.6362,-1.5373
457431.0,2.0303,8.8298,35.3863,-3.0698,9.0858,-0.9637
457441.0,1.2833,9.2608,38.9297,-2.1285,9.1912,-0.2442
457451.0,1.1396,8.1882,41.0079,-1.3963,8.915,0.4273
457461.0,1.4365,6.2058,41.525,-1.0089,8.318,0.9115
457471.0,0.3735,2.2505,40.2417,-1.1414,7.5794,1.1919
457481.0,-0.7661,-4.1563,37.9912,-1.3079,7.025,0.9982
457491.0,0.2011,-9.414,33.5092,-1.7017,7.0005,0.2953
457501.0,0.6704,-11.7029,32.2834,-1.8342,7.6512,-0.6886
457511.0,-0.5842,-10.9176,32.7144,-1.5096,8.7128,-1.6389
457521.0,-2.2984,-7.0964,34.7542,-0.8136,9.6483,-2.2891
457531.0,-4.5394,-2.6719,37.7135,-0.1884,10.3331,-2.5781
457541.0,-5.8802,0.7853,39.8778,0.331,10.7354,-2.6675
457551.0,-8.0062,4.8363,41.9464,0.5369,10.7412,-2.5196
457561.0,-9.1267,7.8913,43.6607,0.4938,10.48,-2.1801
457571.0,-10.8505,9.5864,43.7085,0.3022,10.4145,-1.5985
457581.0,-12.5648,7.3933,45.1834,0.0229,10.3618,-1.0499
457591.0,-13.034,3.8403,45.6239,-0.4619,10.3102,-0.7567
457601.0,-14.777,-1.0343,47.0317,-1.085,10.2522,-0.7966
457611.0,-15.026,-5.3056,50.1154,-1.1818,10.2394,-1.1456
457621.0,-15.2654,-6.6559,54.0515,-1.0137,10.2378,-1.6538
457631.0,-17.0659,-6.2058,57.8918,-0.6444,9.8462,-2.1157
457641.0,-17.8129,-3.7445,59.8646,-0.1495,9.155,-2.4514
457651.0,-18.7418,-0.3926,60.0083,0.1517,8.5095,-2.5882
457661.0,-19.9389,2.873,59.6348,0.4661,7.9072,-2.4397
457671.0,-20.2262,5.0661,58.4089,0.7599,7.4464,-2.1391
457681.0,-22.0267,6.0717,56.5223,0.861,7.0633,-1.7671
457691.0,-22.8694,4.7309,54.8751,0.8705,6.8153,-1.4931
457701.0,-21.8734,3.1603,53.3811,0.5976,6.8142,-1.4457
457711.0,-22.0075,3.4285,54.6836,0.1096,6.7057,-1.5421
457721.0,-23.2716,4.0127,57.3268,-0.1857,6.3183,-1.5165
457731.0,-23.7122,4.2808,60.037,-0.0495,5.799,-1.3622
457741.0,-24.3825,4.367,61.1096,0.4044,5.3632,-1.1542
457751.0,-24.3538,4.5203,61.4544,0.8493,4.9689,-0.9791
457761.0,-24.8231,5.1332,61.8374,1.1909,4.6432,-0.7811
457771.0,-26.116,5.612,63.274,1.3292,4.076,-0.5811
457781.0,-26.5756,5.7844,64.4902,1.1909,3.3736,-0.4225
457791.0,-27.2939,5.4588,66.08,0.7662,2.3674,-0.3187
457801.0,-27.677,5.1236,67.1813,0.4635,1.2675,-0.274
457811.0,-27.7536,5.1906,67.641,0.2128,0.1926,-0.2639
457821.0,-27.8015,6.1866,68.1294,0.2778,-0.8226,-0.1634
457831.0,-27.3131,7.6231,67.2675,0.6098,-1.5915,0.0772
457841.0,-27.0832,8.7053,66.3864,0.9732,-2.3078,0.3906
457851.0,-27.2269,9.5289,65.5054,1.2143,-3.0527,0.7944
457861.0,-26.7672,9.098,65.7065,1.5649,-3.6466,1.193
457871.0,-26.9396,8.2552,65.2755,1.9576,-4.3335,1.5421
457881.0,-26.7959,6.8091,64.4423,2.1093,-5.2126,1.7783
457891.0,-25.5892,6.0334,62.2971,2.0045,-5.9038,1.8337
457901.0,-25.3785,5.0949,60.7074,1.5782,-6.6743,1.7847
457911.0,-24.9476,5.5833,59.0123,0.9881,-7.4421,1.641
457921.0,-24.4017,6.2632,59.0793,0.4033,-8.0721,1.5325
457931.0,-24.3538,6.7325,59.3858,0.3863,-8.7692,1.5995
457941.0,-24.3825,6.9911,58.543,0.3496,-9.7355,1.6607
457951.0,-23.2812,7.106,56.4074,0.6135,-10.2964,1.7804
457961.0,-23.1759,7.2113,53.5152,0.5789,-10.9237,1.8736
457971.0,-22.3427,7.4412,49.943,0.3719,-11.5319,1.9326
457981.0,-21.2031,6.8857,47.3286,0.3959,-11.6048,2.0353
457991.0,-19.7378,6.2632,45.4515,0.5108,-11.6793,2.1008
458001.0,-18.5024,6.0908,43.2584,0.5018,-11.8666,2.0875
458011.0,-16.9126,6.043,41.4005,0.48,-11.9177,2.063
458021.0,-15.8496,6.3973,38.9968,0.2235,-11.9954,2.0188
458031.0,-14.7674,6.0813,38.0678,-0.0362,-11.9784,1.9704
458041.0,-12.8233,5.0661,37.1676,-0.0357,-11.8789,1.9252
458051.0,-11.0708,4.7597,36.8516,-0.0607,-11.7735,1.7868
458061.0,-10.9367,5.794,35.846,-0.2581,-12.0268,1.6841
458071.0,-10.1418,5.5641,34.8692,-0.2634,-12.0444,1.7028
458081.0,-8.3318,5.2289,33.7774,-0.0282,-12.0428,1.7193
458091.0,-6.9815,5.4779,31.6992,0.2767,-12.0524,1.7219
458101.0,-5.9472,5.6599,30.2914,0.4422,-11.865,1.765
458111.0,-4.6926,6.0717,27.9451,0.4725,-11.872,1.806
458121.0,-3.3519,5.9664,25.6946,0.2288,-11.7884,1.831
458131.0,-2.0016,5.7557,23.1376,0.0665,-11.4803,1.8496
458141.0,-0.182,4.7692,21.7681,-0.0154,-11.102,1.8539
458151.0,2.0399,4.0318,19.8144,0.0995,-10.5167,1.7746
458161.0,3.7254,3.6679,18.3587,0.1064,-9.8063,1.6416
458171.0,5.2289,3.8211,17.9086,0.2554,-9.0688,1.5586
458181.0,6.3973,4.1084,17.6501,0.4294,-8.3584,1.5186
458191.0,7.5178,4.4532,17.2574,0.5279,-7.7066,1.4883
458201.0,8.4276,4.8842,16.8169,0.4246,-7.2218,1.4622
458211.0,8.9639,4.7788,15.8592,0.1788,-6.7834,1.4724
458221.0,9.9407,3.9169,14.7579,0.0101,-6.2917,1.4298
458231.0,11.7316,3.0454,13.9726,-0.1426,-5.6569,1.3101
458241.0,12.7946,2.7198,12.967,-0.3592,-4.9577,1.1488
458251.0,13.3596,2.3655,13.0053,-0.6024,-4.3043,0.9386
458261.0,14.0013,2.2505,12.9287,-0.7806,-3.6833,0.7258
458271.0,14.8632,2.2218,12.8904,-1.011,-3.0937,0.4997
458281.0,15.5527,2.4038,13.0915,-1.1382,-2.5414,0.3012
458291.0,15.7251,2.8443,13.1106,-1.3276,-2.0045,0.1368
458301.0,15.9645,3.4189,12.536,-1.4468,-1.4803,0.0138
458311.0,15.9837,3.984,11.9231,-1.6352,-0.9935,-0.058
458321.0,16.1944,4.051,10.7835,-1.8592,-0.439,-0.1378
458331.0,17.085,4.2329,10.1418,-2.1279,0.3874,-0.1772
458341.0,16.9031,4.6735,9.8737,-2.3487,1.2691,-0.1527
458351.0,16.7786,4.9321,10.2568,-2.4036,2.1024,-0.0463
458361.0,16.2997,4.7788,11.3389,-2.3354,3.0064,0.1165
458371.0,16.0507,4.0893,12.1817,-2.0779,3.8999,0.3102
458381.0,15.4857,3.2657,12.7946,-1.9018,4.6688,0.4624
458391.0,14.9494,1.7813,12.9095,-1.7193,5.4031,0.5555
458401.0,14.7291,0.4597,13.2351,-1.5766,6.2092,0.5279
458411.0,14.6429,-0.1915,13.7331,-1.384,7.0936,0.4427
458421.0,13.5895,-0.6033,14.71,-1.3053,7.9301,0.3219
458431.0,12.1625,-1.0247,16.1369,-1.0509,8.7846,0.2288
458441.0,11.2623,-2.4708,18.014,-0.5332,9.7488,0.0894
458451.0,10.5441,-3.2465,19.7857,0.0319,10.6593,-0.2043
458461.0,9.5002,-2.9975,22.381,0.2671,11.3835,-0.6242
458471.0,8.6383,-0.3256,24.2581,-0.0548,11.7097,-1.027
458481.0,5.7557,3.122,26.8438,-1.0919,11.5644,-1.1765
458491.0,2.9209,4.6735,30.0041,-2.1439,11.1541,-1.0084
458501.0,1.8866,4.4628,32.6569,-2.8888,10.704,-0.6864
458511.0,0.5746,3.1508,33.9115,-3.3528,10.2687,-0.3735
458521.0,-0.3735,0.7949,33.4709,-3.5918,9.8622,-0.1399
458531.0,-0.9577,-1.8387,32.5228,-3.5306,9.8079,-0.041
458541.0,-1.2163,-3.9552,30.9235,-3.1842,10.1144,-0.1123
458551.0,-1.1492,-5.0949,28.7879,-2.8958,10.8785,-0.3209
458561.0,-2.9018,-6.7038,28.9411,-2.8197,11.7985,-0.63
458571.0,-4.1276,-6.924,31.9865,-2.4355,12.7968,-0.9951
458581.0,-6.5697,-5.8227,36.162,-2.2445,13.4656,-1.2393
458591.0,-10.3908,-5.6024,41.2569,-1.7719,13.6146,-1.367
458601.0,-12.0668,-5.4492,44.6375,-1.2446,13.6013,-1.4745
458611.0,-13.5991,-4.8076,47.1083,-0.6646,13.4114,-1.6033
458621.0,-15.6389,-4.6735,48.5161,-0.3044,13.1512,-1.8017
458631.0,-16.7881,-3.4764,49.6462,0.0442,12.9436,-1.9704
458641.0,-19.3547,-3.1699,51.0156,0.3177,12.8095,-2.0917
458651.0,-20.9062,-2.9018,52.9023,0.6439,12.6015,-2.2333
458661.0,-21.883,-1.4653,54.4154,0.6359,12.4009,-2.402
458671.0,-23.5398,-0.249,56.8383,0.4997,12.0539,-2.4669
458681.0,-24.3538,1.0918,60.3913,0.5146,11.4968,-2.4616
458691.0,-24.9572,2.4229,63.7528,0.6061,10.7763,-2.4014
458701.0,-25.2636,3.869,66.6642,0.8732,9.8404,-2.2125
458711.0,-26.1447,6.043,68.7806,1.376,8.633,-1.8555
458721.0,-27.1886,6.7516,69.3457,2.1104,7.5603,-1.3446
458731.0,-27.5812,6.6559,67.4878,2.8617,6.504,-0.8684
458741.0,-26.6044,6.0525,63.1112,2.9729,5.8979,-0.5981
458751.0,-26.3649,4.5203,61.1192,2.5243,5.4398,-0.5773
458761.0,-26.0106,4.5873,60.8893,1.7762,4.7933,-0.7024
458771.0,-26.2309,5.114,61.4065,0.9748,4.1021,-0.7923
458781.0,-26.1351,5.0661,61.6459,0.2341,3.4587,-0.8652
458791.0,-26.1351,4.8746,62.9675,-0.2139,2.8771,-0.8892
458801.0,-26.499,4.5586,64.0593,-0.3038,2.278,-0.8961
458811.0,-26.9683,5.3247,64.9978,-0.3964,1.6442,-0.8748
458821.0,-27.5908,6.5218,65.9938,-0.3347,0.8588,-0.7444
458831.0,-28.1175,7.7189,66.0608,-0.2224,0.0931,-0.4858
458841.0,-27.677,8.2744,66.2619,0.008,-0.4688,-0.1522
458851.0,-27.3705,8.418,67.4878,0.2953,-0.9679,0.2347
458861.0,-27.5237,7.4124,68.8955,0.7114,-1.7097,0.6071
458871.0,-27.4663,7.2305,68.6178,0.638,-2.7877,0.8434
458881.0,-27.6482,6.177,68.0528,0.4544,-3.9243,0.9833
458891.0,-26.5278,5.2481,65.7735,0.3666,-4.7049,1.0711
458901.0,-26.4607,4.6735,65.2947,0.3523,-5.3493,1.0834
458911.0,-26.6714,4.6831,64.0593,0.3022,-6.172,1.0743
458921.0,-26.1447,4.7692,64.2125,0.5151,-6.7812,1.1605
458931.0,-25.8286,5.3439,63.0633,0.7439,-7.3602,1.2584
458941.0,-25.7425,4.9704,63.6187,1.1419,-7.9918,1.4138
458951.0,-25.0721,5.5929,62.3259,1.2031,-8.765,1.541
458961.0,-24.8518,5.1906,61.5118,1.1712,-9.6142,1.6847
458971.0,-24.3251,4.0893,59.8359,1.2191,-10.4065,1.7991
458981.0,-22.7162,3.237,57.2501,1.2861,-11.2105,1.8246
458991.0,-21.4425,3.0167,54.425,1.2175,-11.7703,1.7783
459001.0,-19.9772,2.8252,51.3413,1.1196,-12.2817,1.7469
459011.0,-18.6077,2.8347,48.7364,1.036,-12.7468,1.6799
459021.0,-17.5926,2.5857,45.4994,0.7774,-13.1171,1.6118
459031.0,-15.9262,2.2027,42.8849,0.7343,-13.2762,1.5085
459041.0,-14.9398,1.6376,40.6919,0.862,-13.2815,1.4053
459051.0,-13.532,1.4653,39.1404,1.1589,-13.3012,1.2909
459061.0,-11.5496,1.6185,36.9952,1.4223,-13.3864,1.1685
459071.0,-9.6822,2.1835,34.419,1.6171,-13.2448,1.0578
459081.0,-8.1499,3.1412,31.048,1.7107,-13.3076,0.978
459091.0,-6.5984,3.6775,27.811,1.4165,-13.0719,0.8716
459101.0,-4.7309,3.3998,26.4033,1.1696,-12.759,0.7567
459111.0,-2.806,3.6679,24.756,1.1552,-12.4807,0.6359
459121.0,-0.6895,4.2713,22.5055,1.0791,-12.0018,0.5279
459131.0,-0.2107,4.3766,21.4329,1.0573,-11.5325,0.4613
459141.0,1.5036,4.5777,19.9485,1.0946,-11.0004,0.397
459151.0,3.7158,5.1619,18.1193,1.0823,-10.2629,0.3379
459161.0,4.6926,5.8035,17.5064,0.7705,-9.7685,0.2597
459171.0,5.5641,6.4643,16.6445,0.571,-9.2423,0.249
459181.0,6.8474,7.2688,15.8879,0.4741,-8.6314,0.2788
459191.0,8.0158,7.9296,14.9207,0.331,-8.0003,0.3427
459201.0,8.7628,8.4563,14.2982,0.1431,-7.3708,0.4778
459211.0,9.2129,8.8011,13.6565,-0.0649,-6.7775,0.6077
459221.0,10.3334,8.6287,13.7236,-0.2001,-6.1475,0.7758
459231.0,11.3006,8.6574,13.2351,-0.3241,-5.51,0.9519
459241.0,11.8369,8.3222,12.3541,-0.447,-4.9093,1.0924
459251.0,11.9997,8.102,12.5169,-0.6508,-4.342,1.2446
459261.0,12.3732,7.5178,11.789,-0.8317,-3.7839,1.3798
459271.0,12.5648,6.6367,11.7124,-0.9248,-3.2565,1.5272
459281.0,13.3118,5.6503,11.2911,-0.9397,-2.6345,1.6006
459291.0,13.781,5.0182,10.3238,-1.0147,-2.0215,1.6059
459301.0,13.7044,4.3287,10.4674,-1.1387,-1.4835,1.5564
459311.0,13.9534,3.7541,9.1363,-1.3659,-0.845,1.4777
459321.0,14.0109,3.9648,7.8626,-1.5591,-0.116,1.433
459331.0,14.0204,3.6392,6.7708,-1.732,0.7689,1.4383
459341.0,14.4227,3.3327,6.0238,-1.8661,1.9172,1.4394
459351.0,14.1545,2.8156,5.8802,-1.8337,3.2885,1.4883
459361.0,13.4841,2.2505,6.9528,-1.764,4.6038,1.5639
459371.0,12.6127,1.6472,8.3606,-1.499,5.949,1.6778
459381.0,11.2911,0.4405,10.4866,-1.2223,7.2165,1.7671
459391.0,10.3142,-1.2354,12.7467,-0.8631,8.3143,1.798
459401.0,9.347,-2.6624,14.7866,-0.5444,9.2667,1.7086
459411.0,8.5042,-3.9552,16.7786,-0.2474,9.9697,1.5075
459421.0,7.6231,-5.3534,18.148,-0.125,10.5247,1.1632
459431.0,6.8953,-6.3686,19.0004,-0.1862,10.8556,0.6758
459441.0,5.7461,-6.5601,19.7665,-0.4411,11.069,0.1059
459451.0,4.616,-5.9472,19.7282,-0.8072,11.2632,-0.456
459461.0,3.1987,-4.5298,18.7897,-1.2638,11.5687,-0.9333
459471.0,0.9098,-3.3423,18.6269,-1.6735,12.1322,-1.2302
459481.0,-1.561,-2.241,18.7227,-1.8411,12.834,-1.417
459491.0,-3.122,-1.9249,19.5941,-1.872,13.7509,-1.5825
459501.0,-5.1236,-1.2354,22.3331,-1.6235,14.839,-1.7299
459511.0,-7.4124,-0.3448,26.9683,-1.0552,15.675,-1.8533
459521.0,-10.3717,1.3599,32.6761,-0.2554,16.2289,-1.8635
459531.0,-13.9247,4.7884,36.66,0.4502,16.1203,-1.7443
459541.0,-15.4953,8.1499,39.7246,0.986,15.7745,-1.3819
459551.0,-17.6117,10.7069,41.276,1.0084,15.4387,-0.8471
459561.0,-20.2933,10.7452,45.5377,1.1797,14.9731,-0.2017
459571.0,-20.4369,9.5193,48.2575,1.5963,14.4596,0.3613
459581.0,-20.0347,7.173,51.0444,2.2668,14.0536,0.7652
459591.0,-21.3659,3.9073,53.247,3.0251,13.4587,0.9083
459601.0,-21.7872,1.5323,54.3101,3.7705,12.7851,0.7764
459611.0,-21.7298,0.814,52.2606,4.167,12.1801,0.4188
459621.0,-22.6491,1.6376,49.3493,3.6801,11.8039,-0.0521
459631.0,-24.1814,2.0016,47.884,2.403,11.5027,-0.6082
459641.0,-25.2349,1.3982,48.6885,0.9206,11.2254,-1.2068
459651.0,-25.7041,1.3982,50.374,-0.5284,11.0695,-1.8661
459661.0,-27.3801,2.0207,54.5974,-1.897,10.8641,-2.486
459671.0,-30.3106,3.122,61.7608,-2.3445,10.364,-2.8606
459681.0,-31.6226,4.8937,67.3154,-1.881,9.6951,-2.8995
459691.0,-32.5037,6.9815,70.2459,-1.2031,8.9246,-2.7798
459701.0,-32.9442,9.1746,73.4924,-0.5055,8.0439,-2.5036
459711.0,-33.2794,10.8314,75.7717,0.141,7.026,-2.1045
459721.0,-33.0591,11.3964,77.869,0.812,5.8101,-1.6543
459731.0,-32.1302,12.0572,78.1946,1.0956,4.3628,-1.2771
459741.0,-31.1438,12.4307,77.9744,1.0946,2.8489,-0.9062
459751.0,-30.8373,12.3541,76.0015,0.9589,1.3388,-0.5459
459761.0,-29.2763,11.8848,72.2379,0.8115,-0.0404,-0.2182
459771.0,-28.2324,10.5536,67.5165,0.5119,-1.0094,0.0154
459781.0,-27.1502,8.667,63.159,-0.009,-1.5761,0.0676
459791.0,-26.499,7.4603,61.0713,-0.564,-1.9247,-0.0367
459801.0,-25.7616,7.2209,60.6116,-0.8945,-2.2258,-0.1511
459811.0,-25.503,8.0445,61.033,-0.9456,-2.5531,-0.207
459821.0,-25.4552,9.1171,60.851,-1.1004,-2.9676,-0.1815
459831.0,-25.2062,9.4427,61.3778,-1.2643,-3.4821,-0.0825
459841.0,-25.2732,9.8162,62.4695,-1.3117,-4.1052,0.0585
459851.0,-25.3019,9.2895,63.3506,-1.1531,-4.8231,0.2671
459861.0,-25.3785,8.667,63.4751,-0.8067,-5.6122,0.4534
459871.0,-25.436,8.4084,62.91,-0.2841,-6.2922,0.6258
459881.0,-25.2636,8.3222,61.9045,0.1825,-6.8616,0.8237
459891.0,-24.9572,7.9871,61.8374,0.9897,-7.1974,1.0451
459901.0,-26.0968,7.7285,60.5541,1.0972,-8.0934,1.1637
459911.0,-25.8574,7.2113,59.4145,1.1403,-9.1082,1.2292
459921.0,-24.938,6.1962,57.1065,1.1414,-9.635,1.2579
459931.0,-24.3347,5.7174,55.6796,1.3941,-10.0553,1.218
459941.0,-24.1431,5.5067,54.4058,1.326,-10.6013,1.1111
459951.0,-23.1854,5.9185,52.4617,1.2489,-11.1515,1.0185
459961.0,-22.63,6.5027,51.8009,1.1121,-11.5261,1.0217
459971.0,-22.1895,6.9336,50.556,1.2435,-11.8906,1.0823
459981.0,-21.7777,6.8761,49.062,1.0648,-12.5084,1.127
459991.0,-20.14,7.1156,46.5624,1.143,-12.8638,1.2074
460001.0,-18.5886,7.0677,44.7141,1.0781,-13.1017,1.2739
460011.0,-17.5256,6.9911,42.9232,1.1472,-13.3741,1.3909
460021.0,-15.9262,7.106,39.8204,1.1222,-13.637,1.4649
460031.0,-14.1258,6.9528,36.3823,0.9328,-13.7732,1.5719
460041.0,-12.6893,6.292,34.0743,0.8902,-13.5433,1.7054
460051.0,-9.9886,5.8993,30.55,0.8844,-13.2177,1.8257
460061.0,-7.7572,5.6216,28.2037,0.7476,-12.5983,1.9247
460071.0,-6.7995,4.4149,29.0273,0.6721,-12.005,2.0156
460081.0,-5.2289,3.6871,29.3529,1.242,-11.4143,2.1481
460091.0,-4.118,2.6624,29.6402,1.5474,-10.9317,2.22
460101.0,-2.739,1.8962,28.7879,1.8746,-10.7173,2.2258
460111.0,-1.2258,1.6281,28.0505,1.7565,-10.6556,2.0923
460121.0,0.5267,1.6281,26.7001,1.4532,-10.531,1.8874
460131.0,1.4078,1.6951,26.1734,0.9876,-10.6167,1.6384
460141.0,2.8347,1.5036,24.9955,0.4507,-10.8748,1.3015
460151.0,3.7637,2.2793,22.2661,-0.2097,-10.9833,0.9025
460161.0,5.1427,3.5243,20.8966,-0.9977,-11.0514,0.5231
460171.0,5.9951,5.1427,18.6556,-1.715,-11.0605,0.24
460181.0,6.79,6.3877,16.9031,-2.2572,-11.0259,0.1027
460191.0,7.1826,7.355,15.4187,-2.6398,-10.7907,0.0553
460201.0,8.4467,7.8147,13.4267,-2.6803,-10.3246,0.1117
460211.0,9.6247,7.6998,12.1051,-2.3881,-9.6573,0.2235
460221.0,10.8122,7.6902,10.3908,-2.1045,-8.9533,0.3688
460231.0,12.1913,7.2496,8.3318,-1.806,-8.1557,0.4704
460241.0,13.6182,6.8283,6.608,-1.6144,-7.1926,0.5028
460251.0,15.1314,6.608,5.545,-1.3292,-6.0677,0.4837
460261.0,16.1178,5.9664,5.4588,-0.9642,-4.8981,0.423
460271.0,17.3244,6.3111,4.7309,-0.6199,-3.7365,0.3783
460281.0,17.6501,7.0198,4.8363,-0.5066,-2.6611,0.3586
460291.0,17.8129,7.422,3.8786,-0.4667,-1.558,0.4113
460301.0,18.0523,7.6614,4.3096,-0.4746,-0.5252,0.4943
460311.0,18.1193,7.6902,4.3958,-0.3916,0.5018,0.5954
460321.0,18.8855,7.2592,4.3383,-0.2458,1.6426,0.6917
460331.0,19.4218,6.8378,5.0278,-0.1011,2.9367,0.7258
460341.0,19.2015,6.4069,5.545,-0.091,4.1393,0.7492
460351.0,18.9812,5.9759,6.8474,0.091,5.3962,0.77
460361.0,18.6652,5.1427,7.9104,0.2081,6.6344,0.7285
460371.0,17.7171,4.6735,9.8833,0.2591,7.7869,0.6699
460381.0,16.2327,4.3574,12.2392,0.3145,8.7543,0.5821
460391.0,14.9302,3.5913,14.9781,0.5087,9.6829,0.5013
460401.0,13.8193,3.055,18.148,0.895,10.5608,0.3959
460411.0,12.2296,2.5379,20.6476,1.2169,11.2324,0.2533
460421.0,10.6207,2.3272,23.7696,1.5979,11.7443,0.0686
460431.0,9.7205,2.5091,25.3115,1.6352,12.1316,-0.1442
460441.0,7.8051,2.8347,28.3378,1.4202,12.1258,-0.3672
460451.0,6.8761,3.5147,30.2819,0.8966,11.8523,-0.5449
460461.0,5.9759,4.2808,30.8565,0.1501,11.4362,-0.6848
460471.0,4.8554,4.5394,31.4885,-0.8626,10.7976,-0.7764
460481.0,4.1851,4.0797,29.4678,-2.1918,9.9792,-0.8993
460491.0,3.7924,2.988,26.2979,-3.5103,9.412,-1.0546
460501.0,2.1931,0.8428,21.2988,-4.7135,9.3577,-1.2654
460511.0,1.5802,-2.6815,18.4449,-5.1732,10.2597,-1.5777
460521.0,0.3735,-5.363,16.6349,-4.864,11.8459,-2.0699
460531.0,-2.0207,-6.0717,18.8759,-3.9398,13.7099,-2.6089
460541.0,-4.9991,-4.0893,20.1975,-2.7851,15.7255,-3.0602
460551.0,-9.7779,-0.8906,26.2404,-1.6985,17.2867,-3.2778
460561.0,-14.7579,2.6911,32.8484,-0.8498,17.4357,-3.2145
460571.0,-19.5846,5.8035,38.1732,-0.0213,17.4357,-2.9224
460581.0,-21.0019,7.5369,42.9903,0.5672,17.4357,-2.5414
460591.0,-22.8981,8.0158,46.1123,0.8077,17.3431,-2.2072
460601.0,-24.2485,7.7476,50.2878,1.1824,16.811,-1.9741
460611.0,-24.1048,8.1882,54.0611,2.0039,16.2699,-1.7182
460621.0,-25.4935,7.9296,58.3611,2.867,15.6148,-1.5016
460631.0,-26.2117,7.0294,60.5063,3.6753,15.0019,-1.4048
460641.0,-26.5948,6.2058,64.2795,3.8051,13.8227,-1.5969
460651.0,-26.4703,6.6559,67.1334,3.439,12.2232,-1.93
460661.0,-26.5086,8.0541,69.6904,2.6308,10.3996,-2.2806
460671.0,-27.0928,10.1323,70.2076,1.6208,8.2461,-2.511
460681.0,-27.7823,11.6837,69.6808,0.746,6.3997,-2.5031
460691.0,-27.8781,11.9902,67.2962,0.4305,5.0253,-2.3072
460701.0,-26.2021,11.3581,64.5285,0.216,4.026,-2.1322
460711.0,-25.2636,11.0708,62.4504,-0.0511,3.2044,-2.0289
460721.0,-24.0857,11.1378,59.8359,-0.4278,2.3679,-1.9598
460731.0,-23.0322,11.3772,57.1735,-0.9456,1.5538,-1.8794
460741.0,-23.2238,10.975,54.4537,-1.2568,0.9179,-1.6996
460751.0,-22.812,9.8354,50.7858,-1.1877,0.6811,-1.5149
460761.0,-22.0554,8.9639,47.5297,-0.9562,0.969,-1.3808
460771.0,-22.1416,8.5042,46.1027,-0.5034,1.3904,-1.2749
460781.0,-21.3371,8.7819,45.0589,-0.0984,1.8736,-1.2132
460791.0,-21.0881,9.9982,44.7811,0.0867,2.3221,-1.1201
460801.0,-21.3275,11.2432,46.0932,0.0846,2.5414,-0.9849
460811.0,-21.8926,12.5935,47.9415,-0.016,2.5121,-0.7439
460821.0,-22.6587,13.2735,49.9718,-0.0479,2.3546,-0.415
460831.0,-23.0993,13.1777,52.1553,0.0458,2.1125,-0.0553
460841.0,-23.3099,12.6988,53.7355,0.1506,1.7224,0.2852
460851.0,-23.7984,12.3637,55.0188,0.1442,1.2228,0.6061
460861.0,-24.2676,11.3006,55.2965,-0.0537,0.4816,0.8668
460871.0,-24.4592,9.5481,55.2773,-0.3783,-0.3757,0.9865
460881.0,-24.1048,8.3893,54.4537,-0.737,-1.1291,1.0233
460891.0,-23.5589,7.7093,53.0076,-0.9988,-1.7714,0.9631
460901.0,-23.444,7.3741,51.7435,-1.2568,-2.3003,0.8721
460911.0,-22.5438,7.2496,50.5464,-1.3755,-2.6925,0.8322
460921.0,-22.0937,7.0102,50.1729,-1.3537,-2.9793,0.8221
460931.0,-21.4042,7.4795,48.5544,-1.2334,-3.1693,0.8546
460941.0,-21.2605,7.5848,48.8992,-1.0515,-3.2954,0.9727
460951.0,-21.1169,7.5178,48.315,-0.7173,-3.4534,1.11
460961.0,-20.5422,6.9623,48.8513,-0.3225,-3.5854,1.2111
460971.0,-20.0443,6.6655,48.4586,0.0878,-3.7184,1.2739
460981.0,-20.2071,6.7133,48.6214,0.4284,-3.9839,1.3473
460991.0,-19.3164,6.9719,47.7308,0.8439,-4.0749,1.4282
461001.0,-19.2302,7.1443,46.3901,1.0131,-4.052,1.4489
461011.0,-18.8088,7.4316,46.6965,1.0477,-3.9637,1.4601
461021.0,-19.0004,8.1307,48.1426,0.8657,-4.0717,1.4798
461031.0,-19.4888,8.667,49.4738,0.7466,-4.3644,1.5362
461041.0,-18.9525,8.4467,50.8145,0.8402,-4.6826,1.6581
461051.0,-18.9812,8.2552,51.0635,0.9211,-5.0705,1.7597
461061.0,-18.3875,8.1882,51.6286,0.9807,-5.5047,1.8491
461071.0,-17.4872,8.6,50.4698,0.945,-5.9293,1.9007
461081.0,-17.4681,8.734,49.876,0.7705,-6.3838,1.9885
461091.0,-16.9414,8.3701,48.1809,0.4842,-6.8318,2.0247
461101.0,-16.453,7.6902,47.6063,0.1873,-7.1958,2.0204
461111.0,-15.773,6.4356,47.4531,0.3129,-7.3863,2.0156
461121.0,-14.8057,6.5793,46.5433,0.5454,-7.4421,1.9683
461131.0,-14.4706,6.8187,46.1315,0.8163,-7.606,1.9699
461141.0,-13.4841,7.7668,45.576,0.7726,-7.9311,1.9858
461151.0,-13.2735,8.0637,43.6415,0.4853,-8.1599,2.013
461161.0,-11.9997,7.1539,43.2393,0.3815,-8.3036,2.0635
461171.0,-11.0612,6.8953,42.9137,0.4858,-8.4201,2.047
461181.0,-10.5824,6.7325,42.5306,0.6231,-8.4303,2.0247
461191.0,-9.8354,6.6272,41.9943,0.6689,-8.6873,2.022
461201.0,-8.8873,6.1866,40.9121,0.7492,-8.8107,1.9779
461211.0,-7.8817,6.1675,39.1691,0.6369,-8.9022,1.8693
461221.0,-6.8474,6.1962,39.6576,0.597,-8.9991,1.8102
461231.0,-6.1292,6.0621,38.8435,0.6534,-9.1119,1.7427
461241.0,-4.5777,6.5505,37.6464,0.4284,-9.3556,1.6017
461251.0,-4.1946,6.7804,36.3919,0.2038,-9.545,1.5602
461261.0,-3.2082,6.7229,36.2961,0.4512,-9.5317,1.5708
461271.0,-2.2889,6.7612,34.4765,0.7306,-9.5663,1.6102
461281.0,-1.312,6.5984,32.7814,1.0642,-9.5057,1.6378
461291.0,-0.5171,6.6559,30.8948,1.3415,-9.2784,1.6762
461301.0,0.7087,6.608,30.2723,1.7554,-8.9922,1.7198
461311.0,2.0494,6.7708,27.6482,1.7618,-8.7362,1.699
461321.0,3.1508,7.1635,26.3075,1.624,-8.5111,1.6623
461331.0,3.984,7.1922,25.3498,1.2733,-8.2962,1.6336
461341.0,5.6407,7.3454,23.8558,1.0014,-8.0636,1.5942
461351.0,6.7612,7.422,22.6683,0.4752,-7.7593,1.5038
461361.0,7.3646,7.4603,22.6108,0.0772,-7.4608,1.4314
461371.0,8.0062,7.2209,22.9556,0.0825,-7.1697,1.4021
461381.0,8.916,7.4124,21.9979,-0.1963,-7.0883,1.3276
461391.0,9.0022,7.4316,20.9157,-0.597,-7.1175,1.2297
461401.0,9.4619,7.5753,19.4984,-0.9578,-7.1707,1.1105
461411.0,10.2376,7.3263,17.8129,-1.2654,-7.117,1.0126
461421.0,10.9559,7.5944,15.3229,-1.4101,-6.8206,0.9046
461431.0,11.8848,7.9583,13.5991,-1.5596,-6.4045,0.8264
461441.0,12.3158,8.3606,11.0038,-1.7203,-5.8607,0.7971
461451.0,12.785,8.5329,9.2416,-1.8193,-5.1913,0.8232
461461.0,13.1298,8.418,7.6136,-1.9007,-4.3846,0.8679
461471.0,13.7044,7.8051,6.8283,-1.6719,-3.4082,0.9174
461481.0,14.2311,7.4699,5.6024,-1.392,-2.2907,0.9631
461491.0,14.8345,6.924,5.0182,-1.0914,-1.0871,0.9993
461501.0,14.8919,6.4548,3.8499,-0.8349,0.2373,1.0126
461511.0,15.1601,5.8227,3.3423,-0.6449,1.5814,1.0036
461521.0,15.3133,5.2002,2.3655,-0.5747,3.0575,0.9328
461531.0,14.9207,4.4915,1.9345,-0.7306,4.5267,0.8131
461541.0,14.2024,3.8882,3.4955,-0.8136,6.0469,0.6588
461551.0,13.4075,3.0742,5.2768,-0.9115,7.3623,0.4347
461561.0,12.0764,2.8156,7.0964,-1.0339,8.3967,0.1841
461571.0,10.7548,2.7964,8.7819,-1.1978,9.2502,-0.0325
461581.0,9.2416,3.7062,9.2416,-1.5969,10.0133,-0.1761
461591.0,7.3263,3.486,10.3142,-2.1077,10.8631,-0.2426
461601.0,5.3534,2.2218,12.1817,-2.519,11.6958,-0.2873
461611.0,4.798,0.3735,13.7331,-2.8495,12.5227,-0.4363
461621.0,3.4955,-1.2929,15.1505,-3.2134,13.272,-0.7599
461631.0,1.1779,-2.308,16.7115,-3.745,13.8099,-1.2058
461641.0,-0.5076,-1.9824,18.0906,-4.1063,14.3873,-1.599
461651.0,-2.6815,-0.6608,19.9102,-4.4144,15.0189,-1.8145
461661.0,-5.2577,-0.1053,22.4193,-4.2814,15.7622,-1.8337
461671.0,-8.1211,0.3448,24.9188,-3.9861,16.5168,-1.724
461681.0,-11.3677,-0.5746,27.4759,-3.4417,17.2649,-1.541
461691.0,-13.6757,-1.7238,30.3202,-2.7526,17.4357,-1.5043
461701.0,-15.8209,-2.5283,34.6489,-1.9896,17.4357,-1.6001
461711.0,-18.7801,-3.6583,40.9025,-0.8567,17.4357,-1.7017
461721.0,-21.1647,-3.8116,47.0892,0.5619,17.4357,-1.8874
461731.0,-23.8654,-3.0837,52.5384,1.7858,17.4357,-2.1327
461741.0,-26.2021,-1.3024,58.2557,2.4818,17.4357,-2.4323
461751.0,-28.6059,1.3695,65.6777,2.692,17.4357,-2.7116
461761.0,-29.487,4.5777,72.1612,2.9186,16.4689,-2.8394
461771.0,-29.9946,7.92,77.5338,3.1661,14.6209,-2.8346
461781.0,-30.5309,11.1761,78.4508,3.5795,12.5552,-2.6223
461791.0,-30.6937,12.4594,78.4508,3.6184,10.4406,-2.46
461801.0,-31.0959,13.8098,78.2234,3.3731,8.5973,-2.3743
461811.0,-32.5133,15.1601,76.4708,2.6467,6.6668,-2.3259
461821.0,-32.3409,16.4817,74.2394,2.221,5.112,-2.1465
461831.0,-31.9578,17.2574,72.1038,2.2657,4.1175,-1.8129
461841.0,-30.981,17.6213,70.1214,2.5972,3.4305,-1.3734
461851.0,-30.1191,17.7841,67.7463,2.9809,2.9064,-0.9519
461861.0,-29.4487,17.6979,66.214,3.2603,2.4408,-0.5539
461871.0,-28.4048,17.5351,64.7201,3.4369,2.0545,-0.2208
461881.0,-27.0162,17.1425,62.5653,3.2533,1.6831,0.017
461891.0,-25.3977,16.8456,61.2341,2.3285,1.3638,0.0266
461901.0,-25.1487,16.9701,62.0673,1.1329,0.7625,0.0266
461911.0,-24.7656,16.9318,63.9922,-0.0697,-0.0686,0.0447
461921.0,-24.5837,16.8264,66.1853,-0.812,-0.9057,0.1187
461931.0,-25.3019,16.3668,67.4686,-0.912,-1.963,0.3443
461941.0,-24.6315,16.3093,65.5628,-1.0429,-2.768,0.5779
461951.0,-24.7369,15.9071,64.0114,-1.1893,-3.3704,0.7971
461961.0,-24.5262,15.6868,62.8239,-1.3212,-3.9414,1.0908
461971.0,-24.191,14.8536,62.1535,-1.3675,-4.3788,1.3388
461981.0,-24.2772,13.8576,61.9332,-1.4229,-4.9018,1.5697
461991.0,-24.1048,12.3158,61.9428,-1.3521,-5.56,1.7709
462001.0,-23.5111,10.908,60.8223,-1.1893,-6.1773,1.8842
462011.0,-23.2142,9.3087,59.3283,-1.1036,-6.8823,1.8885
462021.0,-21.7298,7.9296,56.8096,-1.0307,-7.3932,1.7868
462031.0,-20.8583,8.0349,54.1185,-1.2127,-7.7827,1.5995
462041.0,-20.4369,8.0637,52.9597,-1.2962,-8.1706,1.4532
462051.0,-20.0059,8.4372,51.437,-1.3127,-8.5351,1.3643
462061.0,-19.4792,8.169,50.0867,-1.243,-8.8027,1.2702
462071.0,-18.8567,8.8202,48.1043,-1.3005,-9.014,1.184
462081.0,-18.6939,9.0501,47.1849,-1.3228,-9.2013,1.1627
462091.0,-17.7554,9.2991,46.4284,-1.342,-9.4365,1.1483
462101.0,-17.2095,9.0501,45.3174,-1.3255,-9.7057,1.1877
462111.0,-16.271,8.734,44.1874,-1.1643,-9.9617,1.2292
462121.0,-14.3748,8.8969,42.7892,-1.011,-10.0686,1.2856
462131.0,-14.0204,9.1554,40.9792,-0.9567,-10.3166,1.359
462141.0,-13.5033,8.4851,39.399,-0.9823,-10.4464,1.4442
462151.0,-11.8274,7.422,38.2402,-0.8902,-10.5305,1.4814
462161.0,-10.4866,6.8666,36.4972,-0.5151,-10.5321,1.474
462171.0,-9.2991,6.6176,34.534,-0.298,-10.4369,1.4777
462181.0,-8.2935,6.1387,32.1206,-0.1357,-10.3437,1.4638
462191.0,-6.5122,5.7844,30.1095,-0.0793,-10.1059,1.4096
462201.0,-4.1468,5.8802,27.9164,-0.149,-9.7127,1.301
462211.0,-2.7485,6.0142,27.8589,-0.2623,-9.4391,1.2302
462221.0,-1.4557,5.9664,27.2843,-0.306,-9.2598,1.1722
462231.0,-0.1628,6.4548,26.3937,-0.3161,-9.114,1.1627
462241.0,0.7183,6.4931,25.2923,-0.249,-8.8411,1.2137
462251.0,1.6664,6.1004,24.4017,-0.0005,-8.517,1.3047
462261.0,2.7964,5.2481,22.5055,0.2208,-8.0546,1.3574
462271.0,4.3,4.6926,20.4848,0.2357,-7.4794,1.3175
462281.0,5.3534,4.616,19.4601,0.0527,-6.9074,1.1946
462291.0,5.9089,4.5011,18.8759,-0.1958,-6.3316,1.0435
462301.0,7.2018,4.2617,18.9812,-0.339,-5.7346,0.9094
462311.0,7.8626,4.1084,19.2877,-0.348,-5.1615,0.7881
462321.0,8.4659,4.3287,19.3356,-0.2597,-4.6235,0.6689
462331.0,8.5521,5.0278,19.4888,-0.2208,-4.0228,0.5896
462341.0,8.9639,5.7461,19.8144,-0.1671,-3.6157,0.6279
462351.0,8.916,5.6695,19.9964,-0.116,-3.2677,0.6917
462361.0,9.663,5.2672,19.8336,-0.0234,-2.8867,0.7343
462371.0,10.3334,4.3383,19.2685,0.0011,-2.5164,0.7279
462381.0,10.5632,3.62,19.1536,-0.0968,-2.2125,0.6433
462391.0,10.8697,2.8252,18.4449,-0.2453,-2.0103,0.4848
462401.0,11.6262,2.4612,17.9565,-0.6157,-1.7874,0.2416
462411.0,11.7412,2.6624,16.5775,-1.1111,-1.5724,-0.0357
462421.0,11.7124,2.5474,15.8496,-1.6783,-1.3856,-0.3076
462431.0,11.5975,2.5857,14.7962,-2.1167,-1.0759,-0.572
462441.0,11.2432,2.9018,13.9343,-2.51,-0.6753,-0.8046
462451.0,11.2911,3.6775,12.8521,-2.6824,-0.1447,-0.9418
462461.0,11.1474,4.5681,12.6318,-2.6898,0.5481,-0.9493
462471.0,10.5441,4.8363,12.4786,-2.3636,1.4303,-0.8285
462481.0,10.5441,4.9799,12.287,-1.7491,2.4179,-0.6268
462491.0,10.8601,4.9321,11.9806,-0.9929,3.5896,-0.4156
462501.0,10.3525,4.7788,11.6167,-0.1607,4.8337,-0.1644
462511.0,10.0173,4.051,12.22,0.5151,6.032,0.0085
462521.0,9.6726,3.2082,11.8752,0.8173,7.0978,0.0399
462531.0,9.1842,2.7102,11.3964,0.389,7.8662,-0.0788
462541.0,8.7819,2.1261,11.6262,-0.654,8.2914,-0.3613
462551.0,7.671,2.5091,10.8601,-2.2264,8.4574,-0.6534
462561.0,5.9951,2.4134,9.6726,-4.2255,8.533,-0.8865
462571.0,4.4341,2.059,7.0773,-6.3066,8.8432,-1.0073
462581.0,3.4189,1.2258,5.6216,-7.9966,9.8531,-1.0259
462591.0,0.4884,-0.7374,7.8434,-8.9906,11.3202,-0.9174
462601.0,-2.6336,-2.6719,11.8848,-8.79,12.9016,-0.7024
462611.0,-4.9895,-4.7501,17.7362,-7.5023,14.8449,-0.4523
462621.0,-8.5712,-5.5737,25.0242,-5.5255,16.4141,-0.2857
462631.0,-12.4882,-5.4396,31.4694,-3.1352,17.4049,-0.174
462641.0,-14.8536,-3.7733,36.1716,-0.9461,17.4357,-0.1043
462651.0,-17.0276,-1.5131,40.213,0.6439,17.4357,-0.0798
462661.0,-19.2877,1.2354,42.0996,1.3015,17.4357,-0.0702
462671.0,-22.2373,2.9209,43.1531,0.563,17.0946,-0.1277
462681.0,-24.44,3.2944,46.6103,-0.2708,16.4444,-0.1415
462691.0,-26.3937,4.0701,49.9909,-0.5358,16.0682,-0.0559
462701.0,-29.4678,3.5626,54.5974,-0.389,15.8048,0.1027
462711.0,-31.6513,3.4668,59.6252,0.1846,15.4015,0.2496
462721.0,-32.6569,3.4477,64.7105,0.8599,14.5352,0.3624
462731.0,-32.4462,3.3519,67.5069,1.3675,13.3752,0.373
462741.0,-32.475,4.3766,68.5029,1.2893,11.8475,0.2512
462751.0,-32.8293,5.4109,66.7025,0.7343,10.2261,0.1165
462761.0,-32.5037,7.2496,63.4272,-0.6061,8.8235,-0.0223
462771.0,-33.2794,7.1156,62.0577,-1.9135,7.6177,-0.0521
462781.0,-33.9881,5.6312,60.8893,-3.173,6.5987,-0.0878
462791.0,-34.1222,2.9113,61.5406,-3.7753,6.0522,-0.1815
462801.0,-33.289,1.2929,64.7105,-3.6636,5.5686,-0.3469
462811.0,-32.8006,2.5474,67.5644,-3.0676,4.5602,-0.4278
462821.0,-31.4598,5.0853,67.2005,-2.4067,3.9398,-0.2309
462831.0,-30.4159,6.7612,68.3305,-1.4835,3.1363,0.1958
462841.0,-28.3761,8.4084,65.8214,-0.8333,2.3748,0.7285
462851.0,-26.6906,7.8051,64.3657,-0.4826,1.7288,1.3069
462861.0,-25.5509,5.794,62.4216,-0.414,0.9285,1.7624
462871.0,-23.626,3.237,59.5773,-0.5167,0.2756,2.0364
462881.0,-22.6875,0.0096,58.1695,-0.5444,-0.1373,2.1285
462891.0,-22.1128,-2.7773,57.547,-0.1304,-0.3794,2.1226
462901.0,-21.6819,-4.4149,55.9286,0.2591,-0.5135,1.9779
462911.0,-21.1743,-5.7269,54.923,0.4853,-0.5944,1.7139
462921.0,-21.3467,-6.0142,55.6125,0.5837,-0.647,1.3617
462931.0,-21.9883,-6.1004,57.298,0.7333,-0.7082,1.0099
462941.0,-23.4153,-4.9129,59.4528,0.8365,-1.0866,0.738
462951.0,-24.5358,-4.0701,62.9579,1.3202,-1.5745,0.6002
462961.0,-25.7616,-3.3902,65.1797,1.9944,-2.1136,0.5268
462971.0,-27.1024,-2.0303,66.4918,2.5398,-3.0756,0.4794
462981.0,-27.6865,-0.3926,65.4287,2.4365,-4.2463,0.4454
462991.0,-27.5429,0.4022,64.653,2.4493,-5.0886,0.4257
463001.0,-27.2747,0.6608,64.835,2.4041,-5.8389,0.3986
463011.0,-27.3418,0.8906,64.1646,2.4914,-6.7424,0.3938
463021.0,-27.2364,0.5842,63.8294,2.3759,-7.7768,0.3517
463031.0,-27.1598,0.3256,61.9619,2.353,-8.791,0.2474
463041.0,-26.4894,0.8045,58.0833,1.988,-9.8712,0.0665
463051.0,-25.752,1.6376,54.7027,1.6075,-10.4986,-0.1155
463061.0,-25.0434,3.3327,52.2032,1.4505,-10.763,-0.2166
463071.0,-24.7082,5.1044,50.623,1.0052,-11.1371,-0.2283
463081.0,-24.44,6.11,50.9582,1.019,-11.3116,-0.0676
463091.0,-23.5015,6.8761,50.69,1.2302,-11.5798,0.1538
463101.0,-22.9269,7.3071,49.6653,1.3446,-12.113,0.3773
463111.0,-21.7394,7.9679,47.2807,1.1664,-12.4312,0.571
463121.0,-20.8583,8.8585,46.4475,0.9477,-12.5148,0.7694
463131.0,-20.3794,8.5521,45.6718,0.4848,-12.982,0.9535
463141.0,-18.7897,7.355,44.1778,0.2671,-13.5556,1.052
463151.0,-16.2997,7.3071,40.6248,-0.1133,-13.7594,1.1148
463161.0,-14.8057,5.861,39.2074,-0.1644,-13.7333,1.1664
463171.0,-12.1817,5.4588,36.909,0.1522,-13.6061,1.201
463181.0,-10.2663,4.9416,34.6297,0.3209,-13.232,1.1845
463191.0,-9.5098,4.865,32.8484,0.2762,-13.0474,1.1515
463201.0,-7.2401,5.1427,30.7894,0.2512,-12.8734,1.1281
463211.0,-6.0621,5.3151,28.3378,0.1692,-12.568,1.1041
463221.0,-4.5777,4.5298,26.6906,0.299,-12.0508,1.1073
463231.0,-1.8004,4.5011,25.1008,0.7024,-11.2547,1.1073
463241.0,0.1532,4.6926,24.5262,0.92,-10.5406,1.0706
463251.0,2.0207,5.363,23.5302,1.0562,-9.8212,1.0525
463261.0,3.2753,6.1292,23.4632,1.027,-9.2364,1.0695
463271.0,4.1659,6.5984,23.1184,0.7694,-8.9102,1.1222
463281.0,5.3917,6.5122,22.9269,0.464,-8.5734,1.1776
463291.0,5.9376,5.8323,22.3331,0.1107,-8.3606,1.1738
463301.0,7.2209,5.0182,21.7202,-0.099,-8.1323,1.1504
463311.0,8.5138,4.4628,20.6093,-0.2065,-7.7273,1.0504
463321.0,9.4044,3.9361,19.8336,-0.2474,-7.275,0.9504
463331.0,10.4579,3.7541,19.0674,-0.3076,-6.819,0.828
463341.0,11.6167,3.5817,18.9812,-0.2176,-6.2449,0.7593
463351.0,12.3541,3.6488,18.895,-0.2097,-5.7117,0.6768
463361.0,13.0436,3.6583,18.4258,-0.2485,-5.3179,0.6231
463371.0,13.8193,3.5051,17.8799,-0.3746,-4.9486,0.5337
463381.0,14.2599,3.0933,17.7171,-0.5832,-4.7049,0.4459
463391.0,14.9685,2.9975,17.085,-0.7561,-4.4181,0.3145
463401.0,15.2367,2.624,16.6253,-1.052,-4.2388,0.149
463411.0,15.7251,2.241,16.0507,-1.2457,-4.0866,-0.0303
463421.0,16.3476,2.0782,14.8153,-1.3771,-3.82,-0.241
463431.0,16.9414,2.2314,13.3118,-1.5155,-3.5082,-0.4374
463441.0,16.7403,2.4995,12.1434,-1.5926,-3.0926,-0.5768
463451.0,17.4585,2.9018,10.5728,-1.5453,-2.4961,-0.655
463461.0,17.8224,3.2274,9.7396,-1.5016,-1.7507,-0.687
463471.0,18.2055,3.1125,9.2129,-1.3957,-0.9881,-0.7333
463481.0,18.579,3.4668,8.2073,-1.3638,-0.2283,-0.737
463491.0,18.4928,3.5243,8.1499,-1.4314,0.4741,-0.729
463501.0,18.2247,3.4381,7.6136,-1.3819,1.2797,-0.6572
463511.0,17.7458,3.1699,7.1539,-1.2765,2.1593,-0.6002
463521.0,17.3436,2.1739,6.6463,-0.9482,3.2507,-0.538
463531.0,17.2478,0.8045,6.8666,-0.53,4.4937,-0.6002
463541.0,17.0946,0.1532,6.292,-0.0862,5.9549,-0.7897
463551.0,15.955,-0.1149,7.3933,0.2618,7.3676,-1.0211
463561.0,14.3748,0.3926,9.3087,0.4826,8.6426,-1.2819
463571.0,12.6222,0.7949,11.6071,0.6816,9.6211,-1.5053
463581.0,10.9271,1.743,14.6046,0.6721,10.1825,-1.7171
463591.0,9.7971,3.1795,16.4721,0.455,10.4826,-1.8651
463601.0,8.8011,5.4971,17.8703,-0.2038,10.6268,-1.8523
463611.0,6.1483,6.11,19.9389,-0.7753,10.6694,-1.6235
463621.0,4.4819,5.4779,21.4616,-1.1249,10.7912,-1.3154
463631.0,3.055,3.3327,22.8407,-1.2888,11.0669,-1.0802
463641.0,2.7198,0.5267,24.6986,-1.2164,11.4569,-1.0307
463651.0,2.5953,-0.5363,26.116,-1.1552,11.8709,-1.1893
463661.0,0.6608,-0.4214,28.0026,-1.3835,11.9363,-1.4096
463671.0,-0.0192,0.68,28.424,-2.0375,11.8406,-1.5644
463681.0,-1.8866,2.241,29.3242,-3.0708,11.773,-1.5575
463691.0,-4.2521,1.7909,30.5787,-4.2095,11.7698,-1.4942
463701.0,-4.3479,1.7238,30.6554,-5.5079,11.8635,-1.5176
463711.0,-6.2441,3.7541,32.3983,-7.3708,12.0646,-1.5229
463721.0,-9.414,5.9568,36.8803,-9.7036,11.7038,-1.2537
463731.0,-14.3269,5.43,42.9999,-11.6224,10.696,-0.6274
463741.0,-17.267,-0.7853,50.6134,-11.8188,9.7079,0.1697
463751.0,-14.7291,-7.2305,53.7546,-9.8712,9.4583,0.6949
463761.0,-14.3939,-11.904,54.9421,-6.7903,9.6903,0.9222
463771.0,-15.9837,-14.4801,55.8711,-2.9655,10.4236,0.9722
463781.0,-14.279,-14.1545,55.8041,1.2026,11.4415,0.9014
463791.0,-14.3748,-13.1202,55.0475,4.5357,12.278,0.6417
463801.0,-15.2463,-10.3813,55.1337,6.5035,12.8186,0.1846
463811.0,-17.2574,-6.6272,55.8711,7.4139,12.8228,-0.2969
463821.0,-20.073,-3.802,55.1911,7.1766,12.3679,-0.804
463831.0,-20.3124,-1.1109,54.6931,6.2747,12.3126,-1.3883
463841.0,-22.4768,2.241,54.2909,4.3112,12.2157,-2.0385
463851.0,-25.3881,5.3917,58.6579,1.7421,11.5101,-2.4844
463861.0,-27.1502,7.1922,64.337,-0.861,10.4555,-2.6818
463871.0,-26.93,6.1196,71.4526,-2.4381,9.1444,-2.7127
463881.0,-27.7249,5.0182,76.1356,-2.9208,7.3283,-2.6505
463891.0,-26.8725,4.9033,73.6935,-2.8532,5.7165,-2.5164
463901.0,-25.2062,4.2617,69.8341,-2.0896,5.1322,-2.3147
463911.0,-24.4879,3.8116,67.3154,-0.5928,4.9045,-2.0162
463921.0,-23.2429,3.6296,64.0688,1.1536,4.9455,-1.7538
463931.0,-22.812,4.1372,61.3394,2.5392,5.0173,-1.5107
463941.0,-23.0131,5.3247,60.602,3.6418,5.1924,-1.2893
463951.0,-23.2333,7.4124,60.2573,4.3144,5.0247,-0.986
463961.0,-24.1719,7.7764,61.3011,4.4192,4.4708,-0.6886
463971.0,-24.2006,7.4795,60.7361,4.2356,3.7636,-0.4938
463981.0,-23.8941,6.9049,61.0617,3.8445,2.9915,-0.4007
463991.0,-23.9899,7.2113,60.6116,3.2943,2.2162,-0.3879
464001.0,-24.7944,7.3837,60.9372,2.6728,1.384,-0.3549
464011.0,-25.4456,6.9432,60.602,2.2056,0.4566,-0.3379
464021.0,-24.7177,7.1826,59.7688,1.8353,-0.3171,-0.364
464031.0,-24.2293,8.2169,58.5909,1.3915,-0.9982,-0.3709
464041.0,-24.5358,10.1897,58.0163,1.0366,-1.682,-0.2437
464051.0,-24.8614,11.7029,57.0586,0.7455,-2.3589,0.0442
464061.0,-24.756,12.6797,55.5934,0.613,-2.9133,0.4353
464071.0,-25.1966,12.4307,54.8559,0.6667,-3.2991,0.903
464081.0,-24.6603,11.9997,54.2622,0.8812,-3.4199,1.3569
464091.0,-25.0625,10.9463,54.425,0.9631,-3.6482,1.789
464101.0,-24.8901,9.2895,55.2869,1.0855,-4.0467,2.1577
464111.0,-24.2485,7.4412,56.0818,1.1786,-4.4841,2.4094
464121.0,-24.8327,5.1427,57.1448,1.334,-5.1248,2.5227
464131.0,-24.3538,2.8635,56.7905,1.4633,-5.9884,2.477
464141.0,-22.5534,2.1165,55.3444,1.4037,-6.5402,2.2423
464151.0,-22.563,2.241,54.741,1.0914,-7.1484,1.9518
464161.0,-22.6013,3.1029,53.8408,0.3443,-8.1254,1.64
464171.0,-21.7968,4.2234,52.184,-0.2682,-8.9549,1.3952
464181.0,-21.5191,5.2481,50.6326,-0.5747,-9.3886,1.2366
464191.0,-21.7106,6.5697,50.3932,-0.5699,-9.6988,1.2425
464201.0,-21.5765,7.2784,50.9007,-0.2794,-10.099,1.3574
464211.0,-21.8543,7.1539,50.0005,0.2373,-10.5007,1.5761
464221.0,-20.4561,6.8666,48.7459,0.6508,-10.9775,1.7177
464231.0,-19.5271,6.4739,46.323,0.6188,-11.4755,1.7842
464241.0,-17.9278,5.679,44.4651,0.6353,-11.8736,1.8161
464251.0,-16.1752,5.6503,41.5346,0.3645,-12.2013,1.7038
464261.0,-14.8441,4.9895,39.7437,0.2549,-12.4035,1.6251
464271.0,-13.5608,4.9129,37.1293,0.0117,-12.5738,1.516
464281.0,-12.0189,4.8267,35.032,0.075,-12.5164,1.4346
464291.0,-10.4004,5.1715,33.4422,0.2581,-12.1939,1.3862
464301.0,-9.8067,5.2864,32.111,0.4337,-12.0103,1.3952
464311.0,-7.7093,4.6448,30.9522,0.7482,-11.6283,1.3803
464321.0,-4.9416,6.2345,28.2324,0.7428,-11.2526,1.3713
464331.0,-4.5203,7.0294,28.2707,0.2554,-11.0451,1.3851
464341.0,-3.5051,6.9623,28.8741,0.099,-10.8934,1.4825
464351.0,-1.5706,6.0717,27.8302,0.4257,-10.6007,1.5931
464361.0,0.2777,5.3917,26.3362,0.5917,-10.2362,1.6283
464371.0,1.4078,5.296,24.9284,0.4704,-10.0223,1.5745
464381.0,3.3136,5.2768,23.6834,0.4321,-9.5951,1.5644
464391.0,4.6639,4.865,23.3483,0.3852,-9.1044,1.5532
464401.0,6.1866,3.486,23.8367,0.6662,-8.5468,1.5181
464411.0,7.4508,3.5051,22.0458,0.5598,-8.119,1.3729
464421.0,8.5329,3.1412,21.9117,0.3102,-7.7885,1.1919
464431.0,9.7875,3.2848,21.9405,0.1681,-7.3788,1.0355
464441.0,11.1282,3.6871,21.6149,-0.0106,-7.1191,0.8578
464451.0,11.7986,4.6926,20.8391,-0.3161,-6.7796,0.7476
464461.0,12.536,5.0949,20.0251,-0.5545,-6.4274,0.7104
464471.0,13.5799,4.7022,19.9772,-0.4081,-5.9182,0.7646
464481.0,14.5376,4.6448,19.6899,-0.357,-5.4887,0.7519
464491.0,14.6812,4.5969,18.5982,-0.4432,-5.1274,0.738
464501.0,15.1792,3.7733,18.3109,-0.571,-4.773,0.7184
464511.0,16.0028,3.5338,17.4585,-0.5773,-4.3319,0.646
464521.0,16.2327,2.8922,16.3859,-0.7077,-3.9589,0.5736
464531.0,17.3532,2.375,15.5815,-0.8397,-3.4359,0.4374
464541.0,18.1576,1.6951,13.6182,-0.9913,-2.8276,0.2246
464551.0,18.7897,1.3599,12.4882,-1.2952,-2.2072,0.0
464561.0,19.4409,0.9481,11.9231,-1.6192,-1.4926,-0.2687
464571.0,19.6133,1.063,11.3294,-2.0667,-0.8397,-0.5821
464581.0,19.4026,0.9194,11.4156,-2.4004,-0.1346,-0.879
464591.0,19.3068,1.0151,11.5975,-2.5211,0.6071,-1.1621
464601.0,19.4026,1.5706,11.0899,-2.4871,1.458,-1.3814
464611.0,18.5407,2.2984,11.7412,-2.3174,2.3301,-1.516
464621.0,17.8607,2.557,12.0572,-1.9544,3.2528,-1.5447
464631.0,17.4681,2.7007,12.1051,-1.3516,4.3101,-1.5548
464641.0,16.3189,3.055,11.9423,-0.7939,5.3201,-1.5277
464651.0,15.6102,2.8252,12.153,-0.3437,6.2848,-1.557
464661.0,14.8728,2.6049,11.406,-0.2288,7.2059,-1.6762
464671.0,13.5991,2.2984,10.4579,-0.4182,8.1259,-1.8842
464681.0,11.8944,2.4517,10.659,-0.7859,9.0246,-2.1705
464691.0,10.1131,2.8443,12.0285,-1.209,9.8936,-2.4344
464701.0,8.6766,3.6488,13.398,-1.4319,10.7364,-2.5738
464711.0,6.3015,5.1715,14.6717,-1.5607,11.6314,-2.5791
464721.0,4.1468,6.1866,15.8017,-1.5165,12.4812,-2.4296
464731.0,2.0016,6.79,17.3532,-1.7283,13.5412,-2.2354
464741.0,-0.6608,6.7038,21.8638,-1.3111,14.4378,-1.9135
464751.0,-2.6624,6.1387,25.6371,-0.6907,15.1296,-1.6283
464761.0,-3.9169,6.1292,29.0848,0.166,15.8394,-1.3925
464771.0,-5.8802,6.3015,33.7008,0.8349,16.0581,-1.2606
464781.0,-7.1635,7.039,36.9473,1.0632,15.6691,-1.2084
464791.0,-7.7572,8.6191,38.1348,0.3581,14.7193,-1.2478
464801.0,-9.9503,10.3525,38.7669,-1.2169,13.5183,-1.1792
464811.0,-11.8944,9.845,39.1404,-2.4929,12.3695,-0.9067
464821.0,-12.9766,7.7572,37.7997,-3.0096,12.1018,-0.5795
464831.0,-14.1258,4.3096,37.6847,-2.8324,12.4988,-0.3124
464841.0,-14.5089,2.0877,40.1268,-2.2045,13.1027,-0.2522
464851.0,-16.6158,1.3695,42.8466,-1.5772,13.3853,-0.2836
464861.0,-18.1097,1.0343,45.7867,-1.0616,13.1309,-0.4076
464871.0,-18.3204,1.9058,47.137,-0.7662,12.7351,-0.5523
464881.0,-18.9812,3.4189,47.5105,-0.8631,12.1769,-0.654
464891.0,-20.2933,4.6352,46.8497,-1.0914,11.6432,-0.6705
464901.0,-21.4904,5.4013,46.6774,-1.5064,11.4633,-0.6008
464911.0,-24.2772,4.3191,49.4355,-1.2052,11.4628,-0.3693
464921.0,-24.507,3.1125,51.1976,-0.3751,11.4787,-0.2208
464931.0,-25.369,3.0358,53.0268,0.2677,11.524,-0.1825
464941.0,-27.3514,2.4612,56.1871,0.9078,11.0286,-0.2144
464951.0,-27.0641,3.1412,56.7522,1.209,10.2549,-0.3336
464961.0,-27.2556,4.1468,55.6125,0.9275,9.3785,-0.5726
464971.0,-27.1119,5.8323,54.5974,0.3837,8.6729,-0.7588
464981.0,-27.1502,8.0445,53.8791,-0.4257,8.2307,-0.7721
464991.0,-28.9028,8.1116,56.0722,-1.0355,7.7023,-0.6327
465001.0,-29.8318,7.4795,59.0985,-1.0887,7.0909,-0.4342
465011.0,-29.9658,6.9911,59.9508,-0.9136,6.3061,-0.2645
465021.0,-30.2723,6.3877,60.468,-0.7098,5.4558,-0.1681
465031.0,-30.6458,6.3303,58.6771,-0.53,4.4719,-0.1458
465041.0,-29.6785,6.6942,55.3635,-0.3406,3.9163,-0.1804
465051.0,-29.803,8.1307,53.6301,-0.5667,3.6561,-0.2277
465061.0,-30.0424,9.4236,53.3811,-0.7247,3.331,-0.1373
465071.0,-29.8318,10.4674,53.7163,-1.0078,3.1123,0.058
465081.0,-30.2148,10.2663,55.7466,-0.8892,2.8798,0.34
465091.0,-30.1478,9.9695,57.7003,-0.7258,2.3594,0.6455
465101.0,-29.3338,9.9024,58.0354,-0.6284,1.731,0.9009
465111.0,-29.0273,9.5098,58.3228,-0.7913,1.0142,1.1887
465121.0,-29.1997,8.3701,59.7018,-0.8461,0.2921,1.4798
465131.0,-28.5293,5.6982,60.2381,-0.5268,-0.4273,1.6964
465141.0,-27.6099,3.8786,59.8455,-0.2873,-1.168,1.724
465151.0,-26.4703,2.806,58.2749,-0.3363,-1.9768,1.6182
465161.0,-26.4033,1.8675,56.8383,-0.2905,-2.5366,1.483
465171.0,-26.5852,0.8045,55.2103,-0.1133,-2.7814,1.3026
465181.0,-26.5373,-0.4597,55.3156,0.2251,-3.0336,1.0621
