time_ms,ax,ay,az,gx,gy,gz
31091.0,2.4421,1.1732,10.8481,0.0218,-0.0048,0.0968
31101.0,2.49,1.1205,10.75,0.0261,-0.0431,0.108
31111.0,2.5594,1.0965,10.5489,0.0239,-0.0819,0.1165
31121.0,2.6097,1.1037,10.3262,0.008,-0.1043,0.1208
31131.0,2.6288,1.0702,10.2304,-0.0128,-0.1075,0.1235
31141.0,2.6384,1.0223,10.2328,-0.0165,-0.1022,0.1298
31151.0,2.6647,0.9697,10.2256,0.0,-0.1,0.1378
31161.0,2.6911,0.8667,10.2256,0.0319,-0.091,0.1469
31171.0,2.7174,0.8045,10.1969,0.0697,-0.0766,0.1506
31181.0,2.7222,0.7757,10.1442,0.0878,-0.0772,0.1469
31191.0,2.7749,0.7685,10.0556,0.0921,-0.0782,0.1368
31201.0,2.7366,0.747,10.0916,0.0835,-0.083,0.1266
31211.0,2.8204,0.735,9.9982,0.0676,-0.0979,0.1144
31221.0,2.818,0.6823,9.9934,0.0394,-0.1112,0.099
31231.0,2.8156,0.6752,9.8641,0.0144,-0.1187,0.0772
31241.0,2.8922,0.7398,9.7923,-0.0112,-0.1245,0.0543
31251.0,2.8874,0.8763,9.6391,-0.0277,-0.1176,0.0367
31261.0,2.8754,1.0247,9.6558,-0.0463,-0.1022,0.0266
31271.0,2.8371,1.1277,9.572,-0.0601,-0.0798,0.0277
31281.0,2.8659,1.166,9.5361,-0.0772,-0.0617,0.0357
31291.0,2.8635,1.166,9.5265,-0.0835,-0.0351,0.049
31301.0,2.8395,1.1181,9.5385,-0.0819,0.0037,0.0633
31311.0,2.8515,1.1205,9.5888,-0.0713,0.0442,0.0756
31321.0,2.8252,1.0846,9.6103,-0.0628,0.0772,0.0873
31331.0,2.8706,1.0295,9.6678,-0.066,0.1117,0.0947
31341.0,2.806,0.9816,9.7205,-0.0819,0.1458,0.0963
31351.0,2.8132,0.9385,9.9527,-0.107,0.1724,0.0937
31361.0,2.7988,0.9218,10.094,-0.1149,0.1958,0.091
31371.0,2.739,0.8906,10.2855,-0.1133,0.2155,0.0905
31381.0,2.7054,0.8308,10.4315,-0.107,0.2235,0.0889
31391.0,2.6743,0.8045,10.5321,-0.1144,0.2134,0.0835
31401.0,2.6719,0.7566,10.5465,-0.1298,0.1969,0.074
31411.0,2.6576,0.759,10.6446,-0.1506,0.1783,0.0628
31421.0,2.6408,0.6967,10.5967,-0.1793,0.1474,0.0516
31431.0,2.6815,0.6823,10.5512,-0.2118,0.116,0.0383
31441.0,2.6791,0.6847,10.4411,-0.2442,0.0851,0.0213
31451.0,2.6647,0.6632,10.3884,-0.2703,0.0585,0.009
31461.0,2.6887,0.6512,10.2352,-0.281,0.0357,-0.0016
31471.0,2.6456,0.6321,10.0868,-0.2921,0.0059,-0.0112
31481.0,2.624,0.6512,9.8641,-0.3017,-0.0112,-0.0202
31491.0,2.5833,0.7087,9.7707,-0.3145,-0.0277,-0.0303
31501.0,2.5738,0.7781,9.6079,-0.3251,-0.066,-0.0309
31511.0,2.6025,0.7733,9.2536,-0.3267,-0.108,-0.0255
31521.0,2.6935,0.668,8.758,-0.3177,-0.1309,-0.0122
31531.0,2.8108,0.5124,8.2097,-0.3225,-0.1304,-0.0074
31541.0,2.9449,0.4094,7.7357,-0.3448,-0.1043,-0.0154
31551.0,3.0023,0.3759,7.3239,-0.3805,-0.058,-0.0309
31561.0,3.0311,0.419,7.0605,-0.4129,0.0032,-0.0436
31571.0,3.0765,0.4286,6.7373,-0.4422,0.0745,-0.05
31581.0,3.1364,0.3304,6.4021,-0.4635,0.1607,-0.049
31591.0,3.1436,0.2729,6.201,-0.4757,0.2799,-0.049
31601.0,3.1508,0.1077,6.2106,-0.4826,0.4124,-0.0484
31611.0,3.1149,-0.0694,6.4428,-0.4539,0.5491,-0.0468
31621.0,3.043,-0.2801,6.4859,-0.3911,0.6721,-0.0479
31631.0,3.0358,-0.5626,6.4667,-0.3379,0.7902,-0.0596
31641.0,2.9377,-0.644,6.5888,-0.3166,0.9046,-0.0947
31651.0,2.8754,-0.656,6.7852,-0.339,1.0009,-0.1437
31661.0,2.727,-0.6704,6.9384,-0.4113,1.0722,-0.1926
31671.0,2.6169,-0.5722,7.1467,-0.5247,1.1307,-0.2474
31681.0,2.4541,-0.3136,7.3334,-0.6279,1.1999,-0.2937
31691.0,2.3152,-0.0814,7.4939,-0.721,1.2478,-0.3187
31701.0,2.2553,0.1604,7.1491,-0.7854,1.3069,-0.3193
31711.0,2.1524,0.3184,6.9863,-0.8631,1.4191,-0.3092
31721.0,2.0111,0.3903,6.7756,-0.9323,1.583,-0.2836
31731.0,1.8268,0.419,6.7109,-0.9716,1.8235,-0.2474
31741.0,1.3838,0.4286,6.9049,-1.0041,2.1146,-0.2075
31751.0,1.0558,0.0144,7.6734,-1.0227,2.4578,-0.149
31761.0,0.6752,-0.5411,8.9184,-1.002,2.8186,-0.1027
31771.0,0.1532,-0.8332,10.5417,-1.0014,3.0926,-0.0947
31781.0,-0.4118,-0.8332,12.3828,-0.9966,3.264,-0.0963
31791.0,-0.8404,-0.8691,14.1402,-0.9264,3.3661,-0.0734
31801.0,-1.2785,-1.1756,16.3308,-0.7806,3.4422,-0.0266
31811.0,-1.6065,-1.4437,18.2486,-0.505,3.4603,0.0325
31821.0,-2.2027,-1.719,20.1664,-0.2059,3.4029,0.0814
31831.0,-2.7964,-1.7861,21.6891,0.0676,3.2672,0.1123
31841.0,-3.2896,-2.0183,23.3076,0.1777,3.0607,0.1181
31851.0,-3.9241,-2.5857,25.7329,0.1256,2.826,0.0835
31861.0,-4.4748,-2.9329,28.5532,-0.0968,2.4041,-0.0208
31871.0,-4.9871,-2.8228,31.7926,-0.3932,1.7773,-0.1708
31881.0,-5.703,-2.3679,34.5675,-0.5848,0.9424,-0.2895
31891.0,-6.2704,-1.834,35.6664,-0.5513,-0.0644,-0.3134
31901.0,-6.62,-1.5778,35.2786,-0.3251,-1.0632,-0.2469
31911.0,-7.1802,-1.3934,33.4781,0.0,-1.9582,-0.1362
31921.0,-7.4196,-1.3934,30.5787,0.2448,-2.7963,-0.0261
31931.0,-7.3957,-1.4676,27.3322,0.3102,-3.5162,0.0484
31941.0,-7.3885,-1.7406,24.3562,0.2639,-4.0717,0.0878
31951.0,-7.2113,-2.0686,21.634,0.1639,-4.5166,0.0841
31961.0,-6.9815,-2.3056,19.1871,0.0623,-4.8656,0.0452
31971.0,-6.5984,-2.3463,16.9845,0.017,-5.112,-0.0085
31981.0,-6.2273,-2.2362,14.8536,0.0341,-5.2551,-0.0559
31991.0,-5.8849,-2.2266,13.1011,0.0835,-5.3126,-0.0905
32001.0,-5.4971,-2.229,11.3509,0.1474,-5.3291,-0.1192
32011.0,-5.0398,-2.3224,9.9192,0.2027,-5.2966,-0.1554
32021.0,-4.6448,-2.4181,8.7197,0.2448,-5.2477,-0.2112
32031.0,-4.2641,-2.3008,7.6255,0.2969,-5.187,-0.2804
32041.0,-3.9049,-2.0638,6.6248,0.3453,-5.1093,-0.3576
32051.0,-3.4548,-1.6352,5.5498,0.3704,-5.0396,-0.4315
32061.0,-3.1843,-1.1492,4.8171,0.3491,-4.9619,-0.4975
32071.0,-2.8539,-0.6967,3.9672,0.3304,-4.8805,-0.5428
32081.0,-2.3966,-0.2418,3.4764,0.3065,-4.7757,-0.5683
32091.0,-2.083,0.1939,3.0143,0.332,-4.6517,-0.5603
32101.0,-1.7023,0.4549,2.4804,0.3847,-4.5389,-0.5193
32111.0,-1.3934,0.5148,2.1524,0.4619,-4.4064,-0.4635
32121.0,-0.8954,0.5531,1.4245,0.5422,-4.3287,-0.4103
32131.0,0.2322,0.6369,0.6752,0.5976,-4.2271,-0.3709
32141.0,-0.1006,1.0127,0.2466,0.647,-4.0579,-0.332
32151.0,0.2969,0.7853,-0.7183,0.6146,-3.9765,-0.2432
32161.0,1.0678,0.4645,-1.6041,0.5364,-3.7972,-0.1804
32171.0,1.4581,0.1987,-1.9178,0.4268,-3.513,-0.165
32181.0,1.8747,-0.012,-2.0758,0.2911,-3.2698,-0.1852
32191.0,2.3128,0.0742,-2.0973,0.2118,-2.9718,-0.2267
32201.0,2.5307,0.2011,-1.6927,0.1495,-2.6909,-0.2735
32211.0,2.6767,0.4693,-1.3934,0.1687,-2.4541,-0.3022
32221.0,2.8874,0.8619,-1.3862,0.2405,-2.2562,-0.3044
32231.0,3.0574,1.2306,-1.6759,0.265,-2.1221,-0.2847
32241.0,3.2944,1.4748,-2.2314,0.1937,-2.0236,-0.2453
32251.0,3.2585,1.3982,-2.1859,0.0596,-1.8943,-0.2097
32261.0,3.3662,2.0782,-2.8323,-0.0484,-1.7576,-0.1405
32271.0,3.213,2.1356,-2.1691,-0.2107,-1.6001,-0.0181
32281.0,4.1132,1.7813,-2.7557,-0.2634,-1.5272,0.1171
32291.0,4.367,1.2641,-3.0311,-0.2943,-1.3478,0.1884
32301.0,4.5131,1.1708,-3.3998,-0.2639,-1.0403,0.2176
32311.0,4.956,0.8906,-3.3926,-0.2661,-0.7428,0.2171
32321.0,5.296,0.9577,-3.4165,-0.1713,-0.3746,0.1932
32331.0,5.5474,1.1708,-3.2992,-0.0415,0.0101,0.1681
32341.0,5.454,1.4006,-2.8635,0.1266,0.4039,0.1708
32351.0,5.5306,1.4748,-2.4493,0.3251,0.7646,0.2192
32361.0,5.2361,1.4078,-2.0375,0.514,1.0765,0.2873
32371.0,4.9201,1.324,-2.0207,0.6268,1.2803,0.356
32381.0,4.798,1.0822,-2.2529,0.597,1.408,0.415
32391.0,4.6471,0.8739,-2.7342,0.4715,1.5362,0.4534
32401.0,4.6184,0.644,-3.2202,0.2597,1.6953,0.4704
32411.0,4.4293,0.4142,-3.4333,0.0186,1.9278,0.4789
32421.0,4.2306,0.1413,-3.395,-0.2075,2.187,0.4906
32431.0,4.063,-0.1796,-3.4955,-0.3544,2.4892,0.5023
32441.0,3.6081,-0.4094,-3.3854,-0.4448,2.8622,0.4906
32451.0,3.1771,-0.4549,-3.304,-0.4635,3.2693,0.472
32461.0,2.6647,-0.3065,-3.4141,-0.406,3.7173,0.4576
32471.0,2.1835,-0.0287,-3.948,-0.3198,4.2463,0.4645
32481.0,1.4006,0.0168,-3.7876,-0.3193,4.8821,0.4864
32491.0,-0.0646,0.1101,-3.1699,-0.39,5.5281,0.5135
32501.0,-1.2163,-0.3112,-1.98,-0.5151,6.0773,0.5614
32511.0,-2.5833,-0.6991,-0.9816,-0.5236,6.6126,0.6066
32521.0,-4.1779,-1.1851,0.7997,-0.4432,7.1431,0.6215
32531.0,-5.2289,-1.0391,2.1668,-0.1772,7.6161,0.6135
32541.0,-6.869,-0.4741,3.3423,0.0947,8.0008,0.5869
32551.0,-8.2361,-0.0838,4.1204,0.2618,8.2845,0.5869
32561.0,-9.7133,-0.091,5.5617,0.3507,8.617,0.5976
32571.0,-11.6191,0.2131,7.7117,0.4539,8.9496,0.5773
32581.0,-13.1537,1.0463,10.0652,0.5965,9.1406,0.5624
32591.0,-14.2431,1.8076,12.3421,0.7088,9.1412,0.5901
32601.0,-15.093,2.0901,14.2048,0.704,8.9469,0.6662
32611.0,-15.1984,0.905,16.6086,0.5912,8.6548,0.7833
32621.0,-15.0093,-0.4764,18.3061,0.5023,8.3371,0.8216
32631.0,-15.5312,-1.0463,21.2964,0.2416,7.9109,0.7162
32641.0,-15.3923,-0.917,23.7218,0.0947,7.2585,0.629
32651.0,-14.8967,-0.68,24.6675,0.1607,6.5876,0.5976
32661.0,-14.0204,-0.9026,25.4839,0.2198,6.0155,0.5667
32671.0,-13.6637,-0.486,26.7049,0.0569,5.4435,0.4715
32681.0,-13.5272,-0.0982,28.5532,-0.3837,4.6358,0.3677
32691.0,-12.0141,-1.1157,35.36,-1.0275,3.3619,0.3257
32701.0,-11.1761,-2.2793,29.2739,-0.9732,2.2072,0.34
32711.0,-10.9822,-3.5913,28.594,-0.4496,2.0901,0.331
32721.0,-10.0293,-2.4684,25.1391,-0.0197,1.3888,0.2336
32731.0,-11.7507,-1.585,26.6403,-0.0319,0.9418,0.1048
32741.0,-11.7507,-1.585,26.6403,-0.0319,0.9418,0.1048
32751.0,-8.9495,-2.0063,24.8063,-0.2533,0.1894,0.0218
32761.0,-8.169,-1.8411,21.8399,-0.3672,-0.0495,-0.0511
32771.0,-8.351,-1.8268,22.1512,-0.5699,-0.1431,-0.141
32781.0,-8.0373,-1.7741,22.7066,-0.6061,-0.4161,-0.1963
32791.0,-7.9368,-0.2849,22.4863,-0.39,-0.5316,-0.1995
32801.0,-8.1403,0.2921,23.5901,-0.1314,-0.7503,-0.1399
32811.0,-8.0924,0.929,22.8048,0.2799,-1.11,-0.0059
32821.0,-7.9559,0.7901,21.737,0.5816,-1.4904,0.1559
32831.0,-7.6016,0.6847,19.1536,0.779,-1.8826,0.2948
32841.0,-7.4005,0.419,16.9964,0.6635,-2.1966,0.3565
32851.0,-6.9073,0.1413,14.9973,0.2985,-2.4653,0.3539
32861.0,-6.201,-0.4262,13.9366,-0.0921,-2.5339,0.3219
32871.0,-5.849,-0.7446,14.0396,-0.3602,-2.4036,0.2586
32881.0,-5.8849,-0.8284,15.1481,-0.481,-2.2296,0.2033
32891.0,-5.9544,-0.6345,16.5176,-0.4363,-2.1247,0.1799
32901.0,-6.0214,-0.4597,18.0906,-0.3299,-2.1151,0.1932
32911.0,-6.4045,-0.5076,19.8479,-0.1266,-2.1572,0.2506
32921.0,-6.4117,-1.0008,21.306,0.1325,-2.3243,0.3368
32931.0,-6.7205,-1.0223,22.0889,0.3315,-2.5802,0.3842
32941.0,-7.4771,-1.1851,22.7665,0.2719,-3.0479,0.3842
32951.0,-7.3933,-1.2522,22.0602,0.1197,-3.6333,0.3549
32961.0,-7.8697,-1.1803,21.4999,-0.157,-4.1249,0.2724
32971.0,-8.011,-1.3048,20.5949,-0.4911,-4.665,0.1708
32981.0,-7.9703,-1.3479,19.2853,-0.7141,-5.1014,0.0654
32991.0,-8.078,-1.3958,18.6293,-0.8003,-5.4073,-0.0357
33001.0,-8.2863,-1.3216,16.9701,-0.6391,-5.6899,-0.0942
33011.0,-7.8266,-1.257,14.5089,-0.3783,-5.8873,-0.1176
33021.0,-7.2425,-1.1229,12.2846,-0.1873,-5.8889,-0.1426
33031.0,-6.7109,-1.1253,10.9798,-0.1272,-5.7915,-0.1825
33041.0,-6.3159,-1.1732,10.0987,-0.133,-5.6957,-0.2373
33051.0,-5.873,-0.905,8.9711,-0.2112,-5.6776,-0.3193
33061.0,-5.4229,-0.6752,8.1259,-0.3565,-5.6957,-0.4119
33071.0,-4.8961,-0.4597,7.027,-0.4507,-5.6878,-0.4943
33081.0,-4.6448,-0.3328,5.9927,-0.5204,-5.6468,-0.5699
33091.0,-4.1276,-0.4621,5.0853,-0.5656,-5.5984,-0.6439
33101.0,-3.541,-0.7015,3.984,-0.5486,-5.502,-0.7215
33111.0,-2.9449,-0.6536,2.5977,-0.5422,-5.4121,-0.8306
33121.0,-2.5714,-0.3041,1.4174,-0.5816,-5.2621,-0.9525
33131.0,-2.0327,-0.0479,0.7709,-0.5933,-5.0466,-1.0509
33141.0,-1.2737,0.407,-0.079,-0.4879,-4.805,-1.1265
33151.0,-0.8954,1.1013,-1.1588,-0.3145,-4.4783,-1.1691
33161.0,-0.3424,1.6759,-2.0159,-0.183,-4.1281,-1.1632
33171.0,0.3448,2.1883,-2.8276,-0.091,-3.7408,-1.1206
33181.0,0.814,2.4612,-3.1771,-0.0479,-3.2948,-1.0515
33191.0,1.2713,2.6432,-3.2585,-0.049,-2.8814,-0.9663
33201.0,1.6688,2.7845,-3.2657,-0.0745,-2.5089,-0.8711
33211.0,2.0351,2.7222,-3.2609,-0.1511,-2.1928,-0.7694
33221.0,2.5355,2.5187,-3.2753,-0.2528,-1.9172,-0.6742
33231.0,2.7533,2.2697,-3.1843,-0.3815,-1.665,-0.6045
33241.0,2.9521,1.9824,-2.9305,-0.5209,-1.4505,-0.5561
33251.0,3.1747,1.7095,-2.636,-0.6141,-1.2531,-0.5183
33261.0,3.2274,1.4341,-2.0231,-0.6071,-1.0435,-0.489
33271.0,3.2609,1.3575,-1.9201,-0.4784,-0.8806,-0.456
33281.0,3.4093,1.415,-2.1596,-0.3139,-0.7327,-0.4214
33291.0,3.4955,1.6616,-2.5881,-0.1809,-0.563,-0.3895
33301.0,3.6823,1.7071,-2.8683,-0.1591,-0.3948,-0.3475
33311.0,3.8475,1.7382,-3.146,-0.1846,-0.2097,-0.3022
33321.0,4.1132,1.8364,-3.4261,-0.2724,-0.0208,-0.2714
33331.0,4.3598,2.0327,-3.4692,-0.4358,0.165,-0.2442
33341.0,4.64,2.1907,-3.2705,-0.597,0.3688,-0.2059
33351.0,4.7669,2.3248,-3.0406,-0.6816,0.5981,-0.1447
33361.0,4.8363,2.4038,-2.9066,-0.7045,0.8083,-0.0569
33371.0,4.8842,2.4445,-3.0574,-0.68,1.0445,0.0495
33381.0,4.9297,2.1308,-2.9329,-0.638,1.3175,0.1708
33391.0,4.7238,1.8076,-2.7701,-0.538,1.6245,0.2879
33401.0,4.6615,1.4245,-3.0335,-0.4081,1.9624,0.3986
33411.0,4.4915,0.9098,-2.8922,-0.3134,2.362,0.4842
33421.0,4.0582,0.3831,-2.5067,-0.2437,2.7877,0.5342
33431.0,3.6799,-0.1652,-2.2027,-0.207,3.1666,0.5523
33441.0,3.3112,-0.5483,-2.1332,-0.1985,3.5497,0.5321
33451.0,2.5474,-0.8188,-1.6544,-0.2485,3.9712,0.4693
33461.0,1.8771,-0.9385,-1.0798,-0.3139,4.3639,0.3911
33471.0,1.2426,-0.6776,-0.7302,-0.3555,4.7475,0.3161
33481.0,0.4956,-0.2753,-0.1077,-0.4257,5.1482,0.2559
33491.0,-0.4812,0.2682,0.9361,-0.4693,5.5654,0.2336
33501.0,-1.6161,0.7446,2.2697,-0.4262,5.9458,0.2618
33511.0,-2.6983,1.1732,3.3902,-0.3065,6.2427,0.3352
33521.0,-3.6559,1.4174,3.9169,-0.2597,6.4391,0.4278
33531.0,-4.8411,1.3767,4.5322,-0.3789,6.5732,0.5092
33541.0,-6.3087,0.9553,5.6264,-0.5577,6.6668,0.6103
33551.0,-7.0677,0.1365,6.5793,-0.6098,6.7898,0.7434
33561.0,-7.9152,-0.6512,7.6902,-0.531,7.0015,0.8407
33571.0,-9.0764,-1.4485,9.2273,-0.3868,7.2463,0.8934
33581.0,-9.9671,-1.8579,11.5831,-0.1634,7.5097,0.8892
33591.0,-10.9583,-2.0662,15.1002,0.1596,7.7029,0.8445
33601.0,-11.6693,-1.4748,17.8895,0.4709,7.6012,0.779
33611.0,-11.5329,-1.4796,21.1983,0.5172,7.0851,0.7157
33621.0,-11.3102,-0.6919,22.2397,0.6157,6.3827,0.671
33631.0,-10.7524,-0.2729,22.6731,0.5534,5.5968,0.6529
33641.0,-9.9982,-0.5315,22.0219,0.4539,4.8832,0.6683
33651.0,-9.9623,-1.5443,21.4377,0.1719,4.2143,0.6343
33661.0,-9.4762,-3.2322,21.0953,-0.1219,3.5737,0.555
33671.0,-9.0812,-4.2641,20.4201,-0.1187,3.1804,0.4193
33681.0,-8.9447,-4.3167,20.5758,-0.0176,2.9378,0.2182
33691.0,-8.8562,-3.1867,20.5877,0.083,2.6526,0.0106
33701.0,-8.6742,-1.664,20.3076,0.0314,2.2615,-0.1517
33711.0,-8.0254,-0.5531,19.3164,-0.2677,1.748,-0.2543
33721.0,-7.5106,-0.0575,18.7107,-0.6896,1.3319,-0.3044
33731.0,-7.2449,-0.0599,18.7131,-1.0243,1.0334,-0.299
33741.0,-7.0557,-0.2346,18.4425,-1.1456,0.7418,-0.241
33751.0,-6.9121,-0.7781,17.8392,-1.0099,0.5007,-0.1336
33761.0,-6.426,-1.1516,16.1704,-0.6439,0.3842,-0.0202
33771.0,-5.94,-1.3647,14.5448,-0.3288,0.4182,0.0452
33781.0,-5.5617,-1.6975,14.0181,-0.1399,0.6055,0.0692
33791.0,-5.4492,-1.7741,14.5496,-0.0495,0.8104,0.0431
33801.0,-5.4157,-1.7837,16.496,0.0399,0.9759,0.009
33811.0,-6.3734,-0.7829,17.8488,0.4417,1.1361,0.0186
33821.0,-6.7445,0.2251,18.2917,0.5071,0.9291,0.0442
33831.0,-6.5649,0.1245,19.0411,0.3113,0.6784,0.099
33841.0,-6.9599,0.0431,20.6572,0.2054,0.6034,0.1437
33851.0,-7.7812,-0.0287,22.6372,0.1346,0.4188,0.1857
33861.0,-8.5162,-0.5076,24.5382,0.1602,0.0633,0.2528
33871.0,-8.8969,-0.8188,25.12,0.3081,-0.4039,0.3182
33881.0,-9.3446,-1.142,25.2732,0.4326,-0.8647,0.3581
33891.0,-9.5744,-1.47,25.0841,0.4911,-1.3069,0.365
33901.0,-10.0413,-1.7597,25.2157,0.4166,-1.7464,0.3166
33911.0,-10.2951,-2.1907,25.7401,0.3097,-2.2354,0.2384
33921.0,-10.6087,-1.98,25.9005,0.3097,-2.7249,0.1368
33931.0,-11.6286,-1.4748,26.1255,0.2969,-3.2799,0.0341
33941.0,-12.2487,-0.9146,24.8398,0.3347,-3.9759,-0.0229
33951.0,-12.2583,-0.0934,22.5941,0.3576,-4.6022,-0.058
33961.0,-12.4068,0.4908,21.0163,0.3555,-5.0109,-0.0537
33971.0,-12.548,0.9601,19.2422,0.3672,-5.3515,-0.0112
33981.0,-12.4211,1.1444,17.4633,0.2692,-5.7239,0.0431
33991.0,-12.0357,1.0774,14.9183,0.0718,-6.1172,0.0952
34001.0,-11.2216,0.3879,12.5145,-0.2166,-6.4327,0.1149
34011.0,-10.2472,-0.3591,10.4339,-0.4358,-6.5588,0.0873
34021.0,-9.2895,-0.9529,8.8801,-0.5646,-6.5391,0.0096
34031.0,-8.3653,-1.1516,7.8817,-0.5944,-6.4322,-0.1032
34041.0,-7.8314,-0.9673,7.2281,-0.5257,-6.2832,-0.2075
34051.0,-7.1012,-0.9673,6.3542,-0.3757,-6.1656,-0.2671
34061.0,-6.0358,-0.7566,4.6998,-0.1985,-6.0517,-0.3113
34071.0,-4.9919,-0.4334,3.2992,-0.1846,-5.8862,-0.3645
34081.0,-4.2258,-0.3831,2.8108,-0.2703,-5.6393,-0.4145
34091.0,-3.1843,-0.5555,2.5019,-0.3283,-5.4371,-0.4656
34101.0,-2.5043,-0.3855,1.9489,-0.2772,-5.1892,-0.5146
34111.0,-1.9537,-0.3017,1.6568,-0.2027,-4.9199,-0.5486
34121.0,-1.245,-0.1389,1.3024,-0.0915,-4.6586,-0.563
34131.0,-0.5866,0.182,0.9337,0.016,-4.3873,-0.5704
34141.0,-0.34,0.4429,0.9433,0.0559,-4.167,-0.5747
34151.0,0.1939,0.972,0.3448,0.1383,-3.9685,-0.5529
34161.0,0.5986,1.008,0.1125,0.1394,-3.7775,-0.5082
34171.0,1.087,0.8811,-0.486,0.1075,-3.6567,-0.4613
34181.0,1.4341,0.6584,-1.2282,0.0186,-3.5146,-0.4427
34191.0,1.8627,0.4118,-1.7502,-0.1101,-3.3528,-0.4571
34201.0,2.4325,0.3136,-2.2553,-0.2065,-3.1443,-0.4938
34211.0,2.8084,0.3496,-2.4612,-0.2442,-2.859,-0.5422
34221.0,3.0837,0.5555,-2.5139,-0.2155,-2.5339,-0.5832
34231.0,3.2848,0.7973,-2.3607,-0.1336,-2.2003,-0.6029
34241.0,3.5267,1.2833,-2.5283,-0.0032,-1.8789,-0.5992
34251.0,3.5841,1.7885,-2.6145,0.0415,-1.5926,-0.5752
34261.0,3.5961,2.3032,-2.6863,0.0208,-1.3446,-0.5295
34271.0,3.6224,2.7054,-2.7821,-0.0357,-1.1089,-0.4566
34281.0,3.7038,2.8922,-2.7821,-0.1181,-0.879,-0.3602
34291.0,3.6583,2.885,-2.7485,-0.2091,-0.6678,-0.2554
34301.0,3.6799,2.8228,-2.727,-0.2948,-0.472,-0.157
34311.0,3.7014,2.7174,-2.5522,-0.357,-0.2719,-0.0676
34321.0,3.7637,2.6552,-2.6408,-0.3815,-0.0931,0.0138
34331.0,3.8954,2.5474,-2.7222,-0.4055,0.0596,0.0926
34341.0,3.9145,2.4612,-3.0382,-0.4135,0.2251,0.1612
34351.0,3.8666,2.4995,-3.5219,-0.447,0.3858,0.2171
34361.0,3.6751,2.545,-3.9935,-0.5459,0.5459,0.2671
34371.0,3.4524,2.66,-4.3981,-0.6566,0.7396,0.3219
34381.0,3.2417,2.8132,-4.9392,-0.7364,0.9802,0.3975
34391.0,2.8706,2.8922,-5.2625,-0.8184,1.2547,0.4911
34401.0,2.4277,2.9353,-5.7269,-0.8753,1.5527,0.6082
34411.0,2.0997,2.9281,-6.1483,-0.9046,1.8959,0.7466
34421.0,1.5371,2.9113,-6.4141,-0.9088,2.3078,0.895
34431.0,1.0271,2.7509,-6.6343,-0.8551,2.775,1.0706
34441.0,0.5028,2.3966,-6.9935,-0.7093,3.3465,1.2595
34451.0,-0.5459,1.8603,-6.8091,-0.5465,3.9967,1.4346
34461.0,-1.5802,1.2929,-6.9384,-0.3778,4.6464,1.5798
34471.0,-2.9951,0.8116,-7.0461,-0.3086,5.336,1.6719
34481.0,-4.6902,0.3065,-6.3829,-0.3193,6.0613,1.7315
34491.0,-6.3087,0.1915,-5.6407,-0.2804,6.8094,1.7847
34501.0,-8.3534,-0.0575,-3.5386,-0.2219,7.5975,1.8459
34511.0,-10.1634,-0.814,-0.929,0.0372,8.2999,1.9539
34521.0,-11.8992,-1.3551,0.8021,0.5896,9.0028,2.046
34531.0,-14.3868,-1.7502,3.1747,1.1244,9.7004,2.0375
34541.0,-16.4146,-2.0279,5.5833,1.5186,10.2075,1.9401
34551.0,-18.4665,-2.2075,8.5018,1.6517,10.5731,1.7395
34561.0,-20.0921,-2.5786,13.9486,1.5128,10.7641,1.4798
34571.0,-20.8798,-3.1915,20.6189,1.2936,10.5539,1.2095
34581.0,-20.3794,-3.395,26.8989,1.0105,9.7424,0.9051
34591.0,-19.8719,-3.1125,31.8501,0.87,8.5771,0.6407
34601.0,-18.3827,-1.9609,33.4207,0.8732,7.141,0.4326
34611.0,-17.0587,-1.245,33.0448,0.7529,5.6494,0.2746
34621.0,-15.2918,-0.3184,29.4104,0.6316,4.3186,0.1437
34631.0,-14.3892,0.1101,25.9412,0.1149,3.2656,-0.0138
34641.0,-13.1753,0.4812,22.0386,-0.5028,2.5334,-0.1235
34651.0,-12.4403,-0.2801,21.3228,-1.1057,2.3424,-0.182
34661.0,-12.1937,-0.814,22.5007,-1.3739,2.3482,-0.2017
34671.0,-11.8944,-0.7159,24.4496,-1.3936,2.1854,-0.1841
34681.0,-11.5401,-0.3687,26.9539,-1.0679,1.9262,-0.0782
34691.0,-13.2926,1.1516,29.1303,-0.3927,1.5069,0.1399
34701.0,-9.8282,-1.1061,29.5085,-0.116,0.6321,0.357
34711.0,-8.8155,0.0599,21.2557,0.6859,0.3113,0.5832
34721.0,-7.7141,-2.466,21.4233,0.2889,-0.1442,0.6391
34731.0,-6.5146,-2.7007,17.0826,0.1596,-0.4603,0.613
34741.0,-5.6383,-4.8219,17.1784,-0.3416,-0.5465,0.4789
34751.0,-5.2984,-4.9967,16.1082,-0.39,-0.4651,0.2937
34761.0,-5.272,-4.9464,16.8336,-0.4007,-0.3161,0.0958
34771.0,-5.6814,-3.9744,16.9916,-0.2107,-0.2123,-0.0612
34781.0,-6.1483,-3.1771,17.8129,-0.0766,-0.1256,-0.1575
34791.0,-6.9025,-2.2242,18.9094,0.0532,-0.0979,-0.2054
34801.0,-7.5848,-1.312,20.1568,0.1777,-0.1405,-0.1942
34811.0,-8.3821,-0.9457,21.8638,0.2389,-0.2655,-0.1383
34821.0,-8.9447,-0.9122,23.6499,0.2448,-0.5332,-0.0745
34831.0,-9.5577,-1.087,25.0314,0.2075,-0.986,-0.0287
34841.0,-10.1155,-1.4724,25.6299,0.1815,-1.5564,-0.0074
34851.0,-10.4172,-1.5969,25.2876,0.1634,-2.1843,-0.0271
34861.0,-10.7811,-1.1205,23.8343,0.0846,-2.8335,-0.0883
34871.0,-11.0397,-0.9266,22.1655,-0.0697,-3.4327,-0.1479
34881.0,-10.8721,-0.8404,19.9988,-0.1884,-3.8855,-0.1963
34891.0,-10.8098,-0.8882,18.6508,-0.2884,-4.1531,-0.2538
34901.0,-10.7907,-0.6919,17.6165,-0.3161,-4.3468,-0.3081
34911.0,-10.7643,-0.4214,16.6996,-0.2735,-4.5341,-0.339
34921.0,-10.4004,-0.091,15.5312,-0.1373,-4.6645,-0.3331
34931.0,-10.161,0.0479,14.9135,0.0458,-4.7081,-0.2959
34941.0,-9.8857,0.1939,13.9726,0.2075,-4.7778,-0.2395
34951.0,-9.232,-0.0599,13.0628,0.2208,-4.922,-0.1889
34961.0,-8.7747,-0.2801,12.2679,0.2134,-5.0199,-0.1612
34971.0,-8.4156,-0.6177,11.4467,0.2395,-5.0934,-0.1474
34981.0,-7.8338,-0.6895,9.9551,0.2591,-5.186,-0.1517
34991.0,-7.2209,-0.6823,8.6622,0.1346,-5.2642,-0.1878
35001.0,-6.45,-0.8691,7.5226,-0.0537,-5.3078,-0.2426
35011.0,-5.6216,-1.1612,6.62,-0.216,-5.269,-0.3124
35021.0,-4.9752,-1.3408,5.9927,-0.3326,-5.1913,-0.4033
35031.0,-4.3311,-1.3767,5.4851,-0.3517,-5.104,-0.5071
35041.0,-3.6823,-0.8763,4.2258,-0.3294,-5.0391,-0.6119
35051.0,-3.45,-0.5578,3.7517,-0.3507,-4.8651,-0.6827
35061.0,-2.6217,-0.4621,3.4644,-0.3384,-4.739,-0.7258
35071.0,-2.0111,-0.103,2.7557,-0.2192,-4.5799,-0.7492
35081.0,-1.494,0.2849,2.1284,-0.1192,-4.391,-0.7609
35091.0,-1.0391,0.6967,1.5586,-0.0734,-4.2186,-0.7551
35101.0,-0.7278,1.0104,1.1995,-0.0559,-4.0276,-0.7274
35111.0,-0.3543,1.1516,0.9313,-0.0718,-3.8871,-0.6864
35121.0,0.0072,1.1372,0.5842,-0.075,-3.7578,-0.6369
35131.0,0.2466,1.0319,0.2825,-0.0585,-3.6114,-0.5901
35141.0,0.3855,1.1947,-0.4046,-0.066,-3.4976,-0.5587
35151.0,0.6081,1.4222,-1.0989,-0.1713,-3.4124,-0.5263
35161.0,1.0439,1.585,-1.7909,-0.315,-3.2874,-0.4842
35171.0,1.5371,1.6257,-2.2721,-0.4645,-3.1208,-0.4379
35181.0,2.0782,1.4988,-2.5139,-0.5816,-2.9043,-0.3879
35191.0,2.4804,1.3048,-2.6743,-0.6002,-2.6435,-0.3384
35201.0,2.9401,1.4317,-3.0191,-0.4986,-2.3402,-0.2996
35211.0,3.1053,1.494,-3.2394,-0.3698,-1.9858,-0.2554
35221.0,3.2154,1.4892,-3.2896,-0.2474,-1.6453,-0.2038
35231.0,3.4309,1.5203,-3.5841,-0.141,-1.3255,-0.1527
35241.0,3.4836,1.482,-3.7613,-0.1591,-1.0419,-0.1107
35251.0,3.5913,1.3527,-4.118,-0.3102,-0.8333,-0.0883
35261.0,3.9121,1.1205,-4.2449,-0.5204,-0.6439,-0.0803
35271.0,4.0654,1.0127,-4.2784,-0.6508,-0.3837,-0.0766
35281.0,4.2114,1.154,-4.2952,-0.7056,-0.0835,-0.0713
35291.0,4.276,1.2713,-4.0606,-0.7066,0.2464,-0.0431
35301.0,4.1156,1.494,-3.8499,-0.6369,0.5694,0.0138
35311.0,4.1922,1.64,-3.8499,-0.5667,0.8508,0.0921
35321.0,4.0606,1.5706,-3.6392,-0.4965,1.1377,0.1873
35331.0,3.7948,1.4748,-3.5985,-0.3799,1.4218,0.2836
35341.0,3.5985,1.1013,-3.6392,-0.2464,1.7145,0.3778
35351.0,3.3064,0.7135,-3.7254,-0.1112,2.0321,0.448
35361.0,2.806,0.3591,-3.8547,-0.0213,2.3615,0.4789
35371.0,2.2146,0.158,-4.1707,-0.0016,2.6909,0.4741
35381.0,1.7885,0.2203,-4.4149,-0.0431,3.0533,0.4491
35391.0,1.0008,0.4286,-4.2258,-0.1181,3.4758,0.4289
35401.0,0.2155,0.7661,-4.0797,-0.1873,3.8887,0.4401
35411.0,-0.5818,1.0702,-4.1444,-0.2847,4.2952,0.4826
35421.0,-1.8244,1.0463,-3.8499,-0.4534,4.7055,0.5497
35432.0,-3.134,0.8332,-3.5817,-0.5821,5.1242,0.6353
35441.0,-4.3263,0.5243,-3.2896,-0.5976,5.6138,0.7333
35451.0,-5.8945,0.0479,-2.5786,-0.5007,6.198,0.8221
35461.0,-7.3741,-0.5746,-1.5036,-0.2421,6.8627,0.8982
35471.0,-9.0477,-1.0439,-0.146,0.1112,7.5869,0.9285
35481.0,-10.5896,-1.0989,1.7741,0.4443,8.2728,0.8881
35491.0,-12.0764,-0.4046,4.0534,0.7184,8.8501,0.803
35501.0,-13.7714,0.7087,7.1706,0.8493,9.2492,0.7157
35511.0,-15.2319,1.8651,11.1139,0.8663,9.3843,0.6742
35521.0,-16.4434,3.1699,14.6932,0.8902,9.2486,0.7189
35531.0,-16.7498,4.4532,17.8607,0.8003,8.8309,0.8322
35541.0,-17.3819,5.5809,20.3507,0.6827,8.3089,1.0339
35551.0,-17.5878,5.217,22.8407,0.4518,7.6252,1.3074
35561.0,-17.5423,1.731,25.4336,0.3613,6.8919,1.6213
35571.0,-16.8025,-2.0925,26.1519,0.7072,6.181,1.7741
35581.0,-15.3612,-3.8978,25.4025,1.1446,5.5191,1.6299
35591.0,-14.6645,-3.5985,23.8726,1.3638,5.0242,1.2909
35601.0,-14.1952,-3.0622,23.3698,1.1504,4.6102,0.8982
35611.0,-13.5967,-2.1213,23.444,0.6157,4.1766,0.4954
35621.0,-13.307,-0.8595,25.2038,-0.0708,3.7498,0.1421
35631.0,-18.4449,2.8036,28.5437,-0.6667,3.1549,-0.0889
35641.0,-10.4507,-1.4174,34.6728,-1.8725,1.6942,-0.216
35651.0,-12.1889,2.308,23.3578,-1.2137,1.235,-0.149
35661.0,-12.5241,0.6009,26.4248,-1.5165,0.654,-0.067
35671.0,-11.1546,1.6137,20.9876,-0.8562,-0.0585,0.1767
35681.0,-10.6877,-1.1253,21.9453,-0.6295,-0.3661,0.3906
35691.0,-8.6048,-1.1013,17.5136,-0.009,-0.4619,0.4997
35701.0,-8.3893,-1.9082,16.4793,0.2618,-0.2065,0.522
35711.0,-7.5753,-1.9872,15.7467,0.2836,-0.207,0.4512
35721.0,-7.0581,-2.3128,16.0388,0.0436,-0.3257,0.3336
35731.0,-6.8809,-2.083,16.0483,-0.0011,-0.3076,0.224
35741.0,-7.0557,-1.2905,15.8616,-0.0569,-0.3597,0.1086
35751.0,-7.4699,-0.8021,16.204,-0.2283,-0.4991,0.0165
35761.0,-7.6591,-0.5746,16.4314,-0.3592,-0.6976,-0.0357
35771.0,-8.0565,-0.3496,16.587,-0.3959,-0.8647,-0.0644
35781.0,-8.5138,-0.0886,16.7594,-0.3805,-1.035,-0.0766
35791.0,-8.6263,-0.0575,16.8719,-0.3533,-1.2558,-0.0654
35801.0,-8.7053,-0.0718,16.8193,-0.2943,-1.408,-0.0468
35811.0,-8.9998,-0.1173,17.6692,-0.2389,-1.5048,-0.0282
35821.0,-9.177,-0.2346,18.4186,-0.116,-1.6602,0.0064
35831.0,-9.3829,-0.2873,18.8855,0.025,-1.8704,0.0394
35841.0,-9.4308,-0.2322,18.7586,0.0756,-2.1737,0.0575
35851.0,-9.2512,-0.5411,18.33,0.0112,-2.5057,0.0601
35861.0,-9.232,-0.9481,18.0547,-0.1011,-2.7728,0.0277
35871.0,-9.1363,-0.893,17.6094,-0.2464,-3.0458,-0.0463
35881.0,-9.0285,-0.8164,17.3388,-0.4422,-3.3502,-0.1314
35891.0,-8.8155,-1.063,17.085,-0.5295,-3.6067,-0.1937
35901.0,-8.7364,-1.0008,16.7115,-0.4837,-3.7897,-0.2522
35911.0,-8.7293,-1.0702,16.4913,-0.4081,-3.9621,-0.306
35921.0,-8.5976,-1.1181,16.4266,-0.2575,-4.1037,-0.3469
35931.0,-8.7197,-0.9457,16.2566,-0.0899,-4.25,-0.3879
35941.0,-8.758,-0.8954,16.0364,0.0133,-4.4873,-0.423
35951.0,-8.6766,-0.5219,14.8895,0.0819,-4.7778,-0.4555
35961.0,-8.2983,-0.0239,13.2519,0.0245,-5.0795,-0.4864
35971.0,-7.6136,0.1197,11.4898,-0.125,-5.3068,-0.5023
35981.0,-6.9145,-0.0287,10.2807,-0.2751,-5.3711,-0.5225
35991.0,-6.4835,0.1628,9.2057,-0.3762,-5.3499,-0.5577
36001.0,-6.1244,0.3711,8.5617,-0.5215,-5.3429,-0.5965
36011.0,-5.6671,0.395,7.944,-0.6369,-5.3328,-0.6167
36021.0,-5.0422,0.1173,7.1251,-0.7285,-5.3536,-0.6369
36031.0,-4.4173,-0.2418,6.2872,-0.7285,-5.2764,-0.6529
36041.0,-3.7302,-0.51,5.7916,-0.7189,-5.1673,-0.6896
36051.0,-2.9066,-0.6273,5.2218,-0.7098,-5.1088,-0.746
36061.0,-2.2482,-0.644,4.6902,-0.6407,-5.012,-0.7998
36071.0,-1.6831,-0.486,3.7781,-0.5481,-4.9029,-0.8503
36081.0,-1.0199,-0.1437,2.8874,-0.514,-4.797,-0.9025
36091.0,-0.5866,0.0383,2.387,-0.4879,-4.6273,-0.9323
36101.0,-0.2538,0.4022,1.6831,-0.4454,-4.4357,-0.9376
36111.0,0.0551,0.4812,1.415,-0.4454,-4.2463,-0.9195
36121.0,0.5866,0.4046,1.0104,-0.3868,-4.0435,-0.8785
36131.0,1.1277,0.3567,0.6201,-0.2847,-3.8099,-0.8434
36141.0,1.3838,0.4501,0.2298,-0.1618,-3.5263,-0.8131
36151.0,1.9034,0.4693,0.2035,-0.0644,-3.248,-0.7764
36161.0,2.308,0.6057,0.1053,0.0639,-2.9575,-0.738
36171.0,2.4588,0.8643,0.0886,0.1586,-2.6787,-0.6997
36181.0,2.5618,1.2043,-0.0144,0.1777,-2.4594,-0.654
36191.0,2.7294,1.573,-0.2969,0.1165,-2.2838,-0.5954
36201.0,2.9161,1.7933,-0.6369,-0.0468,-2.1465,-0.5369
36211.0,3.2681,1.7933,-0.7997,-0.2841,-2.0401,-0.4853
36221.0,3.4213,1.6305,-0.7422,-0.4874,-1.8901,-0.4432
36231.0,3.5051,1.494,-0.6464,-0.6055,-1.7368,-0.4113
36241.0,3.5099,1.5323,-0.6871,-0.6556,-1.6091,-0.3938
36251.0,3.4644,1.5802,-0.7494,-0.6955,-1.5069,-0.3751
36261.0,3.5602,1.6616,-1.1061,-0.6981,-1.4245,-0.3485
36271.0,3.8235,1.9632,-1.8459,-0.6832,-1.3297,-0.3182
36281.0,3.9744,2.0734,-2.2194,-0.7125,-1.1786,-0.2772
36291.0,4.1108,2.2362,-2.545,-0.7274,-0.9982,-0.2203
36301.0,4.2377,2.3727,-2.9305,-0.7492,-0.8184,-0.1517
36311.0,4.3934,2.5666,-3.486,-0.7923,-0.6407,-0.0713
36321.0,4.2258,2.5666,-3.7709,-0.837,-0.406,0.033
36331.0,4.2018,2.4062,-3.9552,-0.8248,-0.124,0.1655
36341.0,4.1707,2.0782,-4.1013,-0.7407,0.2006,0.3108
36351.0,3.9241,1.8052,-4.4867,-0.589,0.5832,0.4581
36361.0,3.8714,1.2977,-4.6376,-0.4491,0.9876,0.5859
36371.0,3.6847,0.8475,-4.8195,-0.3076,1.4229,0.6806
36381.0,3.3543,0.5555,-4.9728,-0.2059,1.8555,0.7327
36391.0,3.1987,0.431,-5.2361,-0.1469,2.2918,0.763
36401.0,2.9161,0.1484,-4.9512,-0.1458,2.7728,0.7849
36411.0,2.1979,-0.0407,-4.5633,-0.1298,3.2693,0.7939
36421.0,1.3934,-0.0742,-4.1228,-0.1298,3.7141,0.7907
36431.0,0.6416,-0.0192,-4.0007,-0.1506,4.1345,0.7928
36441.0,-0.3711,0.0838,-3.7517,-0.2123,4.5597,0.8014
36451.0,-1.1109,-0.0407,-3.4644,-0.2948,4.9923,0.8445
36461.0,-1.5945,-0.7518,-2.8132,-0.3363,5.5143,0.92
36471.0,-2.5809,-1.5107,-1.5131,-0.2863,6.1438,0.9626
36481.0,-3.7445,-2.0638,0.182,-0.1261,6.7541,0.9594
36491.0,-4.9177,-2.3152,1.8411,0.1469,7.333,0.9216
36501.0,-6.9671,-2.715,4.1994,0.4502,7.8832,0.8498
36511.0,-8.2265,-3.2777,6.5242,0.87,8.3579,0.7583
36521.0,-9.6199,-3.2681,9.256,1.3239,8.8559,0.564
36531.0,-11.4874,-1.7478,13.5057,1.6033,9.2242,0.273
36541.0,-12.9694,1.1492,18.1864,1.5729,9.1704,0.0559
36551.0,-13.6493,2.7797,23.8439,1.1169,8.5441,0.0149
36561.0,-13.1968,3.711,27.5357,0.7455,7.6055,0.1362
36571.0,-12.2104,4.3024,29.056,0.3964,6.4854,0.3113
36581.0,-11.169,4.3311,28.5652,-0.1139,5.2147,0.4837
36591.0,-9.8114,3.055,27.1431,-0.5949,4.0749,0.6667
36601.0,-8.3917,1.4341,24.5885,-0.7247,3.3252,0.8397
36611.0,-7.3406,-0.3615,22.788,-0.663,2.9857,0.9461
36621.0,-6.608,-1.3144,21.294,-0.5507,2.8468,0.9589
36631.0,-5.8419,-1.6999,20.6356,-0.6109,2.6435,0.8961
36641.0,-5.6288,-1.5467,19.9724,-0.6391,2.5105,0.8365
36651.0,-5.6671,-1.5107,20.2597,-0.6348,2.3892,0.803
36661.0,-5.6551,-1.1851,19.8695,-0.4608,2.2673,0.8258
36671.0,-5.5234,-1.2234,19.6923,-0.3283,2.0944,0.8626
36681.0,-5.3008,-1.391,19.1847,-0.1873,1.8911,0.9094
36691.0,-5.2241,-2.0734,18.9669,-0.0255,1.7342,0.9562
36701.0,-4.8937,-3.0119,18.4306,0.2416,1.6187,0.986
36711.0,-4.604,-3.6512,17.7075,0.5103,1.5719,0.9578
36721.0,-4.4987,-4.2186,17.7099,0.5976,1.4947,0.8514
36731.0,-4.5514,-4.8459,18.0738,0.671,1.4117,0.7088
36741.0,-4.707,-4.8411,18.5599,0.7716,1.3436,0.5204
36751.0,-4.9895,-3.9097,19.1752,0.7572,1.168,0.3022
36761.0,-5.466,-2.7509,19.836,0.6337,0.8908,0.1197
36771.0,-5.8155,-2.0518,20.5015,0.4975,0.5827,0.0117
36781.0,-6.2153,-1.5682,21.2438,0.4087,0.2804,-0.0506
36791.0,-6.845,-0.8739,21.6771,0.3304,-0.0729,-0.0926
36801.0,-7.3239,-0.7901,22.223,0.2283,-0.5034,-0.1038
36811.0,-7.4962,-0.5698,21.9955,0.2528,-0.9041,-0.0968
36821.0,-7.7716,-0.2442,21.5191,0.249,-1.2712,-0.0947
36831.0,-7.9727,-0.3807,21.3874,0.2107,-1.6171,-0.075
36841.0,-7.9224,-0.5387,20.6715,0.2373,-1.9087,-0.0612
36851.0,-8.1259,-0.6177,20.3914,0.166,-2.1907,-0.0905
36861.0,-8.3031,-0.5435,20.1807,0.0921,-2.4685,-0.132
36871.0,-8.4348,-0.2849,20.1281,0.0788,-2.6941,-0.1724
36881.0,-8.8729,0.182,20.6715,0.0857,-2.9048,-0.2081
36891.0,-9.402,0.8428,20.9301,0.1022,-3.2475,-0.216
36901.0,-9.5098,1.3719,20.0969,0.0585,-3.761,-0.1958
36911.0,-9.5624,1.6233,18.5144,-0.0474,-4.2548,-0.1602
36921.0,-9.4164,1.403,17.0395,-0.1862,-4.6485,-0.1219
36931.0,-8.9591,1.2115,15.3468,-0.2469,-4.9061,-0.0931
36941.0,-8.7939,1.1205,13.8936,-0.3512,-5.0811,-0.0878
36951.0,-8.2959,0.735,12.9622,-0.4933,-5.2285,-0.0931
36961.0,-7.8913,0.2969,12.1458,-0.5587,-5.3068,-0.1101
36971.0,-7.5322,-0.2777,11.6215,-0.6066,-5.385,-0.1538
36981.0,-6.8522,-0.5483,10.7619,-0.5598,-5.4451,-0.2118
36991.0,-6.3782,-0.4525,9.6175,-0.5321,-5.4855,-0.29
37001.0,-5.9831,-0.4932,8.7747,-0.5901,-5.5361,-0.3746
37011.0,-5.3151,-0.5315,7.8458,-0.5805,-5.5398,-0.4454
37021.0,-4.8076,-0.5578,7.2185,-0.4954,-5.4387,-0.505
37031.0,-4.1779,-0.4549,6.8283,-0.3421,-5.3052,-0.5486
37041.0,-3.6512,-0.0814,6.0478,-0.1644,-5.1918,-0.5752
37051.0,-3.0885,0.1963,5.1523,-0.067,-5.1168,-0.5843
37061.0,-2.5666,0.2203,4.3742,-0.0314,-4.9917,-0.5699
37071.0,-1.8675,-0.1101,3.8762,-0.0963,-4.8938,-0.5741
37081.0,-1.3551,0.0072,3.3208,-0.1219,-4.7539,-0.6066
37091.0,-1.0223,0.3807,2.9928,-0.1282,-4.5794,-0.6321
37101.0,-0.6057,0.7614,2.49,-0.1644,-4.4543,-0.6327
37111.0,-0.1987,0.9074,2.1739,-0.2246,-4.3325,-0.6039
37121.0,0.2251,0.9481,1.6927,-0.2687,-4.217,-0.5694
37131.0,0.6752,1.0319,1.1372,-0.3187,-4.0989,-0.538
37141.0,1.1061,1.1636,0.6967,-0.3656,-3.9493,-0.5044
37151.0,1.5179,1.2282,0.3639,-0.4326,-3.8168,-0.4672
37161.0,1.992,1.3072,-0.1724,-0.4879,-3.6913,-0.4246
37171.0,2.3942,1.2306,-0.4812,-0.5332,-3.5423,-0.381
37181.0,2.7605,1.1875,-0.9481,-0.564,-3.3896,-0.3464
37191.0,3.1963,1.166,-1.4293,-0.6162,-3.2485,-0.3246
37201.0,3.3471,1.1612,-1.7693,-0.647,-3.0719,-0.3092
37211.0,3.5171,1.1756,-2.138,-0.6332,-2.8777,-0.2932
37221.0,3.644,1.1157,-2.4517,-0.5901,-2.6797,-0.2815
37231.0,3.7182,1.2857,-2.9951,-0.5183,-2.4706,-0.2677
37241.0,3.8235,1.4174,-3.3662,-0.4784,-2.2625,-0.2528
37251.0,3.9911,1.6903,-3.9863,-0.4198,-2.0311,-0.2336
37261.0,4.3144,1.913,-4.5274,-0.406,-1.8129,-0.2097
37271.0,4.6352,2.1835,-5.3822,-0.4353,-1.5809,-0.1815
37281.0,4.786,2.3463,-5.8897,-0.5454,-1.325,-0.1527
37291.0,4.8076,2.5498,-6.1004,-0.6359,-1.0222,-0.1133
37301.0,4.5681,2.7988,-6.1363,-0.6401,-0.6662,-0.0458
37311.0,4.4748,2.873,-6.1316,-0.588,-0.3267,0.0537
37321.0,4.2593,2.885,-5.9376,-0.4268,0.0463,0.183
37331.0,4.0007,2.8276,-5.9448,-0.1628,0.4289,0.3347
37341.0,3.6224,2.4828,-6.1196,0.1394,0.8322,0.4933
37351.0,3.4381,1.8842,-6.8115,0.3214,1.1627,0.5933
37361.0,3.1699,1.652,-7.5298,0.4486,1.6235,0.6268
37371.0,2.8276,1.6879,-8.1163,0.4422,2.105,0.6151
37381.0,2.6145,1.913,-8.4467,0.2826,2.5776,0.5917
37391.0,1.9561,2.2601,-8.1451,0.0857,3.1469,0.5986
37401.0,1.0726,2.5522,-7.4531,-0.0958,3.6913,0.6556
37411.0,-0.0239,2.6288,-6.6774,-0.1751,4.2346,0.7726
37421.0,-1.245,2.3655,-6.0334,-0.1703,4.7746,0.9328
37431.0,-2.3655,1.8962,-5.7413,-0.116,5.3206,1.0946
37441.0,-3.2848,1.4676,-5.3941,-0.0905,5.908,1.2244
37451.0,-4.5035,1.1253,-4.3383,-0.0745,6.5812,1.3244
37461.0,-5.7365,0.9026,-3.0287,0.0011,7.2734,1.4266
37471.0,-6.6726,0.261,-1.4198,0.1117,7.9035,1.5405
37481.0,-8.2648,-0.7733,0.4573,0.2868,8.5388,1.6192
37491.0,-10.5728,-1.9704,2.8443,0.4629,9.1092,1.6155
37501.0,-12.2248,-3.4692,5.703,0.6513,9.5408,1.5256
37511.0,-13.611,-4.2425,9.1099,0.9083,9.9298,1.3095
37521.0,-14.7267,-3.7781,13.2447,1.1206,10.0622,1.0084
37531.0,-15.5192,-1.9896,16.0292,1.2835,9.8505,0.7471
37541.0,-16.0795,-0.1772,18.4928,1.1531,9.32,0.5816
37551.0,-15.8712,1.7214,18.4713,0.9344,8.5425,0.5529
37561.0,-15.6126,2.9305,17.2239,0.6912,7.9381,0.6332
37571.0,-16.6636,2.4684,17.2598,0.5449,7.7034,0.7976
37581.0,-16.168,0.723,18.1935,0.8402,7.7194,0.9982
37591.0,-16.9318,-1.0175,19.6684,1.3718,7.937,1.0605
37601.0,-17.4992,-2.5307,22.6994,1.7342,8.0275,0.9567
37611.0,-17.1688,-2.7964,26.2381,1.847,7.8199,0.6933
37621.0,-17.0826,-1.5874,31.0719,1.5261,7.2405,0.3124
37631.0,-16.8217,0.6464,34.9506,0.9408,6.1092,-0.0144
37641.0,-19.4218,4.221,37.0982,0.2277,4.5618,-0.1804
37651.0,-14.1904,-0.4334,47.2951,-0.8764,2.4248,-0.2107
37661.0,-13.3716,5.4851,27.3107,0.0697,1.0222,-0.025
37671.0,-12.797,1.5012,28.0433,-0.9716,-0.0968,0.0718
37681.0,-10.8386,3.0454,18.0307,-0.7827,-0.6619,0.2405
37691.0,-10.6231,-1.0726,20.073,-1.2952,-0.6343,0.331
37701.0,-9.5577,-2.1213,18.002,-1.1307,-0.6141,0.3257
37711.0,-9.0333,-2.8683,16.9749,-0.7146,-0.2123,0.2937
37721.0,-8.3749,-2.4157,16.0459,-0.2826,0.1261,0.2315
37731.0,-8.6095,-2.375,18.0786,-0.0431,0.3799,0.1676
37741.0,-8.6574,-1.6305,19.982,0.339,0.4762,0.141
37751.0,-9.2464,-0.5411,22.0362,0.6114,0.3533,0.1378
37761.0,-9.153,0.0527,22.393,0.6848,-0.0027,0.158
37771.0,-10.0269,0.9361,23.2549,0.5704,-0.2964,0.1761
37781.0,-10.5848,1.0008,24.5669,0.1511,-0.9307,0.182
37791.0,-10.9535,0.6488,24.3945,-0.1676,-1.6719,0.207
37801.0,-10.9008,0.0215,23.1926,-0.4071,-2.3567,0.2091
37811.0,-11.0708,-0.68,21.6412,-0.5406,-2.8612,0.183
37821.0,-10.92,-1.1684,20.1831,-0.6311,-3.2209,0.1197
37831.0,-10.975,-1.4461,19.4601,-0.6476,-3.4162,0.0271
37841.0,-10.9607,-0.9792,18.5958,-0.5773,-3.5609,-0.0654
37851.0,-11.1977,-0.7254,18.5287,-0.571,-3.7503,-0.1383
37861.0,-11.0516,-0.5435,18.0475,-0.4661,-3.9515,-0.1692
37871.0,-10.9391,-0.3759,17.7291,-0.3113,-4.0935,-0.1841
37881.0,-11.0373,-0.0718,17.5232,-0.1378,-4.234,-0.1862
37891.0,-11.1546,0.3304,17.2023,-0.0048,-4.4607,-0.1777
37901.0,-11.1857,0.5291,16.5703,0.083,-4.7502,-0.1506
37911.0,-10.9176,0.6345,15.2774,0.1559,-5.0407,-0.1107
37921.0,-10.6279,0.7063,13.6302,0.1373,-5.2881,-0.0857
37931.0,-10.2137,0.6057,11.9447,0.0128,-5.4855,-0.0777
37941.0,-9.4403,0.2466,10.4794,-0.1783,-5.6404,-0.0958
37951.0,-8.7005,0.0024,9.086,-0.3719,-5.7181,-0.1511
37961.0,-7.9871,-0.2059,8.1666,-0.5646,-5.7351,-0.24
37971.0,-7.2305,-0.1915,7.0773,-0.7024,-5.7282,-0.3363
37981.0,-6.4212,-0.3639,6.3231,-0.7843,-5.6649,-0.4315
37991.0,-5.7341,-0.1939,5.3654,-0.7806,-5.5579,-0.5247
38001.0,-5.1236,-0.1389,5.0925,-0.762,-5.3876,-0.589
38011.0,-4.3335,-0.3232,4.7645,-0.7035,-5.2679,-0.6311
38021.0,-3.4931,-0.4669,4.2066,-0.5193,-5.1077,-0.6625
38031.0,-2.8443,-0.5195,3.565,-0.2857,-4.9013,-0.6912
38041.0,-2.1979,-0.3424,2.8252,-0.0889,-4.6842,-0.721
38051.0,-1.5562,-0.1053,2.3367,0.0186,-4.4676,-0.754
38061.0,-0.917,0.1796,1.8723,0.0255,-4.2984,-0.7849
38071.0,-0.5267,0.5363,1.5203,-0.0362,-4.1478,-0.8136
38081.0,-0.1556,0.9074,1.3001,-0.1447,-4.0254,-0.8312
38091.0,0.2538,1.1756,1.0702,-0.2506,-3.9259,-0.8221
38101.0,0.6967,1.2163,0.7973,-0.2895,-3.8046,-0.7854
38111.0,1.075,1.142,0.4094,-0.2714,-3.6625,-0.7418
38121.0,1.4126,1.0271,-0.0814,-0.2453,-3.5072,-0.7066
38131.0,1.7095,0.9697,-0.5866,-0.2602,-3.3518,-0.688
38141.0,1.9321,1.0008,-1.0175,-0.3171,-3.1943,-0.6848
38151.0,2.2913,1.1253,-1.4868,-0.4092,-3.0453,-0.6917
38161.0,2.6408,1.3455,-1.9297,-0.5337,-2.9,-0.7045
38171.0,2.8587,1.6137,-2.4517,-0.6923,-2.7404,-0.7109
38181.0,3.1077,1.7717,-2.7198,-0.8993,-2.5834,-0.7125
38191.0,3.2417,1.8316,-2.6959,-1.069,-2.3988,-0.7019
38201.0,3.3639,1.7909,-2.5642,-1.1174,-2.1896,-0.6753
38211.0,3.4979,1.8268,-2.6719,-1.036,-1.9619,-0.6353
38221.0,3.3998,1.8842,-2.7414,-0.895,-1.7267,-0.5859
38231.0,3.4189,2.0327,-2.9233,-0.738,-1.5112,-0.53
38241.0,3.4836,2.1835,-3.1723,-0.5688,-1.2904,-0.4635
38251.0,3.5434,2.3535,-3.4836,-0.4236,-1.0701,-0.3863
38261.0,3.7757,2.5594,-4.0725,-0.3459,-0.8759,-0.3033
38271.0,4.0917,2.5929,-4.4915,-0.3725,-0.6758,-0.2198
38281.0,4.2713,2.636,-4.8937,-0.4709,-0.4667,-0.1463
38291.0,4.5753,2.6121,-5.1068,-0.58,-0.2283,-0.0734
38301.0,4.6112,2.5929,-4.956,-0.6455,0.0521,0.0021
38311.0,4.3479,2.4038,-4.8147,-0.6364,0.3528,0.0947
38321.0,4.1946,2.1165,-4.7621,-0.5624,0.6375,0.1894
38331.0,3.8738,1.8771,-4.9201,-0.4427,0.9397,0.2629
38341.0,3.4285,1.7262,-5.1451,-0.339,1.2398,0.3081
38351.0,3.0311,1.8986,-5.466,-0.2719,1.5373,0.332
38361.0,2.66,2.1979,-6.0214,-0.3022,1.8209,0.3565
38371.0,2.3822,2.6456,-6.5027,-0.4395,2.1056,0.3922
38381.0,1.8699,3.1244,-6.5027,-0.5827,2.5052,0.4725
38391.0,1.312,3.371,-6.2249,-0.6933,2.9564,0.6125
38401.0,0.5578,3.5027,-5.8586,-0.7215,3.4369,0.8067
38411.0,-0.5339,3.1939,-5.2265,-0.6843,3.9403,1.0408
38421.0,-1.6352,2.545,-4.7262,-0.5859,4.424,1.2819
38431.0,-2.5546,1.7262,-4.5729,-0.4512,4.9279,1.4947
38441.0,-3.4117,0.8188,-4.3551,-0.3794,5.4451,1.6421
38451.0,-4.3096,0.0287,-3.972,-0.3799,5.9916,1.7123
38461.0,-5.7245,-0.6512,-2.8874,-0.3586,6.6035,1.7384
38471.0,-7.003,-1.2354,-1.6831,-0.1511,7.291,1.7538
38481.0,-8.9256,-1.6568,-0.103,0.1979,8.045,1.732
38491.0,-11.3701,-1.6927,1.7478,0.6082,8.7767,1.6676
38501.0,-13.5847,-1.3527,3.644,0.9525,9.3865,1.5522
38511.0,-16.0005,-0.1173,6.0908,1.0419,9.8329,1.3957
38521.0,-18.1217,0.2251,10.1347,0.8987,10.0495,1.3351
38531.0,-18.7873,-0.2753,14.109,0.9184,10.1038,1.3739
38541.0,-19.4457,-0.668,18.6532,0.9599,10.0271,1.3617
38551.0,-19.4218,-0.759,23.2333,0.8413,9.5418,1.2904
38561.0,-18.8136,-0.4453,26.4487,0.5667,8.6463,1.193
38571.0,-18.33,-0.6632,28.7448,0.1485,7.514,1.1084
38581.0,-17.018,-0.7063,28.6658,-0.1564,6.3247,1.0546
38591.0,-16.678,-0.8906,28.0768,-0.4268,5.344,1.0084
38601.0,-15.3851,-2.9449,27.6602,-0.531,4.6209,1.0169
38611.0,-14.5424,-3.9433,26.1902,-0.5108,4.085,0.9301
38621.0,-13.6805,-4.7046,25.6946,-0.8125,3.5236,0.737
38631.0,-12.7132,-5.5115,25.9867,-1.0919,3.0554,0.5284
38641.0,-11.88,-5.6695,26.5278,-1.1355,2.6382,0.3033
38651.0,-11.3222,-4.2689,25.8598,-1.0397,2.13,0.0835
38661.0,-12.6318,-3.6607,30.9091,-1.3319,1.2851,-0.0761
38671.0,-9.0381,-1.6975,22.539,-0.862,0.6236,-0.0782
38681.0,-10.6087,-0.7159,21.7417,-0.4757,0.928,0.0064
38691.0,-9.5768,0.2849,19.8,-0.1229,0.6699,0.1958
38701.0,-10.58,-0.6967,20.298,0.0803,0.6481,0.4113
38711.0,-7.9703,-2.2817,20.0131,0.1676,0.4193,0.555
38721.0,-8.9136,-2.7916,19.0746,0.3294,0.4342,0.5912
38731.0,-8.4084,-3.4979,19.1369,0.2442,0.3469,0.5422
38741.0,-8.5665,-4.3024,20.1185,0.0782,0.1485,0.4108
38751.0,-8.5042,-3.96,20.2095,-0.099,-0.0942,0.2235
38761.0,-9.019,-3.4429,21.5813,-0.3613,-0.3837,0.0319
38771.0,-9.3996,-2.5259,21.7968,-0.5263,-0.7694,-0.0958
38781.0,-9.9958,-2.2865,22.551,-0.688,-1.1877,-0.1623
38791.0,-10.5824,-1.8555,22.2685,-0.6646,-1.6176,-0.174
38801.0,-10.9798,-1.8268,21.871,-0.5789,-2.022,-0.1421
38811.0,-11.0277,-2.1979,21.4257,-0.397,-2.3264,-0.0814
38821.0,-11.3749,-2.8419,21.7417,-0.1054,-2.4983,-0.0239
38831.0,-11.71,-3.292,22.0841,0.2714,-2.6925,0.0117
38841.0,-12.0093,-3.2825,22.1919,0.5555,-3.0267,0.0048
38851.0,-12.1362,-3.0885,21.9285,0.6965,-3.4635,-0.0346
38861.0,-12.4977,-2.5235,20.8487,0.6976,-3.9472,-0.1016
38871.0,-12.627,-2.2721,19.9533,0.5348,-4.4559,-0.1761
38881.0,-12.4953,-1.9058,18.251,0.3852,-4.9173,-0.249
38891.0,-12.481,-1.6041,16.9845,0.2054,-5.2732,-0.3251
38901.0,-12.141,-1.2378,15.5863,0.1453,-5.518,-0.3709
38911.0,-12.0141,-1.0439,14.4801,0.1197,-5.6819,-0.3916
38921.0,-11.6119,-0.9385,13.4051,0.1485,-5.7904,-0.3927
38931.0,-11.1666,-0.7302,12.5265,0.1644,-5.8857,-0.3975
38941.0,-10.8362,-0.6153,11.5951,0.1719,-5.9863,-0.3932
38951.0,-10.173,-0.5124,10.1299,0.2033,-6.1166,-0.3746
38961.0,-9.3158,-0.7877,8.7628,0.1995,-6.1917,-0.3528
38971.0,-8.3199,-0.8978,7.3526,0.1884,-6.1645,-0.3539
38981.0,-7.4388,-0.8092,6.4763,0.0724,-6.115,-0.3927
38991.0,-6.8833,-0.7805,6.0621,-0.0383,-6.0443,-0.4337
39001.0,-5.8299,-0.5938,4.8818,-0.0947,-6.0485,-0.464
39011.0,-5.1068,-0.3112,3.7302,-0.2065,-5.9964,-0.4917
39021.0,-4.6304,-0.3687,3.3615,-0.4188,-5.9064,-0.5156
39031.0,-3.7565,-0.5578,2.7629,-0.5699,-5.9096,-0.5523
39041.0,-3.122,-0.6177,1.9824,-0.5555,-5.8064,-0.5933
39051.0,-2.4804,-0.5866,1.2186,-0.4427,-5.6298,-0.6321
39061.0,-1.6568,-0.3184,0.3208,-0.2826,-5.4196,-0.6641
39071.0,-0.9481,0.1508,-0.8116,-0.1453,-5.1519,-0.6806
39081.0,-0.2011,0.3974,-1.5107,-0.1224,-4.8683,-0.6784
39091.0,0.6009,0.5626,-2.1763,-0.1469,-4.5613,-0.6625
39101.0,1.2857,0.644,-2.478,-0.199,-4.2468,-0.6476
39111.0,1.9465,0.6895,-2.8922,-0.2442,-3.9493,-0.6359
39121.0,2.6384,0.6081,-3.5506,-0.2932,-3.662,-0.6284
39131.0,3.1053,0.4956,-4.2737,-0.4129,-3.3832,-0.6364
39141.0,3.6727,0.2634,-4.8147,-0.6183,-3.0852,-0.6667
39151.0,4.142,0.1389,-4.8794,-0.795,-2.7095,-0.7189
39161.0,4.4173,0.2586,-4.64,-0.8705,-2.2993,-0.7811
39171.0,4.4317,0.6033,-4.3024,-0.8626,-1.9172,-0.8269
39181.0,4.4556,1.0367,-3.8834,-0.7716,-1.5618,-0.8391
39191.0,4.3598,1.4126,-3.5314,-0.6178,-1.2446,-0.8184
39201.0,4.3766,1.7286,-3.3974,-0.4278,-0.9892,-0.7705
39211.0,4.4724,2.0135,-3.5578,-0.24,-0.7732,-0.7109
39221.0,4.4341,2.3104,-3.8738,-0.1006,-0.5545,-0.6455
39231.0,4.4676,2.5522,-4.2186,-0.074,-0.3672,-0.5795
39241.0,4.4388,2.8611,-4.6639,-0.1479,-0.1926,-0.5146
39251.0,4.4221,3.0239,-4.8459,-0.3092,-0.0223,-0.4374
39261.0,4.5059,3.055,-4.9823,-0.4821,0.1575,-0.3443
39271.0,4.4029,3.043,-4.877,-0.6045,0.3805,-0.2421
39281.0,4.3359,2.9975,-4.719,-0.6561,0.6034,-0.1261
39291.0,4.2641,2.8299,-4.5322,-0.6348,0.829,0.0011
39301.0,4.1037,2.624,-4.6711,-0.5401,1.06,0.1341
39311.0,3.9744,2.2697,-4.6735,-0.4236,1.3074,0.2581
39321.0,3.9887,2.0518,-4.9704,-0.2863,1.5628,0.3592
39331.0,3.7302,1.8004,-5.3415,-0.2081,1.8347,0.4342
39341.0,3.316,1.6472,-5.7245,-0.2027,2.1167,0.4842
39351.0,2.7509,1.6209,-6.0645,-0.2916,2.4009,0.5092
39361.0,2.1284,1.6568,-6.2106,-0.4486,2.6872,0.5326
39371.0,1.6257,1.6424,-6.2058,-0.613,2.9915,0.5784
39381.0,1.0989,1.8196,-6.3686,-0.7455,3.3433,0.6534
39391.0,0.4788,1.9776,-6.2752,-0.9009,3.7227,0.7657
39401.0,-0.51,1.6735,-5.5689,-1.011,4.1808,0.9312
39411.0,-1.5586,1.0056,-4.5873,-0.9919,4.6544,1.1185
39421.0,-2.4828,0.2873,-3.7661,-0.8285,5.1258,1.2861
39431.0,-4.0223,-0.2586,-3.4022,-0.6385,5.6,1.3925
39441.0,-5.5091,-0.735,-3.5362,-0.5843,5.9969,1.4447
39451.0,-6.8594,-1.1037,-4.118,-0.7503,6.3981,1.4473
39461.0,-8.4108,-0.8978,-4.0079,-1.1063,6.9185,1.4223
39471.0,-10.6135,0.1939,-2.5905,-1.4431,7.5645,1.458
39481.0,-13.9726,1.7238,0.0527,-1.5692,8.2547,1.648
39491.0,-17.2406,1.7909,3.1149,-1.2553,8.9086,2.0752
39501.0,-19.5846,-0.1221,4.8626,-0.456,9.5887,2.5956
39511.0,-22.2589,-4.0366,7.0629,0.389,10.3916,2.9282
39521.0,-24.3275,-7.7476,11.2504,1.2047,11.3414,2.892
39531.0,-26.8797,-10.2472,18.7107,1.8528,12.1566,2.4562
39541.0,-27.3729,-11.9016,29.0896,2.2588,12.3349,1.7778
39551.0,-27.3298,-9.7492,39.0566,2.3466,11.5154,0.9264
39561.0,-24.7249,-5.8754,47.252,2.0412,9.6398,0.182
39571.0,-22.7832,0.1365,50.113,1.5766,7.2649,-0.3246
39581.0,-20.7984,4.3479,49.1841,0.4294,4.4107,-0.5353
39591.0,-17.8512,4.7764,43.8737,-0.8322,1.6671,-0.422
39601.0,-15.275,2.9832,37.0,-1.6208,-0.2528,-0.1527
39611.0,-13.2663,0.7374,30.38,-1.7677,-1.3133,0.1399
39621.0,-11.631,-1.3048,24.3514,-1.4771,-1.7842,0.389
39631.0,-9.8402,-3.1556,19.6085,-1.0302,-1.8996,0.5417
39641.0,-7.8961,-3.9768,15.5456,-0.4917,-1.6868,0.5811
39651.0,-6.5266,-3.869,13.2735,-0.0718,-1.2579,0.5199
39661.0,-5.6982,-2.9066,12.074,0.2017,-0.7902,0.4305
39671.0,-5.0949,-1.8794,11.8369,0.2437,-0.4209,0.3661
39681.0,-4.3981,-1.6592,12.5265,0.166,-0.1655,0.3523
39691.0,-4.4532,-1.6113,13.6134,0.19,0.0958,0.3735
39701.0,-4.7525,-1.822,14.8776,0.1921,0.1825,0.3991
39711.0,-4.9225,-2.5235,15.67,0.1655,0.0926,0.4182
39721.0,-5.0206,-3.2825,16.1417,0.1442,-0.0314,0.3911
39731.0,-5.3654,-3.5602,16.5368,0.0883,-0.1868,0.298
39741.0,-5.7365,-3.7445,16.7594,0.0415,-0.3821,0.1804
39751.0,-5.9161,-3.0335,16.3404,0.0468,-0.5566,0.0537
39761.0,-6.189,-2.3367,16.5439,0.0085,-0.6566,-0.0399
39771.0,-6.4572,-1.6017,16.8528,0.0325,-0.7184,-0.0692
39781.0,-6.5242,-1.1468,17.2047,0.0915,-0.7976,-0.0404
39791.0,-6.6702,-0.9649,17.7554,0.1378,-0.8647,0.0208
39801.0,-6.8881,-1.1612,18.8041,0.1245,-1.002,0.0814
39811.0,-6.9121,-1.6831,19.7617,0.1676,-1.1941,0.1357
39821.0,-6.9863,-2.3056,20.7649,0.2655,-1.4261,0.1596
39831.0,-7.1874,-2.5546,20.9469,0.3783,-1.7847,0.1368
39841.0,-7.197,-2.6767,20.3196,0.3986,-2.2264,0.0761
39851.0,-7.118,-2.8156,19.2398,0.3597,-2.5988,-0.017
39861.0,-7.0006,-2.569,18.4808,0.3124,-2.8558,-0.133
39871.0,-7.2832,-1.834,17.6668,0.2235,-3.09,-0.2512
39881.0,-7.3406,-0.9074,16.9198,0.0825,-3.356,-0.3374
39891.0,-7.5178,-0.4286,16.4075,0.0053,-3.5534,-0.3602
39901.0,-7.4388,-0.0311,15.7419,0.0537,-3.6961,-0.3379
39911.0,-7.3813,0.2825,15.0667,0.1346,-3.8216,-0.2905
39921.0,-7.2472,0.4956,14.2168,0.2214,-3.9472,-0.223
39931.0,-6.9647,0.4932,13.2806,0.2661,-4.0749,-0.1463
39941.0,-6.6463,0.249,12.5696,0.2921,-4.1659,-0.0766
39951.0,-6.2752,-0.0718,11.7531,0.3517,-4.233,-0.0197
39961.0,-5.7796,-0.4022,10.6949,0.3645,-4.3032,0.0085
39971.0,-5.1044,-0.6464,9.4403,0.2448,-4.4208,-0.0149
39981.0,-4.6088,-0.893,8.3797,0.0553,-4.4873,-0.0713
39991.0,-4.1611,-1.2617,7.9679,-0.1197,-4.5006,-0.1474
40001.0,-3.6727,-1.4581,7.2999,-0.1336,-4.4735,-0.2272
40011.0,-3.0742,-1.4437,6.7277,-0.0303,-4.3766,-0.2996
40021.0,-2.6695,-1.1636,6.2584,0.1256,-4.2298,-0.3645
40031.0,-2.4924,-0.8547,5.9783,0.2953,-4.0824,-0.4055
40041.0,-2.0638,-0.4357,5.454,0.4656,-3.9589,-0.4198
40051.0,-1.6137,0.0192,4.9153,0.5763,-3.8259,-0.414
40061.0,-1.2498,0.4022,4.5969,0.6018,-3.7024,-0.3932
40071.0,-0.929,0.6728,4.2593,0.5646,-3.613,-0.3629
40081.0,-0.6393,0.9625,3.8068,0.4619,-3.5529,-0.3272
40091.0,-0.4286,1.1492,3.4477,0.2884,-3.5061,-0.2873
40101.0,-0.1006,1.2665,3.1627,0.0702,-3.4821,-0.2458
40111.0,0.1963,1.1827,2.988,-0.1628,-3.4678,-0.2049
40121.0,0.4453,0.9026,2.9353,-0.3512,-3.4529,-0.1687
40131.0,0.7135,0.6345,2.6695,-0.4752,-3.4534,-0.1447
40141.0,0.9936,0.4357,2.3727,-0.5566,-3.4486,-0.1325
40151.0,1.233,0.2634,1.9417,-0.6167,-3.4396,-0.1282
40161.0,1.5754,0.0479,1.4269,-0.663,-3.4263,-0.1357
40171.0,1.9082,-0.103,0.9601,-0.6763,-3.3864,-0.1506
40181.0,2.1332,-0.249,0.3879,-0.6651,-3.3145,-0.1729
40191.0,2.3056,-0.3065,-0.1197,-0.6502,-3.207,-0.2027
40201.0,2.3846,-0.2873,-0.6369,-0.6657,-3.0836,-0.2405
40211.0,2.3248,-0.2394,-1.0151,-0.7082,-2.9585,-0.2815
40221.0,2.3798,-0.2586,-1.336,-0.738,-2.8266,-0.3145
40231.0,2.6839,-0.2035,-1.8028,-0.7253,-2.6707,-0.3347
40241.0,3.1316,-0.3519,-2.1883,-0.7423,-2.5009,-0.3592
40251.0,3.4884,-0.3424,-2.6504,-0.7838,-2.3386,-0.4145
40261.0,4.0199,-0.2634,-3.1125,-0.8801,-2.2125,-0.5071
40271.0,4.3527,0.3017,-3.735,-0.9743,-2.0417,-0.6167
40281.0,4.4867,0.9936,-4.0486,-1.0903,-1.8443,-0.6976
40291.0,4.7525,1.7334,-4.4891,-1.185,-1.6304,-0.7221
40301.0,4.7525,2.332,-4.6639,-1.2494,-1.3686,-0.6902
40311.0,4.6902,2.7964,-4.7692,-1.2462,-1.0935,-0.6045
40321.0,4.5011,3.1005,-4.8411,-1.152,-0.7859,-0.4651
40331.0,4.1108,3.2226,-4.9225,-0.9972,-0.4683,-0.2847
40341.0,4.0965,3.1316,-5.2218,-0.7998,-0.1501,-0.0782
40351.0,3.7685,2.9808,-5.6551,-0.605,0.2208,0.1293
40361.0,3.4979,2.818,-6.2513,-0.5188,0.5539,0.3177
40371.0,3.5721,2.6911,-6.5673,-0.5396,0.8998,0.4917
40381.0,3.5865,2.1141,-6.778,-0.5438,1.3223,0.6694
40391.0,3.814,1.415,-7.2688,-0.6029,1.7203,0.795
40401.0,3.4405,1.0032,-7.5058,-0.6263,2.3184,0.8705
40411.0,2.7366,0.5555,-6.7014,-0.6641,2.9463,0.9088
40421.0,1.9321,0.5028,-6.1627,-0.6066,3.5598,0.9339
40431.0,0.8236,0.5794,-5.43,-0.5034,4.2138,0.9583
40441.0,-0.0383,0.6369,-4.4915,-0.406,4.8406,0.9844
40451.0,-1.3695,0.996,-3.1077,-0.2655,5.4744,1.0142
40461.0,-2.4708,1.2043,-1.6161,-0.0639,6.0012,1.0946
40471.0,-3.2968,1.3072,-0.6704,0.2948,6.5253,1.2446
40481.0,-4.6902,0.972,0.1867,0.6779,7.1468,1.4133
40491.0,-6.1531,0.2394,1.2641,0.8732,7.714,1.5309
40501.0,-7.5896,-0.7446,3.2537,0.854,8.2132,1.5516
40511.0,-9.0118,-1.6999,6.2417,0.7199,8.5399,1.4936
40521.0,-9.754,-2.4612,8.9208,0.6204,8.633,1.3909
40531.0,-10.9415,-2.9616,11.5305,0.6375,8.6607,1.2659
40541.0,-11.6622,-3.1939,13.4315,0.8386,8.658,1.1462
40551.0,-12.639,-3.1819,15.9119,0.9323,8.592,0.9871
40561.0,-13.4626,-1.8411,17.7793,1.0073,8.3068,0.8152
40571.0,-14.0707,0.826,17.2909,1.1669,7.8673,0.7242
40581.0,-15.1385,3.4764,15.8089,1.2792,7.5885,0.7902
40591.0,-15.8281,4.4556,15.7562,1.4931,7.747,1.0328
40601.0,-17.1449,3.237,16.9797,1.7017,8.1089,1.3021
40611.0,-17.6046,-0.893,22.199,1.7437,8.467,1.4383
40621.0,-16.8767,-3.5889,28.5892,1.9278,8.509,1.2856
40631.0,-16.8504,-3.4069,36.0303,1.9475,7.9226,0.8716
40641.0,-16.1992,-1.1229,40.3974,1.7975,6.4434,0.464
40651.0,-14.6238,0.8715,40.723,1.3792,4.4208,0.1953
40661.0,-12.955,2.1763,37.5507,0.7907,2.419,0.0362
40671.0,-11.4323,3.3902,31.9889,0.1128,0.7274,-0.0607
40681.0,-11.7819,5.7365,27.5812,-0.6694,-0.4762,-0.0766
40691.0,-9.1985,1.8579,23.8582,-1.4782,-1.3803,0.0048
40701.0,-8.734,2.6049,16.496,-1.2297,-1.425,0.1591
40711.0,-7.7452,0.4621,15.9382,-1.4026,-1.4463,0.2772
40721.0,-6.7062,0.4645,11.6957,-0.9897,-1.2446,0.3986
40731.0,-5.8107,-1.3695,12.0452,-0.8822,-0.8764,0.447
40741.0,-4.8914,-1.4916,10.7452,-0.4028,-0.4645,0.439
40751.0,-4.5442,-1.6209,11.3844,-0.0931,-0.0181,0.3805
40761.0,-4.4508,-1.2498,11.9734,0.1921,0.2996,0.3161
40771.0,-4.5753,-0.9122,12.9431,0.3182,0.4911,0.248
40781.0,-4.9153,-0.5842,14.3341,0.3416,0.5928,0.1862
40791.0,-5.2146,-0.3663,15.7227,0.2767,0.5326,0.1368
40801.0,-5.6886,-0.3208,17.1712,0.1522,0.3485,0.0851
40811.0,-6.1196,-0.1341,18.0786,0.0239,0.0176,0.0303
40821.0,-6.359,0.0311,18.3492,-0.0766,-0.3608,-0.0128
40831.0,-6.6056,0.1604,18.3037,-0.1378,-0.6944,-0.0415
40841.0,-6.6391,0.407,18.0355,-0.1501,-0.9833,-0.0633
40851.0,-6.79,0.735,17.674,-0.1405,-1.2079,-0.0686
40861.0,-6.9264,1.0008,17.5112,-0.149,-1.3973,-0.0548
40871.0,-7.0461,1.0965,17.3412,-0.1729,-1.5804,-0.0271
40881.0,-7.082,0.9864,17.176,-0.2059,-1.7624,0.0021
40891.0,-6.9073,0.9074,16.8312,-0.2373,-1.9294,0.0208
40901.0,-6.7373,0.8092,16.8432,-0.2804,-2.0641,0.025
40911.0,-6.699,0.7302,16.8576,-0.299,-2.2019,0.0218
40921.0,-6.7109,0.6488,16.8552,-0.2868,-2.369,0.0181
40931.0,-6.5481,0.5986,16.4673,-0.2325,-2.5376,0.0186
40941.0,-6.4811,0.735,16.0028,-0.1772,-2.6717,0.0208
40951.0,-6.4021,0.7709,15.6102,-0.1511,-2.7744,0.033
40961.0,-6.256,0.4884,15.2247,-0.157,-2.8766,0.049
40971.0,-6.0501,0.1508,14.8201,-0.1921,-2.9724,0.0404
40981.0,-5.9999,0.0072,14.5951,-0.2538,-3.0623,0.0021
40991.0,-5.952,-0.0527,14.2862,-0.3049,-3.1804,-0.0442
41001.0,-5.7868,-0.1341,13.7667,-0.3379,-3.3065,-0.0846
41011.0,-5.6719,-0.3352,13.2974,-0.3709,-3.4103,-0.1309
41021.0,-5.5186,-0.5267,12.8856,-0.3735,-3.4779,-0.1809
41031.0,-5.442,-0.6009,12.5648,-0.3278,-3.5215,-0.2325
41042.0,-5.3079,-0.5507,12.1003,-0.2309,-3.5689,-0.2799
41051.0,-5.102,-0.6177,11.7244,-0.108,-3.5976,-0.3203
41061.0,-4.7884,-0.3543,10.8553,0.0149,-3.6423,-0.3602
41071.0,-4.6495,-0.2969,10.3358,0.0367,-3.6599,-0.3996
41081.0,-4.3479,-0.249,10.1035,0.0218,-3.7227,-0.4475
41091.0,-4.0462,0.0766,9.2608,0.0298,-3.8147,-0.4954
41101.0,-3.9193,0.2873,8.5425,-0.0117,-3.8685,-0.5364
41111.0,-3.6607,0.5531,7.8195,-0.0814,-3.9243,-0.5726
41121.0,-3.4836,0.7135,7.1563,-0.1618,-3.9637,-0.6002
41131.0,-3.3447,0.972,6.5003,-0.2512,-4.0031,-0.6204
41141.0,-3.158,1.1325,5.9376,-0.3469,-4.0403,-0.6268
41151.0,-2.873,1.2402,5.3008,-0.4326,-4.076,-0.6215
41161.0,-2.6336,1.2761,4.537,-0.4997,-4.0925,-0.6039
41171.0,-2.2577,1.3024,3.7828,-0.5593,-4.0941,-0.5805
41181.0,-1.7957,1.2713,3.1101,-0.6295,-4.0882,-0.555
41191.0,-1.3431,1.4245,2.0758,-0.6619,-4.0462,-0.5295
41201.0,-0.8428,1.4916,1.2665,-0.7306,-3.9632,-0.4949
41211.0,-0.3041,1.4437,0.4741,-0.8386,-3.8679,-0.4624
41221.0,0.1221,1.3024,-0.067,-0.9684,-3.7434,-0.4374
41231.0,0.419,1.1205,-0.5291,-1.0919,-3.6104,-0.4257
41241.0,0.7709,1.0032,-0.917,-1.1712,-3.4609,-0.4241
41251.0,1.1157,0.814,-1.1899,-1.1786,-3.2693,-0.4289
41261.0,1.3671,0.8404,-1.4461,-1.0759,-3.0511,-0.4369
41271.0,1.7621,1.0582,-1.9824,-0.9206,-2.8234,-0.4331
41281.0,1.9321,1.415,-2.5833,-0.7817,-2.5956,-0.4135
41291.0,2.3104,1.7669,-3.2729,-0.6923,-2.3663,-0.3682
41301.0,2.8156,1.9656,-3.8499,-0.6359,-2.0774,-0.2985
41311.0,3.1891,2.0782,-4.2353,-0.6087,-1.7618,-0.2198
41321.0,3.6392,2.1524,-4.5514,-0.6087,-1.4314,-0.1325
41331.0,3.9672,2.1332,-4.719,-0.613,-1.0637,-0.0346
41341.0,4.2569,2.0135,-4.7309,-0.597,-0.6822,0.0708
41351.0,4.4604,1.7789,-4.6112,-0.5784,-0.3022,0.1729
41361.0,4.5011,1.4485,-4.3072,-0.5539,0.0867,0.2645
41371.0,4.2856,1.1253,-3.7661,-0.4842,0.4619,0.3416
41381.0,4.2856,0.7733,-3.2777,-0.3219,0.7982,0.4225
41391.0,4.2138,0.5291,-3.3016,-0.0766,1.1419,0.4981
41401.0,3.9193,0.3112,-3.486,0.1256,1.4899,0.5534
41411.0,3.6703,-0.0982,-3.3926,0.2437,1.8315,0.5864
41421.0,3.4141,-0.5267,-3.1795,0.357,2.2109,0.5954
41431.0,3.3974,-0.8212,-3.0454,0.4688,2.5829,0.5678
41441.0,3.0933,-0.8691,-3.1316,0.5193,2.9442,0.5013
41451.0,2.715,-0.6273,-3.316,0.4496,3.2847,0.4135
41461.0,2.0973,-0.2298,-3.1939,0.274,3.6381,0.3384
41471.0,1.1803,0.1245,-2.988,0.0591,4.0041,0.3065
41481.0,0.1748,0.328,-2.818,-0.1623,4.4086,0.3155
41491.0,-1.1157,0.4645,-2.3463,-0.3948,4.8566,0.3501
41501.0,-2.5929,0.4573,-1.2713,-0.5992,5.3089,0.4097
41511.0,-3.6727,0.5195,-0.2322,-0.6604,5.7447,0.497
41521.0,-4.5849,0.2322,1.1444,-0.6162,6.1571,0.6114
41531.0,-5.5737,-0.3855,2.4038,-0.3741,6.5844,0.7439
41541.0,-6.687,-1.1181,3.3615,0.0218,7.042,0.8429
41551.0,-8.2576,-1.7166,4.4317,0.4496,7.556,0.8572
41561.0,-10.0317,-2.0279,6.1028,0.7955,8.0429,0.7902
41571.0,-11.6215,-1.9944,8.1092,0.9653,8.3829,0.6524
41581.0,-12.9454,-1.7933,10.9702,0.8876,8.4835,0.4752
41591.0,-13.7379,-1.6759,14.3101,0.6561,8.31,0.3097
41601.0,-14.1665,-1.4581,17.7482,0.3826,7.8705,0.1591
41611.0,-14.71,-0.6943,20.3052,0.2772,7.2607,0.083
41621.0,-13.9127,-0.5914,22.2158,0.5587,6.7642,0.1282
41631.0,-13.872,-0.1149,23.2716,0.8977,6.3508,0.1586
41641.0,-13.5727,-0.7733,25.369,0.9748,5.8043,0.1804
41651.0,-13.058,-1.5658,25.8957,0.9168,5.0482,0.1532
41661.0,-12.1147,-3.7373,26.523,0.5954,4.1813,0.0442
41671.0,-11.2408,-5.0111,25.606,0.257,3.4029,-0.1969
41681.0,-11.1115,-5.4971,25.9292,-0.3693,2.6441,-0.5656
41691.0,-11.0828,-4.944,26.3338,-0.8221,1.9241,-0.9035
41701.0,-10.5321,-3.4165,25.3067,-0.8897,1.2861,-1.1185
41711.0,-10.817,-0.9697,26.3937,-0.8817,0.6928,-1.1871
41721.0,-9.0381,0.0934,21.1264,-0.4496,0.306,-1.0892
41731.0,-9.2703,0.6321,21.5263,-0.2373,0.182,-0.9567
41741.0,-7.8362,2.2793,16.7474,0.1548,-0.1064,-0.7428
41751.0,-7.7021,1.4222,17.4537,0.0521,-0.1389,-0.5412
41761.0,-6.7157,1.7861,13.8265,0.1644,-0.132,-0.3528
41771.0,-6.5912,0.8787,13.951,0.0777,0.1101,-0.2091
41781.0,-6.2297,0.7566,13.5248,0.132,0.3677,-0.0883
41791.0,-6.426,0.5722,14.8488,0.0958,0.6774,-0.0016
41801.0,-7.0174,1.0151,16.2303,0.1309,0.8971,0.0931
41811.0,-7.4843,1.2857,18.1504,0.1304,0.919,0.2107
41821.0,-7.7716,1.5251,18.9621,0.166,0.828,0.348
41831.0,-8.339,1.1971,20.0371,0.091,0.6087,0.4757
41841.0,-8.43,0.893,20.4992,-0.0564,0.2198,0.572
41851.0,-8.6933,0.4812,20.5518,-0.2496,-0.1777,0.6353
41861.0,-8.7867,0.0431,20.6811,-0.4576,-0.6125,0.6651
41871.0,-8.7963,-0.2322,20.4273,-0.6316,-1.0286,0.671
41881.0,-8.9208,-0.4549,20.2765,-0.7817,-1.3909,0.6646
41891.0,-9.0214,-0.6033,19.9652,-0.8647,-1.7416,0.6582
41901.0,-9.3996,-0.8643,19.9317,-0.8806,-2.0258,0.6534
41911.0,-9.5864,-1.0439,19.8599,-0.7774,-2.3035,0.6572
41921.0,-9.7683,-1.2833,19.5511,-0.547,-2.5531,0.6816
41931.0,-9.6391,-1.415,18.8998,-0.2214,-2.7271,0.7178
41941.0,-9.5864,-1.4557,18.3348,0.0543,-2.842,0.7503
41951.0,-9.6582,-1.3719,17.9924,0.1612,-2.983,0.7545
41961.0,-9.56,-1.3479,17.6931,0.1112,-3.1756,0.7412
41971.0,-9.3781,-1.4653,17.3005,-0.0601,-3.4034,0.7013
41981.0,-9.5026,-1.798,17.3843,-0.3358,-3.6615,0.6242
41991.0,-9.5074,-2.4253,17.2526,-0.5385,-3.969,0.531
42001.0,-9.2177,-2.7869,16.4673,-0.6045,-4.2654,0.4076
42011.0,-9.1435,-2.7414,15.6868,-0.6024,-4.4868,0.2597
42021.0,-8.9016,-2.4062,14.607,-0.5215,-4.6629,0.1261
42031.0,-8.7053,-1.9752,13.6206,-0.431,-4.7762,0.0202
42041.0,-8.5688,-1.7119,12.7539,-0.3288,-4.8507,-0.0495
42051.0,-8.0876,-1.7502,11.9662,-0.2112,-4.9125,-0.0905
42061.0,-7.5705,-1.6376,10.9247,-0.0984,-4.9678,-0.1357
42071.0,-7.1036,-1.6328,10.1131,-0.0968,-5.0359,-0.1916
42081.0,-6.6511,-1.6975,9.1243,-0.1399,-5.104,-0.2559
42091.0,-6.2106,-1.7741,8.3629,-0.2176,-5.1711,-0.3459
42101.0,-5.794,-1.4078,6.936,-0.3379,-5.2786,-0.4539
42111.0,-5.3702,-1.2594,6.0741,-0.5444,-5.3291,-0.5577
42121.0,-4.7405,-1.2282,5.4875,-0.7146,-5.3749,-0.6502
42131.0,-4.1803,-1.1684,4.5514,-0.7838,-5.3791,-0.7327
42141.0,-3.8188,-1.0894,3.6919,-0.8397,-5.3578,-0.8195
42151.0,-3.5195,-0.7973,2.873,-0.8482,-5.3052,-0.8971
42161.0,-3.1053,-0.5243,1.9824,-0.7875,-5.1854,-0.9424
42171.0,-2.4565,-0.5171,1.2067,-0.7136,-5.0226,-0.9626
42181.0,-1.8771,-0.395,0.4286,-0.6524,-4.8374,-0.9865
42191.0,-1.3695,-0.2682,-0.2322,-0.6758,-4.664,-1.0275
42201.0,-0.9697,-0.0192,-0.7542,-0.7482,-4.5038,-1.0765
42211.0,-0.4334,0.2346,-1.3048,-0.8429,-4.3559,-1.1153
42221.0,0.1341,0.3615,-1.6879,-0.9041,-4.1734,-1.1323
42231.0,0.589,0.5363,-1.968,-0.8886,-3.9414,-1.1329
42241.0,1.0654,0.8068,-2.3104,-0.8338,-3.6998,-1.1212
42251.0,1.2785,1.1325,-2.5115,-0.7396,-3.4305,-1.0839
42261.0,1.6017,1.2737,-2.624,-0.63,-3.1831,-1.0147
42271.0,1.9369,1.3192,-3.0071,-0.4778,-2.9208,-0.9237
42281.0,2.1356,1.3048,-3.3136,-0.331,-2.6329,-0.8301
42291.0,2.4062,1.245,-3.5602,-0.2166,-2.3471,-0.7482
42301.0,2.739,1.1756,-3.6823,-0.1431,-2.0651,-0.6795
42311.0,3.0215,1.1013,-3.6583,-0.0905,-1.7789,-0.622
42321.0,3.2058,1.0989,-3.6416,-0.1016,-1.5373,-0.5821
42331.0,3.4931,1.0247,-3.5243,-0.1809,-1.3516,-0.5545
42341.0,3.6416,1.1971,-3.5913,-0.2623,-1.1887,-0.5417
42351.0,3.8475,1.4988,-3.7828,-0.415,-1.0882,-0.5406
42361.0,4.1587,1.7166,-3.9744,-0.5976,-1.0115,-0.5268
42371.0,4.3981,1.9225,-4.1827,-0.7215,-0.8939,-0.4991
42381.0,4.4365,2.2003,-4.4724,-0.7652,-0.7162,-0.4629
42391.0,4.2569,2.5666,-4.4748,-0.7439,-0.4821,-0.4044
42401.0,3.96,2.9473,-4.5753,-0.6662,-0.2405,-0.3065
42411.0,3.8211,3.1005,-4.5298,-0.5316,0.0128,-0.1602
42421.0,3.8427,3.0646,-4.7908,-0.2826,0.331,0.0415
42431.0,4.0079,2.6767,-5.114,0.0021,0.7035,0.2666
42441.0,4.1324,2.0614,-5.375,0.2762,1.1573,0.4688
42451.0,4.1755,1.1947,-5.6743,0.4379,1.6155,0.605
42461.0,3.79,0.8116,-6.019,0.5177,2.1285,0.6582
42471.0,2.9544,0.9194,-6.2345,0.3704,2.5552,0.6455
42481.0,2.8683,1.0391,-6.6774,-0.0128,2.8537,0.6321
42491.0,2.387,0.8667,-6.4428,-0.423,3.2826,0.6518
42501.0,1.7286,0.9673,-6.3614,-0.7231,3.8121,0.6944
42511.0,0.5866,1.0391,-5.2768,-0.9285,4.4522,0.7678
42521.0,-0.5339,0.984,-3.6823,-0.92,5.1296,0.8977
42531.0,-2.083,0.5866,-1.8866,-0.6588,5.7755,1.0589
42541.0,-3.2394,0.1532,-0.9697,-0.1607,6.3731,1.2116
42551.0,-4.4724,-0.249,-0.3232,0.365,6.9733,1.3005
42561.0,-5.8131,-0.2059,-0.1796,0.7726,7.5273,1.3164
42571.0,-7.4579,-0.3232,0.5052,0.8982,8.0275,1.2792
42581.0,-9.0261,-0.2682,1.4629,0.8429,8.4702,1.2143
42591.0,-10.6255,-0.5267,2.8659,0.6502,8.8166,1.1552
42601.0,-12.6725,-0.7973,4.5322,0.4693,9.1507,1.0935
42611.0,-14.6405,-1.0223,7.3813,0.3799,9.4572,1.0419
42621.0,-16.1106,-0.7901,10.0293,0.5257,9.6781,1.0227
42631.0,-17.8344,-0.0359,13.058,0.7849,9.7903,1.0052
42641.0,-18.8112,1.0487,15.7802,1.0983,9.7084,1.0312
42651.0,-19.5606,2.5762,17.8703,1.358,9.5402,1.0914
42661.0,-21.0259,3.3399,21.148,1.3941,9.3051,1.1914
42671.0,-20.2741,1.8962,25.5701,1.5878,8.9938,1.3739
42681.0,-19.7354,0.5267,29.5947,1.8581,8.4872,1.4293
42691.0,-18.8184,-0.826,32.7623,1.9662,7.5289,1.3494
42701.0,-16.994,-1.6328,33.2794,1.8922,6.2848,1.144
42711.0,-15.4163,-1.6807,32.9059,1.3941,4.9896,0.803
42721.0,-14.6262,-0.9768,31.9985,0.6375,3.72,0.4411
42731.0,-13.8265,-0.6847,30.5285,-0.1511,2.5217,0.1735
42741.0,-14.9566,-3.0215,36.0471,-1.1946,1.2223,-0.0181
42751.0,-10.8936,0.1915,24.2317,-0.5741,0.4512,-0.0607
42761.0,-11.655,-0.9481,26.1614,-0.5954,0.4401,-0.1064
42771.0,-11.3557,2.1308,21.1169,-0.0559,0.0064,-0.0383
42781.0,-9.979,0.1484,23.2309,-0.3134,-0.3592,0.0223
42791.0,-8.9064,0.7925,20.2669,0.0101,-0.6375,0.1197
42801.0,-8.0876,0.0599,19.7067,0.0474,-0.8429,0.182
42811.0,-7.9631,0.1101,18.6724,0.2049,-1.0312,0.2203
42821.0,-7.252,0.237,16.9246,0.3012,-1.2984,0.2458
42831.0,-6.7732,0.2682,15.0428,0.3166,-1.4947,0.2634
42841.0,-6.2034,0.0359,13.8313,0.1501,-1.6942,0.2373
