time_ms,ax,ay,az,gx,gy,gz
434191.0,2.6911,2.5666,42.521,-0.0351,0.8812,-0.0958
434201.0,2.4325,2.8635,42.6168,-0.0692,0.7811,-0.0601
434211.0,2.3367,2.7581,42.3295,-0.0974,0.7056,-0.0239
434221.0,2.4325,2.3367,41.956,-0.1309,0.6917,-0.0138
434231.0,2.3176,2.2984,42.0326,-0.1181,0.7487,-0.0388
434241.0,2.3272,2.375,42.3486,-0.1208,0.7466,-0.0176
434251.0,2.6049,2.3942,42.4731,-0.0926,0.7934,-0.0468
434261.0,2.3463,2.4325,42.3295,-0.1133,0.821,-0.0351
434271.0,2.2122,2.4134,42.5498,-0.1219,0.7657,-0.0394
434281.0,2.4517,2.308,42.5976,-0.1799,0.7327,-0.0543
434291.0,2.375,2.375,42.6168,-0.2171,0.6784,-0.0697
434301.0,2.4325,2.241,42.1092,-0.273,0.6071,-0.0851
434311.0,2.3846,2.2218,42.2816,-0.2943,0.6055,-0.0724
434321.0,2.7294,2.4612,41.9847,-0.3054,0.5901,-0.083
434331.0,2.7581,2.4134,42.1571,-0.2794,0.506,-0.0415
434341.0,3.0454,2.0016,41.7166,-0.3246,0.3278,-0.0564
434351.0,3.4285,1.4748,40.6727,-0.3964,0.1868,-0.0782
434361.0,3.8116,1.0918,39.6001,-0.4874,0.157,-0.1639
434371.0,3.7062,0.9577,38.6328,-0.5965,0.1517,-0.2128
434381.0,3.553,0.3352,37.3783,-0.5922,0.1713,-0.2964
434391.0,4.1946,0.7949,34.9458,-0.9653,0.2799,-0.4459
434401.0,3.735,0.249,34.1126,-1.3255,0.3512,-0.5321
434411.0,4.5203,-0.0096,31.6609,-1.3553,0.6625,-0.5997
434421.0,5.0374,-0.4022,28.4431,-1.6453,1.0866,-0.7173
434431.0,5.296,-1.2067,26.8246,-1.9848,1.6607,-0.8594
434441.0,5.8802,-2.4229,25.6563,-1.789,2.6595,-1.0147
434451.0,6.2632,-2.4229,25.7616,-1.5277,3.7184,-1.1978
434461.0,5.4684,-2.6432,27.2652,-1.1611,4.8587,-1.3191
434471.0,5.4971,-3.2753,30.1574,-0.6321,5.8261,-1.5304
434481.0,5.296,-1.7909,32.3409,-0.7184,6.5716,-1.8667
434491.0,3.4668,-0.1437,36.8803,-0.9402,7.0138,-2.0742
434501.0,3.4764,2.2027,41.5825,-1.0424,7.5448,-2.1332
434511.0,1.6185,4.4053,48.3054,-1.0908,8.0003,-2.0502
434521.0,-0.0287,7.5178,54.2909,-1.3271,8.1589,-1.7884
434531.0,-2.9305,9.9407,61.8662,-1.8996,8.2781,-1.326
434541.0,-5.5929,11.1091,74.7182,-1.9789,8.3967,-0.564
434551.0,-9.1171,9.2512,78.4508,-1.351,7.5587,0.3315
434561.0,-11.2527,5.6407,78.4508,-0.1357,6.462,1.2627
434571.0,-14.4706,-0.0575,78.4508,1.6224,4.5506,1.9678
434581.0,-14.6717,-4.7597,78.4508,3.1272,2.1364,2.2093
434591.0,-17.0371,-7.2688,78.4508,3.819,-0.6444,1.9795
434601.0,-18.263,-6.8378,78.4508,3.6822,-3.7886,1.4543
434611.0,-20.5806,-3.984,78.4508,2.536,-6.8116,0.7859
434621.0,-22.7353,-0.3831,78.4508,0.7184,-9.6488,0.1213
434631.0,-24.9093,3.6583,78.4508,-1.1898,-12.2413,-0.3837
434641.0,-27.3226,6.608,78.4508,-2.3051,-14.715,-0.505
434651.0,-28.9028,8.0828,78.4508,-2.3376,-17.1234,-0.2964
434661.0,-29.5828,8.2744,78.4508,-2.0364,-17.4363,0.0569
434671.0,-29.5253,7.7093,78.4508,-1.5985,-17.4363,0.4752
434681.0,-28.9603,5.8993,68.206,-1.7166,-17.4363,0.7482
434691.0,-27.0162,3.0646,58.8974,-1.9422,-17.4363,0.7976
434701.0,-25.1774,0.3831,50.6613,-2.5137,-17.4363,0.6141
434711.0,-23.0705,-1.1301,43.8809,-3.2746,-17.4363,0.2368
434721.0,-22.0745,-2.0782,37.7805,-4.0659,-17.4363,-0.2405
434731.0,-19.8527,-2.988,32.5994,-4.5043,-17.4363,-0.6641
434741.0,-17.6405,-3.9361,27.2843,-4.3239,-17.4363,-1.0594
434751.0,-16.089,-4.7597,22.2948,-3.7349,-17.4363,-1.4426
434761.0,-14.2311,-4.4819,17.0946,-2.9101,-17.4363,-1.7804
434771.0,-12.2392,-2.8156,10.9846,-2.0593,-17.4363,-2.014
434781.0,-10.8314,-1.1396,6.0813,-1.2936,-17.4363,-2.1109
434791.0,-9.1554,0.7087,-0.6991,-1.035,-17.4363,-2.1194
434801.0,-6.8187,1.8292,-6.11,-1.0898,-17.4363,-2.0987
434811.0,-3.553,2.7102,-11.0708,-1.525,-17.4363,-2.0944
434821.0,1.0151,3.0837,-13.8385,-1.9709,-17.4363,-2.2221
434831.0,-0.0383,4.5586,-17.1712,-2.0183,-16.8169,-2.1742
434841.0,2.3272,5.8323,-18.9429,-2.3658,-15.7048,-2.0827
434851.0,5.0949,8.1594,-21.2222,-2.2711,-14.3771,-1.8166
434861.0,5.2481,12.2775,-18.1864,-1.7304,-12.5105,-0.9658
434871.0,4.8267,11.473,-21.1552,-2.278,-12.9266,-0.2331
434881.0,10.8218,7.5944,-25.5797,-1.8188,-11.4633,0.1086
434891.0,10.6781,7.5369,-27.1502,-1.7751,-9.2071,0.2868
434901.0,12.3349,5.9089,-24.9763,-1.1318,-8.4835,0.4049
434911.0,13.4458,6.7516,-29.1805,-0.5747,-6.818,0.6343
434921.0,12.3349,5.7844,-29.736,-0.4241,-5.2131,0.8093
434931.0,14.3077,4.8554,-31.3066,-0.2682,-4.1436,0.8328
434941.0,15.457,4.1851,-31.7567,-0.0559,-2.2923,0.8163
434951.0,16.6158,5.2098,-33.0974,0.0857,-0.5827,0.8386
434961.0,16.836,6.0238,-33.356,-0.0319,0.7998,0.919
434971.0,16.3189,7.6614,-35.8364,-0.6949,2.3349,1.1472
434981.0,15.7155,8.4084,-36.411,-1.3207,3.844,1.5165
434991.0,13.5225,7.7859,-35.3097,-1.1632,5.7181,1.9906
435001.0,13.1202,6.7133,-35.8939,-0.5326,8.011,2.452
435011.0,10.7356,5.0566,-36.0663,0.4411,10.6258,2.8101
435021.0,7.6806,3.5434,-36.2482,0.8732,13.2751,2.9718
435031.0,5.545,2.2601,-35.6353,1.1009,16.107,3.0165
435041.0,3.3423,1.0056,-33.0783,1.0456,17.4357,2.9607
435051.0,-1.4748,-0.2298,-28.3569,1.3947,17.4357,2.9426
435061.0,-5.2864,-1.3503,-23.1184,1.9678,17.4357,2.8266
435071.0,-10.3717,-2.0303,-17.5256,2.344,17.4357,2.6191
435081.0,-16.4434,-1.743,-10.0173,3.207,17.4357,2.4227
435091.0,-23.9612,-0.0862,-5.1906,3.5178,17.4357,2.2876
435101.0,-31.5364,0.8236,-0.4405,3.4736,17.4357,2.228
435111.0,-38.2881,1.0247,3.0167,2.9314,17.4357,2.2205
435121.0,-45.2408,0.6321,7.1251,1.6171,17.4357,2.1194
435131.0,-50.5751,-1.2354,18.8376,2.0779,17.4357,2.2359
435141.0,-55.8902,-0.0862,27.3131,3.7429,17.4357,2.2769
435151.0,-62.5078,2.7773,39.2266,6.3928,17.4357,2.4685
435161.0,-67.5548,3.7733,52.0116,8.9906,17.4357,2.7345
435171.0,-69.3457,3.5243,63.6091,9.9808,17.4357,2.3418
435181.0,-69.202,5.5833,75.5802,9.9862,17.4357,1.6762
435191.0,-68.0336,9.0309,78.4508,8.7266,17.4357,0.7992
435201.0,-66.5971,17.2191,78.4508,4.9423,17.4357,-0.0724
435211.0,-70.0543,22.1799,78.4508,2.4137,17.4357,0.1155
435221.0,-65.4862,24.0569,78.4508,0.5656,17.4357,0.8684
435231.0,-64.7679,19.9581,78.4508,0.125,17.4357,1.8624
435241.0,-58.9069,14.3365,78.4508,1.1627,16.9387,2.7425
435251.0,-55.1528,10.477,78.4508,1.9076,15.4031,3.099
435261.0,-53.0172,4.8554,77.6392,1.0105,14.5788,3.0735
435271.0,-49.129,-4.5681,77.3902,1.6586,14.5916,2.6398
435281.0,-48.6789,-7.288,73.5116,1.4277,14.9641,1.6064
435291.0,-78.4532,-26.5182,78.4508,-0.0569,6.5657,0.6146
435301.0,-42.1571,6.359,71.3472,0.2783,15.7197,-0.5981
435311.0,-53.6493,6.4069,78.4508,0.1628,11.3798,-0.63
435321.0,-52.1361,17.4872,78.4508,-1.2771,8.6319,-0.0271
435331.0,-49.1194,2.7294,78.4508,0.0394,6.1635,0.398
435341.0,-46.6582,12.1051,78.4508,0.6763,3.6365,0.7327
435351.0,-48.0277,8.4276,78.4508,-0.3006,-0.2852,0.9727
435361.0,-46.4858,9.4619,78.4508,-0.5944,-2.8383,1.2393
435371.0,-46.4284,5.0566,78.4508,-2.3259,-4.358,1.1467
435381.0,-43.8235,-0.2586,78.4508,-1.8911,-6.1619,0.9653
435391.0,-43.0765,-1.3695,78.4508,-3.2193,-7.3426,0.3704
435401.0,-43.1627,-2.988,78.4508,-3.09,-8.443,-0.0894
435411.0,-44.4268,-0.9002,78.4508,-3.1607,-9.9702,-0.5859
435421.0,-47.2328,2.3272,78.4508,-2.6861,-11.4846,-0.6582
435431.0,-48.9088,3.7924,78.4508,-2.0486,-13.1192,-0.5433
435441.0,-50.8624,4.5681,78.4508,-1.7565,-14.5453,-0.4592
435451.0,-53.4099,5.2289,78.4508,-1.0993,-16.454,-0.307
435461.0,-55.5263,6.8666,78.4508,-0.9296,-17.4363,-0.2277
435471.0,-57.3363,7.9392,78.4508,-0.8812,-17.4363,0.0149
435481.0,-54.923,5.1236,73.6361,-0.4911,-17.4363,0.074
435491.0,-51.8584,6.4548,64.0305,-0.48,-17.4363,-0.0537
435501.0,-52.9023,8.8873,58.2653,-0.8195,-17.4363,-0.025
435511.0,-51.8201,9.5672,51.9925,-1.6964,-17.4363,0.0564
435521.0,-48.9566,7.9966,47.2711,-2.4121,-17.4363,0.0676
435531.0,-47.3765,5.8706,43.9671,-2.5584,-17.4363,0.0819
435541.0,-44.3215,4.5586,37.6368,-2.3732,-17.4363,-0.0341
435551.0,-40.5769,5.8706,29.0177,-3.3768,-17.4363,-0.2315
435561.0,-35.8556,5.1811,24.2293,-3.7141,-17.4363,-0.315
435571.0,-32.6186,2.7198,20.9062,-3.3433,-17.4363,-0.398
435581.0,-28.9315,1.8483,17.3436,-2.8292,-17.4363,-0.5672
435591.0,-25.9627,1.2163,14.4035,-2.6638,-17.4363,-0.6848
435601.0,-22.2086,0.3831,12.3637,-2.2647,-17.4363,-0.7976
435611.0,-19.4313,0.2682,10.3621,-1.9177,-17.4363,-0.92
435621.0,-16.0699,-0.2682,9.7875,-1.3505,-17.4363,-1.1068
435631.0,-13.3309,1.3024,4.1084,-0.7529,-17.4363,-1.119
435641.0,-9.6438,1.8675,-0.8045,-0.1219,-17.4363,-1.0584
435651.0,-6.2249,2.3559,-5.4588,-0.0277,-16.2757,-1.1036
435661.0,-2.4995,3.4285,-8.983,-0.331,-14.8678,-1.1659
435671.0,-0.0287,3.7733,-9.6438,-0.8663,-13.6349,-1.1898
435681.0,2.9018,3.9265,-10.6877,-1.3266,-12.6281,-1.2515
435691.0,4.4532,3.3902,-11.1953,-1.8065,-11.6038,-1.3521
435701.0,6.1866,3.2082,-10.908,-2.0316,-10.7098,-1.4468
435711.0,7.5178,2.8156,-11.9997,-1.9933,-9.9298,-1.4745
435721.0,9.4236,2.1739,-13.3309,-1.8635,-8.9853,-1.5234
435731.0,11.3581,2.7964,-16.5391,-1.9209,-8.0035,-1.6022
435741.0,12.3253,3.1603,-17.4394,-1.7017,-6.8472,-1.5953
435751.0,13.216,4.3958,-19.9102,-1.4064,-5.5851,-1.4968
435761.0,14.8057,5.0949,-21.7202,-1.2914,-4.0568,-1.3718
435771.0,14.6429,6.3877,-23.3291,-1.218,-2.5584,-1.1781
435781.0,14.6046,7.8434,-23.3483,-1.3234,-1.0818,-0.9115
435791.0,14.3556,8.1116,-22.879,-1.4755,0.4757,-0.6199
435801.0,13.9055,7.4124,-20.5518,-1.3798,1.7405,-0.3246
435811.0,14.6429,6.4356,-20.1783,-1.2574,3.0969,-0.1149
435821.0,13.5512,5.1619,-18.828,-1.2489,4.2351,0.0117
435831.0,13.5895,4.2425,-17.4394,-1.259,5.36,0.0793
435841.0,13.0245,4.3096,-16.3572,-1.2116,6.5625,0.0968
435851.0,11.3964,4.549,-13.8959,-1.2318,7.5225,0.1932
435861.0,9.6055,4.4149,-12.3253,-1.1887,8.3935,0.2916
435871.0,7.4699,4.9129,-11.3294,-1.1946,9.2369,0.3773
435881.0,5.2194,5.4205,-10.8888,-1.1414,9.8696,0.5252
435891.0,3.9744,5.4971,-12.967,-1.5389,10.6449,0.6151
435901.0,2.2793,5.8897,-15.9933,-2.5871,11.492,0.5608
435911.0,0.0287,6.4739,-16.0124,-3.8903,12.6691,0.5667
435921.0,-2.9497,6.8953,-14.4322,-4.7975,14.0856,0.7258
435931.0,-7.4986,6.2153,-9.1554,-4.9502,15.584,1.0153
435941.0,-10.4674,5.1811,-1.9441,-3.7173,17.0143,1.3915
435951.0,-13.5416,6.2824,1.8004,-2.2157,17.4357,1.8406
435961.0,-16.1465,6.9145,4.2138,-0.8115,17.4357,2.3158
435971.0,-16.089,8.2265,1.9345,-0.5177,17.4357,2.7457
435981.0,-19.1057,6.8378,0.7757,-1.3468,17.4357,3.1219
435991.0,-22.0745,2.4708,-0.7183,-3.0591,17.4357,3.3465
436001.0,-26.7193,-3.0071,1.1396,-3.8105,17.4357,3.3129
436011.0,-35.664,-8.5712,7.9966,-2.5015,17.4357,3.455
436021.0,-38.9489,-12.7372,8.9639,0.9003,17.4357,3.2996
436031.0,-46.0836,-10.7356,12.9095,4.1292,17.4357,2.7526
436041.0,-57.1065,-1.0343,19.6133,5.8218,17.4357,2.4509
436051.0,-61.9619,5.6599,28.7304,5.559,17.4357,2.5057
436061.0,-69.4893,8.8394,44.5226,3.1629,17.4357,2.4871
436071.0,-78.4532,8.734,75.6185,0.4853,17.4357,3.0245
436081.0,-78.2042,-1.2067,78.4508,-0.472,17.4357,3.8711
436091.0,-74.6225,-18.7035,78.4508,0.953,17.4357,3.8307
436101.0,-70.2746,-24.3251,78.4508,1.6799,17.4357,3.0298
436111.0,-68.4167,-30.7032,78.4508,1.5538,17.4357,1.6128
436121.0,-64.835,-25.2157,78.4508,2.1433,16.7552,0.1777
436131.0,-61.4831,-16.587,78.4508,1.367,14.3819,-1.0366
436141.0,33.9498,6.5697,78.4508,-6.115,10.5614,-2.1545
436151.0,-60.4775,0.6225,78.4508,-0.1703,8.127,-1.8262
436161.0,-48.7459,5.0757,78.4508,-4.142,6.6801,-1.7049
436171.0,-56.1775,10.8122,78.4508,-2.4009,2.6983,-0.4879
436181.0,-53.5535,4.8554,78.4508,-4.2596,-1.7491,0.5098
436191.0,-42.7509,-7.9871,78.4508,0.0298,-2.5408,1.185
436201.0,-40.1556,-8.916,78.4508,-0.8854,-3.3321,1.1387
436211.0,-37.5028,-13.5416,78.4508,-0.854,-5.2062,0.8136
436221.0,-32.475,-12.8329,78.4508,-1.1228,-5.368,0.4299
436231.0,-30.7799,-13.7236,78.4508,-0.712,-5.4382,0.0271
436241.0,-29.8509,-9.6438,76.5857,-0.4395,-5.8,-0.2421
436251.0,-29.2763,-5.363,68.7902,-0.3906,-5.5308,-0.2666
436261.0,-30.5883,-3.5817,68.704,-0.8301,-5.8022,-0.1479
436271.0,-31.4502,-2.9401,68.4837,-0.7535,-5.9315,0.0713
436281.0,-33.4039,-4.6926,72.439,-0.0623,-5.9581,0.4305
436291.0,-34.3616,-6.6559,73.684,1.0206,-6.3907,0.6843
436301.0,-35.1373,-8.6287,75.3695,1.4697,-6.777,0.7817
436311.0,-36.4972,-10.2089,77.6966,1.723,-7.4858,0.6518
436321.0,-37.0431,-11.4156,78.4508,1.8427,-8.4845,0.3948
436331.0,-38.5658,-11.1666,78.4508,1.9486,-9.6648,0.075
436341.0,-39.2745,-10.6207,78.4508,2.0811,-11.4234,-0.3315
436351.0,-40.5769,-7.1922,78.4508,1.3053,-13.3773,-0.8083
436361.0,-41.5825,-2.0877,77.4955,0.8663,-15.195,-1.0594
436371.0,-42.454,1.2929,71.5675,0.4486,-16.3369,-0.9663
436381.0,-41.5921,1.8196,66.3098,0.5428,-16.9723,-0.7513
436391.0,-41.4867,2.241,62.661,0.5236,-17.4166,-0.5821
436401.0,-41.0749,2.3559,60.6308,1.0658,-17.4363,-0.273
436411.0,-39.5809,2.8826,55.0762,1.1047,-17.4363,-0.0649
436421.0,-37.7709,2.557,50.556,0.7726,-17.4363,0.0623
436431.0,-34.5148,1.1109,46.4475,0.3459,-17.4363,0.1506
436441.0,-32.2643,-1.4365,44.5896,0.083,-17.4363,0.049
436451.0,-30.7894,-2.3176,40.4716,0.1687,-17.4363,-0.1352
436461.0,-28.4527,-2.3463,35.2905,0.1431,-17.4363,-0.3661
436471.0,-27.3705,-1.5897,30.1478,0.4539,-17.4363,-0.5529
436481.0,-25.2253,-0.5076,23.9324,0.505,-17.4363,-0.6678
436491.0,-21.4329,0.316,18.8567,0.1772,-17.4363,-0.8317
436501.0,-19.0291,1.5706,15.1792,-0.6295,-17.4363,-1.0179
436511.0,-17.4394,1.6664,13.3309,-0.9493,-17.4363,-1.0653
436521.0,-14.5089,1.0056,11.4347,-0.8365,-17.4363,-1.1079
436531.0,-11.7699,2.557,7.9871,-0.4864,-17.4363,-1.1632
436541.0,-9.347,3.5913,4.5011,-0.6577,-17.4363,-1.143
436551.0,-6.2441,3.8499,0.9385,-0.7939,-17.424,-1.1164
436561.0,-3.6488,3.9456,-1.7909,-1.1808,-16.7057,-1.184
436571.0,-0.6991,3.553,-4.5777,-1.6618,-15.9985,-1.2558
436581.0,1.7047,3.0071,-7.1251,-1.9827,-15.1423,-1.3909
436591.0,3.6775,2.8635,-9.1075,-2.3647,-14.2266,-1.5155
436601.0,6.0813,3.1125,-11.1091,-2.5589,-13.2884,-1.6634
436611.0,7.9679,3.62,-12.651,-2.626,-12.195,-1.7331
436621.0,9.7013,4.2617,-14.0013,-2.4318,-11.1366,-1.7592
436631.0,10.5632,5.0087,-15.4282,-2.2253,-10.1101,-1.7187
436641.0,11.6741,6.043,-17.9565,-2.022,-8.9315,-1.5777
436651.0,12.7946,6.9528,-19.8144,-2.1077,-7.8657,-1.3537
436661.0,14.4801,6.7229,-21.634,-2.1567,-6.5535,-1.1174
436671.0,15.093,6.4452,-22.879,-2.1348,-4.9976,-0.9424
436681.0,15.342,6.11,-22.7736,-2.0705,-3.529,-0.7668
436691.0,15.5527,6.3973,-22.63,-1.8741,-2.113,-0.5938
436701.0,15.026,7.039,-22.6204,-1.6405,-0.7056,-0.3565
436711.0,15.8879,7.173,-22.8981,-1.4122,0.6928,-0.107
436721.0,16.5679,6.9815,-22.9939,-1.3292,2.2109,0.0756
436731.0,14.9398,7.7572,-23.2429,-1.6315,3.447,0.248
436741.0,15.1122,7.6998,-22.6013,-1.8071,4.7092,0.5422
436751.0,14.4897,6.8378,-22.0745,-1.5,6.4859,0.8482
436761.0,13.0053,6.0047,-20.638,-0.9078,8.3079,1.1158
436771.0,10.7643,5.545,-19.9293,-0.3783,10.1458,1.3452
436781.0,7.671,6.1866,-19.393,-0.0468,11.8209,1.5559
436791.0,4.7309,5.7748,-17.6884,0.1596,13.5258,1.7996
436801.0,2.6624,5.1427,-16.4242,0.0585,15.295,1.9199
436811.0,-1.7621,5.1811,-12.785,-0.1692,16.9201,1.9922
436821.0,-5.2002,5.4684,-8.7724,-0.4805,17.4357,2.0603
436831.0,-8.6,6.2345,-3.1795,-0.4672,17.4357,2.2434
436841.0,-12.5456,7.6806,1.6664,-0.1708,17.4357,2.5563
436851.0,-16.6062,9.7588,4.7788,-0.1772,17.4357,3.0144
436861.0,-20.9349,9.481,9.9886,-0.0729,17.4357,3.6934
436871.0,-22.5917,6.9336,11.3389,0.397,17.4357,4.424
436881.0,-25.4839,1.2067,10.5536,1.2632,17.4357,5.0205
436891.0,-28.3282,-4.9799,3.2753,1.3574,17.4357,5.0737
436901.0,-29.0752,-12.9287,4.2042,2.3221,17.4357,4.6145
436911.0,-38.6137,-17.7362,8.8585,4.2739,17.4357,3.6987
436921.0,-41.2473,-16.4913,13.5799,5.393,17.4357,2.5031
436931.0,-50.5751,-18.5886,30.6937,4.8098,17.4357,1.2281
436941.0,-54.4729,-14.2503,42.2816,5.1439,17.4357,-0.0782
436951.0,-55.1049,-7.671,60.1902,3.537,17.4357,-1.1621
436961.0,-64.586,-1.5514,78.4508,2.775,17.4357,-1.5038
436971.0,-62.6898,5.3151,78.4508,2.3652,17.4357,-1.26
436981.0,-64.2987,4.9033,78.4508,2.1364,17.4357,-0.5199
436991.0,-59.539,-1.4269,78.4508,3.2352,17.4357,-0.2102
437001.0,-53.2949,-3.2848,78.4508,2.0715,16.2816,-0.762
437011.0,-54.9804,-1.8387,78.4508,0.9546,15.6063,-1.3532
437021.0,-52.6246,1.5706,76.3176,-0.878,14.9428,-1.7709
437031.0,-52.3372,1.5227,78.4508,-3.0682,14.9662,-2.0002
437041.0,-54.2718,-0.5746,78.4508,-2.8186,13.8349,-1.8603
437051.0,-41.8123,5.5929,78.4508,-4.7901,11.0334,-1.823
437061.0,-29.1231,3.0263,78.4508,0.5034,9.4886,-1.1962
437071.0,-54.7602,2.557,78.4508,1.2441,7.4586,-0.7423
437081.0,-47.501,7.9104,78.4508,0.9514,5.9261,0.0117
437091.0,-48.3916,-0.8332,78.4508,1.293,5.0104,0.473
437101.0,-39.4852,-3.4477,78.4508,1.3494,3.4539,0.5071
437111.0,-45.8729,-7.0006,78.4508,1.9864,1.3106,0.4262
437121.0,-44.3885,1.1588,78.4508,2.2024,-0.2006,0.4672
437131.0,-41.7645,1.7238,78.4508,0.3656,-1.6208,0.3709
437141.0,-43.2872,0.4022,78.4508,-0.2996,-3.3252,0.3666
437151.0,-43.2776,-0.0096,78.4508,-0.7795,-5.3717,0.4331
437161.0,-43.948,-1.5802,78.4508,-1.202,-7.5033,0.2953
437171.0,-46.007,-3.6009,78.4508,-1.3766,-9.7483,0.125
437181.0,-46.6007,-3.0454,78.4508,-1.0797,-11.6836,-0.1043
437191.0,-46.8402,-0.8619,78.4508,-0.9488,-12.9346,-0.2155
437201.0,-47.2424,0.5076,78.4508,-0.7104,-13.7924,-0.1479
437211.0,-47.386,1.1396,77.2657,-0.1235,-14.3474,0.0085
437221.0,-47.4148,0.1532,75.9153,0.9259,-14.7326,0.2937
437231.0,-46.1219,0.1724,71.5579,1.6064,-15.3499,0.3879
437241.0,-46.5624,0.7661,70.0256,1.4724,-16.0522,0.3672
437251.0,-46.8114,1.9632,67.2483,1.2728,-17.1016,0.3661
437261.0,-46.4858,1.0343,65.1414,1.027,-17.4363,0.323
437271.0,-45.6909,1.3216,60.7553,0.6795,-17.4363,0.1767
437281.0,-46.4762,1.5706,58.2844,0.0979,-17.4363,0.016
437291.0,-46.2751,0.3448,55.6604,0.7008,-17.4363,0.009
437301.0,-43.5266,0.4501,49.7036,1.3143,-17.4363,-0.0713
437311.0,-42.6647,1.5036,43.8426,1.3569,-17.4363,-0.1628
437321.0,-41.9177,3.4764,36.0279,0.7311,-17.4363,-0.2176
437331.0,-38.6424,3.0358,29.6402,0.3283,-17.4363,-0.2011
437341.0,-34.8117,2.3176,24.7177,0.6029,-17.4363,-0.2065
437351.0,-31.8237,3.0837,19.9389,0.2384,-17.4363,-0.2937
437361.0,-29.0943,4.0893,16.0795,-0.4805,-17.4363,-0.3672
437371.0,-25.2349,3.9169,14.03,-1.0738,-17.4363,-0.3938
437381.0,-23.1376,3.1891,13.3788,-0.9817,-17.4363,-0.4001
437391.0,-18.9621,3.0933,9.596,-0.92,-17.4363,-0.3363
437401.0,-16.1369,1.2067,7.4124,-1.2638,-17.4363,-0.423
437411.0,-12.3541,0.2586,4.1851,-1.3478,-17.4363,-0.564
437421.0,-8.9447,-1.5897,1.5802,-1.5288,-17.4363,-0.837
437431.0,-5.2481,-2.4708,-0.9673,-1.6187,-17.4363,-1.2212
437441.0,-3.055,-1.743,-3.0837,-1.5192,-16.8398,-1.5857
437451.0,-0.3639,-0.2586,-5.861,-1.317,-15.9134,-1.8464
437461.0,1.8483,2.0207,-9.5098,-1.6809,-14.8864,-2.0859
437471.0,4.0701,3.4381,-10.4291,-1.9656,-13.5816,-2.2242
437481.0,5.3151,4.4819,-9.845,-2.1109,-12.419,-2.1907
437491.0,9.0788,5.794,-12.1434,-1.7725,-11.2239,-2.0641
437501.0,8.983,6.541,-13.0436,-1.4447,-9.8888,-1.8576
437511.0,11.971,7.4795,-13.9726,-1.3446,-8.6351,-1.641
437521.0,13.465,7.7476,-14.5951,-1.1691,-7.399,-1.3415
437531.0,14.7962,7.9583,-15.457,-1.2877,-6.2241,-1.0408
437541.0,15.955,6.3877,-15.5719,-1.5697,-5.361,-0.8115
437551.0,17.4394,5.0278,-16.7403,-1.9438,-4.3958,-0.7508
437561.0,17.9182,3.7733,-17.1999,-2.279,-3.322,-0.7982
437571.0,17.9852,3.7733,-16.204,-2.336,-2.3743,-0.9073
437581.0,18.2342,4.5586,-16.3476,-2.1396,-1.3468,-0.8833
437591.0,18.4449,5.4779,-17.3723,-2.1045,-0.4033,-0.8477
437601.0,18.5599,6.2153,-18.512,-2.4514,0.514,-0.8168
437611.0,16.4051,6.2249,-16.338,-2.2317,1.351,-0.6667
437621.0,18.3492,8.8681,-20.5135,-2.2966,2.7457,-0.4337
437631.0,16.0028,8.7724,-19.9102,-2.3732,3.8748,-0.0543
437641.0,14.3461,9.6822,-21.4233,-2.9718,5.0311,0.3246
437651.0,13.3501,8.2456,-21.6627,-3.2315,6.2991,0.7684
437661.0,11.9902,6.0717,-21.2126,-3.3528,7.8763,1.0541
437671.0,8.7149,4.0893,-20.4561,-3.471,9.378,1.2515
437681.0,6.1579,2.9688,-19.5463,-3.4939,10.7322,1.3638
437691.0,4.3191,2.375,-19.0866,-3.1799,12.4307,1.4383
437701.0,1.5897,3.3232,-18.9812,-3.0261,14.5442,1.5389
437711.0,-3.0167,5.4875,-17.4585,-3.1485,16.6056,1.7421
437721.0,-8.3318,7.9392,-14.2407,-3.4215,17.4357,2.1444
437731.0,-11.3772,11.1761,-9.4619,-3.6343,17.4357,2.9266
437741.0,-16.271,10.2663,-1.1779,-3.7769,17.4357,3.903
437751.0,-20.4561,6.5314,5.5258,-2.8739,17.4357,4.9045
437761.0,-20.5518,-1.6664,9.4332,-2.634,17.4357,5.4605
437771.0,-22.7353,-9.5098,12.4977,-2.0034,17.4357,5.3717
437781.0,-26.3266,-15.6581,18.7322,-2.0965,17.4357,4.7597
437791.0,-27.0162,-18.7035,24.689,-2.0779,17.4357,3.9994
437801.0,-31.1534,-20.4082,32.8868,-2.0396,17.4357,3.3007
437811.0,-37.2346,-23.1567,43.9288,-0.7657,17.4357,2.7686
437821.0,-39.4564,-22.5342,49.4642,0.9642,17.4357,1.9763
437831.0,-43.2297,-16.5104,53.8504,2.146,17.4357,1.1824
437841.0,-46.4475,-7.6519,58.7824,2.7957,17.4357,0.6753
437851.0,-46.7635,5.0661,60.6403,2.1226,17.4357,0.6141
437861.0,-49.7898,13.8864,66.8844,0.8647,17.4357,1.5564
437871.0,-50.7092,13.5129,73.5594,0.0596,17.4357,2.9309
437881.0,-49.8569,7.2305,78.4508,-0.8668,17.4357,4.093
437891.0,-47.1945,-6.3207,78.4508,-0.6561,17.4357,4.7544
437901.0,-45.5569,-17.8224,78.4508,-1.1105,17.4357,4.2335
437911.0,-47.8745,-23.8941,78.4508,-1.7666,15.3275,3.4082
437921.0,-45.2696,-30.8852,78.4508,-0.8881,13.7338,2.1849
437931.0,-43.3638,-25.6084,78.4508,-0.5071,13.4763,0.7396
437941.0,-46.7923,-18.3204,78.4508,-0.3054,13.4428,0.0074
437951.0,-45.576,-10.6015,78.4508,0.2804,13.0916,-0.3108
437961.0,-78.4532,-8.6287,78.4508,-0.8014,7.3235,-0.3299
437971.0,-34.5914,4.9895,78.4508,1.5676,10.5332,0.2139
437981.0,-50.3836,1.6855,78.4508,1.4394,6.2624,0.9583
437991.0,-42.1571,6.5505,78.4508,0.87,5.5042,1.7235
438001.0,-47.5967,-5.7078,78.4508,1.3207,1.7719,2.3195
438011.0,-39.9832,-11.8657,78.4508,1.0286,0.4273,2.1694
438021.0,-37.5698,-17.9374,78.4508,1.4649,-1.4218,1.648
438031.0,-36.5834,-13.6374,78.4508,1.2579,-3.0703,0.9871
438041.0,-36.5834,-10.1514,78.4508,0.6146,-4.5932,0.5757
438051.0,-35.2043,-6.5505,78.4508,-0.1634,-5.4733,0.4049
438061.0,-36.162,-4.7309,78.4508,-0.7322,-6.6104,0.4071
438071.0,-37.5698,-6.8091,78.4508,-0.7082,-7.6119,0.5678
438081.0,-38.3072,-8.3414,78.4508,0.0005,-8.5441,0.5944
438091.0,-40.8547,-7.8913,78.4508,0.8434,-9.652,0.6768
438101.0,-43.5457,-8.3031,78.4508,2.4179,-10.8849,0.8402
438111.0,-42.9424,-5.8993,78.4508,3.4672,-11.8805,0.9206
438121.0,-43.9767,-2.9497,78.4508,3.8291,-12.5967,1.06
438131.0,-43.9001,-0.2298,77.7637,3.7136,-13.414,1.2388
438141.0,-44.8961,0.8619,75.9728,3.0485,-14.5043,1.3585
438151.0,-45.1451,-0.4501,75.1109,2.6105,-15.9857,1.4484
438161.0,-44.7524,-0.5555,69.4031,1.8278,-17.3666,1.3462
438171.0,-45.4324,-2.7485,67.4973,1.6378,-17.4363,1.2707
438181.0,-43.1627,-2.4804,60.0274,1.8156,-17.4363,1.1414
438191.0,-43.7277,-2.0016,54.425,1.5974,-17.4363,0.9605
438201.0,-42.0996,-1.3886,49.0716,1.7549,-17.4363,0.9493
438211.0,-39.4948,-1.0439,42.2433,1.757,-17.4363,0.8599
438221.0,-37.34,-0.6895,37.4932,1.7134,-17.4363,0.8184
438231.0,-34.7734,-0.8332,32.3792,1.8017,-17.4363,0.7934
438241.0,-32.0919,-0.1245,27.4567,1.5405,-17.4363,0.7317
438251.0,-29.5253,0.5842,23.5781,1.069,-17.4363,0.6518
438261.0,-27.4854,0.182,21.9692,0.5028,-17.4363,0.5523
438271.0,-24.5262,-1.3791,20.0155,0.6018,-17.4363,0.4651
438281.0,-21.4808,-2.2889,16.6732,0.7721,-17.4363,0.2059
438291.0,-18.5599,-1.9345,12.4307,0.7535,-17.4363,-0.058
438301.0,-16.587,-1.1109,10.6973,0.5018,-17.4363,-0.2788
438311.0,-12.3637,-1.1301,9.845,1.326,-17.4363,-0.3464
438321.0,-9.481,0.9768,2.988,1.8262,-17.4363,-0.4071
438331.0,-6.2824,2.7773,-2.1931,1.3521,-17.4363,-0.4725
438341.0,-3.2465,5.0949,-4.2617,0.6119,-16.3486,-0.4683
438351.0,0.8332,5.5641,-5.4684,-0.2629,-15.3387,-0.3964
438361.0,4.4245,4.9704,-6.8953,-1.3489,-14.2021,-0.4012
438371.0,5.4971,2.6049,-6.0047,-2.2338,-13.5338,-0.5662
438381.0,7.9009,0.6129,-4.7022,-2.7457,-12.9883,-0.8668
438391.0,8.7149,-0.067,-4.2138,-2.7558,-12.3402,-1.2164
438401.0,10.3908,-0.4118,-5.5641,-2.3759,-11.9566,-1.5532
438411.0,12.0955,-0.316,-8.5808,-2.1641,-11.3303,-1.8267
438421.0,12.8904,-0.3831,-11.1187,-1.7166,-10.6375,-2.0848
438431.0,12.8712,1.0918,-14.9207,-1.657,-9.8467,-2.4121
438441.0,14.0013,3.2848,-19.144,-1.7922,-8.989,-2.6079
438451.0,13.0245,6.5601,-22.8503,-2.1955,-7.9189,-2.6143
438461.0,16.0699,7.4603,-25.9627,-2.7766,-6.6759,-2.5728
438471.0,14.9781,11.7412,-28.558,-3.8307,-5.2025,-2.3104
438481.0,14.5759,11.9997,-27.246,-3.8323,-4.1989,-1.9566
438491.0,13.5512,14.8441,-30.8182,-4.2319,-2.2508,-1.4005
438501.0,13.5799,12.718,-29.1422,-4.1201,-1.0642,-0.746
438511.0,14.6429,11.655,-31.3736,-3.8583,0.8077,-0.2921
438521.0,13.6469,10.9559,-33.107,-3.6748,2.7771,0.0495
438531.0,11.8369,10.9559,-32.4366,-3.5699,4.4974,0.3533
438541.0,10.5919,10.8888,-31.7088,-3.2762,6.3071,0.7194
438551.0,8.4563,11.3102,-32.0631,-3.115,8.0168,1.1009
438561.0,5.8897,11.8752,-32.1206,-3.2634,9.7345,1.5426
438571.0,2.9305,10.8697,-31.9003,-3.4247,11.7198,1.9827
438581.0,0.0287,9.596,-30.3393,-3.5827,13.6907,2.3908
438591.0,-3.5913,9.2799,-27.4759,-3.6812,15.8889,2.7654
438601.0,-9.2991,7.6998,-22.6683,-3.4279,17.4357,3.2235
438611.0,-9.9503,7.0294,-19.0387,-2.6515,17.4357,3.853
438621.0,-15.1697,3.2465,-15.342,-1.9933,17.4357,4.3351
438631.0,-18.3875,0.1915,-14.1449,-1.2334,17.4357,4.5826
438641.0,-22.0075,-4.2138,-5.7557,-0.7168,17.4357,4.4187
438651.0,-29.2284,-4.1851,2.1644,-0.5055,17.4357,4.1404
438661.0,-34.17,-5.5162,14.9494,-0.257,17.4357,3.8929
438671.0,-37.5507,-2.9018,26.9204,0.8924,17.4357,3.6732
438681.0,-42.7126,2.1165,42.3391,2.949,17.4357,3.8057
438691.0,-44.3789,12.3732,49.3397,4.2399,17.4357,4.2771
438701.0,-49.9814,19.0962,63.3602,4.0946,17.4357,5.2371
438711.0,-54.923,22.0267,72.8316,3.1975,17.4357,6.644
438721.0,-53.7929,8.9639,78.4508,3.314,17.4357,7.9173
438731.0,-49.6462,-4.1563,78.4508,2.5185,17.4357,7.8577
438741.0,-44.0725,-15.1409,78.4508,0.323,17.4357,6.7323
438751.0,-40.9408,-20.2262,78.0893,-2.2657,17.4357,5.1354
438761.0,-43.9767,-22.1703,77.0358,-3.4933,16.6876,3.8828
438771.0,-37.6273,-26.5278,76.3942,-3.9829,16.3284,2.4977
438781.0,-36.842,-22.8407,74.7853,-4.6565,16.9824,1.2659
438791.0,-40.9121,-21.7106,78.4508,-3.6636,16.7051,0.7497
438801.0,-39.5714,-17.9852,78.4508,-1.3431,16.7658,0.564
438811.0,-40.9792,-13.0723,78.4508,1.5335,16.8387,0.6768
438821.0,-41.9656,-6.2058,78.4508,3.421,14.7768,0.9833
438831.0,-40.28,-4.3574,78.4508,3.6274,12.6925,1.3212
438841.0,-37.7613,-10.5345,78.4508,3.6455,10.5848,1.2361
438851.0,-78.4532,0.3256,78.4508,-2.9192,2.3525,0.0149
438861.0,-28.9124,-28.6251,78.4508,4.3383,5.9942,-0.4986
438871.0,-30.5309,-13.3309,78.4508,-1.3601,4.515,-2.0407
438881.0,-34.17,-14.3939,78.4508,1.2537,1.6948,-2.4786
438891.0,-31.9865,-6.5505,78.4508,-1.5484,-0.0644,-3.0171
438901.0,-32.0823,-2.1452,78.4508,0.5859,-1.4457,-2.891
438911.0,-33.3847,1.6376,78.4508,0.241,-2.8005,-2.568
438921.0,-32.5228,4.616,78.4508,2.6249,-4.1143,-1.9369
438931.0,-32.7431,5.7461,78.4508,2.7212,-5.2227,-1.4096
438941.0,-31.3449,6.1292,78.3191,2.4775,-5.5728,-1.0914
438951.0,-32.0823,4.8363,78.3,1.6128,-5.8362,-1.027
438961.0,-33.2219,6.5122,77.2369,1.0743,-6.056,-0.9248
438971.0,-35.597,6.1387,78.4508,0.6311,-6.5913,-0.7849
438981.0,-37.3208,6.359,78.4508,0.4454,-7.4395,-0.58
438991.0,-37.3208,6.7038,78.4508,0.4406,-8.1802,-0.3783
439001.0,-38.7669,6.7038,78.4508,0.5768,-9.2236,-0.1272
439011.0,-40.5482,7.3358,78.4508,0.9014,-11.2536,0.1517
439021.0,-42.0996,7.5178,78.4508,0.9488,-13.6428,0.4778
439031.0,-42.8754,6.5888,78.4508,1.1605,-15.6595,0.7971
439041.0,-42.703,3.9073,77.5626,1.7991,-16.9701,1.0264
439051.0,-41.5059,4.1563,67.9283,1.7491,-17.4363,1.035
439061.0,-40.9121,4.7884,61.0234,0.9323,-17.4363,1.0153
439071.0,-39.3224,4.3191,55.4497,0.1373,-17.4363,0.911
439081.0,-37.9337,3.62,51.0731,-0.2123,-17.4363,0.8109
439091.0,-37.0431,2.9018,47.9702,-0.2256,-17.4363,0.6513
439101.0,-36.0375,3.4668,44.331,0.2277,-17.4363,0.4959
439111.0,-34.5818,6.6846,39.3415,0.8019,-17.4363,0.563
439121.0,-34.4382,8.7149,34.8308,1.4106,-17.4363,0.8993
439131.0,-31.9099,8.9256,29.3433,1.9284,-17.4363,1.2936
439141.0,-29.5157,9.5385,25.3402,1.8592,-17.4363,1.6038
439151.0,-28.0696,9.8928,21.1647,0.7833,-17.4363,1.8933
439161.0,-25.6084,8.6957,17.8895,-0.5199,-17.4363,2.1412
439171.0,-20.0826,4.865,13.8576,-1.0621,-17.4363,2.2907
439181.0,-16.9893,1.0151,11.2527,-1.9497,-17.4363,2.0183
439191.0,-13.2351,-0.7087,8.2361,-2.6356,-17.4363,1.6613
439201.0,-10.6973,-2.5187,8.4276,-3.0102,-17.4363,1.3063
439211.0,-7.5178,-4.8554,8.0732,-1.7741,-17.4363,0.9977
439221.0,-5.4205,-4.2234,3.1316,-0.945,-17.4363,0.6151
439231.0,-3.7254,-2.8156,-1.2546,-0.3746,-16.9558,0.3555
439241.0,-0.4501,-1.1684,-6.6559,-0.2895,-16.0788,0.1394
439251.0,1.2737,0.8715,-11.5401,-0.9041,-14.9534,-0.0383
439261.0,2.7581,1.743,-13.7044,-1.7969,-13.9547,-0.108
439271.0,5.5258,2.0111,-16.5296,-2.5579,-12.9208,-0.1942
439281.0,8.1403,1.2737,-17.7458,-3.3981,-11.5522,-0.3113
439291.0,7.2305,1.561,-17.3532,-3.9355,-10.257,-0.4975
439301.0,10.7835,0.0575,-14.9973,-4.0323,-9.3678,-0.6178
439311.0,12.4307,1.0726,-17.7171,-3.1586,-7.9333,-0.6497
439321.0,11.9806,1.0439,-16.6158,-2.833,-6.9478,-0.6412
439331.0,13.6469,0.0479,-17.4011,-2.005,-6.0576,-0.6433
439341.0,13.5033,1.3503,-21.318,-1.6091,-4.9109,-0.6412
439351.0,15.3995,1.3599,-22.9939,-1.3548,-3.6955,-0.6955
439361.0,15.3133,3.2178,-25.7329,-1.4825,-2.3498,-0.7247
439371.0,14.0396,4.0223,-26.5182,-1.905,-1.3,-0.6502
439381.0,15.6198,4.4532,-27.8302,-2.1183,0.1756,-0.5699
439391.0,16.2327,4.9799,-28.3761,-2.5137,1.6565,-0.4432
439401.0,17.2383,5.1619,-29.0752,-2.4594,3.3433,-0.299
439411.0,14.959,6.0621,-29.9946,-2.2631,5.3073,-0.0724
439421.0,12.8329,5.363,-26.8151,-2.129,7.2021,0.2756
439431.0,12.402,4.5969,-26.6523,-1.293,9.1795,0.5811
439441.0,10.0556,3.0263,-24.1814,-0.8386,11.1318,0.7875
439451.0,7.8817,2.2122,-22.0841,-0.3645,12.9383,0.8939
439461.0,4.4724,1.4174,-20.7721,-0.2517,14.6262,0.8344
439471.0,3.1987,2.557,-19.0195,-0.3155,16.7211,0.7253
439481.0,-0.8045,2.9688,-12.0093,-0.3496,17.4357,0.7673
439491.0,-3.5434,4.7309,-6.79,0.0724,17.4357,0.9504
439501.0,-7.7764,5.3056,4.5969,1.4404,17.4357,1.3431
439511.0,-10.7356,5.3534,14.4322,2.4094,17.4357,1.7666
439521.0,-13.0436,5.4205,18.0523,3.2113,17.4357,2.0422
439531.0,-17.9757,5.8706,19.9102,0.7141,17.4357,2.0667
439541.0,-20.638,2.2793,23.9516,-2.0603,17.4357,2.1487
439551.0,-22.0745,-3.9552,27.9834,-3.9323,17.4357,2.2519
439561.0,-21.5095,-12.7372,30.9522,-3.2757,17.4357,2.3392
439571.0,-20.0251,-18.761,30.9427,-1.3548,17.4357,1.9028
439581.0,-19.7953,-19.6803,34.5244,0.5635,17.4357,1.1169
439591.0,-23.7888,-13.8193,41.1324,1.1648,17.4357,0.2453
439601.0,-29.9563,-3.7541,50.3836,0.1229,17.4357,-0.1192
439611.0,-34.917,0.7183,64.6818,-0.8077,17.4357,0.2996
439621.0,-39.0446,-0.2777,76.4708,0.0245,17.4357,1.0844
439631.0,-39.3415,-8.0828,78.4508,2.9915,17.4357,1.8134
439641.0,-33.2315,-13.6182,67.89,6.7408,17.4357,1.4521
439651.0,-38.3934,-14.1833,60.104,7.6289,17.4357,0.257
439661.0,-43.7469,-8.1786,65.1319,6.1294,17.4357,-1.3452
439671.0,-50.4506,1.8292,78.4508,3.6833,17.4357,-2.6026
439681.0,-55.5359,17.0084,78.4508,0.8551,17.4357,-2.9703
439691.0,-56.1584,28.9507,78.4508,-2.0273,17.4357,-2.1987
439701.0,-53.362,35.1469,78.4508,-4.2644,14.3309,-0.5348
439711.0,-46.7348,31.7758,78.4508,-6.0693,9.4838,1.3782
439721.0,-42.0422,19.8623,78.4508,-6.5971,5.7154,3.0453
439731.0,-36.4302,5.2289,78.4508,-5.3493,2.4126,4.0925
439741.0,-33.0591,-8.102,78.4508,-3.5593,0.589,4.532
439751.0,-32.2451,-26.4416,78.4508,-2.916,0.4911,3.7541
439761.0,-21.7298,-24.1719,76.806,1.0813,0.0511,2.8106
439771.0,-21.9883,-30.5883,78.4508,0.7678,0.3118,1.3867
439781.0,-19.5654,-20.8296,74.067,2.2061,0.9839,0.1751
439791.0,-22.3714,-15.7538,78.4508,1.7113,0.3517,-0.6508
439801.0,-23.7984,-6.1866,78.4508,1.417,-0.1942,-1.0014
439811.0,-26.7576,-3.0646,78.4508,1.1424,-1.3383,-1.0541
439821.0,-29.0752,2.2122,78.4508,0.6795,-2.4041,-0.9259
439831.0,-32.2643,1.4844,78.4508,0.8987,-3.968,-0.5848
439841.0,-33.5859,1.4844,78.4508,1.3457,-5.4627,-0.3528
439851.0,-35.7598,0.68,78.4508,2.2764,-7.2357,-0.1469
439861.0,-36.2674,1.1684,78.4508,2.9479,-9.0246,-0.0213
439871.0,-37.3112,2.9688,78.4508,3.1474,-10.5699,0.0495
439881.0,-38.3838,5.1811,78.4508,2.684,-11.8677,0.1117
439891.0,-38.8818,5.8514,78.4508,2.1391,-12.8447,0.2543
439901.0,-38.6903,6.0908,75.5802,1.6964,-13.6471,0.3485
439911.0,-40.0789,6.1196,74.747,1.35,-14.3484,0.5066
439921.0,-39.8682,5.2577,74.0479,1.64,-15.1359,0.6848
439931.0,-40.3854,5.363,72.1517,1.7262,-15.9325,0.8141
439941.0,-40.4524,4.8171,70.7726,2.1747,-16.9813,1.0078
439951.0,-40.1556,4.2234,65.8884,2.3642,-17.4363,1.1526
439961.0,-39.715,3.5913,60.9468,2.2604,-17.4363,1.1893
439971.0,-38.5562,2.3846,56.1201,2.0071,-17.4363,1.1776
439981.0,-36.411,2.7198,50.7379,1.7075,-17.4363,1.1063
439991.0,-35.2331,2.7007,45.4228,0.7843,-17.4363,0.9951
440001.0,-33.7582,1.7142,41.7645,0.4129,-17.4363,0.9344
440011.0,-31.2874,1.4844,36.0088,0.042,-17.4363,0.795
440021.0,-30.3776,1.0534,30.4734,-0.3847,-17.4363,0.6428
440031.0,-28.0888,0.4693,25.3115,-0.5497,-17.4363,0.4491
440041.0,-24.0761,0.4118,18.014,-0.4017,-17.4363,0.2831
440051.0,-20.8966,0.8428,10.0269,-0.7966,-17.4363,0.0921
440061.0,-17.334,1.312,6.1962,-1.4527,-17.4363,-0.1075
440071.0,-13.7714,0.3065,4.7118,-1.4553,-17.4363,-0.3145
440081.0,-9.5193,1.4461,-1.2163,-0.8301,-17.4363,-0.4475
440091.0,-5.2577,2.3942,-5.2002,-1.2989,-17.4363,-0.6178
440101.0,-3.2465,2.6528,-7.0294,-1.7741,-17.4363,-0.7625
440111.0,-0.3448,3.2753,-9.3661,-2.1508,-17.0936,-0.8567
440121.0,3.3615,2.7294,-10.7931,-2.4227,-15.9272,-0.9248
440131.0,5.2289,2.2314,-12.5073,-2.6127,-14.8481,-1.0765
440141.0,7.6806,2.1548,-13.2639,-2.6244,-13.7242,-1.2313
440151.0,9.6917,3.0742,-14.2982,-2.7558,-12.585,-1.4133
440161.0,10.0269,4.9512,-14.3173,-3.206,-11.7751,-1.5293
440171.0,10.9176,7.1443,-16.0986,-3.7306,-11.036,-1.4702
440181.0,11.655,9.1554,-17.3532,-4.5778,-10.3262,-1.3425
440191.0,13.1394,9.9311,-16.9797,-5.2424,-9.5839,-1.1265
440201.0,11.3964,9.2512,-19.4696,-5.9746,-9.0943,-0.8237
440211.0,14.279,8.351,-20.9828,-6.1087,-8.1429,-0.737
440221.0,13.714,7.422,-20.8391,-6.122,-7.2564,-0.6162
440231.0,14.959,7.7859,-23.444,-5.7463,-6.2614,-0.5459
440241.0,15.8017,8.3414,-25.5797,-5.128,-4.9577,-0.3384
440251.0,15.9454,8.4851,-28.9315,-4.3341,-3.479,-0.0686
440261.0,17.6788,9.6534,-30.9139,-3.0575,-0.7859,0.4273
440271.0,16.453,9.8067,-33.7391,-2.5403,1.0914,0.7567
440281.0,16.6445,9.0692,-33.5954,-2.2189,3.5795,1.1291
440291.0,16.453,8.6287,-32.3121,-1.7938,6.4237,1.4942
440301.0,13.3884,6.7038,-27.8398,-1.3404,8.7022,1.8102
440311.0,12.7276,4.1851,-22.9173,-0.7466,10.9333,1.996
440321.0,10.4387,3.0358,-18.7035,-0.0889,12.7718,2.0662
440331.0,7.5657,2.0494,-15.9454,0.2267,14.2138,2.1162
440341.0,4.9416,1.4653,-13.034,0.1958,15.4084,2.0853
440351.0,3.7828,1.2546,-10.7452,0.6082,16.9026,2.0641
440361.0,0.431,2.0973,-8.5234,1.1494,17.4357,2.0683
440371.0,-2.2314,2.2314,-4.4915,1.4271,17.4357,2.1109
440381.0,-5.8802,2.6528,-0.7566,1.5053,17.4357,2.1386
440391.0,-8.5712,3.9744,2.8922,0.9493,17.4357,2.2689
440401.0,-11.3772,3.3423,7.6136,0.6311,17.4357,2.6717
440411.0,-15.1122,0.2969,12.5265,0.124,17.4357,3.057
440421.0,-16.9797,-5.4779,17.9565,0.4523,17.4357,3.2065
440431.0,-18.579,-9.9886,21.1456,0.9099,17.4357,2.8213
440441.0,-21.5478,-12.7755,28.7208,1.8885,17.4357,2.138
440451.0,-23.2716,-10.7739,35.9992,2.7026,17.4357,1.3521
440461.0,-25.7999,-6.4643,43.699,2.9793,17.4357,0.6247
440471.0,-31.4215,-1.2641,51.7914,2.4004,17.4357,0.2288
440481.0,-32.044,3.2465,55.2199,1.3399,17.4357,0.19
440491.0,-33.3273,5.7652,53.2183,-0.5151,17.4357,0.4709
440501.0,-34.8404,3.3327,52.1553,-1.856,17.4357,0.9094
440511.0,-37.1484,-2.7294,52.6246,-2.3482,17.4357,1.3425
440521.0,-36.7558,-10.8793,57.5949,-1.7155,17.4357,1.2616
440531.0,-35.4342,-14.7579,65.649,-0.6295,17.4357,0.7348
440541.0,-35.5012,-12.8042,71.2993,-0.3054,17.4357,0.0452
440551.0,-36.2099,-9.347,78.4508,-0.8727,17.4357,-0.5582
440561.0,-36.2482,-4.8171,78.4508,-2.2365,17.4357,-0.8961
440571.0,-38.2115,-3.6009,78.4508,-3.0032,14.9763,-0.8599
440581.0,-37.3017,-4.4053,78.4508,-2.9958,13.7578,-0.7199
440591.0,-38.901,-6.4548,78.0222,-2.1146,13.9461,-0.5662
440601.0,-40.0215,-8.6862,78.4508,-0.9227,14.25,-0.4975
440611.0,-39.3319,-10.7164,78.4508,0.3927,14.259,-0.6188
440621.0,-38.5945,-9.8641,78.4508,1.0179,13.1783,-0.9764
440631.0,-66.4152,-17.4106,78.4508,0.5555,5.7777,-1.4021
440641.0,-35.1181,0.0862,78.4508,-0.2655,8.5548,-1.8071
440651.0,-36.3727,-4.6064,78.4508,0.7971,4.2606,-1.7655
440661.0,-33.8349,4.7214,78.4508,-0.8035,2.9059,-1.6762
440671.0,-34.5914,1.4269,78.4508,-0.5571,0.5843,-1.2877
440681.0,-30.799,-0.7374,78.4508,-0.7333,-1.4218,-1.0701
440691.0,-33.0879,1.7047,78.4508,0.6651,-1.6687,-0.687
440701.0,-30.3393,0.4884,78.4508,1.4926,-1.7671,-0.4071
440711.0,-28.6921,1.9249,78.4508,2.3722,-2.3972,-0.0255
440721.0,-27.0353,3.9456,76.9113,3.1512,-2.17,0.3767
440731.0,-26.8151,4.7884,77.5434,3.2294,-2.4903,0.6997
440741.0,-27.3514,6.0621,78.0222,2.792,-3.2672,1.0589
440751.0,-28.5102,5.545,78.3,2.1982,-4.3596,1.3792
440761.0,-28.06,3.9552,77.1508,0.9179,-5.2998,1.4372
440771.0,-29.0177,1.8292,78.4508,0.0724,-6.1379,1.417
440781.0,-30.3776,1.1013,78.4508,-0.0729,-7.0372,1.3931
440791.0,-30.9235,1.4365,78.4508,0.4369,-7.9615,1.4947
440801.0,-31.8525,2.0973,78.4508,1.1957,-8.9932,1.7507
440811.0,-32.6856,1.6759,78.4508,2.1737,-10.1213,2.0556
440821.0,-34.0647,1.7717,78.4508,2.6946,-11.2121,2.2732
440831.0,-34.3137,2.1835,78.4508,3.1453,-12.2285,2.4914
440841.0,-34.534,2.4229,77.5242,3.1379,-13.1645,2.601
440851.0,-35.4821,1.8196,74.5171,2.7989,-14.3841,2.6568
440861.0,-35.4533,1.8387,71.194,2.3636,-15.7053,2.5887
440871.0,-35.7406,2.2314,67.8708,1.9858,-16.8823,2.535
440881.0,-35.9322,2.1069,63.2357,2.0689,-17.4363,2.5446
440891.0,-35.4438,2.3367,57.547,2.4876,-17.4363,2.6121
440901.0,-34.4286,2.806,50.4219,2.6792,-17.4363,2.6696
440911.0,-33.538,3.0454,43.4212,2.5419,-17.4363,2.7069
440921.0,-32.111,2.7677,37.225,2.0838,-17.4363,2.6999
440931.0,-29.7551,2.49,31.0576,1.5995,-17.4363,2.6127
440941.0,-27.5716,2.308,24.4304,0.6258,-17.4363,2.395
440951.0,-24.8135,1.6951,19.8527,-0.2379,-17.4363,2.1279
440961.0,-22.6396,0.8906,15.84,-1.1659,-17.4363,1.7735
440971.0,-20.3794,-0.0287,12.5552,-1.5,-17.4363,1.3941
440981.0,-16.7977,0.0,8.2456,-1.9023,-17.4363,1.0158
440991.0,-15.1026,-0.7661,7.4124,-1.5745,-17.4363,0.7029
441001.0,-11.6167,0.2873,2.5857,-1.3963,-17.4363,0.4188
441011.0,-9.2416,1.494,-1.1779,-1.119,-17.4363,0.2687
441021.0,-7.6998,1.4365,-2.2027,-0.9386,-17.2005,0.1905
441031.0,-4.4245,2.8347,-7.8817,-0.5917,-16.479,0.1277
441041.0,-2.6528,3.2274,-11.8657,-0.5018,-15.3142,0.1735
441051.0,0.5171,5.2289,-18.2151,-0.9541,-13.9951,0.265
441061.0,-0.4214,4.2042,-19.8144,-1.7538,-13.388,0.3539
441071.0,4.7118,3.5243,-22.9748,-2.5765,-11.8352,0.3805
441081.0,6.5505,2.9305,-24.2964,-3.2273,-10.4241,0.3698
441091.0,7.4124,2.2601,-24.8135,-3.6721,-9.1295,0.3916
441101.0,10.0652,1.0056,-24.8997,-3.5013,-7.6071,0.4092
441111.0,10.6973,1.1109,-25.7808,-2.917,-5.7032,0.5039
441121.0,11.0038,0.4884,-29.4966,-2.4839,-3.8296,0.6093
441131.0,12.4211,0.6225,-27.2939,-1.4447,-1.5889,0.8274
441141.0,12.3637,0.9577,-27.6865,-0.7008,0.3022,1.1573
441151.0,13.6086,-1.7238,-27.3131,0.4725,2.6973,1.3
441161.0,12.5169,-2.6815,-26.2979,0.9567,5.2615,1.2936
441171.0,9.845,-5.4684,-21.3084,1.4734,7.1394,1.1536
441181.0,9.8833,-6.9623,-18.1864,1.8533,8.8134,0.8226
441191.0,9.0501,-6.6367,-14.6429,2.2258,10.6513,0.4124
441201.0,7.0198,-5.9759,-10.41,2.8409,12.1018,0.0436
441211.0,5.7461,-2.9209,-8.8107,2.9676,13.1496,-0.3049
441221.0,2.6049,-1.81,-5.5737,2.5781,14.151,-0.5773
441231.0,0.6416,0.6129,-4.7597,1.1536,14.8135,-0.8429
441241.0,-2.4708,1.8771,-1.2354,-0.4555,14.9061,-1.0664
441251.0,-3.1316,3.6679,0.1532,-2.2748,15.2333,-1.1249
441261.0,-4.9799,3.984,3.4285,-3.5135,16.1039,-0.9472
441271.0,-8.0158,2.9305,9.1267,-3.7104,17.101,-0.6045
441281.0,-10.2376,-1.3408,15.3612,-2.4823,17.4357,-0.2384
441291.0,-10.8697,-4.5777,17.1904,-0.8642,17.4357,-0.3161
441301.0,-13.0436,-6.4643,19.1728,0.298,17.4357,-0.7971
441311.0,-15.706,-5.4875,21.883,0.6103,17.4357,-1.5022
441321.0,-19.9581,-1.7621,24.2485,-0.1,17.4357,-2.1737
441331.0,-23.6834,3.802,26.7001,-2.2492,17.4357,-2.5382
441341.0,-28.1845,4.4149,33.7582,-4.5975,17.4357,-2.3716
441351.0,-33.0591,1.3695,45.193,-5.3754,17.4357,-1.931
441361.0,-34.8308,-2.9018,56.0914,-4.01,17.4357,-1.4862
441371.0,-33.1166,-7.106,68.2826,-0.0362,17.4357,-1.2941
441381.0,-34.285,-4.3574,71.9601,3.0623,17.4357,-1.5766
441391.0,-37.589,3.4955,74.2011,4.0935,17.4357,-1.7751
441401.0,-37.6943,9.5864,77.1316,3.1368,17.4357,-1.7166
441411.0,-36.6792,13.034,78.1563,0.9344,17.4357,-1.55
441421.0,-36.3727,11.722,78.4508,-1.9752,16.5961,-1.2957
441431.0,-37.091,8.1977,78.4508,-4.225,14.872,-1.0121
441441.0,-38.4221,3.2561,78.4508,-4.5671,12.6403,-0.5502
441451.0,-36.4014,-0.3831,78.4508,-3.0873,10.6662,-0.041
441461.0,-33.3177,-4.0318,78.4508,-1.2521,9.2486,0.2395
441471.0,-30.4255,-4.9225,78.4508,0.091,7.8098,0.2485
441481.0,-28.7208,-4.9991,78.4508,0.8077,6.0171,0.2033
441491.0,-43.4979,-11.5401,78.4508,0.4608,0.8093,0.1591
441501.0,-20.2262,-0.6225,77.802,0.0862,4.0339,-0.2549
441511.0,-23.0322,-8.5712,78.4508,0.2932,1.4218,-0.4017
441521.0,-21.2605,-0.6512,78.4508,-1.1398,0.9009,-0.5805
441531.0,-21.5191,-5.6886,78.4508,-0.7657,-0.853,-0.589
441541.0,-18.9142,-3.2848,78.4508,-1.259,-1.5277,-0.6981
441551.0,-19.2207,-4.0989,78.4508,-0.207,-2.2998,-0.7178
441561.0,-18.4832,-2.308,75.2641,-0.6556,-2.8878,-0.7758
441571.0,-18.6269,-2.1261,73.7893,-0.3092,-3.5167,-0.7694
441581.0,-18.014,-1.4748,71.9889,-0.6252,-4.1867,-0.8067
441591.0,-18.2725,-1.5227,69.0871,-0.5199,-4.7252,-0.7338
441601.0,-17.5543,-2.5953,68.0624,-0.6114,-5.2025,-0.7471
441611.0,-17.4106,-2.2027,65.2181,-0.7891,-5.6175,-0.812
441621.0,-18.3875,-3.4285,64.8637,-1.2446,-6.2247,-0.9014
441631.0,-18.0523,-4.8363,62.6419,-1.4245,-6.7419,-1.1148
441641.0,-17.8799,-5.2672,62.2876,-1.4968,-6.8823,-1.3606
441651.0,-18.2055,-4.9895,62.4408,-1.1451,-6.96,-1.5543
441661.0,-18.8088,-4.3479,63.0728,-0.7524,-7.291,-1.715
441671.0,-18.7897,-2.1835,62.6036,-0.2597,-7.6906,-1.7863
441681.0,-19.4409,-0.2586,62.9771,0.2437,-8.0674,-1.7272
441691.0,-19.1057,1.3503,61.8853,0.8264,-8.5372,-1.5447
441701.0,-18.7131,1.3503,60.8798,1.3436,-8.9549,-1.3383
441711.0,-17.2095,2.624,58.6867,1.6038,-9.1066,-1.2207
441721.0,-16.338,4.0701,57.4991,1.5596,-9.2715,-1.0727
441731.0,-16.7115,5.679,56.9533,0.9823,-9.6547,-0.879
441741.0,-17.2574,5.2481,57.6236,0.4597,-10.2522,-0.6428
441751.0,-15.6868,4.5681,56.1967,0.1282,-10.6822,-0.4997
441761.0,-16.022,4.1468,55.3827,-0.2123,-10.9472,-0.3837
441771.0,-14.7962,2.49,54.5399,-0.1958,-11.1483,-0.2591
441781.0,-13.4171,1.0247,53.4865,-0.1011,-11.0403,-0.2847
441791.0,-13.5416,0.4788,55.6891,0.1724,-10.9482,-0.274
441801.0,-12.7563,0.2777,57.1448,0.8673,-11.0701,-0.2629
441811.0,-13.0436,2.4708,56.3691,1.0727,-11.376,-0.1974
441821.0,-13.6374,2.7198,57.0873,1.0919,-12.0348,-0.067
441831.0,-13.1202,3.9456,54.7698,0.671,-12.7457,-0.0165
441841.0,-14.7004,4.1276,52.8927,0.1277,-13.4279,0.1277
441851.0,-12.5073,2.5187,49.5312,-0.0894,-13.9339,0.1761
441861.0,-11.5879,2.6815,46.1794,-0.4762,-13.9525,0.1171
441871.0,-12.287,2.0686,46.888,-0.8508,-13.9355,0.0851
441881.0,-12.287,1.7813,47.6159,-0.8317,-14.3857,0.0351
441891.0,-12.718,3.3519,47.0892,-1.0871,-15.1104,0.0144
441901.0,-12.9574,4.5394,45.1451,-1.1403,-15.8878,0.1437
441911.0,-11.8848,4.6543,41.7836,-1.3202,-16.7392,0.3038
441921.0,-11.971,3.7924,37.1963,-1.5591,-17.3048,0.4315
441931.0,-11.1091,2.1165,32.5707,-1.7964,-17.4363,0.5295
441941.0,-9.3087,0.6225,27.0928,-2.1694,-17.4363,0.5013
441951.0,-7.8913,-2.0303,23.8558,-2.5845,-17.4363,0.2261
441961.0,-5.6886,-2.3367,19.3068,-2.883,-17.4363,-0.1192
441971.0,-4.0223,-2.1261,15.6102,-2.9867,-17.4363,-0.439
441981.0,-3.3519,-2.3846,13.963,-2.5621,-17.4363,-0.6981
441991.0,-1.7047,-1.2354,9.7492,-1.8576,-17.4363,-0.9014
442001.0,-0.7374,0.9481,5.1427,-1.3223,-16.9648,-1.0185
442011.0,0.8811,3.4955,1.0247,-1.1712,-16.3513,-1.0233
442021.0,1.4174,5.612,-3.6583,-1.4548,-15.8123,-0.8886
442031.0,3.8595,6.4548,-6.6942,-1.4426,-14.5107,-0.6949
442041.0,5.2481,6.8187,-7.5369,-1.8986,-13.6886,-0.5013
442051.0,6.3782,6.9623,-10.6015,-2.1721,-13.1267,-0.2783
442061.0,7.0102,6.6942,-13.4267,-2.4525,-12.3083,-0.0341
442071.0,8.3797,5.6312,-15.7922,-2.9575,-11.5958,0.0814
442081.0,10.4579,4.4053,-19.3356,-3.3108,-10.721,0.0229
442091.0,10.4291,4.5394,-21.5478,-3.4742,-9.5839,-0.0835
442101.0,13.1777,4.9799,-20.6955,-2.9197,-7.9365,-0.1314
442111.0,11.6741,6.7229,-25.5797,-2.3434,-7.092,0.0085
442121.0,13.3213,7.0964,-27.0257,-0.2293,-4.7518,0.224
442131.0,12.7084,9.9024,-31.7663,0.1054,-2.8436,0.5034
442141.0,12.9383,11.1187,-33.854,0.7242,-0.7944,0.9977
442151.0,12.3349,10.6781,-33.6625,1.1504,1.2781,1.5469
442161.0,11.1187,9.6438,-33.5763,1.492,3.3422,1.972
442171.0,11.0612,8.7053,-30.6362,1.8565,5.4366,2.3546
442181.0,10.1706,7.2592,-30.0041,2.262,7.192,2.6563
442191.0,8.5808,4.798,-26.9683,2.594,8.8943,2.7819
442201.0,7.288,2.8635,-24.8422,3.1341,10.4842,2.8734
442211.0,6.7708,-0.2203,-24.0569,3.497,12.1423,2.7329
442221.0,5.545,-2.4421,-22.697,3.4316,13.7024,2.3126
442231.0,4.1755,-2.9209,-22.8024,2.8127,15.2142,1.7757
442241.0,1.7238,-3.3423,-20.4848,2.2907,17.0787,1.2904
442251.0,-2.3367,-2.6432,-16.7307,1.8299,17.4357,0.9562
442261.0,-4.5011,-2.6049,-11.4156,2.2407,17.4357,0.7955
442271.0,-8.0445,-2.6815,-7.173,3.2438,17.4357,0.6492
442281.0,-10.6111,-1.9249,-7.3071,4.1845,17.4357,0.4661
442291.0,-12.469,-0.6704,-7.4891,4.1446,17.4357,0.1618
442301.0,-17.9278,2.1356,-3.1603,3.5886,17.4357,-0.0601
442311.0,-24.7369,7.2113,-0.3735,2.3115,17.4357,0.2155
442321.0,-29.6211,10.3046,6.2345,0.8258,17.4357,0.9519
442331.0,-38.0678,11.4347,18.9333,-0.9392,17.4357,2.0864
442341.0,-47.3094,6.1675,35.7311,-1.5234,17.4357,3.5939
442351.0,-49.8377,-8.1116,52.6246,-0.7572,17.4357,4.5017
442361.0,-51.3987,-22.7832,68.4071,1.8714,17.4357,4.3357
442371.0,-48.0277,-32.8963,78.4508,5.5611,17.4357,2.9841
442381.0,-50.2782,-33.3847,78.4508,8.1631,17.4357,0.7056
442391.0,-52.184,-20.6189,78.4508,6.9324,17.4357,-1.3851
442401.0,-52.2702,-3.2848,78.4508,6.0613,17.4357,-2.5057
442411.0,-57.164,15.2654,78.4508,3.2571,17.4357,-2.2854
442421.0,-57.1161,17.267,78.4508,1.5969,17.4357,-0.8838
442431.0,-59.1272,3.553,78.4508,0.5103,17.4357,0.0101
442441.0,-53.9557,-18.3109,78.4508,0.6965,17.4357,-0.5385
442451.0,-52.5288,-23.3674,78.4508,1.3654,17.4357,-2.2045
442461.0,-78.4532,-23.4153,78.4508,-0.3544,9.6978,-3.157
442471.0,-35.597,0.9768,78.4508,3.0932,11.7091,-4.0403
442481.0,-39.648,-7.0677,78.4508,5.0098,6.7248,-3.861
442491.0,-41.6687,21.5478,78.4508,4.1648,3.5183,-3.5178
442501.0,-50.0867,12.9766,78.4508,3.6982,-1.1504,-2.5174
442511.0,-32.1781,21.3084,78.4508,1.4633,-0.8375,-2.3168
442521.0,-37.5698,16.1273,78.4508,0.4188,-2.3067,-1.7326
442531.0,-33.0591,21.4616,78.4508,-1.897,-3.2384,-1.1345
442541.0,-34.0072,16.2327,78.4508,-1.7932,-4.2771,-0.4406
442551.0,-32.7239,17.8416,78.4508,-2.2423,-5.3169,0.2815
442561.0,-32.2355,14.3652,78.4508,-1.1738,-6.0475,1.0616
442571.0,-31.5939,13.034,73.7701,-1.1871,-6.2294,1.6208
442581.0,-30.2914,8.2361,71.2993,-0.2437,-6.2039,2.1066
442591.0,-29.4008,5.8993,70.2459,-0.381,-6.0113,2.3402
442601.0,-30.1861,2.8443,72.6114,-0.0862,-6.09,2.3573
442611.0,-31.115,2.7869,75.0726,-0.3852,-6.5375,2.2934
442621.0,-33.2219,1.494,78.4508,0.0388,-7.3134,2.3285
442631.0,-32.8006,1.6855,78.4508,0.7242,-7.9641,2.2993
442641.0,-35.597,2.8539,78.4508,0.8317,-8.7447,2.2604
442651.0,-37.0048,3.1603,78.4508,1.4058,-9.6743,2.2689
442661.0,-38.7669,5.7174,78.4508,1.6607,-10.6226,2.3131
442671.0,-41.4293,7.0485,78.4508,2.0917,-11.616,2.5627
442681.0,-43.0765,7.1251,78.4508,2.6771,-12.5861,2.8963
442691.0,-44.4268,5.7078,78.4508,2.9016,-13.7168,3.0767
442701.0,-45.2887,6.5505,78.4508,2.4685,-15.1743,3.0277
442711.0,-47.0987,8.6287,78.4508,1.0041,-17.1074,2.9346
442721.0,-48.4203,9.3661,76.2984,-0.2006,-17.4363,2.9511
442731.0,-47.4148,7.5369,72.4677,-0.2953,-17.4363,3.0447
442741.0,-46.0357,6.9528,66.0225,0.1575,-17.4363,3.1741
442751.0,-46.8976,7.8434,58.792,0.0819,-17.4363,3.3433
442761.0,-44.8961,6.9623,48.9088,0.3006,-17.4363,3.6588
442771.0,-41.276,4.5011,39.1213,0.6423,-17.4363,3.8365
442781.0,-39.2841,2.873,30.8852,0.6545,-17.4363,3.935
442791.0,-36.1716,-0.1724,24.5741,0.5385,-17.4363,3.8711
442801.0,-30.3681,-2.4995,17.1808,-0.1724,-17.4363,3.4896
442811.0,-25.254,-2.9975,11.789,-1.8267,-17.4363,2.8548
442821.0,-21.7777,-3.984,11.6071,-3.2219,-17.4363,2.0524
442831.0,-19.2781,-2.6911,9.4332,-3.6109,-17.4363,1.4622
442841.0,-16.338,-3.6775,8.351,-3.6705,-17.4363,1.0541
442851.0,-14.3556,-3.9456,6.9145,-2.5616,-17.4363,0.7199
442861.0,-8.2935,-3.8499,3.7254,-1.6112,-17.4363,0.4177
442871.0,-10.2663,-0.3352,-7.039,-1.0871,-17.4363,0.2517
442881.0,-7.8626,0.3735,-9.8833,-1.9316,-17.4363,0.099
442891.0,-5.1715,0.68,-11.8848,-1.9752,-17.4363,-0.0591
442901.0,-2.6336,1.6759,-17.1329,-2.4483,-17.4363,-0.2575
442911.0,1.3024,2.241,-20.0634,-3.0203,-17.4363,-0.5135
442921.0,1.6951,4.3958,-22.7353,-3.3826,-17.4363,-0.6598
442931.0,5.6312,4.7692,-25.4935,-3.8722,-16.5003,-0.7551
442941.0,8.3127,7.0006,-29.5923,-3.7775,-14.7911,-0.7774
442951.0,10.4387,7.2305,-27.993,-4.1441,-13.2416,-0.7769
442961.0,10.3238,8.7628,-31.5939,-4.6735,-11.9821,-0.5007
442971.0,12.9191,8.667,-32.3217,-3.5636,-10.3725,-0.1783
442981.0,11.7795,8.7149,-34.668,-3.919,-8.6202,0.1399
442991.0,14.3556,7.1443,-35.5587,-3.1208,-6.7717,0.4103
443001.0,13.7619,6.9623,-36.6217,-2.7622,-4.4373,0.5901
443011.0,15.591,5.545,-35.664,-2.2381,-2.9841,0.7359
443021.0,14.5759,5.9855,-36.6217,-1.2984,-0.7306,0.9131
443031.0,15.6581,5.1906,-36.0854,-0.9615,1.3601,0.9424
443041.0,14.8441,5.1906,-35.4821,-0.7141,2.9878,1.0195
443051.0,14.3748,5.3439,-34.2371,-0.4874,4.8007,1.0334
443061.0,12.6893,6.857,-33.9594,-0.5646,6.4891,1.126
443071.0,11.7412,6.4739,-31.4981,-0.5108,7.8902,1.3803
443081.0,10.8601,6.5505,-31.8812,-0.7615,9.6504,1.6783
443091.0,9.0309,5.6407,-28.2612,-1.0068,11.1914,1.9321
443101.0,6.5888,4.5394,-25.0529,-0.886,12.5227,2.2343
443111.0,4.3766,2.3559,-22.8407,-0.6976,13.662,2.5009
443121.0,2.9401,0.1915,-22.63,-0.7178,14.6501,2.5392
443131.0,1.6281,-1.4557,-22.4768,-0.9562,15.7649,2.4147
443141.0,0.4118,-2.5762,-20.5997,-1.0099,17.0547,2.2354
443151.0,-1.7909,-2.9784,-18.3396,-0.9504,17.4357,2.0236
443161.0,-3.3615,-1.7047,-18.1193,-0.6119,17.4357,1.8725
443171.0,-7.1251,0.4788,-17.4106,-0.6353,17.4357,1.806
443181.0,-12.8329,3.7828,-15.4474,-0.6928,17.4357,2.0556
443191.0,-16.9126,5.8993,-16.1561,-0.5741,17.4357,2.6462
443201.0,-25.2062,5.8035,-17.7554,-0.3682,17.4357,3.4763
443211.0,-32.791,1.2641,-24.4496,-0.679,17.4357,4.3303
443221.0,-38.585,-8.6574,-27.6674,-1.2031,17.4357,4.6762
443231.0,-49.0237,-18.2725,-18.8567,-0.8934,17.4357,4.2367
443241.0,-61.0809,-22.6491,-2.9018,1.3388,17.4357,3.2746
443251.0,-76.8347,-21.1264,16.5775,5.6558,17.4357,2.3503
443261.0,-78.4532,-17.4202,40.28,9.9537,17.4357,1.1818
443271.0,-78.4532,-9.1267,72.5635,12.3392,17.4357,0.248
443281.0,-78.4532,-1.1875,78.4508,12.6914,17.4357,-0.5252
443291.0,-78.4532,3.8403,78.4508,11.1754,17.4357,-1.151
443301.0,-78.4532,8.2073,78.4508,11.8555,17.4357,-1.1776
443311.0,-78.4532,9.5098,78.4508,11.756,17.4357,-2.3892
443321.0,-78.4532,18.4162,78.4508,5.543,17.4357,-3.5811
443331.0,-76.1931,19.6803,78.4508,0.0069,17.4357,-4.1489
443341.0,-68.7327,16.8264,78.4508,-4.5996,13.3997,-4.2239
443351.0,-61.2724,12.0859,78.4508,-5.3323,7.9881,-3.8275
443361.0,-56.168,10.4196,78.4508,-4.723,3.8477,-3.3927
443371.0,-53.3811,12.3637,78.4508,-3.7221,0.4502,-2.7675
443381.0,-60.5829,24.3825,78.4508,-4.2016,-3.4076,-1.8464
443391.0,-45.9687,7.0485,78.4508,-0.0495,-0.8322,-1.0876
443401.0,-40.9887,7.1539,71.3568,-0.6146,0.3911,-0.8226
443411.0,-36.1046,5.9376,67.2005,1.2409,1.3729,-0.5577
443421.0,-36.7271,6.4835,73.4541,0.5901,2.1433,-0.5374
443431.0,-42.1954,7.1826,78.4508,1.3244,1.052,-0.3613
443441.0,-36.2003,12.3062,77.5913,0.7503,0.58,-0.157
443451.0,-38.2498,12.3062,78.4508,0.3225,-1.0025,0.2379
443461.0,-38.5083,12.2966,78.4508,0.1235,-1.9252,0.7338
443471.0,-39.1021,10.7931,78.4508,0.4512,-2.8872,1.1893
443481.0,-39.9832,8.6095,78.4508,0.4246,-4.0084,1.5974
443491.0,-40.2609,6.1962,78.4508,0.6609,-5.1381,1.9725
443501.0,-41.6687,2.2793,78.4508,0.6455,-6.2268,2.1258
443511.0,-41.8315,0.565,78.4508,0.6854,-7.4826,1.9646
443521.0,-43.2297,1.4174,78.4508,-0.0085,-9.0672,1.6815
443531.0,-42.9711,3.3806,78.4508,-0.6955,-10.9216,1.4548
443541.0,-45.3174,4.5298,78.4508,-1.3925,-12.7585,1.3
443551.0,-45.8059,4.9895,78.4508,-1.1329,-14.1643,1.3159
443561.0,-46.1027,8.0445,78.4508,-0.3762,-15.2546,1.4527
443571.0,-47.6925,10.6398,78.4508,0.7024,-16.3715,1.9369
443581.0,-46.6582,12.0572,72.7071,1.6187,-17.2346,2.5483
443591.0,-45.6143,11.9231,68.886,2.2849,-17.4363,3.1464
443601.0,-44.2065,11.1857,62.5557,2.3051,-17.4363,3.6104
443611.0,-42.6647,9.5098,58.3323,1.5644,-17.4363,3.8025
443621.0,-41.5825,9.7492,52.8352,0.0426,-17.4363,3.7727
443631.0,-40.4812,7.604,48.4874,-1.2409,-17.4363,3.7652
443641.0,-36.2482,5.1044,42.3582,-1.6352,-17.4363,3.6694
443651.0,-34.3712,3.486,38.5658,-1.5112,-17.4363,3.5534
443661.0,-32.8197,2.7677,34.6776,-0.7561,-17.4363,3.5886
443671.0,-29.8796,0.929,30.866,0.4135,-17.4363,3.6828
443681.0,-26.2596,0.0575,25.187,1.1685,-17.4363,3.6812
443691.0,-22.2565,-0.498,20.2933,1.0935,-17.4363,3.571
443701.0,-18.5311,-1.9154,16.7115,0.6167,-17.4363,3.3406
443711.0,-14.6908,-2.1931,11.406,-0.5837,-17.4363,2.8537
443721.0,-12.2392,-2.0111,9.4906,-2.038,-17.4363,2.3381
443731.0,-11.2911,-3.8882,12.1338,-2.7042,-17.4363,1.8693
443741.0,-8.1116,-4.0989,9.3565,-2.5142,-17.4363,1.4287
443751.0,-5.1044,-4.9225,5.8035,-2.5509,-17.4363,0.9445
443761.0,-3.0454,-5.4205,3.7637,-2.5217,-17.4363,0.3943
443771.0,-1.8004,-5.8897,3.2944,-1.8049,-17.4363,-0.1059
443781.0,0.4405,-4.2617,0.067,-0.7572,-17.3282,-0.5119
443791.0,3.2657,-1.5993,-6.2728,-0.9658,-16.3816,-0.8285
443801.0,4.5107,0.0575,-9.1075,-1.2489,-15.4212,-1.0749
443811.0,5.4205,1.8483,-11.0899,-2.0587,-14.756,-1.2446
443821.0,6.8187,3.3136,-13.398,-2.7654,-13.8802,-1.3542
443831.0,7.8913,5.2481,-15.9167,-3.5705,-12.9197,-1.325
443841.0,9.5002,6.3303,-17.4968,-4.4522,-11.9342,-1.1813
443851.0,10.7931,6.177,-18.4449,-5.1301,-10.7875,-1.0057
443861.0,12.5456,4.3191,-16.4913,-5.1711,-9.6078,-0.8285
443871.0,11.9997,2.8443,-16.022,-4.5884,-8.6809,-0.6534
443881.0,14.1641,-0.3065,-15.1505,-3.3837,-7.4538,-0.6279
443891.0,11.8274,0.249,-17.3244,-2.3147,-6.3731,-0.6939
443901.0,14.3939,-1.1492,-18.6939,-1.6357,-5.4313,-0.853
443911.0,18.646,0.2011,-23.0035,-0.6465,-3.5673,-1.093
443921.0,13.7714,3.2753,-26.9683,-1.608,-2.9091,-1.2302
443931.0,16.6541,3.4093,-26.3266,-1.5777,-1.4612,-1.276
443941.0,15.9741,7.0198,-29.487,-1.864,0.2639,-1.1424
443951.0,14.8057,7.5369,-28.5293,-2.1183,1.7991,-0.8487
443961.0,15.1026,9.1363,-29.736,-2.1151,3.6902,-0.4911
443971.0,12.9095,9.7205,-27.7632,-2.2285,5.328,0.0245
443981.0,12.4977,8.9735,-25.503,-1.3537,7.1026,0.6284
443991.0,10.7069,8.5808,-26.1926,-1.0413,8.7501,1.1706
444001.0,9.0788,6.3494,-26.1926,-1.2217,10.2261,1.5713
444011.0,6.5218,3.1891,-24.5454,-1.7363,11.5234,1.8007
444021.0,4.549,0.1628,-24.7848,-2.5435,12.6733,1.7751
444031.0,1.4078,-3.237,-24.6315,-3.7003,13.72,1.5176
444041.0,-0.0479,-4.7501,-23.6643,-5.0306,14.7837,1.0711
444051.0,-3.8882,-5.3439,-21.5191,-5.6606,15.9123,0.6917
444061.0,-7.8338,-4.7309,-20.3986,-5.8708,17.1415,0.4076
444071.0,-12.6605,-2.8635,-19.9964,-5.5755,17.4357,0.4629
444081.0,-15.7538,-2.2697,-20.4848,-4.217,17.4357,0.7705
444091.0,-23.9229,-1.494,-20.7912,-3.3832,17.4357,1.0632
444101.0,-30.1957,-0.9002,-20.4273,-2.833,17.4357,1.3601
444111.0,-37.9912,0.9481,-19.9293,-3.1895,17.4357,1.7166
444121.0,-47.4627,0.9002,-15.0739,-4.2957,17.4357,2.3136
444131.0,-54.674,-0.4214,-8.2552,-5.3062,17.4357,2.9963
444141.0,-66.9227,-6.8378,16.2901,-4.9268,17.4357,4.0318
444151.0,-77.7924,-15.5623,42.5689,-1.6474,17.4357,5.0396
444161.0,-78.4532,-28.2612,66.6833,2.5414,17.4357,5.0444
444171.0,-78.4532,-35.2043,78.4508,6.5902,17.4357,4.0308
444181.0,-78.4532,-34.6393,78.4508,7.1335,17.4357,1.8129
444191.0,-78.4532,-31.7567,78.4508,6.7259,17.4357,-0.1426
444201.0,-71.0886,-21.8926,78.4508,6.3231,17.4357,-1.8571
444211.0,-64.404,-9.098,78.4508,5.6686,17.4357,-2.9069
444221.0,-60.3147,4.051,78.4508,2.6238,17.4357,-3.1528
444231.0,-59.5199,2.6049,78.4508,1.4968,17.4357,-2.8223
444241.0,-57.8152,-0.3831,78.4508,1.1121,17.2889,-2.6983
444251.0,-57.1352,1.2833,78.4508,1.0467,15.6851,-2.759
444261.0,-56.3595,5.0182,78.4508,0.2969,12.3759,-2.6547
444271.0,-52.8161,7.6998,78.4508,-0.4656,8.5862,-2.3674
444281.0,-48.7172,7.0868,78.4508,-0.8838,5.1349,-2.0348
444291.0,-52.5479,2.7677,78.4508,-0.9839,-0.0442,-1.4096
444301.0,-41.7453,10.2185,78.4508,-0.2224,1.177,-1.0147
444311.0,-40.5099,8.916,78.4508,-0.0995,-0.3704,-0.2985
444321.0,-36.6792,7.4412,74.1724,-0.8184,0.5885,0.3134
444331.0,-36.6217,0.4884,78.4508,-1.2946,1.2606,0.4576
444341.0,-35.3384,-2.5857,78.4508,-1.1573,1.4995,0.4619
444351.0,-39.466,-0.6512,78.4508,-1.6192,1.176,0.3954
444361.0,-43.2489,2.0303,78.4508,-0.6917,-0.9296,0.5805
444371.0,-45.825,7.6902,78.4508,-1.4085,-3.1852,0.9312
444381.0,-47.8457,8.3318,78.4508,0.8051,-5.5696,1.7714
444391.0,-51.0827,12.6414,78.4508,-0.1729,-8.8235,2.5196
444401.0,-49.8281,8.1594,78.4508,1.2228,-11.0248,3.4172
444411.0,-50.4027,6.924,78.4508,1.0557,-12.5116,3.9414
444421.0,-49.4546,3.2274,78.4508,0.9881,-14.184,4.2596
444431.0,-48.8513,-0.7949,78.4508,-0.0756,-15.2317,4.168
444441.0,-47.7021,-3.9744,75.5418,-0.3427,-16.2172,3.8599
444451.0,-47.4243,-5.7557,73.1764,-0.6252,-17.1665,3.4156
444461.0,-47.2903,-3.7733,69.0009,-0.1357,-17.4363,3.1304
444471.0,-47.4339,-1.7047,66.6546,0.9349,-17.4363,3.14
444481.0,-45.4803,-0.1341,60.8415,2.5946,-17.4363,3.4619
444491.0,-45.011,1.6568,54.9996,3.3965,-17.4363,3.8152
444501.0,-43.8426,0.814,50.0388,3.8466,-17.4363,4.2601
444511.0,-39.4277,-0.2107,43.8139,4.0414,-17.4363,4.466
444521.0,-37.589,-0.8428,40.5865,3.4124,-17.4363,4.4703
444531.0,-36.2099,-1.5706,37.8571,2.7324,-17.4363,4.3851
444541.0,-32.9921,-2.7869,35.5108,2.1327,-17.4363,4.1968
444551.0,-29.305,-3.1795,32.0057,1.8682,-17.4363,3.9525
444561.0,-26.8629,-1.9441,28.8645,1.3707,-17.4363,3.7062
444571.0,-25.369,-1.6759,26.7097,1.0456,-17.4363,3.5763
444581.0,-22.4193,-1.5419,22.6108,0.5539,-17.4363,3.4167
444591.0,-18.3779,-2.5187,19.4218,0.0713,-17.4363,3.1959
444601.0,-16.3572,-3.735,17.7554,-0.3193,-17.4363,2.8191
444611.0,-13.0915,-3.5721,13.465,-0.7019,-17.4363,2.4977
444621.0,-11.6454,-4.0318,13.0053,-1.1009,-17.4363,2.1423
444631.0,-7.7572,-2.9688,9.9407,-0.7503,-17.4363,1.8321
444641.0,-5.5929,-0.6129,4.8459,-1.1121,-17.4363,1.6139
444651.0,-4.1659,0.0096,1.7142,-2.1098,-17.4363,1.4197
444661.0,-1.4174,-0.4788,-0.3926,-3.0235,-17.4363,1.2169
444671.0,1.7047,-1.6281,-2.5857,-3.7237,-16.9685,0.9168
444681.0,3.3327,-1.5897,-4.4915,-4.3075,-16.1778,0.5497
444691.0,4.7309,-1.7909,-4.0223,-4.1978,-15.4286,0.3193
444701.0,6.7708,-0.9864,-7.5274,-3.8536,-14.5368,0.1958
444711.0,8.7245,-2.0303,-8.2265,-3.1852,-13.5689,0.0772
444721.0,9.8067,-1.4269,-10.4483,-2.5983,-12.4158,0.0027
444731.0,12.2487,-1.7334,-11.9135,-1.8023,-11.259,-0.0639
444741.0,13.0819,-0.8332,-14.8057,-1.4553,-9.9596,-0.1437
444751.0,15.026,-0.9194,-16.8839,-1.5479,-8.8128,-0.2453
444761.0,13.963,0.6225,-17.7841,-2.071,-7.8322,-0.3475
444771.0,16.4242,0.7374,-16.9797,-2.6473,-6.4817,-0.4624
444781.0,15.6389,2.7485,-18.8376,-3.0016,-5.3919,-0.4736
444791.0,14.528,2.0016,-15.7443,-3.2581,-4.6225,-0.4087
444801.0,15.6485,1.5227,-15.1697,-2.8537,-3.5875,-0.4049
444811.0,16.0412,1.4174,-15.5336,-2.337,-2.8191,-0.4592
444821.0,15.5719,2.4708,-17.3149,-1.9864,-2.0087,-0.4906
444831.0,15.3325,4.1276,-19.7282,-2.1018,-1.2042,-0.4172
444841.0,15.8975,5.0757,-21.069,-2.1896,-0.1751,-0.2246
444851.0,17.0659,5.5545,-21.7872,-1.9576,1.2984,0.067
444861.0,17.0276,5.5545,-23.1471,-1.5687,2.8042,0.4778
444871.0,15.6581,4.6352,-24.2964,-1.1834,4.5299,0.7801
444881.0,14.6046,2.5953,-25.3402,-1.6857,6.0379,0.9206
444891.0,12.6127,1.6664,-26.8821,-1.6676,7.6635,0.9498
444901.0,10.3813,0.9864,-27.1598,-2.4381,9.2242,0.8008
444911.0,7.4699,1.7717,-26.4894,-3.0118,10.9833,0.6492
444921.0,4.6735,1.2067,-21.8734,-2.6403,12.6632,0.7317
444931.0,2.6049,0.4884,-19.4792,-1.0509,14.5958,0.8477
444941.0,-0.4884,1.0247,-20.7051,0.4943,16.8025,0.8828
444951.0,-4.6639,2.308,-22.448,1.2728,17.4357,0.8493
444961.0,-9.8545,4.3479,-22.9556,0.9929,17.4357,0.8274
444971.0,-15.5432,6.8091,-23.0131,0.1006,17.4357,1.0493
444981.0,-21.1935,7.4699,-21.0307,-0.8136,17.4357,1.541
444991.0,-27.3418,8.0924,-18.5982,-2.3493,17.4357,2.2226
445001.0,-35.3384,4.5203,-9.9599,-2.7478,17.4357,3.2161
445011.0,-39.7916,-0.1532,-4.4341,-2.3136,17.4357,4.1329
445021.0,-44.4364,-7.9679,5.9568,-1.0126,17.4357,4.6501
445031.0,-51.2168,-14.0875,14.9685,1.0717,17.4357,4.4692
445041.0,-57.0778,-16.3093,25.2062,3.207,17.4357,3.7003
445051.0,-63.5134,-11.5017,33.1357,3.8019,17.4357,2.8633
445061.0,-70.3225,-8.9639,44.6088,4.3894,17.4357,2.6031
445071.0,-73.7701,-9.6917,56.3882,5.4403,17.4357,2.2865
445081.0,-74.8523,-7.4891,66.2332,5.6744,17.4357,1.6378
445091.0,-78.4532,-6.1004,78.4508,5.5377,17.4357,1.3085
445101.0,-78.4532,-9.0022,78.4508,6.7483,17.4357,0.9573
445111.0,-78.4532,-9.0788,78.4508,7.4852,17.4357,0.1559
445121.0,-78.4532,-8.0158,78.4508,7.1809,17.4357,-0.853
445131.0,-72.9082,-2.3463,78.4508,5.2078,17.4357,-2.253
445141.0,-74.1245,1.6855,78.4508,1.0648,17.1101,-3.2677
445151.0,-67.89,4.1563,78.4508,-2.0987,12.949,-3.7647
445161.0,-64.337,4.1659,78.4508,-4.3734,9.9654,-3.9366
445171.0,-72.7263,16.7594,78.4508,-4.9226,6.5067,-3.7631
445181.0,-35.3097,-7.0198,78.4508,-1.6911,1.6602,-2.7595
445191.0,-54.6644,8.7724,78.4508,-2.5637,1.9417,-2.4669
445201.0,-52.3564,6.6655,78.4508,1.9949,-0.2932,-1.4532
445211.0,-48.133,11.9902,78.4508,0.1612,-1.7868,-0.8179
445221.0,-45.9016,7.5178,78.4508,2.5611,-2.4328,-0.0819
445231.0,-38.5945,10.8601,69.7479,0.9019,-1.4527,0.2357
445241.0,-37.9433,8.2456,71.012,1.7198,-1.5809,0.7375
445251.0,-36.7462,6.608,69.7958,0.0394,-1.5639,0.9695
445261.0,-35.9034,3.1412,77.1412,-0.4848,-1.5772,1.1552
445271.0,-37.3017,1.1684,78.4508,-0.1628,-1.8294,1.3931
445281.0,-39.715,1.6951,78.4508,1.1095,-2.7505,1.7331
445291.0,-40.1364,-1.3982,78.4508,0.7577,-4.0776,1.8502
445301.0,-42.138,-2.7677,78.4508,1.2515,-5.8213,1.8454
445311.0,-43.9767,-5.2481,78.4508,1.3069,-7.5858,1.7129
445321.0,-44.331,-4.9321,78.4508,1.5543,-9.2157,1.3995
445331.0,-46.0644,-3.8786,78.4508,1.3729,-10.7402,1.0951
445341.0,-45.9495,-0.6991,78.4508,1.1595,-12.1189,0.8445
445351.0,-46.2081,2.6049,74.9672,0.1277,-13.4268,0.6875
445361.0,-46.7348,3.5626,72.3815,-0.8141,-14.6134,0.6465
445371.0,-47.003,2.4229,69.8149,-1.3771,-15.9607,0.531
445381.0,-48.4203,1.7334,66.0991,-1.649,-17.0957,0.4087
445391.0,-47.6446,-0.0287,64.4902,-0.8998,-17.4363,0.3868
445401.0,-46.7348,0.2203,59.4337,-0.1373,-17.4363,0.299
445411.0,-47.2807,0.316,57.3555,0.7056,-17.4363,0.3688
445421.0,-46.0932,-1.3503,54.243,1.6224,-17.4363,0.3437
445431.0,-43.6894,-0.1245,51.2742,2.4365,-17.4363,0.24
445441.0,-45.6143,3.304,48.8896,2.8037,-17.4363,0.3868
445451.0,-44.2832,4.6256,43.3734,2.6967,-17.4363,0.6428
445461.0,-40.1172,5.6312,31.3928,1.5697,-17.4363,0.7673
445471.0,-37.5028,4.5298,25.5318,0.588,-17.4363,0.9003
445481.0,-33.8444,1.7813,21.385,0.5561,-17.4363,0.9514
445491.0,-27.9451,-0.68,18.6269,0.7721,-17.4363,0.8237
445501.0,-24.0761,-0.8619,16.9222,1.1142,-17.4363,0.6178
445511.0,-22.6204,-0.7183,17.5926,1.1808,-17.4363,0.4379
445521.0,-20.3699,-0.1915,16.2806,1.2036,-17.4363,0.249
445531.0,-17.1425,2.1739,11.971,-0.016,-17.4363,0.0128
445541.0,-14.1449,2.2889,11.8178,-1.0935,-17.4363,-0.158
445551.0,-10.1227,2.4229,10.3046,-1.4149,-17.4363,-0.3134
445561.0,-7.3646,3.5913,7.1922,-1.9624,-17.4363,-0.4736
445571.0,-5.0374,4.8171,5.1044,-2.6526,-17.4363,-0.5295
445581.0,-3.8499,5.2768,4.9129,-3.2608,-17.1713,-0.5167
445591.0,-1.0439,5.114,3.1412,-3.4188,-16.6243,-0.4502
445601.0,1.2163,4.6831,2.2793,-3.4194,-16.024,-0.3336
445611.0,4.0606,4.0797,1.1779,-3.0203,-15.3147,-0.2022
445621.0,6.675,3.1603,-0.3926,-2.4312,-14.3846,-0.0942
445631.0,8.5425,1.9537,-2.0877,-1.7549,-13.4944,-0.0234
445641.0,9.8067,1.9537,-5.2864,-1.3484,-12.5914,-0.0112
445651.0,12.0955,1.1205,-7.8147,-1.6495,-11.7703,-0.0803
445661.0,16.2614,0.5842,-10.8601,-1.9209,-10.5922,-0.2879
445671.0,17.0563,1.2067,-11.7316,-2.0779,-9.2955,-0.5353
445681.0,18.1385,2.3463,-12.1338,-2.2865,-8.0115,-0.6822
445691.0,18.7801,3.6679,-12.536,-2.6856,-6.8478,-0.7657
445701.0,18.9525,5.2098,-12.0285,-3.2187,-5.9043,-0.7913
445711.0,19.0483,6.4452,-11.3389,-3.8881,-5.2551,-0.7066
445721.0,19.7474,6.6942,-9.8737,-3.8775,-4.5772,-0.5146
445731.0,20.7338,6.8378,-10.6111,-3.6099,-3.7072,-0.2964
445741.0,20.9541,6.3877,-11.3389,-3.363,-2.8287,-0.0713
445751.0,20.4752,6.2345,-11.0995,-3.099,-2.0816,0.1362
445761.0,20.8487,5.4205,-10.343,-2.8548,-1.5245,0.3012
445771.0,20.4082,5.9855,-13.7906,-2.3275,-0.7524,0.5215
445781.0,19.1153,5.7844,-15.9358,-2.2721,0.1618,0.7907
445791.0,21.0498,4.0797,-17.516,-1.9092,1.7049,0.9722
445801.0,18.4928,3.4477,-19.9198,-2.1465,2.858,1.0924
445811.0,18.4449,2.2601,-19.4218,-1.5942,4.632,1.1456
445821.0,15.9454,2.1452,-20.7242,-2.0662,6.4034,1.1531
445831.0,14.4322,0.6033,-18.4258,-1.9976,8.0482,1.1174
445841.0,11.8465,0.9194,-17.8607,-2.3887,9.3748,0.9855
445851.0,9.2416,1.4557,-16.587,-2.9256,10.5406,0.9456
445861.0,7.0198,1.3312,-14.9302,-2.9192,11.8635,0.9599
445871.0,4.2234,1.063,-13.1202,-2.2264,13.3161,0.9307
445881.0,1.4557,2.1356,-12.3445,-1.2872,14.7369,0.9488
445891.0,-1.0726,3.2944,-13.2543,-0.2831,16.4673,1.1004
445901.0,-4.7597,5.0182,-14.8057,0.0947,17.4357,1.2781
445911.0,-8.1116,5.9855,-15.4187,-0.0968,17.4357,1.6352
445921.0,-14.1066,7.0677,-18.4354,-1.2084,17.4357,2.1173
445931.0,-19.6133,5.3343,-17.0276,-2.9282,17.4357,2.7116
445941.0,-25.5701,3.1699,-15.591,-3.9669,17.4357,3.4071
445951.0,-33.6816,-0.1724,-10.9176,-4.3085,17.4357,4.1021
445961.0,-38.8818,-3.0742,-4.0893,-2.3227,17.4357,4.764
445971.0,-47.0413,-2.3176,5.296,1.4681,17.4357,5.3839
445981.0,-55.8902,-0.9481,16.6158,7.8343,17.4357,5.9134
445991.0,-69.9298,7.106,18.512,13.355,17.4357,6.2949
446001.0,-78.4532,7.4412,29.0848,17.4357,17.4357,7.1319
446011.0,-78.4532,-1.0151,40.4333,17.4357,17.4357,6.8238
446021.0,-78.4532,-9.2608,58.9548,17.4357,17.4357,4.4426
446031.0,-78.4532,-4.1563,78.4508,17.0473,17.4357,1.1792
446041.0,-78.4532,2.5857,78.4508,8.6548,17.4357,-1.4984
446051.0,-78.4532,6.1292,78.4508,4.4825,17.4357,-3.2379
446061.0,-78.4532,17.6213,78.4508,0.0112,17.4357,-4.3165
446071.0,-78.4532,26.2596,78.4508,-2.3088,11.0025,-4.1005
446081.0,-75.6089,29.8892,78.4508,-4.6054,4.4,-3.1847
446091.0,-67.2675,22.2565,78.4508,-4.4916,0.4337,-2.2131
446101.0,-78.4532,36.3823,78.4508,-6.396,-3.944,-1.8975
446111.0,-42.5498,5.3343,78.4508,-2.2524,-2.8489,-1.1499
446121.0,-49.4163,12.2775,67.957,-5.4254,-2.4232,-1.3037
446131.0,-43.9671,5.9759,73.004,-1.8619,-2.3456,-0.8642
446141.0,-41.2473,7.7381,65.1797,-1.6394,-0.8657,-0.6806
446151.0,-38.3168,9.0405,66.0608,1.4165,0.1171,-0.2304
446161.0,-36.2674,11.5305,66.5684,1.8406,0.5284,0.1591
446171.0,-34.5723,12.8042,68.206,2.6393,0.4959,0.6194
446181.0,-33.4231,13.3692,72.1421,1.9922,-0.3342,0.9365
446191.0,-32.9825,13.9055,72.506,1.2169,-1.5139,1.1983
446201.0,-33.9402,10.5249,77.0741,0.2049,-3.3092,1.359
446211.0,-33.0208,12.0285,69.9777,-0.7891,-4.4304,1.358
446221.0,-36.344,9.347,71.2802,-1.7773,-5.9261,1.3888
446231.0,-35.6832,7.1156,66.5013,-2.3711,-6.7727,1.3308
446241.0,-35.6928,4.6448,66.5588,-2.3386,-6.9648,1.143
446251.0,-36.162,5.612,67.4111,-2.2109,-7.1723,0.9738
446261.0,-37.8571,6.6655,71.7686,-1.6458,-7.7502,0.9668
446271.0,-39.0925,7.7859,75.4078,-0.8998,-8.7006,1.1664
446281.0,-39.8299,7.4699,78.4508,0.4981,-9.6967,1.5022
446291.0,-41.889,8.7436,78.4508,1.7193,-11.0924,1.8496
446301.0,-43.2872,9.8067,78.4508,2.5791,-12.9362,2.2269
446311.0,-42.9041,11.5784,73.9713,2.5105,-14.8028,2.5579
446321.0,-42.6168,11.1474,67.3537,1.9965,-16.3928,2.8692
446331.0,-40.1939,9.8067,59.7018,1.1137,-17.4363,2.9692
446341.0,-38.6424,8.351,52.8352,0.1389,-17.4363,2.9192
446351.0,-36.1333,6.8283,46.4475,-0.4938,-17.4363,2.8303
446361.0,-33.7966,5.363,40.5865,-1.2207,-17.4363,2.6228
446371.0,-31.4119,4.1276,36.8516,-1.6932,-17.4363,2.3887
446381.0,-28.5293,2.3272,35.6544,-1.4394,-17.4363,2.2024
446391.0,-25.4264,0.7566,34.5627,-0.8024,-17.4363,1.9757
446401.0,-21.136,0.929,33.0496,0.0846,-17.2277,1.7703
446411.0,-19.3643,1.0056,32.4845,0.7423,-16.8765,1.674
446421.0,-14.8632,0.5842,29.7073,1.4771,-16.5083,1.5538
446431.0,-11.6933,1.5993,26.4128,1.5229,-15.9416,1.3915
446441.0,-10.4387,2.308,24.4975,1.3,-15.6143,1.2292
446451.0,-7.5944,3.553,21.6436,0.6694,-15.253,1.0536
446461.0,-5.1236,3.7733,20.0347,0.0458,-14.6783,0.8934
446471.0,-3.62,3.9648,17.3053,-0.6412,-14.1334,0.6928
446481.0,-1.4653,4.5969,17.0467,-1.3957,-13.3576,0.439
446491.0,-0.6416,4.7214,20.1017,-1.533,-12.6786,0.3086
446501.0,0.5459,5.3917,19.8719,-0.9429,-12.1024,0.2778
