time_ms,ax,ay,az,gx,gy,gz
396691.0,1.245,2.1356,20.4561,-0.3576,-15.966,1.0951
396701.0,3.3136,1.9632,16.6828,-0.5177,-15.3695,0.9514
396711.0,4.1276,1.6855,14.6142,-0.886,-15.0109,0.8067
396721.0,6.4835,1.1301,12.3253,-1.1898,-14.6246,0.6391
396731.0,8.3414,0.6129,9.3087,-1.4686,-13.9557,0.4294
396741.0,9.663,0.182,7.4986,-1.5974,-13.3055,0.1511
396751.0,11.2815,0.2586,6.0908,-1.5453,-12.4988,-0.125
396761.0,12.5839,0.9194,4.9416,-1.3266,-11.7049,-0.3358
396771.0,13.8385,1.4269,3.3232,-1.0009,-10.8977,-0.4778
396781.0,15.6485,1.9441,1.0534,-0.7833,-9.8877,-0.5811
396791.0,16.3859,2.4708,-0.1628,-0.5358,-8.8671,-0.671
396801.0,17.2287,3.7733,-1.3599,-0.4757,-7.9386,-0.7476
396811.0,18.0044,4.7405,-2.1452,-0.4986,-6.9473,-0.7269
396821.0,18.0236,5.9472,-2.9497,-0.5848,-6.0288,-0.6455
396831.0,18.5599,6.3398,-3.5434,-0.8514,-5.3366,-0.5146
396841.0,19.4313,5.794,-4.1563,-1.2568,-4.4517,-0.4065
396851.0,19.3835,5.1811,-4.118,-1.5362,-3.5189,-0.3826
396861.0,19.7474,4.4053,-3.2753,-1.6251,-2.7037,-0.4182
396871.0,19.7953,3.8595,-2.6815,-1.4133,-1.814,-0.448
396881.0,20.0059,3.5817,-2.0399,-1.0068,-0.9615,-0.4848
396891.0,20.2741,4.3191,-2.4612,-0.6029,-0.1027,-0.5273
396901.0,20.0251,4.6543,-3.5243,-0.3246,0.6524,-0.5475
396911.0,20.4465,5.4684,-6.0047,-0.2927,1.6416,-0.5789
396921.0,20.4465,6.5122,-8.3989,-0.6045,2.9639,-0.6039
396931.0,19.6325,7.6998,-7.7093,-0.9232,4.3415,-0.5337
396941.0,18.8759,8.8681,-6.1579,-1.0009,5.7245,-0.2873
396951.0,17.9757,9.0405,-4.0989,-0.8775,7.0542,0.0654
396961.0,16.4242,8.5329,-2.8347,-0.7311,8.1669,0.3821
396971.0,14.8345,7.6902,-0.929,-0.912,9.1156,0.6673
396981.0,13.2256,6.6942,1.2258,-1.2835,9.7882,0.878
396991.0,11.5113,5.6695,3.7254,-1.6985,10.1878,1.035
397001.0,10.8026,3.304,5.0182,-2.1189,10.4124,1.1951
397011.0,10.9654,-0.2777,4.798,-2.1189,10.9514,1.2217
397021.0,11.0804,-3.1891,3.0933,-2.0689,12.3929,1.0153
397031.0,9.9599,-5.4109,4.9608,-1.8784,13.9382,0.6588
397041.0,8.4084,-5.3151,7.5657,-1.4064,15.5435,0.224
397051.0,5.4205,-3.2561,11.6167,-0.8221,16.9228,-0.1032
397061.0,2.5474,-0.3448,15.3899,-0.5938,17.4357,-0.2528
397071.0,-1.4078,3.1795,19.1632,-0.8168,17.4357,-0.2698
397081.0,-5.1523,4.2042,22.63,-1.615,17.4357,0.0319
397091.0,-6.7708,0.814,24.9859,-2.2253,17.4357,0.2708
397101.0,-7.7381,-3.0358,26.3745,-2.5536,17.4357,0.2155
397111.0,-9.8067,-6.1292,29.5636,-2.3706,17.4357,0.0761
397121.0,-11.0133,-9.4236,32.6761,-1.8044,17.4357,-0.1926
397131.0,-13.7619,-9.3853,36.7558,-1.3595,17.4357,-0.7599
397141.0,-18.2342,-7.1443,44.5417,-1.3835,17.4357,-1.202
397151.0,-20.8583,-4.4532,54.7123,-1.3399,17.4357,-1.4266
397161.0,-23.6547,-0.929,65.1893,-1.2409,17.4357,-1.5814
397171.0,-25.005,2.7581,72.8508,-1.4766,17.4357,-1.3021
397181.0,-25.9244,0.8811,78.4508,-0.8445,17.4357,-0.878
397191.0,-23.7505,0.067,78.4508,-0.6646,16.6647,-0.7109
397201.0,-23.7888,-3.7158,78.4508,-0.0564,15.7277,-0.6529
397211.0,-24.3442,-4.5873,78.4508,-0.0357,14.4761,-0.9397
397221.0,-24.9476,-4.4149,78.4508,-0.7519,12.2264,-1.3
397231.0,-24.3251,-4.9704,78.4508,-1.0754,9.9862,-1.5889
397241.0,-21.8351,-3.9456,78.4508,-0.4965,8.2057,-1.8794
397251.0,-20.9732,1.2258,78.4508,0.2091,6.5647,-1.9262
397261.0,-19.1057,6.541,78.4508,1.1148,5.0082,-1.6288
397271.0,-16.9701,12.9287,78.4508,1.1531,3.8227,-1.0562
397281.0,-17.9182,12.6605,78.4508,0.8008,2.5334,-0.3203
397291.0,-16.0507,8.6957,78.4508,0.8743,1.5431,0.2112
397301.0,-14.4418,4.9129,78.4508,1.0834,1.2584,0.3682
397311.0,-15.026,3.7254,78.4508,0.9386,0.5593,0.339
397321.0,-14.5472,4.0318,78.4508,0.4917,-0.3241,0.2389
397331.0,-14.4514,5.7174,78.4508,-0.448,-1.1786,0.1107
397341.0,-16.3955,6.5697,78.4508,-0.6242,-2.1061,0.2373
397351.0,-16.3859,7.7476,78.4508,-0.124,-2.9953,0.4757
397361.0,-16.8648,10.2951,78.4508,0.241,-3.4816,0.8359
397371.0,-17.765,11.1857,78.4508,0.4507,-4.2324,1.3643
397381.0,-17.8512,9.7013,78.4508,0.5954,-5.0471,1.8725
397391.0,-18.7322,7.0868,78.4508,0.588,-6.0778,2.2418
397401.0,-19.0483,3.553,78.4508,0.7035,-7.0335,2.4323
397411.0,-19.077,1.0439,78.4508,0.8535,-8.0094,2.4371
397421.0,-20.1783,-0.4022,78.4508,0.928,-9.4131,2.345
397431.0,-19.6803,-0.4501,78.4436,0.8876,-10.7833,2.1449
397441.0,-19.7282,0.9194,74.8715,0.3916,-11.9491,1.9071
397451.0,-20.7817,1.6759,72.5539,0.0937,-13.3065,1.8193
397461.0,-20.0538,2.5474,68.704,0.0915,-14.3979,1.7342
397471.0,-20.5614,4.1946,64.5764,0.2841,-15.4302,1.8044
397481.0,-20.5422,4.1372,58.6771,0.7923,-16.3524,2.0103
397491.0,-17.8224,4.3574,50.3165,1.1249,-16.5881,2.1396
397501.0,-17.5447,4.9129,44.6567,0.795,-16.5647,2.2482
397511.0,-15.5527,2.5666,41.6304,0.6125,-16.5184,2.3094
397521.0,-13.0532,1.8771,38.6999,0.273,-16.2986,2.1896
397531.0,-12.3828,1.3982,37.838,0.1399,-16.3555,2.1285
397541.0,-10.1323,0.4597,36.095,0.1708,-16.5061,2.0513
397551.0,-9.2703,0.0479,33.7487,0.2187,-16.6541,1.9135
397561.0,-8.1116,-0.1628,29.2093,0.0325,-17.2718,1.8299
397571.0,-5.3917,-1.4078,24.9476,-0.1538,-17.0654,1.6485
397581.0,-3.7924,-2.6432,22.5151,-0.2192,-16.8664,1.375
397591.0,-1.7909,-2.6049,18.397,0.0223,-16.8249,1.1323
397601.0,1.0534,-3.3327,14.4227,0.157,-16.1714,0.9216
397611.0,3.486,-4.0223,10.8026,0.3783,-15.5574,0.6114
397621.0,6.0047,-3.8978,7.1156,0.4933,-14.6443,0.2629
397631.0,8.5425,-2.557,4.367,0.2857,-13.4683,-0.041
397641.0,10.2951,-1.7526,3.4381,0.067,-12.568,-0.2698
397651.0,13.5703,-1.0439,0.8906,0.0255,-11.3973,-0.5342
397661.0,15.0739,0.7949,0.0287,-0.1117,-10.0117,-0.7104
397671.0,16.5487,1.2067,1.2163,0.0112,-8.9443,-0.704
397681.0,17.8799,1.6472,0.1341,0.2405,-7.8162,-0.7035
397691.0,19.1728,2.0782,-0.9385,0.2666,-6.6248,-0.7072
397701.0,19.5941,2.059,-0.9577,0.1277,-5.7575,-0.7168
397711.0,21.2126,2.4804,-1.6664,-0.058,-4.6592,-0.7125
397721.0,21.0019,2.5953,-0.3448,-0.5055,-3.7328,-0.771
397731.0,21.6819,2.8826,0.7374,-0.8035,-3.0192,-0.7976
397741.0,21.8926,2.6624,2.4995,-0.8546,-2.4067,-0.7497
397751.0,22.3523,2.4612,2.8539,-0.7556,-1.8597,-0.746
397761.0,22.7353,2.2601,2.4995,-0.5694,-1.1244,-0.8051
397771.0,22.3235,2.8826,2.6432,-0.5896,-0.5135,-0.9243
397781.0,21.7872,4.1946,2.9688,-0.7003,-0.1548,-0.9759
397791.0,21.5191,5.6886,2.5283,-0.9126,0.248,-0.9684
397802.0,21.1552,7.0581,1.7526,-1.1307,0.6928,-0.8407
397811.0,21.1264,8.0062,1.5323,-1.2616,1.1829,-0.6566
397821.0,20.7721,8.3797,1.063,-1.3595,1.7405,-0.4135
397831.0,20.5901,8.1307,0.8428,-1.3101,2.3285,-0.1575
397841.0,20.3507,8.0445,-0.2203,-1.1988,3.1453,0.0889
397851.0,20.638,7.2209,-1.312,-1.1414,4.3192,0.3304
397861.0,19.4218,5.8419,-0.4788,-1.2531,5.5537,0.4826
397871.0,18.6173,4.9895,0.9673,-1.3904,6.6168,0.5577
397881.0,17.1138,3.7254,3.6583,-1.5484,7.49,0.589
397891.0,16.204,3.1316,5.7844,-1.6123,8.1839,0.5906
397901.0,15.3133,2.4229,8.8777,-1.6096,8.8522,0.5566
397911.0,13.2735,2.6815,11.8944,-1.673,9.1731,0.5241
397921.0,11.8465,2.1644,14.2694,-1.6416,9.0236,0.5624
397931.0,11.4539,1.4365,14.461,-1.293,8.9342,0.5529
397941.0,9.9599,0.9002,12.9861,-0.9599,9.0081,0.5295
397951.0,9.9695,-0.3735,7.7189,-0.8599,9.3854,0.4076
397961.0,9.0597,-0.5938,2.4325,-0.9929,10.7646,0.1458
397971.0,7.8051,-0.5363,0.2011,-1.359,12.51,-0.1261
397981.0,6.9049,1.3503,-1.7717,-1.9364,14.8837,-0.3868
397991.0,2.308,4.2713,2.8922,-2.6893,17.1942,-0.3725
398001.0,-1.3599,5.5545,8.5617,-2.8181,17.4357,-0.0106
398011.0,-3.122,6.5601,11.4539,-2.386,17.4357,0.4656
398021.0,-8.9447,6.9815,19.2111,-1.6565,17.4357,1.0467
398031.0,-14.2024,6.0717,26.3649,-0.7231,17.4357,1.7671
398041.0,-17.6596,-0.7566,34.4478,0.3895,17.4357,2.3567
398051.0,-20.5327,-10.1418,43.3446,1.6996,17.4357,2.0875
398061.0,-23.6356,-15.6677,53.8983,2.8809,17.4357,1.1754
398071.0,-23.6739,-18.4449,63.2261,3.0873,17.4357,-0.0149
398081.0,-24.9476,-16.8169,70.6385,3.1932,17.4357,-1.4686
398091.0,-27.4567,-10.1323,77.6104,1.906,17.4357,-2.5791
398101.0,-26.7384,-3.62,78.4508,1.3595,17.4357,-3.1842
398111.0,-26.5852,4.5107,78.4508,0.6162,15.6473,-3.3614
398121.0,-26.432,11.3294,78.4508,0.4284,13.4507,-2.8841
398131.0,-25.6084,13.8193,78.4508,0.2097,11.8762,-2.1465
398141.0,-24.124,11.8752,78.4508,-0.2815,10.1298,-1.558
398151.0,-24.6507,9.6247,75.5035,-1.3505,8.1355,-1.2169
398161.0,-23.377,4.6926,70.7726,-2.2338,6.6072,-1.0472
398171.0,-20.5614,1.7526,64.7967,-2.842,6.4258,-1.1706
398181.0,-21.5287,-0.1532,67.0855,-3.1804,6.7046,-1.4303
398191.0,-21.1169,1.1779,70.6194,-2.9043,6.231,-1.5171
398201.0,-20.6667,3.8882,73.0998,-2.5967,5.833,-1.4548
398211.0,-20.9924,6.9049,78.118,-2.0657,5.27,-1.1403
398221.0,-20.887,9.165,78.4508,-1.2712,4.3032,-0.5454
398231.0,-20.7529,8.6957,78.4508,-0.5582,3.2587,0.1096
398241.0,-21.1552,5.6312,78.4508,-0.1133,2.0774,0.6449
398251.0,-19.6708,0.5746,78.4508,0.6093,1.0882,0.903
398261.0,-19.0195,-2.6145,78.4508,0.8269,0.3539,0.7774
398271.0,-18.148,-4.5969,78.4508,0.4406,-0.34,0.4188
398281.0,-18.2342,-4.1659,78.4508,0.0043,-1.0536,-0.0532
398291.0,-19.0866,-1.5227,78.4508,-0.1708,-2.0715,-0.381
398301.0,-20.3411,2.2984,78.4508,-0.5646,-3.2858,-0.5071
398311.0,-20.9732,6.0621,78.4508,-0.8099,-4.4873,-0.4321
398321.0,-21.385,8.8298,78.4508,-0.8556,-5.352,-0.0974
398331.0,-22.0554,10.4866,78.4508,-0.4848,-6.106,0.4358
398341.0,-21.8734,10.1035,78.2904,-0.2033,-6.9249,0.945
398351.0,-22.4768,9.232,77.304,-0.1841,-7.9317,1.3968
398361.0,-21.2509,6.7708,75.2354,-0.1064,-8.9288,1.7331
398371.0,-20.9253,4.8267,72.2379,-0.34,-9.8207,1.9241
398381.0,-20.0443,1.3599,69.8149,-0.1564,-10.6731,2.0263
398391.0,-18.8663,-0.929,65.2755,-0.1804,-11.168,1.8853
398401.0,-18.4354,-1.7526,62.91,-0.2517,-11.6384,1.6309
398411.0,-17.9374,-1.5706,60.1615,-0.3017,-12.1162,1.4117
398421.0,-17.4777,-0.8332,58.476,0.1479,-12.4897,1.3122
398431.0,-16.5966,0.0287,54.8943,0.8237,-12.8037,1.3079
398441.0,-16.1848,1.063,50.6805,1.342,-12.8516,1.3622
398451.0,-14.5184,2.3176,45.8921,1.6256,-12.8202,1.4585
398461.0,-12.7946,3.3423,42.6072,1.2659,-12.4876,1.5171
398471.0,-13.0053,2.6911,42.7317,0.9509,-12.5222,1.5915
398481.0,-11.904,1.9537,41.5633,0.8567,-12.734,1.5915
398491.0,-10.6207,1.1109,39.8395,0.9546,-12.6904,1.5894
398501.0,-9.5672,-0.0096,38.8627,1.193,-12.9378,1.5059
398511.0,-7.2784,0.1532,35.4916,0.9413,-12.6473,1.4207
398521.0,-7.5178,-1.2737,34.917,0.6721,-13.0203,1.3207
398531.0,-5.6024,-3.1795,33.2315,0.9445,-13.356,1.0903
398541.0,-2.9497,-2.5953,28.4527,0.8163,-13.0809,0.762
398551.0,-2.9688,-2.2601,26.9396,0.5348,-13.1804,0.4395
398561.0,-1.8579,-1.6089,24.3538,0.3757,-13.2597,0.2001
398571.0,1.0918,-0.6321,20.5997,0.3704,-12.8213,-0.0069
398581.0,0.9577,0.0575,18.9908,0.2698,-12.5398,-0.1485
398591.0,2.6145,0.2586,16.4817,0.4395,-12.246,-0.2458
398601.0,5.114,0.996,13.3692,0.5667,-11.5208,-0.315
398611.0,5.861,1.312,11.406,0.7088,-10.8758,-0.3762
398621.0,7.9487,1.6376,9.1842,0.6348,-10.1649,-0.4129
398631.0,9.0309,2.4517,8.0732,0.4693,-9.3024,-0.4395
398641.0,9.6822,2.557,7.9487,0.3709,-8.7144,-0.4023
398651.0,11.8178,2.6911,6.4931,0.2059,-7.9679,-0.39
398661.0,12.6605,2.0494,6.7995,0.0106,-7.2585,-0.4406
398671.0,13.465,1.5323,7.0294,-0.1586,-6.8121,-0.5103
398681.0,14.7483,1.5323,6.1292,-0.3288,-6.3013,-0.5864
398691.0,15.3325,1.5419,5.4396,-0.6008,-5.9192,-0.6726
398701.0,16.4338,1.7047,3.62,-1.0775,-5.5904,-0.7897
398711.0,17.1425,1.4557,2.3559,-1.6006,-5.1663,-0.9078
398721.0,17.3053,1.3695,2.241,-2.2008,-4.7853,-1.0802
398731.0,17.3628,1.1684,2.3367,-2.5297,-4.4751,-1.2308
398741.0,16.9893,0.8811,1.8675,-2.6845,-4.2659,-1.4128
398751.0,16.7211,0.929,1.1396,-2.5254,-3.8594,-1.6155
398761.0,16.6924,1.6664,0.4118,-1.9763,-3.1964,-1.7384
398771.0,17.4968,2.3272,-0.0192,-0.8764,-2.2115,-1.7698
398781.0,16.5966,4.5969,-2.5474,0.0639,-1.1063,-1.7629
398791.0,16.3476,6.9145,-5.1044,0.3118,-0.041,-1.5905
398801.0,17.2095,8.7915,-7.7381,0.0309,1.2537,-1.3862
398811.0,16.3093,10.1227,-8.1594,-0.6465,2.6042,-1.144
398821.0,16.4913,10.5441,-7.0102,-1.2547,4.0153,-0.8173
398831.0,15.1409,11.0708,-5.43,-1.6703,5.4531,-0.4177
398841.0,14.1449,9.7779,-2.3272,-2.0273,6.7211,0.0032
398851.0,13.1777,8.3797,-0.0862,-2.3934,7.7582,0.29
398861.0,11.7412,6.7612,4.8554,-2.9724,8.4872,0.4119
398871.0,9.7779,5.8035,9.9216,-3.2331,8.7304,0.5401
398881.0,7.7668,5.1523,13.9247,-3.1421,8.418,0.7125
398891.0,6.7325,4.8171,14.3844,-2.8026,8.1977,0.9073
398901.0,5.5929,3.9073,11.8944,-2.6494,8.186,1.1866
398911.0,6.7421,1.2929,7.355,-2.676,8.8368,1.2781
398921.0,5.8514,-0.7661,4.0893,-3.0639,10.5082,1.1919
398931.0,7.0773,-3.3423,6.857,-2.9016,12.8165,0.9759
398941.0,4.6448,-1.7813,12.2296,-3.0096,14.6012,0.7029
398951.0,1.0918,0.4501,21.7394,-2.8713,15.6617,0.7795
398961.0,-0.7853,1.6855,29.5732,-2.6132,15.8883,1.2201
398971.0,-2.4229,1.4557,34.0647,-2.2413,15.7314,1.6836
398981.0,-5.2289,-0.747,36.5355,-2.4504,15.2865,2.1263
398991.0,-3.0837,-7.6806,38.221,-2.0013,15.6516,2.3562
399001.0,-4.4149,-13.3692,40.7972,-1.0711,16.9276,1.9321
399011.0,-6.7708,-13.3692,45.9878,-0.2953,17.4357,1.2739
399021.0,-8.8011,-9.2225,49.7324,-0.7466,17.4357,0.8093
399031.0,-10.9463,-8.6,56.3499,-1.4074,17.3368,0.4736
399041.0,-11.2911,-6.608,60.4392,-2.6191,16.9324,0.1548
399051.0,-13.6182,-7.355,69.5372,-3.0591,16.0246,0.0628
399061.0,-13.7523,-7.2401,71.3759,-2.601,15.1753,0.0575
399071.0,-12.7276,-7.0773,74.5267,-0.945,15.4605,0.0883
399081.0,-15.2654,-5.114,77.1508,0.0245,15.7787,0.1341
399091.0,-16.0507,-4.0797,78.4508,1.0429,15.1732,0.2293
399101.0,-16.8648,-3.6009,78.4508,1.1079,14.6874,0.2155
399111.0,-17.3244,-5.3056,78.4508,1.5846,13.7498,0.1607
399121.0,-16.2997,-5.6216,78.4508,1.864,12.9128,-0.0883
399131.0,-17.583,-5.2002,78.4508,2.1231,11.4213,-0.3097
399141.0,-17.8033,-3.1125,78.4508,2.3035,9.1092,-0.473
399151.0,-17.2766,-1.743,78.4508,2.1375,6.9414,-0.6822
399161.0,-16.5966,2.3367,78.4508,1.3734,4.7965,-0.7301
399171.0,-17.0467,4.1084,78.4508,0.8689,2.3418,-0.5635
399181.0,-16.5296,5.43,78.4508,0.4305,0.2533,-0.3613
399191.0,-15.9071,5.7461,78.4508,0.2059,-1.2297,-0.0676
399201.0,-16.7881,5.3726,78.4508,0.2543,-2.9479,0.2293
399211.0,-16.0124,5.8419,78.4508,0.3916,-4.3841,0.5172
399221.0,-15.4857,6.3686,78.4508,0.3778,-5.1184,0.8056
399231.0,-15.2846,6.4835,78.4508,0.4315,-5.7607,1.1036
399241.0,-14.8632,6.3398,78.4508,0.4129,-6.5583,1.4112
399251.0,-14.959,5.0374,77.0454,0.4459,-7.4166,1.7123
399261.0,-13.714,2.6624,73.0327,0.571,-8.194,1.9284
399271.0,-12.9574,1.1779,69.1733,0.4225,-8.7054,1.9332
399281.0,-12.536,-0.316,67.143,0.1916,-9.3173,1.8874
399291.0,-12.1338,-1.1779,64.8637,0.1431,-9.9101,1.7485
399301.0,-11.7316,-0.9194,62.2397,0.2091,-10.4704,1.6676
399311.0,-11.904,-2.1931,60.4392,0.5688,-11.0073,1.6692
399321.0,-10.0269,-3.7254,56.0531,1.094,-11.2834,1.5644
399331.0,-9.1842,-3.8786,51.935,1.2308,-11.2244,1.3127
399341.0,-8.983,-3.4189,50.1154,1.4825,-11.2723,1.1121
399351.0,-8.0445,-2.9113,49.3493,1.9161,-11.1339,0.9668
399361.0,-7.4603,-1.8387,47.1754,2.303,-10.9785,0.878
399371.0,-7.3741,-1.1492,46.4762,2.5584,-11.0222,0.8407
399381.0,-7.5657,0.0575,44.9727,2.6946,-11.1515,0.8296
399391.0,-6.4835,-0.0862,43.1531,2.6536,-11.2792,0.8551
399401.0,-5.1332,0.2873,41.889,2.4669,-11.301,0.771
399411.0,-6.0813,1.1301,42.3199,1.9672,-11.8097,0.7226
399421.0,-4.8937,1.245,40.2992,1.7799,-12.3546,0.7029
399431.0,-4.5681,0.4501,38.6903,1.5809,-12.5281,0.6726
399441.0,-2.5953,0.2969,34.6872,1.6198,-12.8952,0.6194
399451.0,-1.0918,0.1532,31.364,1.3601,-12.659,0.5066
399461.0,-0.3926,-0.4214,31.9099,1.4255,-12.4881,0.3544
399471.0,1.1396,0.9098,29.2955,1.724,-12.427,0.2735
399481.0,1.9728,2.1261,26.9204,1.7725,-12.1157,0.2586
399491.0,2.9113,2.5283,25.1104,1.666,-12.071,0.2794
399501.0,5.0087,2.7869,21.3754,1.4665,-11.8911,0.2506
399511.0,6.7516,2.5953,18.9525,0.8482,-11.4681,0.1948
399521.0,8.4659,2.3942,17.6884,0.3304,-11.1015,0.0644
399531.0,10.1035,2.6624,16.3668,-0.0782,-10.6098,-0.0633
399541.0,10.8218,2.9018,15.3229,-0.3597,-10.0702,-0.1703
399551.0,11.8561,2.9018,15.3612,-0.5273,-9.5365,-0.2831
399561.0,13.2926,3.2561,14.6908,-0.306,-8.9278,-0.3539
399571.0,14.1066,4.6448,13.8768,-0.2086,-8.2759,-0.3704
399581.0,14.5472,5.1906,13.7044,-0.1474,-7.8343,-0.2783
399591.0,15.4474,5.1044,13.0053,-0.2049,-7.4756,-0.1905
399601.0,15.8783,4.9991,11.4922,-0.3443,-7.1745,-0.2033
399611.0,16.1273,5.2289,10.3046,-0.8647,-6.9377,-0.2075
399621.0,16.8839,5.0087,9.0309,-1.434,-6.7972,-0.2272
399631.0,17.7746,4.6352,7.0773,-2.0582,-6.5716,-0.3022
399641.0,17.7937,4.7214,5.1044,-2.9186,-6.2816,-0.4236
399651.0,17.5543,5.2002,4.2042,-3.9078,-6.1549,-0.5837
399661.0,16.7403,5.1427,5.1811,-4.3841,-6.0512,-0.663
399671.0,16.7307,4.8076,4.6448,-4.2766,-5.9788,-0.6577
399681.0,16.5487,4.3096,2.9975,-3.7764,-5.766,-0.6598
399691.0,16.6828,4.6448,-0.3639,-3.3002,-5.3717,-0.7024
399701.0,17.1712,4.8459,-2.988,-2.7675,-4.8449,-0.7338
399711.0,17.6117,5.8419,-7.9104,-2.5339,-4.0206,-0.7093
399721.0,19.0291,6.7516,-11.2623,-2.6393,-2.908,-0.6619
399731.0,18.4258,7.7859,-13.7427,-2.7489,-1.524,-0.5342
399741.0,18.646,8.6383,-15.7634,-3.1262,-0.0154,-0.3054
399751.0,18.2438,9.0022,-16.5391,-3.256,1.7549,0.025
399761.0,17.8991,8.4659,-16.5966,-3.1916,3.6146,0.4188
399771.0,17.0276,7.604,-16.022,-2.999,5.6755,0.7583
399781.0,16.7881,7.5944,-16.769,-3.074,7.5172,1.0578
399791.0,14.5089,6.1387,-14.0013,-3.007,9.5786,1.3446
399801.0,13.5512,5.3247,-10.6877,-2.9282,11.3404,1.6607
399811.0,12.2583,3.1125,-6.3015,-2.2535,12.8862,2.0082
399821.0,11.157,0.4214,-3.8403,-1.3734,14.6134,2.2977
399831.0,10.41,-3.1412,-2.3559,-0.5119,16.5769,2.2902
399841.0,7.9966,-6.3207,0.9768,0.1799,17.4357,1.9161
399851.0,5.5162,-7.2975,5.2672,0.5821,17.4357,1.268
399861.0,0.9002,-6.9432,13.6469,0.9615,17.4357,0.5263
399871.0,-4.2138,-3.6871,24.0569,1.1089,17.4357,-0.0394
399881.0,-7.106,1.3982,34.9937,1.0238,17.4357,-0.1932
399891.0,-10.3238,4.5873,47.0604,0.713,17.4357,0.1091
399901.0,-10.8793,2.9497,55.0666,1.2686,17.4357,0.5699
399911.0,-7.5465,-0.4597,51.3891,2.2354,16.5492,0.7364
399921.0,-6.8187,-1.9154,46.505,3.2938,16.4412,0.5406
399931.0,-7.2592,0.3639,41.9847,3.9983,16.5455,0.273
399941.0,-7.6806,4.9704,39.0446,4.4916,17.4357,0.2352
399951.0,-10.6877,5.9855,39.8108,4.1781,17.4357,0.3794
399961.0,-9.8928,5.3534,37.3017,2.3769,17.4357,0.1639
399971.0,-14.3556,7.2305,40.0981,-1.2712,17.4357,-0.2075
399981.0,-18.8663,8.8777,47.3477,-4.8268,17.1234,-0.132
399991.0,-20.4561,5.7748,53.1704,-7.1894,16.6482,0.3847
400001.0,-20.7338,-2.4421,60.0274,-7.6693,16.6173,0.6731
400011.0,-21.4712,-7.604,68.6561,-7.0377,16.438,0.605
400021.0,-21.9883,-10.0844,78.1467,-5.0125,16.2704,0.5906
400031.0,-22.9077,-11.904,78.4508,-1.9731,15.2216,0.5369
400041.0,-21.4616,-11.3389,78.4508,0.9115,14.4724,0.2719
400051.0,-20.7817,-9.5768,78.4508,2.684,13.7743,-0.1
400061.0,-21.6149,-6.4931,78.4508,3.2746,12.5531,-0.5231
400071.0,-21.6723,-4.4053,78.4508,2.419,10.8136,-0.9504
400081.0,-20.9732,-3.1412,78.4508,0.3746,9.6504,-1.5623
400091.0,-22.0267,-0.2777,78.4508,-1.8736,8.6431,-2.0545
400101.0,-24.0474,0.2969,78.4508,-2.8378,7.3405,-2.1567
400111.0,-23.9229,0.3256,78.4508,-2.1279,6.1539,-2.0156
400121.0,-23.3483,0.2203,78.4508,-0.332,5.5803,-1.7927
400131.0,-22.9077,2.7581,78.4508,1.4793,5.2892,-1.5389
400141.0,-24.0282,5.7365,78.4508,2.7015,4.6688,-1.1414
400151.0,-24.5549,8.5712,78.4508,2.9569,3.4082,-0.7157
400161.0,-26.183,10.1801,78.4508,1.964,1.566,-0.3017
400171.0,-26.1447,9.5672,78.4508,0.8072,-0.7327,0.0404
400181.0,-26.7672,9.1842,78.4508,-0.7295,-2.9649,0.2815
400191.0,-27.4471,6.8474,78.4508,-1.5394,-5.1668,0.5342
400201.0,-27.2269,5.3822,78.4508,-2.1769,-7.0234,0.6816
400211.0,-28.0984,2.8252,78.4508,-2.2301,-8.7256,0.7992
400221.0,-27.0066,1.9058,78.4508,-2.0853,-9.9053,0.8242
400231.0,-26.7863,1.0056,78.4508,-1.5697,-10.763,0.9142
400241.0,-25.8478,-1.4078,78.4508,-0.4198,-11.3281,1.0717
400251.0,-25.4552,-2.5857,75.7621,0.8184,-11.7719,1.0701
400261.0,-25.503,-2.1835,72.1804,1.4484,-12.4286,1.002
400271.0,-24.9667,-1.4557,69.1541,1.5548,-13.1442,0.9115
400281.0,-24.7944,-0.0287,66.4439,1.1978,-13.9041,0.7748
400291.0,-25.3785,0.8619,66.2619,0.7508,-14.8433,0.7593
400301.0,-25.5797,0.1245,65.5915,0.7045,-15.966,0.8375
400311.0,-24.3634,-0.2777,61.8662,0.8216,-16.8765,0.803
400321.0,-24.9572,-0.3735,59.0602,0.8269,-17.4363,0.7513
400331.0,-23.2525,-1.1588,53.2279,1.2164,-17.4363,0.7737
400341.0,-20.4273,-1.1492,46.8402,1.5846,-17.4363,0.6949
400351.0,-19.6899,-0.5555,41.5442,1.7969,-17.4363,0.6588
400361.0,-16.5583,-0.6512,36.2961,1.7826,-17.4363,0.5917
400371.0,-14.9398,0.0383,31.9578,1.549,-17.4363,0.5023
400381.0,-12.9766,0.7183,27.8972,1.1706,-17.4363,0.4401
400391.0,-9.6343,-0.1724,24.7752,0.7343,-17.4363,0.3182
400401.0,-7.0677,0.7853,22.0075,0.0064,-17.1388,0.132
400411.0,-6.9719,0.6608,23.0897,-0.5369,-16.9121,0.0782
400421.0,-5.1427,-1.8196,23.7026,-0.3012,-16.9643,-0.0037
400431.0,-1.7813,-2.3846,19.0962,0.6226,-16.4173,-0.1463
400441.0,-1.5514,-3.5147,17.4872,1.2568,-15.9554,-0.2826
400451.0,1.9345,-3.9456,12.718,1.8118,-15.4254,-0.5593
400461.0,4.2521,-2.1548,8.5617,1.7751,-14.4176,-0.9216
400471.0,4.7884,0.4405,7.6902,1.2079,-13.7285,-1.1382
400481.0,5.8802,1.5036,8.2935,0.8822,-13.4209,-1.1988
400491.0,7.3167,2.3176,6.1387,0.6534,-13.0634,-1.1898
400501.0,8.5329,3.1795,4.2904,0.2171,-12.6345,-1.2308
400511.0,9.9982,3.5434,2.1452,-0.1149,-12.0188,-1.2547
400521.0,10.8601,4.7788,0.565,-0.6513,-11.4995,-1.2425
400531.0,12.2966,4.5107,0.6895,-0.8689,-10.8838,-1.1563
400541.0,13.6278,4.7501,-0.6991,-0.7822,-10.0495,-1.0483
400551.0,14.6334,3.7445,-1.8771,-0.6875,-9.503,-0.9488
400561.0,16.1656,3.3423,-4.5586,-0.6157,-8.7016,-0.9232
400571.0,17.3819,3.371,-6.4643,-0.9802,-7.8503,-0.9828
400581.0,18.0427,3.9552,-7.7093,-1.4457,-7.0601,-1.0711
400591.0,18.828,4.6735,-8.5138,-2.0683,-6.2991,-1.0924
400601.0,18.9525,4.549,-7.9966,-2.378,-5.4616,-1.0983
400611.0,18.8376,5.2289,-8.7819,-2.461,-4.8039,-1.0977
400621.0,19.0578,5.6599,-9.9599,-2.469,-3.9802,-1.0621
400631.0,19.0195,6.3398,-11.1474,-2.4456,-3.0873,-0.9897
400641.0,19.824,6.7421,-11.7603,-2.1817,-2.2152,-0.845
400651.0,20.5135,6.7229,-13.4458,-1.8549,-1.0898,-0.6306
400661.0,21.0594,7.0773,-16.8552,-1.358,0.5912,-0.422
400671.0,21.318,7.6423,-18.0427,-1.2866,2.3466,-0.2719
400681.0,20.4561,7.6231,-18.2821,-0.8221,4.4969,-0.0202
400691.0,21.0786,7.604,-18.7897,-0.8498,6.6296,0.2331
400701.0,19.9006,6.8953,-18.4449,-0.6204,8.9565,0.4358
400711.0,16.9988,6.1004,-14.9111,-0.8306,11.0743,0.555
400721.0,14.212,5.4588,-10.9942,-0.9504,12.6675,0.6151
400731.0,12.0859,5.6407,-7.6614,-1.1387,13.9307,0.629
400741.0,9.3565,6.6176,-4.7788,-1.5075,14.8183,0.6864
400751.0,6.1962,7.0773,-1.3695,-2.1199,15.3871,0.862
400761.0,4.2713,6.9145,1.312,-2.5281,15.7803,1.2111
400771.0,3.2753,5.43,3.2657,-2.4631,16.4327,1.5713
400781.0,1.0151,3.6966,4.3766,-2.2689,17.3426,1.8842
400791.0,-0.8332,0.6129,5.794,-2.1045,17.4357,2.1322
400801.0,-2.7485,-2.49,7.0102,-1.8544,17.4357,2.0566
400811.0,-5.928,-4.3383,8.5712,-1.9193,17.4357,1.6916
400821.0,-8.169,-2.9592,9.6822,-2.776,17.4357,1.1946
400831.0,-11.5688,-0.431,15.773,-3.8919,17.4357,1.0291
400841.0,-15.3133,0.7183,23.0514,-4.3059,17.4357,1.3255
400851.0,-17.334,0.9673,25.5413,-4.3027,17.4357,1.8321
400861.0,-19.6995,-2.873,29.7456,-3.8328,17.4357,2.4887
400871.0,-22.7641,-10.0078,34.4957,-2.4222,17.4357,2.6893
400881.0,-25.0338,-15.026,39.399,-1.4426,17.4357,2.2375
400891.0,-27.4663,-16.0507,49.4546,-0.2192,17.4357,1.5234
400901.0,-31.0384,-14.0779,59.97,0.2586,17.4357,0.8466
400911.0,-31.8333,-9.7779,65.1797,0.1373,17.4357,0.3347
400921.0,-32.9729,-6.79,70.2171,-1.5064,17.4357,-0.0479
400931.0,-33.7487,-4.7597,76.0973,-3.0948,17.4357,-0.3704
400941.0,-35.5204,-0.7566,78.4508,-4.7922,17.4357,-0.4097
400951.0,-37.1772,-2.6145,78.4508,-4.432,15.9586,0.2772
400961.0,-34.6106,-9.5577,78.4508,-2.6552,15.062,0.646
400971.0,-32.7623,-13.4746,78.4508,-1.2079,14.2298,0.3272
400981.0,-32.1206,-10.975,78.4508,0.183,13.0011,0.0702
400991.0,-31.4885,-10.3908,78.4508,1.3643,11.0951,-0.0639
401001.0,-28.5963,-8.1403,78.4508,1.5038,9.6121,-0.4672
401011.0,-28.5676,-5.114,78.4508,0.9472,8.3462,-0.8056
401021.0,-27.8972,-1.5419,78.4508,0.5459,6.8217,-0.8876
401031.0,-27.4567,1.8483,78.4508,0.2857,5.2716,-0.6949
401041.0,-27.6387,2.1069,78.4508,0.2001,4.0377,-0.3576
401051.0,-27.0162,2.4612,78.4508,0.505,2.4669,0.0176
401061.0,-26.9874,1.0439,78.4508,0.8753,0.9791,0.4166
401071.0,-26.4799,-1.8196,78.4508,1.5548,-0.3288,0.6497
401081.0,-27.1119,-2.1931,78.4508,1.8331,-1.574,0.6651
401091.0,-27.6961,-1.4653,78.4508,1.9289,-3.0054,0.6055
401101.0,-28.5293,2.059,78.4508,1.7123,-4.6618,0.6502
401111.0,-29.5061,5.0566,78.4508,1.4175,-6.5535,0.8753
401121.0,-30.0807,7.1922,78.4508,1.0844,-8.4803,1.2324
401131.0,-30.4734,6.426,78.4508,0.7098,-10.1506,1.6543
401141.0,-30.234,4.8171,78.4508,0.5869,-11.6698,1.9449
401151.0,-31.4981,4.0414,78.4508,0.6364,-13.1405,2.2024
401161.0,-31.2779,2.9401,78.4508,0.7939,-14.5245,2.4259
401171.0,-31.3736,1.312,78.4508,1.1196,-15.7165,2.6467
401181.0,-30.3872,0.5076,72.3432,1.4303,-16.877,2.7968
401191.0,-28.9315,-2.4612,66.7791,1.756,-17.4363,2.8814
401201.0,-27.3131,-2.6145,59.5294,1.6213,-17.4363,2.6797
401211.0,-26.7768,-2.7773,56.1584,1.1887,-17.4363,2.5313
401221.0,-24.8805,-2.4325,52.0691,1.1254,-17.4363,2.3972
401231.0,-25.6658,-2.2505,49.9047,0.9541,-17.4363,2.3131
401241.0,-24.0186,-3.8307,47.1083,1.4862,-17.4363,2.3679
401251.0,-21.1456,-4.4915,41.142,1.9209,-17.4363,2.2024
401261.0,-19.326,-3.9648,36.8037,1.9108,-17.4363,2.0273
401271.0,-17.4585,-3.7062,33.6912,1.7145,-17.4363,1.8512
401281.0,-15.6868,-2.9305,29.7456,1.2137,-17.4363,1.6485
401291.0,-14.7674,-2.1548,26.4511,0.5965,-17.4363,1.483
401301.0,-11.9614,-3.1891,24.507,0.1389,-17.4363,1.2989
401311.0,-9.9407,-5.0278,22.9939,0.0404,-17.4363,0.9291
401321.0,-8.0924,-4.1755,19.7282,-0.0596,-17.4363,0.5624
401331.0,-5.9376,-3.2082,17.516,0.0208,-17.4363,0.2959
401341.0,-5.4492,-3.0646,16.2135,0.3336,-17.4363,0.0952
401351.0,-2.0782,-1.6951,10.8793,0.5507,-17.4363,-0.0974
401361.0,0.6512,-0.4022,6.541,0.2826,-17.4363,-0.2134
401371.0,2.5283,-1.3024,3.5626,-0.0138,-17.4299,-0.3725
401381.0,5.4013,-0.7949,-0.2203,-0.3437,-16.4221,-0.6231
401391.0,7.9104,0.0,-2.6432,-0.9887,-15.4174,-0.8743
401401.0,10.6973,-0.1245,-2.375,-1.3383,-14.5001,-1.0419
401411.0,12.4403,0.0766,-2.7581,-1.2058,-13.4784,-1.1855
401421.0,13.963,0.4022,-3.62,-0.9881,-12.395,-1.3085
401431.0,15.1984,1.1492,-4.4915,-0.6678,-11.2372,-1.3787
401441.0,15.8592,2.4517,-4.9225,-0.4496,-10.1937,-1.4016
401451.0,16.836,3.869,-5.3343,-0.1894,-9.1177,-1.3383
401461.0,17.2766,5.2289,-5.9185,-0.0362,-8.1929,-1.1595
401471.0,17.9852,5.9759,-6.4069,-0.1235,-7.4262,-0.9062
401481.0,17.8033,6.5027,-7.288,-0.6226,-6.9079,-0.6353
401491.0,18.0331,6.4931,-8.0924,-1.3867,-6.6264,-0.4204
401501.0,18.4449,5.7461,-9.1075,-2.2013,-6.4668,-0.1878
401511.0,18.9717,3.6009,-10.1706,-2.7218,-6.0294,-0.0702
401521.0,20.6667,2.4229,-12.7659,-3.1916,-5.4472,-0.1325
401531.0,21.2318,0.8428,-13.0628,-3.0618,-4.4623,-0.3022
401541.0,22.4289,0.9577,-15.6102,-2.8069,-3.1315,-0.506
401551.0,22.5438,1.0918,-16.1944,-2.1668,-1.6927,-0.6949
401561.0,22.0362,2.2984,-17.6405,-1.2542,0.1128,-0.8354
401571.0,23.0418,3.3998,-18.4066,-0.6572,2.0061,-0.9365
401581.0,28.673,3.5338,-18.9908,0.2187,4.233,-1.0616
401591.0,19.2302,8.2456,-20.4752,0.6949,5.8096,-0.737
401601.0,18.8855,9.0788,-20.7434,-0.423,7.5166,-0.4619
401611.0,16.0316,11.3294,-21.3946,-1.144,9.4168,-0.0665
401621.0,12.5648,10.4387,-15.3516,-2.1545,10.2809,0.4305
401631.0,10.5345,9.8928,-14.1449,-2.6132,11.3979,0.9897
401641.0,7.1347,7.3263,-10.5824,-3.1001,11.9608,1.4606
401651.0,6.7325,4.5873,-10.6207,-3.3715,12.6292,1.7501
401661.0,5.7174,1.5993,-10.8409,-3.4061,13.5157,1.9459
401671.0,5.7365,-1.2163,-13.3309,-3.3092,15.0519,1.9709
401681.0,4.549,-3.6009,-14.2982,-3.0745,17.4357,1.8204
401691.0,1.0247,-4.8554,-12.2392,-2.7755,17.4357,1.5671
401701.0,-2.9497,-4.5873,-8.7724,-2.511,17.4357,1.2872
401711.0,-8.983,-2.9688,-3.7254,-2.4089,17.4357,1.0967
401721.0,-14.8632,-0.6991,0.929,-2.6552,17.4357,1.1063
401731.0,-19.5941,0.5746,3.1508,-3.3938,17.4357,1.4644
401741.0,-23.128,-3.0263,4.8459,-4.2319,17.4357,1.963
401751.0,-26.4894,-10.4579,5.5354,-4.5368,17.4357,2.0327
401761.0,-31.8716,-16.3189,9.1267,-4.0026,17.4357,1.5591
401771.0,-40.0789,-19.6229,19.4313,-2.13,17.4357,0.7524
401781.0,-48.0947,-16.7881,30.4255,0.2788,17.4357,-0.125
401791.0,-60.353,-9.6151,47.7595,2.9623,17.4357,-0.7263
401801.0,-64.8829,-2.0877,61.9332,4.4399,17.4357,-0.6039
401811.0,-64.9307,-2.6145,78.4508,5.6984,17.4357,-0.5736
401821.0,-64.3944,2.8252,78.4508,5.22,17.4357,-0.9897
401831.0,-63.9252,2.6911,78.4508,3.1347,17.4357,-1.0217
401841.0,-57.8535,2.4995,78.4508,2.6372,17.4357,-0.9833
401851.0,-55.9094,0.2394,78.4508,2.3003,17.4357,-0.9535
401861.0,-52.931,-4.0223,78.4508,1.7256,17.4357,-1.301
401871.0,-52.9597,-3.2561,78.4508,-0.571,17.4357,-2.2838
401881.0,-52.5001,2.3176,78.4508,-2.535,14.7193,-2.7622
401891.0,-49.9239,6.5601,78.4508,-3.2916,11.5729,-2.6276
401901.0,-76.8251,-0.9864,78.4508,0.1447,3.156,-1.5788
401911.0,-51.4658,11.7795,78.4508,-3.4156,5.6484,-1.2499
401921.0,-36.9569,13.0819,78.4508,-0.0596,4.3506,-0.3155
401931.0,-38.5083,16.8552,78.4508,-0.4129,2.6148,0.7093
401941.0,-34.0743,14.1928,78.4508,-0.6146,1.5788,1.6458
401951.0,-33.0783,6.5218,78.4508,-1.4245,0.3209,2.1955
401961.0,-31.9195,-1.6664,78.4508,-0.9844,-0.779,2.403
401971.0,-28.74,-5.928,78.4508,-0.7205,-1.7836,2.2083
401981.0,-29.2859,-6.857,78.4508,-0.4752,-2.9245,1.8507
401991.0,-29.8126,-6.359,78.4508,-0.3528,-3.8834,1.5027
402001.0,-29.7456,-4.5681,78.4508,-0.1272,-4.7805,1.1691
402011.0,-31.7758,-1.2163,78.4508,0.4821,-6.0836,1.1142
402021.0,-32.9729,2.4612,78.4508,1.2638,-7.6842,1.3303
402031.0,-33.8636,5.6407,78.4508,1.3638,-9.3045,1.6527
402041.0,-34.9075,6.3398,78.4508,1.1345,-10.7657,2.0348
402051.0,-34.8883,5.3247,75.4365,0.4044,-11.9725,2.2141
402061.0,-35.8364,3.9361,73.7797,-0.3406,-13.1884,2.3205
402071.0,-35.5108,0.8906,72.9657,-0.2496,-14.3841,2.3902
402081.0,-33.8253,-0.2203,68.9147,0.2128,-15.1971,2.3205
402091.0,-33.3943,-0.2969,65.649,0.3315,-15.9575,2.1955
402101.0,-32.6473,-0.4118,63.9348,0.6747,-16.7924,2.1428
402111.0,-32.1876,0.1628,60.037,1.0813,-17.4363,2.154
402121.0,-30.5692,0.1053,57.2023,1.7198,-17.4363,2.2349
402131.0,-30.3968,1.9154,53.2375,2.0167,-17.4363,2.3227
402141.0,-30.3872,2.2122,50.5081,2.1322,-17.4363,2.5451
402151.0,-27.3705,0.9673,46.9647,2.2977,-17.4363,2.7063
402161.0,-26.3937,1.2833,43.3255,2.0529,-17.4363,2.7159
402171.0,-26.2883,0.1628,40.0598,1.5064,-17.4363,2.8191
402181.0,-22.3235,-2.6719,35.8173,1.3372,-17.4363,2.7313
402191.0,-20.3124,-3.6009,30.5883,0.6763,-17.4363,2.3519
402201.0,-18.4258,-4.7501,28.6155,0.0229,-17.4363,2.0332
402211.0,-14.6334,-6.3973,26.4128,0.0367,-17.4363,1.6251
402221.0,-13.3596,-6.11,25.503,0.1229,-17.4363,1.1526
402231.0,-11.5592,-5.8706,24.9859,0.5236,-17.4363,0.8673
402241.0,-8.7724,-5.7557,22.0267,1.0781,-17.4363,0.5747
402251.0,-7.9296,-4.3096,20.5039,1.1398,-17.4363,0.1974
402261.0,-6.3111,-2.0973,17.5256,1.3585,-17.4363,0.0133
402271.0,-4.0701,-0.7278,13.216,1.5671,-17.4363,0.0122
402281.0,-1.6089,-0.1437,8.169,1.4048,-17.4363,-0.0154
402291.0,0.498,-0.1724,4.1084,0.8359,-17.4187,-0.1176
402301.0,3.3615,-0.9481,0.9098,0.0905,-16.6434,-0.34
402311.0,6.3494,-1.2641,-1.494,-0.6566,-15.6861,-0.6955
402321.0,8.7819,-1.0726,-1.8387,-1.1701,-14.7007,-1.069
402331.0,9.9982,-0.4693,-2.9975,-1.4314,-13.7977,-1.3803
402341.0,11.8848,0.3448,-4.8937,-1.6027,-12.8064,-1.6102
402351.0,13.1011,1.9824,-6.8761,-1.8427,-11.7182,-1.7464
402361.0,14.1066,2.6049,-7.9679,-2.1689,-10.7418,-1.798
402371.0,15.8879,2.0686,-9.0022,-2.3221,-9.6429,-1.8209
402381.0,16.6636,2.9401,-10.6494,-2.3131,-8.3723,-1.8879
402391.0,17.2191,3.486,-10.975,-2.3525,-7.0649,-1.9119
402401.0,17.0276,3.4285,-10.1706,-2.2019,-5.8218,-1.9183
402411.0,18.828,4.3096,-11.224,-2.104,-5.0689,-1.9028
402421.0,18.2725,4.8842,-12.0476,-1.6783,-3.9211,-1.8071
402431.0,18.5886,5.4109,-13.6469,-1.6293,-2.8723,-1.74
402441.0,18.8759,5.6503,-15.2846,-1.5474,-1.7373,-1.7049
402451.0,18.4449,6.5218,-16.8456,-1.6852,-0.5156,-1.6565
402461.0,18.1002,7.0198,-17.6022,-1.9736,0.7524,-1.5474
402471.0,17.8416,7.3167,-18.0331,-2.0385,2.1668,-1.3963
402481.0,12.9574,8.4276,-17.3628,-1.9619,3.8748,-1.2733
402491.0,15.8783,9.5289,-19.8719,-1.6857,5.1051,-0.8971
402501.0,15.5144,8.3222,-19.6037,-1.8422,7.1096,-0.5832
402511.0,14.0204,9.1267,-21.4042,-1.8283,9.2162,-0.2224
402521.0,13.398,7.1347,-19.6899,-2.0391,11.1201,0.0665
402531.0,10.5345,7.9104,-20.4082,-2.2519,13.5582,0.274
402541.0,6.7804,7.604,-17.1521,-2.8702,15.2541,0.4608
402551.0,3.984,7.9296,-15.1601,-3.2438,17.1452,0.7412
402561.0,0.2298,7.3263,-10.4196,-3.2911,17.4357,1.1456
402571.0,-3.2944,6.2153,-7.4316,-3.0149,17.4357,1.5192
402581.0,-6.426,5.5737,-5.4013,-2.7372,17.4357,1.8209
402591.0,-10.1897,5.8035,-3.7924,-2.9059,17.4357,2.0353
402601.0,-14.6717,5.5641,-1.3216,-3.2565,17.4357,2.4722
402611.0,-16.6253,2.7773,1.2929,-2.643,17.4357,3.1341
402621.0,-19.4984,-1.9441,3.6775,-1.5415,17.4357,3.621
402631.0,-23.6643,-7.5082,4.9895,-0.191,17.4357,3.5928
402641.0,-29.0752,-11.4156,8.3127,0.3704,17.4357,2.8803
402651.0,-34.4478,-12.1913,13.6278,0.3017,17.4357,1.7714
402661.0,-42.1667,-6.5505,19.0004,-0.9349,17.4357,0.7615
402671.0,-48.4108,-2.0016,31.0767,-1.8677,17.4357,0.6183
402681.0,-54.0228,-2.0686,40.2609,-1.6336,17.4357,1.0201
402691.0,-54.99,-4.6064,48.0085,0.4576,17.4357,1.3228
402701.0,-60.717,-5.1715,58.1599,2.8766,17.4357,1.3308
402711.0,-64.7488,-9.0501,72.5635,6.3007,17.4357,1.2819
402721.0,-65.7448,-10.1993,78.4508,8.1967,17.4357,0.3464
402731.0,-66.1853,-7.1347,78.4508,8.6181,17.4357,-1.0115
402741.0,-67.7655,1.6185,78.4508,7.175,17.4357,-2.3551
402751.0,-66.3385,12.6414,78.4508,4.0744,17.4357,-3.2991
402761.0,-66.3385,18.014,78.4508,0.5672,17.4357,-3.496
402771.0,-63.8965,19.5941,78.4508,-1.4814,16.5562,-3.2991
402781.0,-72.6975,36.8037,78.4508,-1.8486,13.0458,-2.7281
402791.0,-53.7067,15.5719,78.4508,-4.0212,5.4244,-1.939
402801.0,-57.547,23.8654,78.4508,-1.8129,2.651,-1.1382
402811.0,-49.2439,19.7474,78.4508,-0.1245,0.2001,0.124
402821.0,-47.2615,19.891,78.4508,-2.5217,-2.8394,0.8296
402831.0,-39.2362,6.8953,78.4508,-0.8876,-4.3889,1.4559
402841.0,-31.7663,3.3998,78.4508,-0.8727,-2.4573,1.4218
402851.0,-34.2945,0.3543,78.4508,0.4411,-3.2044,1.2994
402861.0,-34.4669,0.2873,78.4508,0.0341,-3.811,1.0243
402871.0,-31.3545,4.0893,78.4508,0.0713,-4.5347,0.8152
402881.0,-32.9921,7.2401,78.4508,-0.3283,-6.0214,0.8764
402891.0,-32.2738,9.098,78.4508,-0.4784,-7.1681,0.9897
402901.0,-35.8651,10.2951,78.4508,-1.1212,-8.8038,1.1973
402911.0,-35.8268,8.6479,78.4508,-0.8168,-10.3581,1.4452
402921.0,-37.6656,9.6247,78.4508,-1.7491,-12.6419,1.4734
402931.0,-38.7861,9.6055,78.4508,-2.9915,-15.3174,1.6299
402941.0,-35.7981,5.7365,73.0615,-3.0735,-16.5359,1.6762
402951.0,-35.348,5.1236,65.831,-3.297,-17.4363,1.5431
402961.0,-36.4398,3.7924,62.1726,-3.008,-17.4363,1.5868
402971.0,-33.8253,2.8635,57.7098,-2.2865,-17.4363,1.5399
402981.0,-34.3233,4.1372,56.1105,-2.253,-17.4363,1.4825
402991.0,-34.352,4.2329,54.3196,-2.1146,-17.4363,1.5346
403001.0,-32.791,3.9552,54.5878,-2.237,-17.4363,1.516
403011.0,-31.6705,4.1372,50.9678,-1.7634,-17.4363,1.6517
403021.0,-30.0712,1.6855,45.7197,-1.3047,-17.4363,1.822
403031.0,-25.934,-1.8387,40.5003,-0.4103,-17.4363,1.814
403041.0,-24.0091,-2.9113,35.2235,-0.5013,-17.4363,1.6182
403051.0,-19.8719,-5.4396,33.3177,-0.2841,-17.4363,1.3782
403061.0,-18.2342,-5.2002,31.9865,-0.8615,-17.4363,0.8152
403071.0,-17.2478,-2.7007,31.1629,-1.5825,-17.4363,0.4145
403081.0,-15.5815,-1.9824,29.9371,-1.9614,-17.4363,0.2043
403091.0,-11.8178,-1.6185,26.8534,-1.7517,-17.4363,0.0399
403101.0,-10.6686,-0.68,24.8901,-1.6937,-17.4363,-0.0186
403111.0,-6.7516,-1.743,24.2676,-0.9881,-17.4363,0.0245
403121.0,-4.2808,-2.5091,21.2414,-0.2655,-17.4363,-0.0266
403131.0,-1.9154,-2.1069,19.4792,0.1532,-16.5711,-0.0798
403141.0,1.3408,-3.62,19.6229,0.837,-15.3456,-0.0644
403151.0,2.4038,-4.0701,19.1823,0.8705,-14.8433,-0.315
403161.0,3.3902,-3.3615,19.7474,0.8551,-14.508,-0.5715
403171.0,5.0374,-1.063,16.9031,0.3459,-14.3484,-0.712
403181.0,6.3111,-0.3352,15.9358,-0.0607,-13.9509,-0.8125
403191.0,6.8091,0.3352,16.3859,-0.4039,-13.6966,-0.9312
403201.0,8.0254,1.5802,14.4035,-0.2841,-13.4433,-0.9057
403211.0,9.1842,1.5897,12.4115,-0.2703,-12.9809,-0.8338
403221.0,11.1091,1.4748,10.4579,-0.3012,-12.4142,-0.8493
403231.0,11.2911,1.7813,8.8107,-0.5279,-11.9486,-0.936
403241.0,12.2487,2.6719,7.6231,-0.8242,-11.583,-0.9977
403251.0,13.8959,2.7773,5.4588,-1.1855,-11.2143,-0.9892
403261.0,14.9111,2.3367,3.5051,-1.3601,-10.7066,-1.0296
403271.0,15.706,2.3942,0.4788,-1.7735,-10.1974,-1.1371
403281.0,16.8552,1.8962,-1.4748,-2.2178,-9.6584,-1.2797
403291.0,17.583,1.5706,-3.486,-2.461,-8.956,-1.4378
403301.0,18.6269,1.6568,-5.5354,-2.7351,-8.2126,-1.6182
403311.0,19.6803,1.8196,-7.4124,-2.809,-7.1984,-1.7655
403321.0,20.3028,2.0782,-8.8969,-2.8527,-6.0411,-1.9113
403331.0,21.5191,2.4804,-9.8545,-2.3589,-4.6006,-2.0194
403341.0,21.8734,4.0414,-11.0995,-1.8576,-3.1166,-2.0518
403351.0,21.6723,4.8267,-11.3006,-1.1994,-1.5639,-1.9385
403361.0,21.4808,5.9759,-12.1051,-0.6103,-0.058,-1.815
403371.0,21.3563,7.0102,-12.718,-0.2895,1.3415,-1.6389
403381.0,20.1688,7.7189,-14.4035,0.0803,2.8622,-1.4005
403391.0,19.4218,7.853,-15.3133,-0.0575,4.2255,-1.2265
403401.0,19.01,7.7093,-16.6349,-0.2315,5.7734,-1.0898
403411.0,18.4737,7.9966,-17.3723,-0.6896,7.3793,-1.0275
403421.0,16.8743,8.3031,-17.0946,-0.9887,9.1449,-0.8759
403431.0,15.5719,8.4755,-16.3476,-0.9993,11.0738,-0.638
403441.0,13.7331,7.8913,-13.9438,-0.5779,13.1097,-0.3682
403451.0,11.1091,8.4851,-12.7467,-0.2677,15.012,-0.108
403461.0,9.1842,8.2456,-10.9271,0.0628,16.9095,0.2112
403471.0,6.3015,8.2361,-8.2935,0.464,17.4357,0.5608
403481.0,3.4955,7.6614,-6.1004,0.5204,17.4357,0.9142
403491.0,0.2107,6.4356,-4.5681,0.1687,17.4357,1.1515
403501.0,-4.7405,4.118,-0.4118,-0.3746,17.4357,1.2792
403511.0,-7.9966,3.1603,2.4995,-0.8125,17.4357,1.2462
403521.0,-11.3772,2.8922,5.5258,-1.9353,17.4357,1.1009
403531.0,-15.4857,2.6049,10.2663,-2.9639,17.4357,1.0648
403541.0,-18.397,1.6472,13.0723,-3.8333,17.4357,1.3282
403551.0,-19.1345,-2.1069,12.6318,-3.9962,17.4357,1.6644
403561.0,-22.6108,-6.6655,13.7236,-3.6934,17.4357,1.6602
403571.0,-26.6523,-9.7205,18.9525,-2.4483,17.4357,1.4553
403581.0,-30.8565,-10.6686,25.2636,-1.1052,17.4357,1.003
403591.0,-35.8173,-8.734,31.7471,0.0569,17.4357,0.4555
403601.0,-42.8562,-3.3232,36.1716,-0.0319,17.4357,0.0325
403611.0,-46.572,-0.7374,42.5114,-0.9136,17.4357,0.2623
403621.0,-50.2878,-4.8363,47.319,-0.6651,17.4357,0.4821
403631.0,-51.6094,-8.9735,55.4497,0.0809,17.4357,0.2591
403641.0,-54.7985,-8.9352,67.9379,1.9608,17.4357,-0.0995
403651.0,-59.3666,-4.1755,78.4508,3.8392,17.4357,-0.4422
403661.0,-60.3243,1.9058,78.4508,5.0114,17.4357,-0.5092
403671.0,-58.3419,5.2194,78.4508,5.6218,17.4357,-0.4635
403681.0,-55.3923,8.7245,78.4508,4.6986,17.4357,-0.6002
403691.0,-53.4099,9.0405,78.4508,3.4385,15.3898,-0.5422
403701.0,-28.4718,5.8993,78.4508,5.6585,5.999,-0.199
403711.0,-53.2566,9.979,78.4508,0.5161,9.18,-0.7827
403721.0,-40.1939,9.7875,78.4508,0.4661,6.2997,-0.8317
403731.0,-43.7181,11.7699,71.6058,-3.421,4.9529,-0.9668
403741.0,-47.9798,7.8913,78.4508,-4.8491,3.9903,-1.0217
403751.0,-38.0774,-0.5267,78.4508,-5.5489,2.4637,-1.351
403761.0,-39.0925,-0.2873,78.4508,-4.1888,1.8544,-1.6128
403771.0,-39.8204,3.9935,78.4508,-3.1118,-0.1756,-1.5335
403781.0,-37.5698,8.9639,78.4508,-2.096,-1.823,-1.0919
403791.0,-36.6792,10.659,78.4508,-1.1935,-3.0889,-0.4502
403801.0,-34.6106,11.8465,78.4508,-0.0516,-3.5923,0.2889
403811.0,-34.4286,10.0365,78.4508,1.2164,-3.9797,0.9972
403821.0,-35.3384,10.1323,78.4245,2.0071,-4.8114,1.5873
403831.0,-36.6409,8.8873,78.2808,1.8826,-6.1863,1.9997
403841.0,-38.1061,6.8283,73.1955,0.9152,-8.1599,2.2147
403851.0,-34.9458,3.5434,64.9786,-0.7013,-9.3269,2.0258
403861.0,-33.7391,2.0016,60.7074,-2.8356,-9.9489,1.5751
403871.0,-33.0687,-0.5938,61.5023,-4.2505,-10.4635,1.1031
403881.0,-32.0823,-1.7526,64.0114,-4.7683,-10.5688,0.6518
403891.0,-32.5324,-1.3886,70.4853,-4.0935,-10.7726,0.3847
403901.0,-34.4574,1.3216,76.3271,-2.808,-11.5868,0.4757
403911.0,-36.1716,1.5993,78.4508,-1.1472,-12.9804,0.8109
403921.0,-36.8707,1.5227,77.6583,0.2783,-14.4586,1.1377
403931.0,-37.6081,1.3599,74.2107,1.3079,-15.8415,1.3888
403941.0,-36.9665,-0.1341,69.8915,1.9188,-17.0228,1.5884
403951.0,-36.0758,-1.1205,63.2357,1.9337,-17.4363,1.5623
403961.0,-35.2905,-2.4995,60.1902,1.2409,-17.4363,1.3893
403971.0,-33.9977,-3.5817,56.6755,0.7646,-17.4363,1.0589
403981.0,-34.0072,-3.2848,54.5208,-0.3171,-17.4363,0.6832
403991.0,-32.6186,-3.4189,52.3564,-0.7843,-17.4363,0.3262
404001.0,-30.55,-1.6664,49.9239,-1.1898,-17.4363,0.0404
404011.0,-30.5309,-0.7853,47.7691,-0.6029,-17.4363,0.0245
404021.0,-28.74,0.0192,42.3965,0.0149,-17.4363,0.1203
404031.0,-25.7233,0.6321,35.3097,0.6577,-17.4363,0.2772
404041.0,-22.1224,0.2586,29.9179,1.1579,-17.4363,0.4853
404051.0,-18.3492,-0.4788,24.8231,1.6958,-17.4363,0.6109
404061.0,-15.9645,-1.1205,21.2031,1.566,-17.4363,0.6832
404071.0,-12.2583,-2.9688,17.4968,1.3707,-17.4363,0.5986
404081.0,-8.5617,-2.9592,13.7427,0.6183,-17.4363,0.2623
404091.0,-6.3686,-2.2984,11.722,-0.2927,-17.4363,-0.0708
404101.0,-3.9073,-1.245,10.1706,-0.9775,-17.4363,-0.3145
404111.0,-0.8332,-0.6129,6.7038,-1.3292,-17.4363,-0.5103
404121.0,3.2178,-0.6033,3.0742,-1.5655,-17.2149,-0.7279
404131.0,4.5298,0.3639,1.8579,-1.9204,-16.1225,-0.9349
404141.0,6.7038,0.9385,1.3982,-1.7799,-15.27,-1.0323
404151.0,8.7628,2.0399,-0.3831,-1.5208,-14.1973,-1.0461
404161.0,10.6973,2.0973,-1.7621,-1.2478,-13.0235,-1.0174
404171.0,11.3868,3.6392,-3.6488,-0.8764,-11.8406,-0.9062
404181.0,13.7714,3.2944,-4.3766,-0.8402,-10.7912,-0.7625
404191.0,15.591,3.4189,-5.9855,-0.7944,-9.5349,-0.6604
404201.0,16.5008,2.8252,-6.9911,-0.9871,-8.4771,-0.6465
404211.0,17.4968,2.7869,-6.857,-1.185,-7.3815,-0.6854
404221.0,18.8663,2.6145,-6.7708,-1.0664,-6.2715,-0.6768
404231.0,19.6325,2.5953,-7.0198,-0.8801,-5.1067,-0.6497
404241.0,19.6516,2.2218,-6.6176,-0.7215,-3.9355,-0.6428
404251.0,20.0059,2.0686,-6.8378,-0.5699,-2.949,-0.6667
404261.0,19.8336,2.1644,-7.1539,-0.4688,-1.8853,-0.7785
404271.0,19.1153,2.8826,-6.6272,-0.555,-1.0695,-0.9083
404281.0,19.6803,3.9552,-6.1292,-0.5156,-0.3719,-1.0142
404291.0,19.259,5.1715,-6.7708,-0.6593,0.3996,-1.0158
404301.0,18.9046,6.9049,-7.9487,-0.8099,1.0892,-0.9488
404311.0,18.5215,8.5521,-8.5617,-1.1627,1.8071,-0.7748
404321.0,18.5024,9.8067,-9.5864,-1.5383,2.7723,-0.4369
404331.0,17.765,10.1706,-9.8545,-1.9268,3.6854,0.0064
404341.0,17.9086,8.6,-9.7396,-2.0151,4.7363,0.4613
404351.0,16.9509,6.8474,-9.7205,-1.7687,6.0624,0.8258
404361.0,16.4146,4.4628,-9.7971,-1.3143,7.5475,1.0318
404371.0,15.4761,2.3463,-10.2663,-0.796,9.2886,1.0243
404381.0,14.4801,0.5076,-9.73,-0.2043,11.0264,0.7657
404391.0,12.7084,0.3639,-9.2991,0.3352,12.8292,0.3485
404401.0,10.3717,2.4804,-9.1554,0.6274,14.5527,-0.017
404411.0,7.7189,4.9416,-7.1443,0.6082,16.1901,-0.2198
404421.0,5.2289,8.5234,-6.8283,0.3868,17.4357,-0.1634
404431.0,1.494,11.4251,-4.5107,-0.3475,17.4357,0.1793
404441.0,-2.2601,12.7276,-0.4597,-1.1664,17.4357,0.82
404451.0,-6.2728,11.3677,4.0223,-1.7251,17.4357,1.649
404461.0,-8.3222,8.1307,6.8857,-2.08,17.4357,2.4137
404471.0,-10.5058,4.5969,8.7532,-2.6403,17.4357,2.9287
404481.0,-14.2311,-1.3886,13.1585,-2.5744,17.4357,3.3534
404491.0,-15.7826,-8.2265,14.6812,-2.0359,17.4357,3.3358
404501.0,-17.2861,-14.4706,18.7227,-1.0743,17.4357,2.7627
404511.0,-21.7202,-17.4777,24.7082,-0.3257,17.4357,1.8012
404521.0,-25.0338,-14.9111,29.6019,0.0686,17.4357,0.6838
404531.0,-30.5117,-9.2799,37.0527,-0.1011,17.4357,0.0846
404541.0,-32.2738,-6.9432,48.8704,-0.4624,17.4357,-0.0043
404551.0,-36.7462,-6.1004,59.606,-1.2281,17.4357,-0.0734
404561.0,-40.2705,-9.4427,73.3871,-1.1435,17.4357,0.0176
404571.0,-40.3279,-12.9766,78.4508,0.5486,17.4357,-0.1878
404581.0,-41.3622,-12.3637,78.4508,3.3262,17.4357,-0.4103
404591.0,-41.1037,-12.3253,78.4508,6.7993,17.4357,-0.6024
404601.0,-39.3894,-8.3127,78.4508,8.2536,17.4357,-1.3468
404611.0,-38.8914,-0.1532,78.4508,6.6833,15.9559,-2.1912
404621.0,-38.6424,6.3207,78.3,3.7376,14.2824,-2.6515
404631.0,-36.7749,8.6766,78.4508,0.1921,13.1113,-3.0107
404641.0,-38.2115,10.659,78.4508,-2.692,11.7852,-3.1038
404651.0,-39.8778,10.6494,78.4508,-4.0669,8.7964,-2.776
404661.0,-39.8299,11.7316,78.4508,-3.2799,5.5803,-2.0273
404671.0,-39.2841,11.3102,78.4508,-1.202,2.5446,-0.9722
404681.0,-35.4246,8.2552,78.4508,1.1595,1.0068,-0.0958
404691.0,-31.3832,5.4684,78.4508,2.4951,0.472,0.29
404701.0,-28.9603,4.5969,75.8962,2.4552,0.0271,0.3602
404711.0,-26.6427,3.1125,69.8245,1.8172,-0.2895,0.2192
404721.0,-24.3825,3.1125,66.5396,0.3794,-0.3656,-0.1447
404731.0,-24.0474,4.9033,69.269,-0.7646,-0.4651,-0.3682
404741.0,-25.2636,5.9568,73.8372,-0.7668,-1.0733,-0.2107
404751.0,-24.9955,6.4165,75.4557,-0.5119,-1.6586,0.0149
404761.0,-27.0066,6.5218,77.5147,-0.1916,-2.469,0.2975
404771.0,-27.811,6.1866,78.2425,0.2698,-3.2358,0.5577
404781.0,-28.309,6.6463,78.4508,0.7322,-3.736,0.8359
404791.0,-29.2188,7.1443,78.4508,1.6107,-4.2393,1.251
404801.0,-32.1206,6.7325,78.4508,2.1726,-5.4371,1.5761
404811.0,-33.2219,4.5681,78.4508,2.8771,-6.8531,1.8065
404821.0,-34.5052,5.2672,78.4508,3.1804,-8.6761,1.8752
404831.0,-37.838,7.5561,78.4508,2.3908,-11.5351,1.9486
404841.0,-39.2649,7.288,78.4508,1.6309,-14.4213,2.0226
404851.0,-41.3143,8.4851,78.4508,0.273,-17.1766,1.9534
404861.0,-43.5457,6.924,78.4508,-0.7678,-17.4363,2.0593
404871.0,-42.4157,3.7158,78.4508,-0.8939,-17.4363,1.9071
404881.0,-43.9192,4.3862,74.6033,-1.9087,-17.4363,1.6118
404891.0,-43.9958,3.2178,69.6808,-1.6432,-17.4363,1.5974
404901.0,-41.6208,2.4612,62.8047,-0.8312,-17.4363,1.5687
404911.0,-40.9887,2.9975,55.4018,-0.1474,-17.4363,1.674
404921.0,-37.8667,1.0151,49.3972,0.7742,-17.4363,1.8964
404931.0,-34.1413,-0.2298,40.711,1.1036,-17.4363,1.8486
404941.0,-31.4407,-0.9673,35.4725,1.0983,-17.4363,1.7815
404951.0,-28.6825,-0.929,29.0177,0.796,-17.4363,1.6666
404961.0,-24.5741,-1.0151,23.9037,0.3986,-17.4363,1.4708
404971.0,-21.2509,-0.7566,19.6708,-0.0521,-17.4363,1.2994
404981.0,-17.516,-1.8675,17.1329,-0.1341,-17.4363,1.0711
404991.0,-13.0819,-0.4214,11.9614,-0.5529,-17.4363,0.812
405001.0,-10.3717,0.8619,9.481,-0.7588,-17.4363,0.6912
405011.0,-8.4467,0.3639,10.4483,-1.044,-17.4363,0.663
405021.0,-4.8076,-0.7566,7.5082,-0.4071,-17.4363,0.5997
405031.0,-2.8539,-0.9098,4.4915,-0.2969,-17.4363,0.4757
405041.0,-0.6991,-1.0918,2.1356,-0.5507,-17.4363,0.2597
405051.0,1.5036,-1.1971,-0.1915,-0.7668,-17.4363,0.0053
405061.0,3.5817,-0.7757,-3.5338,-1.3558,-17.4363,-0.2783
405071.0,5.2768,-0.8428,-5.545,-2.0252,-17.4363,-0.6194
405081.0,7.4986,-0.4022,-8.0637,-2.8255,-17.4363,-1.0222
405091.0,9.0214,0.249,-9.3374,-3.2491,-16.3944,-1.384
405101.0,10.9271,2.3463,-12.1242,-3.5726,-15.7032,-1.6373
405111.0,12.7084,2.8826,-11.3485,-3.1937,-14.5065,-1.7044
405121.0,14.1641,4.549,-14.0779,-2.6329,-13.0788,-1.64
405131.0,16.6158,4.7405,-14.9877,-1.9422,-11.7001,-1.5378
405141.0,15.4187,6.426,-16.022,-1.2223,-10.1096,-1.3127
405151.0,16.5487,5.7078,-16.2806,-0.8764,-9.0065,-1.1355
405161.0,17.6788,6.1675,-18.1193,-0.3155,-7.3639,-0.9775
405171.0,17.085,6.6463,-20.1113,-0.5289,-6.379,-0.8429
405181.0,18.4832,6.8761,-21.6915,-0.9919,-5.2158,-0.7508
405191.0,18.6652,7.5848,-22.3331,-1.7033,-4.0068,-0.6524
405201.0,19.0195,7.1156,-21.8734,-2.2934,-2.9389,-0.5529
405211.0,19.4696,6.9911,-21.7298,-2.2296,-1.5947,-0.4177
405221.0,20.1783,7.0677,-22.879,-2.0853,-0.1862,-0.3038
405231.0,26.8534,5.43,-21.9405,-1.6245,1.5133,-0.2405
405241.0,17.4394,7.0868,-21.0881,-0.7529,3.157,-0.0968
405251.0,21.385,8.4563,-24.4783,-0.9461,4.8587,0.0575
405261.0,18.8855,8.0254,-24.0091,-0.3241,6.8233,0.2219
405271.0,17.8129,7.7572,-23.7696,-1.0259,8.4739,0.2687
405281.0,17.1712,8.2073,-24.9572,-1.1318,10.6428,0.3113
405291.0,13.6853,8.8969,-22.4289,-1.5059,12.4908,0.3751
405302.0,12.0572,9.8641,-20.9828,-1.5335,14.5001,0.6008
405311.0,8.7245,10.7931,-19.0004,-1.4218,16.5439,0.8817
405321.0,5.6503,11.0133,-15.955,-1.3234,17.4357,1.2446
405331.0,2.9497,11.8752,-14.3748,-1.2494,17.4357,1.6772
405341.0,0.5555,13.1106,-12.4115,-1.608,17.4357,2.2609
405351.0,-4.0127,12.2966,-7.5082,-1.6341,17.4357,3.1129
405361.0,-6.7708,9.8067,-5.7365,-1.5,17.4357,3.968
405371.0,-9.6247,5.5258,-4.1468,-1.3542,17.4357,4.623
405381.0,-12.785,1.0918,-1.561,-1.2813,17.4357,5.054
405391.0,-16.2901,-3.9935,1.3024,-1.2404,17.4357,5.1402
405401.0,-21.8543,-9.8162,6.359,-0.7535,17.4357,4.7784
405411.0,-26.8821,-13.3788,12.4307,-0.3837,17.4357,3.9743
405421.0,-32.4941,-14.4418,19.9868,0.3437,17.4357,2.9527
405431.0,-38.2976,-12.9,29.5732,0.6401,17.4357,2.0023
405441.0,-42.4157,-12.4115,41.391,1.6293,17.4357,1.5053
405451.0,-44.1203,-14.6429,52.5671,2.6116,17.4357,1.0344
405461.0,-46.0261,-16.204,63.2261,3.3544,17.4357,0.1437
405471.0,-46.639,-12.9383,71.9601,4.0377,17.4357,-0.8067
405481.0,-45.9878,-7.2209,77.2369,4.5724,17.4357,-1.5272
405491.0,-45.078,1.8196,76.8156,3.8818,17.4357,-2.0252
405501.0,-45.825,8.4467,76.059,2.7148,17.4357,-1.9481
405511.0,-44.1778,12.0955,74.8811,1.309,17.4357,-1.7288
405521.0,-45.8059,14.4035,78.4508,-1.0041,17.4357,-1.3713
405531.0,-47.07,11.5305,78.4508,-2.1875,17.4357,-0.6747
405541.0,-46.3996,5.8131,78.4508,-2.0518,16.6466,-0.1378
405551.0,-44.944,1.245,78.4508,-0.9764,14.4048,0.1469
405561.0,-42.272,-1.063,78.4508,0.274,12.2311,0.1421
405571.0,-40.6535,0.2203,78.4508,1.2249,9.8143,0.0266
405581.0,-38.4317,2.3367,78.4508,1.3021,7.5315,-0.0697
405591.0,-35.8077,3.62,78.4508,1.011,5.7032,-0.1889
405601.0,-33.4039,6.1483,78.4508,0.3501,4.3261,-0.3139
405611.0,-32.7239,8.4276,78.4508,-0.6327,2.8739,-0.2916
405621.0,-32.6473,8.6,78.4508,-1.6128,1.2483,-0.2246
405631.0,-25.503,8.9639,78.4508,-0.7497,-0.1181,0.1554
405641.0,-30.1574,7.6998,78.4508,-1.0307,-1.5234,0.3916
405651.0,-28.1367,7.7093,78.4508,-0.713,-2.9713,0.6811
405661.0,-27.7632,7.0773,78.4508,-1.2286,-4.3926,0.8604
405671.0,-27.3131,6.3015,78.4508,-1.1185,-5.4542,1.0786
405681.0,-26.8246,4.8076,78.4508,-0.8237,-6.0592,1.2632
405691.0,-27.1215,4.7309,78.4508,-0.8189,-6.6519,1.3351
405701.0,-27.5908,4.7597,78.4508,-0.6742,-7.398,1.4473
405711.0,-27.993,5.2385,78.4508,-0.8466,-8.2355,1.5687
405721.0,-27.7536,5.5737,78.4508,-1.2414,-9.2572,1.6394
405731.0,-28.7113,5.0757,78.4149,-1.9167,-10.331,1.765
405741.0,-29.4774,1.9537,78.4508,-1.9646,-11.6724,1.8539
405751.0,-30.2436,-1.3024,78.4508,-1.5979,-12.9506,1.8528
405761.0,-30.5692,-5.3151,78.3766,-0.3469,-14.0462,1.7565
405771.0,-30.2148,-6.7612,74.7278,0.9232,-14.9694,1.4841
405781.0,-30.9331,-4.8459,70.447,1.5442,-15.9368,1.1595
405791.0,-31.0863,-3.0167,67.3441,1.6644,-17.0558,0.9328
405801.0,-30.7511,0.0287,62.4312,1.5463,-17.4363,0.7391
405811.0,-31.3449,2.873,58.6867,0.3246,-17.4363,0.621
405821.0,-30.4255,3.2944,53.0555,-0.5864,-17.4363,0.671
405831.0,-29.0369,2.9688,47.7212,-1.4048,-17.4363,0.6274
405841.0,-27.9355,2.7007,44.0342,-2.0066,-17.4363,0.5731
405851.0,-26.5948,1.3216,41.6878,-2.0635,-17.4363,0.5992
405861.0,-25.2062,-0.8523,37.9242,-1.7858,-17.4363,0.5768
405871.0,-22.8311,-3.1125,32.7623,-1.3404,-17.4363,0.4603
405881.0,-20.0059,-4.9416,27.0832,-1.1462,-17.4363,0.1687
405891.0,-17.4106,-5.047,21.2605,-1.2686,-17.4363,-0.2421
405901.0,-14.0013,-5.4396,16.8073,-1.4984,-17.4363,-0.6864
405911.0,-11.1666,-5.1619,13.9534,-1.8321,-17.4363,-1.1494
405921.0,-8.1786,-4.3766,12.3349,-1.5532,-17.4363,-1.5564
405931.0,-4.6735,-3.0167,10.0365,-1.4968,-17.4363,-1.9161
405941.0,-1.992,-1.2163,7.5944,-1.6304,-17.4363,-2.2397
405951.0,-0.4118,-0.0096,8.0828,-1.5256,-17.4363,-2.4631
405961.0,0.5746,2.241,7.3167,-1.3441,-17.3272,-2.5674
405971.0,3.2848,3.3423,7.6423,-0.8902,-16.6668,-2.502
405981.0,4.9416,4.3574,6.4739,-0.3342,-15.7878,-2.3716
405991.0,7.4124,5.2577,4.6352,0.0543,-15.0327,-2.1641
406001.0,8.849,5.2289,2.9401,0.1942,-14.4399,-1.9747
406011.0,10.6111,5.2481,0.0958,0.1197,-13.6929,-1.8044
406021.0,11.9806,3.869,-2.5762,-0.4092,-12.975,-1.7757
406031.0,14.4035,4.6639,-3.9361,-1.1244,-12.4073,-1.8816
406041.0,15.457,5.0182,-5.2385,-2.1412,-11.6543,-1.9321
406051.0,16.8169,6.2058,-6.9336,-2.7563,-10.7434,-1.9273
406061.0,17.4585,6.3782,-6.7038,-3.1698,-9.9611,-1.8768
406071.0,19.144,7.4316,-7.8434,-3.2587,-8.9714,-1.7554
406081.0,19.9389,7.9104,-8.1977,-3.0809,-7.8061,-1.5293
406091.0,20.9253,8.5521,-8.9926,-2.5398,-6.5711,-1.2201
406101.0,21.3371,8.5521,-10.5345,-1.8347,-5.2567,-0.912
406111.0,22.4002,8.3414,-12.3445,-1.2946,-3.8014,-0.6385
406121.0,23.1854,7.6327,-13.3309,-0.8689,-2.188,-0.4848
406131.0,23.4249,7.5561,-14.1066,-0.6518,-0.7045,-0.4214
406141.0,23.4344,8.169,-14.3844,-0.5156,0.7162,-0.307
406151.0,23.3004,8.9256,-14.9111,-0.5859,2.1061,-0.1219
406161.0,22.9365,9.8737,-15.6677,-0.895,3.4859,0.0937
406171.0,22.2852,9.8737,-14.0971,-1.1419,4.8002,0.4161
406181.0,21.7968,9.5385,-13.3213,-1.2909,6.1975,0.7944
406191.0,20.7529,8.2361,-11.7507,-1.1808,7.5922,1.1547
406201.0,19.3547,6.0717,-10.659,-0.9812,9.0119,1.4165
406211.0,17.8991,3.9744,-9.1267,-0.5486,10.4326,1.5389
406221.0,15.773,1.6472,-7.4029,0.0106,11.8411,1.4936
406231.0,14.0971,0.6608,-6.5218,0.4555,13.1842,1.267
406241.0,11.5305,1.1301,-6.9432,0.2905,14.3207,0.9046
406251.0,8.7149,3.2944,-7.5657,-0.8737,15.2589,0.572
406261.0,6.4069,5.5067,-5.3822,-1.9066,16.1454,0.5608
406271.0,4.0989,7.0006,-2.6719,-2.4094,17.0313,0.9264
406281.0,2.4038,6.5027,0.0,-2.1593,17.4357,1.5107
406291.0,0.2107,4.3862,1.2546,-1.4564,17.4357,2.0864
406301.0,-2.2984,1.9537,-0.249,-0.8365,17.4357,2.4424
406311.0,-5.7269,0.5076,-2.375,-0.7795,17.4357,2.5632
406321.0,-9.8641,-0.8236,-4.8076,-1.4404,17.4357,2.4339
406331.0,-14.9973,-0.8715,-6.7038,-3.182,17.4357,2.1433
406341.0,-20.7338,-1.0726,-3.1795,-5.3078,17.4357,1.9539
406351.0,-25.0529,-1.312,6.541,-6.0831,17.4357,2.1146
406361.0,-28.7687,-0.3448,16.4434,-4.6725,17.4357,2.792
406371.0,-36.5642,1.8962,20.6667,-3.256,17.4357,3.6934
406381.0,-43.0477,0.1724,23.2908,-2.7936,17.4357,4.5602
406391.0,-45.0397,-5.5737,25.1678,-2.4738,17.4357,5.0891
406401.0,-52.931,-12.9191,34.9745,-2.2998,17.4357,4.9939
406411.0,-56.915,-18.4066,53.1417,-0.2772,17.4357,4.6299
406421.0,-61.1383,-20.4369,72.7263,2.9468,17.4357,4.0898
406431.0,-64.4136,-21.7968,78.4508,5.3238,17.4357,3.1389
406441.0,-65.4383,-17.1521,78.4508,6.1193,17.4357,1.9853
406451.0,-62.776,-12.7946,78.4508,5.0157,17.4357,0.961
406461.0,-56.8,-8.6862,78.4508,4.2766,17.4357,0.1963
406471.0,-52.7299,-3.1987,78.4508,2.7021,13.6428,-0.3549
406481.0,-49.3589,0.6608,78.4508,0.3496,8.2552,-0.7013
406491.0,-45.7867,1.5227,78.4508,-1.6394,4.7044,-0.9168
406501.0,-43.8905,5.4779,78.4508,-4.0212,1.5277,-0.9796
406511.0,-42.1188,1.9824,78.4508,-3.8408,-0.68,-0.6518
406521.0,-41.5825,2.6432,78.4508,-3.2677,-3.562,-0.3704
406531.0,-34.8021,3.1603,78.4508,-1.5165,-4.1249,0.1224
406541.0,-33.0304,1.6568,78.4508,-0.4135,-6.0496,0.6258
406551.0,-28.309,-0.2682,78.4508,0.7609,-6.1236,0.9578
406561.0,-25.2157,-2.2122,70.696,0.7806,-6.0618,0.879
406571.0,-22.4959,-1.5036,66.2236,0.6604,-5.5499,0.7077
406581.0,-21.3275,-0.3735,66.7982,0.7886,-5.1338,0.6486
406591.0,-21.3659,1.8196,67.5548,0.977,-5.1759,0.7577
406601.0,-22.0267,2.4517,68.4359,0.9711,-5.4542,0.9828
406611.0,-22.8024,1.5419,71.4238,1.3329,-5.8229,1.2132
406621.0,-23.9516,1.2163,71.9122,1.7475,-6.3625,1.3989
406631.0,-25.0529,-0.0479,73.2721,1.7884,-7.0936,1.524
406641.0,-24.8901,-1.2546,73.818,1.8071,-7.9045,1.4851
406651.0,-25.4839,-0.9481,73.3679,1.2771,-8.8538,1.3601
406661.0,-25.12,-1.7813,75.2067,0.7758,-9.8153,1.1871
406671.0,-26.001,-1.5036,76.2505,0.3076,-11.1094,1.0685
406681.0,-27.5046,-3.3232,77.7445,0.3799,-12.5323,1.0131
406691.0,-27.4759,-4.8842,76.8443,0.712,-13.9488,0.8317
406701.0,-28.6825,-4.5107,74.2394,1.1866,-15.4637,0.6274
406711.0,-29.4295,-4.3287,69.384,1.5101,-16.6434,0.5002
406721.0,-28.0217,-5.4013,65.8789,2.3397,-17.2564,0.3602
406731.0,-27.5525,-3.3136,61.3778,2.7414,-17.4363,0.1485
406741.0,-27.7249,-1.1492,57.9109,2.8825,-17.4363,0.1495
406751.0,-26.9491,-0.6129,53.9749,2.7489,-17.4363,0.1979
406761.0,-25.4552,0.3448,48.1043,2.3583,-17.4363,0.1282
406771.0,-25.1008,1.5419,42.7987,1.3399,-17.4363,0.058
406781.0,-22.6875,1.063,37.6943,0.5167,-17.4363,-0.0117
406791.0,-20.3124,-0.1245,33.7966,0.1745,-17.4363,-0.1336
406801.0,-17.7362,-0.2298,29.487,0.0149,-17.4363,-0.2826
406811.0,-14.3365,-0.3735,25.8765,0.2001,-17.4363,-0.4459
406821.0,-10.9176,0.0287,22.7736,0.4262,-17.4363,-0.5444
406831.0,-8.9447,1.3024,18.7801,0.5066,-17.4363,-0.5731
406841.0,-5.8323,1.8579,15.0643,0.4448,-17.4363,-0.5577
406851.0,-3.9648,2.375,12.9,0.1681,-17.4363,-0.5156
406861.0,-2.1356,1.5802,11.0133,0.4651,-17.1234,-0.4789
406871.0,1.1971,1.5706,7.4986,0.5795,-16.0155,-0.5305
406881.0,3.5051,2.0111,5.047,0.5656,-15.021,-0.6753
406891.0,4.8459,2.375,4.8554,0.4518,-14.218,-0.837
406901.0,6.608,3.6392,3.0071,0.1932,-13.4002,-0.9386
406911.0,7.7859,4.5203,2.4804,-0.3209,-12.858,-1.0366
406921.0,9.3565,5.0182,1.7047,-0.8886,-12.2588,-1.0664
406931.0,10.8122,5.5929,0.3926,-1.4995,-11.8347,-1.0286
406941.0,11.0421,5.2672,1.2067,-1.9215,-11.4106,-1.0137
406951.0,11.7507,6.0621,-0.6129,-2.2971,-10.9956,-0.9796
406961.0,12.5552,5.9664,-1.1013,-2.743,-10.7082,-0.9131
406971.0,12.718,5.3151,-2.1069,-3.0815,-10.2176,-0.8317
406981.0,15.093,4.367,-2.308,-2.7345,-9.4136,-0.8322
406991.0,14.4035,5.6982,-4.2617,-3.1661,-8.9799,-0.7982
407001.0,14.6142,4.5298,-2.9113,-3.0059,-8.385,-0.7412
407011.0,16.7115,6.0908,-5.6407,-3.0756,-7.7859,-0.712
407021.0,16.204,5.6886,-5.6695,-2.9516,-7.2389,-0.5598
407031.0,16.6349,6.0047,-6.7038,-2.842,-6.5881,-0.3991
407041.0,17.7362,5.8227,-8.3318,-2.7356,-5.9421,-0.2863
407051.0,17.516,5.8035,-9.4332,-2.6265,-5.0854,-0.1362
407061.0,18.8663,5.6312,-10.9846,-2.51,-4.2361,0.0074
407071.0,19.9389,5.679,-13.3692,-2.3307,-2.9245,0.182
407081.0,20.9732,5.6982,-15.1984,-2.0971,-1.3234,0.3102
407091.0,21.3467,6.6272,-17.4202,-1.8166,0.5396,0.5044
407101.0,21.5095,6.5888,-16.4625,-1.176,2.8383,0.7524
407111.0,19.8144,6.857,-14.3556,-0.1133,5.1737,1.0382
407121.0,18.1002,7.422,-15.093,0.7082,6.9627,1.251
407131.0,18.3875,7.1826,-11.722,1.1659,8.8746,1.383
407141.0,14.7196,9.4906,-10.2855,1.3478,10.199,1.6581
407151.0,12.402,9.4044,-7.0677,1.2175,10.9599,2.162
407161.0,11.7316,8.8011,-8.0254,0.713,11.7698,2.7425
407171.0,11.3772,5.8706,-9.2512,-0.2857,12.7446,3.2177
407181.0,9.8162,1.9345,-9.0022,-1.4138,14.0419,3.4215
407191.0,8.7532,-1.7238,-8.7245,-2.4589,15.3514,3.3135
407201.0,7.7381,-4.5011,-7.5561,-2.9628,17.3336,2.9766
407211.0,5.6886,-4.7022,-5.0566,-2.9335,17.4357,2.6457
407221.0,2.8922,-4.2521,-1.7813,-2.4903,17.4357,2.5414
407231.0,-0.6704,-3.8116,1.3024,-1.9624,17.4357,2.5462
407241.0,-5.6407,-3.8307,7.1635,-1.027,17.4357,2.5946
407251.0,-11.722,-4.1851,12.0572,-0.199,17.4357,2.626
407261.0,-16.2231,-6.5122,13.2735,0.3927,17.4357,2.5323
407271.0,-23.7505,-7.5465,16.4721,0.0819,17.4357,2.1359
407281.0,-27.8015,-8.7053,20.1879,-0.8088,17.4357,1.6751
407291.0,-42.9232,-13.1298,30.6266,0.298,17.4357,0.994
407301.0,-44.3119,-8.4851,37.6177,0.6619,17.4357,0.2618
407311.0,-54.3005,-5.1811,49.9526,1.8384,17.4357,0.1756
407321.0,-60.6978,-5.6695,70.3895,4.0361,17.4357,0.0894
407331.0,-65.3042,2.4517,78.4508,6.2119,17.4357,-0.1751
407341.0,-65.4862,10.8409,78.4508,7.9567,17.4357,0.1304
407351.0,-68.1486,18.6843,78.4508,8.3254,17.4357,0.6625
407361.0,-61.8757,19.259,78.4508,8.3627,17.4357,1.3947
407371.0,-56.3308,17.3915,78.4508,7.8343,17.4357,1.864
407381.0,-50.3165,11.0995,78.4508,6.2486,16.7908,1.7363
407391.0,-46.3326,8.6,78.4508,3.795,11.6873,1.1877
407401.0,-41.889,5.2864,78.4508,1.5053,7.0063,0.5385
407411.0,-38.7478,5.43,78.4508,-1.3383,3.6013,-0.3129
407421.0,-37.9912,8.8585,78.4508,-3.4912,0.2772,-0.8306
407431.0,-36.3248,11.2144,78.4508,-5.0466,-2.3158,-0.8673
407441.0,-35.9705,12.2679,78.4508,-5.2647,-4.6166,-0.5747
407451.0,-34.3137,11.406,78.4508,-4.8891,-6.3018,-0.0654
407461.0,-31.9578,9.2608,78.4508,-3.9009,-7.2713,0.4587
407471.0,-29.9754,6.3686,78.4508,-2.3828,-7.9359,0.911
407481.0,-28.6825,5.0757,78.4508,-0.7987,-8.4994,1.2712
407491.0,-29.0273,3.2178,78.4508,0.2017,-9.4971,1.4936
407501.0,-28.1175,2.49,76.4708,0.7625,-10.3671,1.5453
407511.0,-28.0026,1.9824,72.1325,0.5513,-10.9056,1.4234
407521.0,-27.2747,1.9058,69.9681,0.1272,-11.6144,1.1808
407531.0,-27.744,3.9552,68.6753,-1.2707,-12.5653,0.8615
407541.0,-27.562,3.4093,68.5125,-2.2413,-13.7865,0.7146
407551.0,-26.4224,2.0207,65.9076,-2.8335,-14.715,0.4619
407561.0,-25.1391,2.557,65.1893,-3.0932,-15.2727,0.2293
407571.0,-26.8342,3.8978,64.1646,-2.9617,-16.0549,0.2022
407581.0,-25.1391,2.6336,63.341,-2.1636,-16.7381,0.3278
407591.0,-24.9188,2.9784,59.5869,-0.9828,-17.0766,0.4784
407601.0,-24.6507,1.6376,56.9245,-0.1336,-17.4363,0.7077
407611.0,-22.0458,0.182,49.5408,0.6939,-17.4363,0.7998
407621.0,-19.6708,-0.929,43.7277,0.8179,-17.4363,0.7588
407631.0,-16.9222,-2.557,39.1979,0.7253,-17.4363,0.6183
407641.0,-14.0875,-2.8156,34.8213,0.3666,-17.4363,0.3118
407651.0,-12.1338,-2.6049,31.613,-0.1969,-17.4363,-0.017
407661.0,-10.2089,-2.8635,29.2093,-0.5667,-17.1787,-0.3533
407671.0,-7.8243,-2.2122,26.5948,-0.6002,-16.6519,-0.6455
407681.0,-6.177,-0.9002,25.0817,-0.5805,-16.0453,-0.8173
407691.0,-5.1715,-1.0822,23.8079,-0.2756,-15.5888,-0.9131
407701.0,-1.8483,-1.0439,20.887,-0.0277,-14.9587,-1.0222
407711.0,-0.4693,-0.6033,19.259,0.0591,-14.2569,-1.1424
407721.0,0.4405,-1.2737,19.144,0.5364,-13.8062,-1.1792
407731.0,3.3232,-1.8483,16.0699,1.2084,-13.0602,-1.2201
407741.0,5.3822,-2.1165,12.8138,1.3984,-12.1439,-1.4324
407751.0,6.6846,-0.996,10.7069,1.0759,-11.3218,-1.7272
407761.0,7.4124,0.5746,9.8737,0.6838,-10.6891,-1.9364
407771.0,8.7149,2.2505,9.5002,0.2203,-9.9963,-2.0018
407781.0,9.7396,2.8443,8.5808,-0.165,-9.4381,-2.0609
407791.0,10.41,3.4955,8.4467,-0.5247,-8.9219,-2.0912
407801.0,11.2336,4.4053,7.2305,-0.8892,-8.4287,-2.072
407811.0,11.8752,5.1811,6.8761,-1.1345,-7.8359,-2.0359
407821.0,12.3349,6.1483,6.2441,-1.3186,-7.3426,-1.8704
407831.0,12.9383,6.2249,6.4165,-1.1669,-6.6972,-1.657
407841.0,14.0779,6.3973,5.6024,-1.0419,-6.0161,-1.4165
407851.0,14.6525,5.9472,5.3439,-0.8657,-5.3653,-1.2265
407861.0,15.0356,5.861,4.2713,-0.9732,-4.7667,-1.0977
407871.0,15.8209,5.4109,4.5298,-1.0419,-4.0935,-0.969
407881.0,15.5719,4.8363,4.7597,-1.2329,-3.5657,-0.9264
407891.0,15.4282,4.5969,5.679,-1.3133,-3.1389,-0.9402
407901.0,15.4857,4.4532,6.0908,-1.3031,-2.8117,-0.9653
407911.0,15.706,4.2904,5.6982,-1.1329,-2.4717,-0.9791
407921.0,16.0028,4.4915,4.3766,-1.0531,-2.0124,-1.0435
407931.0,15.8879,5.3917,3.486,-1.0004,-1.5469,-1.0653
407941.0,16.4434,6.6367,1.8675,-1.0882,-1.0238,-1.0094
407951.0,16.7115,7.7859,0.0096,-1.2882,-0.3448,-0.8934
407961.0,16.6828,8.6479,-1.5514,-1.6964,0.4725,-0.7625
407971.0,16.9318,9.347,-2.6432,-2.0359,1.4553,-0.5172
407981.0,17.0467,9.4715,-3.0167,-2.2301,2.6116,-0.2182
407991.0,16.4146,9.0884,-3.1029,-2.3392,3.8163,0.1256
408001.0,15.7826,8.4659,-3.1125,-2.4642,5.103,0.4326
408011.0,15.0164,7.2401,-2.4134,-2.4695,6.3997,0.7029
408021.0,14.0588,7.106,-2.7102,-2.7867,7.647,0.8977
408031.0,12.4594,6.2824,-0.3735,-2.8984,8.7697,1.0977
408041.0,10.7739,5.4492,1.7621,-2.8282,9.718,1.3223
408051.0,8.3989,4.616,3.0837,-2.2998,10.6002,1.5809
408061.0,7.4316,2.5666,2.3176,-1.815,11.6426,1.7943
408071.0,6.7804,0.498,1.1971,-1.3633,13.1927,1.7831
408081.0,5.0182,-0.316,0.2586,-1.3399,14.9433,1.6378
408091.0,2.8156,-1.0151,1.7238,-1.2483,16.7514,1.5298
408101.0,0.3256,-0.9385,3.3232,-1.2765,17.4357,1.4591
408111.0,-3.2561,-1.8675,8.4755,-1.1073,17.4357,1.4676
408121.0,-7.4029,-2.3559,13.398,-0.7098,17.4357,1.4505
408131.0,-11.157,-2.739,17.6213,-0.4528,17.4357,1.3186
408141.0,-15.2367,-3.4189,22.4959,-0.4523,17.4357,1.1153
408151.0,-18.9717,-3.0071,26.5756,-0.6071,17.4357,1.0142
408161.0,-21.0498,-3.3615,27.9834,-1.3686,17.4357,0.8711
408171.0,-24.5932,-3.7828,30.4447,-2.3158,17.4357,0.7082
408181.0,-28.0122,-4.4819,34.352,-2.9186,17.4357,0.7455
408191.0,-30.3393,-6.7516,38.7286,-2.8984,17.4357,0.8333
408201.0,-33.8827,-9.3948,44.5034,-2.3823,17.4357,0.8354
408211.0,-35.6736,-13.3405,54.3101,-0.5507,17.4357,0.5561
408221.0,-40.1843,-10.7548,64.2412,0.0564,17.4357,-0.0617
408231.0,-44.2736,-10.3525,78.4508,1.0876,17.4357,-0.299
408241.0,-43.9575,-8.8202,78.4508,2.6994,17.4357,-0.4991
408251.0,-42.3678,-6.3207,78.4508,4.2824,17.4357,-0.7742
408261.0,-42.138,-1.0918,78.4508,4.6347,17.4357,-1.0536
408271.0,-42.7509,4.5203,78.4508,4.3298,16.3082,-1.1504
408281.0,-41.8985,9.5002,78.4508,3.1182,13.8094,-1.1132
408291.0,-41.3335,12.9287,78.4508,1.1786,11.0259,-0.9355
408301.0,-39.5426,12.1625,78.4508,-0.7886,8.2547,-0.6018
408311.0,-37.225,9.0692,78.4508,-2.1088,5.6324,-0.3618
408321.0,-14.7674,4.8746,78.4508,-1.8964,1.773,-0.1112
408331.0,-38.2402,1.5036,78.4508,-3.8333,0.4299,-0.2017
408341.0,-30.3202,0.8811,78.4508,-3.0831,-0.5848,-0.3299
408351.0,-30.2148,1.8387,78.4508,-2.6212,-1.9619,-0.2134
408361.0,-27.3035,3.5817,78.4508,-2.3855,-2.1822,-0.0628
408371.0,-27.0928,3.4764,78.4508,-1.7874,-2.7728,0.1671
408381.0,-25.8286,5.6024,76.2888,-1.0908,-2.9974,0.5002
408391.0,-26.183,6.7133,77.1891,-0.8093,-3.5859,0.8854
408401.0,-26.6618,6.9145,76.6528,-0.8482,-4.4314,1.325
408411.0,-26.93,4.6064,76.5666,-0.6428,-5.2195,1.6357
408421.0,-26.681,2.5666,76.7485,-0.5922,-5.9134,1.7794
408431.0,-27.3035,1.2163,78.0606,-0.4895,-6.7009,1.8512
408441.0,-27.993,0.4118,78.2234,-0.812,-7.8077,1.7836
408451.0,-28.2037,0.6895,78.4508,-1.4697,-9.1832,1.6655
408461.0,-29.0848,0.3256,78.4508,-2.1577,-10.7689,1.5777
408471.0,-28.9411,-1.0918,78.4508,-2.3078,-12.237,1.4814
408481.0,-29.1901,-1.4365,77.0263,-2.2774,-13.4789,1.3925
408491.0,-30.2052,-2.1931,75.312,-1.9481,-14.8406,1.3388
408501.0,-29.9179,-2.7677,70.8013,-1.7054,-16.2092,1.2744
408511.0,-28.8166,-3.9265,66.5875,-1.0594,-16.9483,1.1882
408521.0,-28.309,-3.1987,62.1822,-0.4981,-17.4363,1.0983
408531.0,-27.9451,-3.1029,57.7577,-0.0559,-17.4363,1.1164
408541.0,-26.0585,-3.8403,52.5001,0.2788,-17.4363,1.0759
408551.0,-24.3059,-3.4477,48.0181,0.3767,-17.4363,0.8918
408561.0,-23.3004,-1.6185,43.2106,-0.0298,-17.4363,0.7928
408571.0,-21.816,-1.2737,39.5139,-0.3629,-17.4363,0.7881
408581.0,-18.6365,-2.739,36.0279,-0.2309,-17.4363,0.7897
408591.0,-16.9414,-4.4149,32.1015,-0.1554,-17.4363,0.705
408601.0,-13.3022,-6.0334,28.242,0.107,-17.4363,0.4997
408611.0,-10.6303,-6.3111,24.9572,0.0277,-17.4363,0.1841
408621.0,-8.7915,-6.5888,22.6204,-0.0745,-17.3187,-0.1096
408631.0,-5.1427,-7.0964,20.0826,-0.2517,-16.6008,-0.4832
408641.0,-2.6719,-6.6176,17.9852,-0.2517,-15.7255,-0.8461
408651.0,-0.9673,-5.8802,17.8033,-0.2682,-15.0567,-1.2026
408661.0,0.7183,-4.5107,17.0946,0.0346,-14.4293,-1.4367
408671.0,2.1835,-3.4093,15.6102,0.4975,-13.8669,-1.4867
408681.0,4.2808,-4.2042,14.3844,1.276,-13.1458,-1.557
408691.0,6.7421,-3.2274,10.8793,1.682,-12.2758,-1.6799
408701.0,8.2935,-1.5227,7.8051,1.815,-11.3798,-1.7437
408711.0,9.2895,-1.2833,7.9487,1.7283,-10.5827,-1.7671
408721.0,11.0995,-0.2394,5.5067,1.7187,-9.7701,-1.8081
408731.0,12.6701,0.7853,4.2042,1.532,-8.9422,-1.8406
408741.0,14.1449,1.9441,2.49,0.9126,-8.0195,-1.8917
408751.0,14.71,3.1125,1.4461,0.5039,-7.1314,-1.8949
408761.0,15.7347,4.1851,1.2546,-0.0676,-6.2348,-1.8347
408771.0,16.3093,5.0087,1.063,-0.464,-5.3722,-1.6958
408781.0,16.8456,4.8363,1.5323,-0.58,-4.4969,-1.5171
408791.0,17.9374,4.6926,0.814,-0.6284,-3.4891,-1.3361
408801.0,18.2438,4.5203,0.7278,-0.6114,-2.3636,-1.2159
408811.0,18.4354,4.0701,1.4844,-0.5257,-1.2813,-1.1621
408821.0,18.9717,3.8786,1.6376,-0.3794,-0.1506,-1.1329
408831.0,18.8663,4.3574,1.8962,-0.4257,0.8253,-1.1999
408841.0,18.1768,5.1619,3.1795,-0.538,1.6996,-1.2116
408851.0,17.8033,6.3015,4.2138,-0.6497,2.4307,-1.176
408861.0,17.018,7.4795,5.7269,-0.7178,3.0538,-1.0068
408871.0,16.7498,8.3893,6.3782,-0.7178,3.5263,-0.7168
408881.0,16.6158,8.8969,6.5122,-0.6795,4.1446,-0.4172
408891.0,16.2518,9.3565,6.2058,-0.7897,4.8225,-0.0543
408901.0,16.1848,9.2416,6.359,-1.0403,5.4504,0.3241
408911.0,15.9837,8.2552,6.9336,-1.2803,6.1885,0.663
408921.0,15.5144,6.9719,6.857,-1.6799,6.9781,0.9482
408931.0,14.959,4.7692,8.2648,-1.8289,7.8726,1.1542
408941.0,14.7866,2.8156,9.7779,-1.6277,8.8554,1.2467
408951.0,13.6948,1.1588,11.3294,-1.251,9.8569,1.2276
408961.0,12.1242,0.498,12.7276,-0.7705,10.8711,1.1265
408971.0,11.0995,0.6991,14.1737,-0.3847,11.8262,1.0456
408981.0,9.0214,0.6895,16.8264,-0.0325,12.627,1.0036
408991.0,6.1579,0.0958,18.6939,0.3155,13.2416,0.9551
409001.0,4.2521,-1.1013,19.6995,0.5603,13.6716,0.8003
409011.0,4.0797,-1.4653,19.8815,0.4725,14.1393,0.4741
409021.0,2.0973,-0.929,21.8543,0.3432,14.6672,0.1772
409031.0,0.2394,-0.1437,23.626,0.4017,15.1892,0.0601
409041.0,-1.0247,0.68,26.0872,0.9589,15.8069,0.0819
409051.0,-2.5091,1.6855,26.5565,1.2239,16.4338,0.1235
409061.0,-4.7597,2.7485,28.0505,0.887,16.827,0.1692
409071.0,-8.3893,1.9058,32.791,0.7162,16.8148,0.2916
409081.0,-9.8928,0.6895,33.356,0.9663,16.6482,0.3938
409091.0,-11.5784,-1.2737,33.4326,1.0488,16.7509,0.249
409101.0,-13.1585,-3.122,32.2834,1.268,17.126,-0.0325
409111.0,-14.4322,-3.0358,31.2779,1.1824,17.4357,-0.5635
409121.0,-16.7881,-1.1971,34.5052,0.5225,17.4357,-1.0642
409131.0,-19.7953,1.0056,38.9489,0.3874,17.4357,-1.2819
409141.0,-21.2892,3.055,44.6758,0.0947,17.4357,-1.3808
409151.0,-23.6547,6.3398,52.0595,-0.4858,17.4357,-1.358
409161.0,-26.4799,9.3087,60.8319,-0.9365,17.4357,-1.0302
409171.0,-29.1326,10.8505,66.4535,-1.035,16.2481,-0.5082
409181.0,-29.3338,10.4962,68.8094,-1.3074,14.5964,0.0772
409191.0,-28.8358,8.8011,68.5987,-1.3595,13.3576,0.5656
409201.0,-29.6211,5.6982,70.447,-0.8077,12.5807,1.0546
409211.0,-28.9698,1.2258,72.324,0.4119,12.353,1.326
409221.0,-29.4104,-0.3448,74.0287,1.1079,11.6932,1.1903
409231.0,-29.0848,0.1628,77.4668,1.3367,10.5731,0.9919
409241.0,-28.9698,1.5802,77.7062,1.2691,9.0656,0.7817
409251.0,-27.993,2.9497,77.6104,0.8514,7.5688,0.5646
409261.0,-28.0217,4.9704,76.4325,0.4587,6.1608,0.4826
409271.0,-27.1215,6.2249,74.9098,0.1905,4.8204,0.5268
409281.0,-26.8246,7.3454,72.324,-0.0835,3.8376,0.7109
409291.0,-26.6618,5.7078,70.8205,-0.216,2.875,0.8657
409301.0,-25.2062,4.7501,68.0145,-0.7455,2.121,0.8429
409311.0,-24.7752,4.6735,68.4837,-1.4069,1.2063,0.7407
409321.0,-25.1295,3.5338,69.9873,-1.4979,0.2038,0.7939
409331.0,-23.7218,1.0247,69.4606,-0.9232,-0.5624,0.7588
409341.0,-22.8694,0.4501,68.2922,-0.5875,-1.3553,0.5566
409351.0,-23.3004,2.6911,67.6027,-0.439,-2.1625,0.4055
409361.0,-23.5111,3.9456,66.9515,-0.1506,-3.0735,0.4544
409371.0,-22.6491,5.6312,64.1838,-0.124,-3.6732,0.4997
409381.0,-23.6356,7.5369,63.1495,-0.4374,-4.3883,0.6635
409391.0,-23.6356,7.5082,62.7281,-0.4523,-5.0971,0.9232
409401.0,-23.0897,7.2305,59.8263,-0.8163,-5.6553,1.0903
409411.0,-23.2046,5.6982,59.7114,-1.1637,-6.2278,1.2036
409421.0,-21.7106,4.0893,57.9493,-1.2462,-6.5732,1.2042
409431.0,-21.7968,3.4668,58.3228,-1.4532,-6.9808,1.1212
409441.0,-21.8447,2.2889,59.2325,-1.2196,-7.4038,1.077
409451.0,-20.6859,1.8004,58.9165,-0.8274,-7.7077,0.9509
409461.0,-21.9309,1.1205,59.9795,-0.4353,-8.028,0.8929
409471.0,-20.638,-1.5227,65.2085,1.0222,-8.1514,0.8056
409481.0,-21.8447,0.7183,66.0704,1.5527,-9.0954,0.5843
409491.0,-22.7928,4.3383,66.1183,1.3883,-10.8429,0.5598
409501.0,-22.9843,7.039,61.7034,0.754,-12.4876,0.6774
409511.0,-22.132,6.6272,56.4265,0.1011,-13.7546,0.8221
409521.0,-19.5941,6.1675,49.062,-0.6348,-14.1313,0.8349
409531.0,-19.1728,6.5697,45.4419,-1.6485,-14.2436,0.7955
409541.0,-17.516,5.4492,44.3406,-2.0492,-14.1632,0.7923
409551.0,-16.089,5.1811,43.9958,-2.3855,-14.2106,0.779
409561.0,-16.1082,4.6064,43.1435,-2.3631,-14.2133,0.8796
409571.0,-13.3213,1.1396,43.9097,-1.3862,-13.8248,0.9206
409581.0,-12.2104,0.0383,42.3391,-0.7396,-13.7072,0.7854
409591.0,-11.0038,0.2298,41.5921,-0.1224,-13.6764,0.68
409601.0,-9.5577,0.182,39.2266,0.3161,-13.538,0.6492
409611.0,-7.5848,-0.747,38.8435,0.687,-13.4465,0.5848
409621.0,-6.3494,-1.0726,36.8611,0.8892,-13.2358,0.5039
409631.0,-4.2138,-2.0877,36.9761,1.2223,-12.9388,0.3565
409641.0,-4.0414,-0.7853,35.7598,0.7801,-13.1155,0.1431
409651.0,-3.1795,0.7661,35.0607,0.1623,-13.5864,-0.016
409661.0,-3.2274,1.7717,33.3177,-0.754,-14.1867,-0.1394
409671.0,-2.624,1.9537,31.2012,-1.3053,-14.7768,-0.2038
409681.0,-1.0534,1.992,26.5661,-1.7634,-15.0082,-0.2826
409691.0,0.6129,1.4365,23.3291,-1.8837,-14.8278,-0.3427
409701.0,2.9305,0.9768,20.1304,-1.6421,-14.2404,-0.4156
409711.0,5.1619,0.1341,17.832,-0.9206,-13.4055,-0.489
409721.0,7.4316,0.3352,14.7674,-0.4475,-12.4371,-0.6268
409731.0,9.4427,0.4405,12.785,-0.0697,-11.2744,-0.688
409741.0,11.9231,0.2203,11.6933,0.257,-10.1921,-0.853
409751.0,13.0436,0.7949,10.726,0.2682,-9.1406,-1.0637
